#time,accel_x,accel_y,accel_z
4084.819395,-9474.636058,-2220.617826,2451.505594
4084.819725,-9326.594869,-1850.514855,2604.724693
4084.820055,-9474.636058,-1184.329507,2681.334243
4084.820385,-9696.697840,-444.123565,1532.190996
4084.820715,-10066.800811,222.061783,995.924147
4084.821045,-9918.759623,0.000000,229.828649
4084.821375,-10140.821405,74.020594,612.876398
4084.821706,-9770.718434,0.000000,1225.752797
4084.822036,-8882.471304,-518.144159,919.314598
4084.822366,-8660.409521,-370.102971,995.924147
4084.822696,-9844.739029,-148.041188,919.314598
4084.823026,-10807.006753,-296.082377,612.876398
4084.823356,-9622.677246,0.000000,1378.971896
4084.823686,-8956.491898,-518.144159,2451.505594
4084.824016,-10214.842000,296.082377,3600.648841
4084.824347,-10881.027347,222.061783,3064.381992
4084.824677,-10436.903782,74.020594,2068.457845
4084.825007,-9918.759623,0.000000,1608.800546
4084.825337,-10436.903782,296.082377,1838.629195
4084.825667,-10362.883188,666.185348,2298.286494
4084.825997,-9844.739029,444.123565,2221.676944
4084.826327,-10510.924376,370.102971,2528.115143
4084.826657,-10881.027347,74.020594,2681.334243
4084.826988,-10955.047942,-518.144159,1762.019645
4084.827318,-9770.718434,-1258.350101,842.705048
4084.827648,-8364.327145,-1554.432478,689.485948
4084.827978,-8364.327145,-2072.576638,2834.553343
4084.828308,-9252.574275,-1998.556043,4213.525239
4084.828638,-9474.636058,-2294.638420,4903.011187
4084.828968,-9252.574275,-2516.700203,4673.182538
4084.829299,-9918.759623,-2442.679609,4443.353888
4084.829629,-10362.883188,-2146.597232,3294.210641
4084.829959,-12509.480420,-2960.823768,3677.258390
4084.830289,-11843.295072,-3404.947333,3677.258390
4084.830619,-9992.780217,-3627.009116,2298.286494
4084.830949,-9474.636058,-3478.967927,995.924147
4084.831279,-8956.491898,-3552.988522,689.485948
4084.831609,-7994.224174,-3997.112087,1455.581446
4084.831940,-9178.553681,-4219.173869,3983.696590
4084.832270,-8142.265362,-5329.482782,4903.011187
4084.832600,-8512.368333,-5255.462188,4060.306139
4084.832930,-9030.512492,-5699.585753,2451.505594
4084.833260,-9770.718434,-4811.338623,2987.772442
4084.833590,-10658.965565,-4515.256246,3447.429741
4084.833920,-11325.150913,-3552.988522,3830.477490
4084.834251,-10658.965565,-3478.967927,2451.505594
4084.834581,-11103.089130,-2960.823768,1762.019645
4084.834911,-10584.944971,-3997.112087,842.705048
4084.835241,-10214.842000,-4885.359217,1532.190996
4084.835571,-9474.636058,-5255.462188,3217.601092
4084.835901,-9252.574275,-5699.585753,3677.258390
4084.836231,-9474.636058,-5847.626942,3524.039291
4084.836561,-9030.512492,-5403.503377,2298.286494
4084.836892,-9474.636058,-4959.379811,2528.115143
4084.837222,-11177.109724,-4071.132681,3753.867940
4084.837552,-11917.315666,-2960.823768,3600.648841
4084.837882,-11473.192101,-2664.741391,2757.943793
4084.838212,-9844.739029,-2886.803174,919.314598
4084.838542,-10066.800811,-3256.906145,1225.752797
4084.838872,-10955.047942,-4071.132681,2757.943793
4084.839203,-9918.759623,-4737.318029,3140.991542
4084.839533,-8808.450710,-4663.297435,3600.648841
4084.839863,-8364.327145,-4737.318029,3600.648841
4084.840193,-8512.368333,-4367.215058,3830.477490
4084.840523,-9178.553681,-3478.967927,3064.381992
4084.840853,-9918.759623,-2516.700203,2451.505594
4084.841183,-10955.047942,-962.267725,2528.115143
4084.841514,-10807.006753,-1110.308913,2221.676944
4084.841844,-10214.842000,-1036.288319,2681.334243
4084.842174,-10584.944971,-1332.370696,3294.210641
4084.842504,-10436.903782,-1480.411884,1915.238745
4084.842834,-9474.636058,-2294.638420,1225.752797
4084.843164,-8290.306550,-1924.535449,995.924147
4084.843494,-8216.285956,-1702.473667,2145.067394
4084.843824,-8364.327145,-1554.432478,2987.772442
4084.844154,-8956.491898,-1184.329507,3830.477490
4084.844484,-9400.615463,-740.205942,3600.648841
4084.844814,-9474.636058,-370.102971,2145.067394
4084.845144,-10066.800811,0.000000,1149.143247
4084.845474,-10658.965565,814.226536,1608.800546
4084.845804,-10955.047942,962.267725,1608.800546
4084.846134,-10214.842000,1332.370696,1532.190996
4084.846464,-11399.171507,1702.473667,1225.752797
4084.846794,-11473.192101,1702.473667,0.000000
4084.847124,-10362.883188,1036.288319,-766.095498
4084.847454,-8882.471304,592.164754,-766.095498
4084.847784,-8586.388927,518.144159,1072.533697
4084.848114,-9104.533087,0.000000,2528.115143
4084.848444,-9252.574275,0.000000,3830.477490
4084.848774,-9178.553681,518.144159,2681.334243
4084.849104,-9770.718434,444.123565,1225.752797
4084.849434,-11473.192101,814.226536,1072.533697
4084.849764,-12287.418637,1258.350101,2221.676944
4084.850094,-11325.150913,1036.288319,2681.334243
4084.850424,-10288.862594,518.144159,2374.896044
4084.850754,-9548.656652,0.000000,2298.286494
4084.851084,-9474.636058,-148.041188,1608.800546
4084.851414,-9326.594869,-592.164754,766.095498
4084.851744,-9252.574275,-888.247130,383.047749
4084.852074,-9030.512492,-888.247130,919.314598
4084.852404,-8956.491898,-1332.370696,1225.752797
4084.852733,-8068.244768,-2072.576638,919.314598
4084.853063,-9030.512492,-2072.576638,2298.286494
4084.853393,-9548.656652,-1702.473667,2451.505594
4084.853723,-10066.800811,-962.267725,1378.971896
4084.854053,-9696.697840,-1184.329507,1378.971896
4084.854383,-10214.842000,-1184.329507,2221.676944
4084.854713,-11769.274478,-1184.329507,3524.039291
4084.855043,-11399.171507,-2294.638420,2451.505594
4084.855373,-9326.594869,-2960.823768,459.657299
4084.855703,-7031.956449,-3108.864956,306.438199
4084.856033,-7698.141797,-2664.741391,842.705048
4084.856363,-9548.656652,-2146.597232,1762.019645
4084.856693,-10066.800811,-1850.514855,842.705048
4084.857023,-10436.903782,-1184.329507,-306.438199
4084.857353,-10584.944971,-1332.370696,-306.438199
4084.857683,-11621.233289,-1924.535449,919.314598
4084.858013,-11399.171507,-1998.556043,842.705048
4084.858343,-10066.800811,-2220.617826,1072.533697
4084.858673,-9030.512492,-2368.659014,766.095498
4084.859003,-9474.636058,-2886.803174,1762.019645
4084.859333,-9474.636058,-1850.514855,1685.410096
4084.859663,-10807.006753,-1850.514855,1072.533697
4084.859993,-10955.047942,-1036.288319,459.657299
4084.860323,-10140.821405,-2072.576638,76.609550
4084.860653,-10955.047942,-962.267725,153.219100
4084.860983,-9770.718434,-1480.411884,689.485948
4084.861313,-10510.924376,-1110.308913,842.705048
4084.861643,-9474.636058,-1184.329507,766.095498
4084.861973,-9622.677246,-740.205942,1455.581446
4084.862303,-9548.656652,0.000000,919.314598
4084.862633,-10362.883188,0.000000,1072.533697
4084.862963,-10140.821405,0.000000,76.609550
4084.863293,-9104.533087,-592.164754,76.609550
4084.863623,-9770.718434,-296.082377,76.609550
4084.863953,-10510.924376,-370.102971,536.266849
4084.864283,-9326.594869,-740.205942,383.047749
4084.864612,-8068.244768,-518.144159,1072.533697
4084.864942,-8216.285956,-148.041188,76.609550
4084.865272,-9252.574275,370.102971,306.438199
4084.865602,-9844.739029,518.144159,612.876398
4084.865932,-9474.636058,666.185348,842.705048
4084.866262,-8956.491898,592.164754,1072.533697
4084.866592,-9992.780217,1850.514855,689.485948
4084.866922,-10436.903782,888.247130,153.219100
4084.867252,-9918.759623,962.267725,-536.266849
4084.867582,-8956.491898,592.164754,-536.266849
4084.867912,-9178.553681,1110.308913,-1915.238745
4084.868242,-9548.656652,1258.350101,-1991.848295
4084.868572,-9104.533087,1184.329507,-1455.581446
4084.868902,-8438.347739,1332.370696,-919.314598
4084.869232,-9326.594869,1480.411884,153.219100
4084.869562,-10214.842000,2072.576638,0.000000
4084.869892,-10955.047942,1554.432478,-229.828649
4084.870222,-11399.171507,2294.638420,229.828649
4084.870552,-11029.068536,1184.329507,1225.752797
4084.870882,-11029.068536,1776.494261,-306.438199
4084.871212,-9844.739029,1480.411884,-1455.581446
4084.871542,-9474.636058,1036.288319,-1378.971896
4084.871872,-9474.636058,740.205942,-306.438199
4084.872202,-9622.677246,1480.411884,153.219100
4084.872532,-9252.574275,814.226536,-383.047749
4084.872862,-9030.512492,888.247130,-919.314598
4084.873192,-9326.594869,1332.370696,76.609550
4084.873522,-10510.924376,1110.308913,842.705048
4084.873852,-10510.924376,1258.350101,-229.828649
4084.874182,-10584.944971,592.164754,-459.657299
4084.874512,-10214.842000,1258.350101,-383.047749
4084.874842,-10288.862594,444.123565,383.047749
4084.875172,-9696.697840,962.267725,229.828649
4084.875502,-9400.615463,518.144159,-459.657299
4084.875832,-9474.636058,740.205942,-536.266849
4084.876162,-9326.594869,-444.123565,1532.190996
4084.876491,-9696.697840,74.020594,1072.533697
4084.876821,-8882.471304,0.000000,153.219100
4084.877151,-9252.574275,-296.082377,0.000000
4084.877481,-9696.697840,0.000000,612.876398
4084.877811,-9918.759623,0.000000,383.047749
4084.878141,-9918.759623,222.061783,76.609550
4084.878471,-10510.924376,0.000000,0.000000
4084.878801,-10955.047942,296.082377,689.485948
4084.879131,-10732.986159,-74.020594,766.095498
4084.879461,-9474.636058,0.000000,-229.828649
4084.879791,-8586.388927,-444.123565,-306.438199
4084.880121,-9400.615463,-592.164754,383.047749
4084.880451,-9992.780217,-444.123565,1225.752797
4084.880781,-9622.677246,-296.082377,1225.752797
4084.881111,-9474.636058,-666.185348,229.828649
4084.881441,-10288.862594,-296.082377,0.000000
4084.881771,-10288.862594,0.000000,766.095498
4084.882101,-10288.862594,-666.185348,0.000000
4084.882431,-9178.553681,-74.020594,0.000000
4084.882761,-9400.615463,-592.164754,459.657299
4084.883091,-10066.800811,-444.123565,1378.971896
4084.883421,-10140.821405,-666.185348,459.657299
4084.883751,-9400.615463,-592.164754,-76.609550
4084.884081,-9548.656652,-1258.350101,-459.657299
4084.884411,-10140.821405,-888.247130,689.485948
4084.884741,-9844.739029,-962.267725,2221.676944
4084.885071,-9400.615463,-518.144159,1149.143247
4084.885401,-8956.491898,-592.164754,383.047749
4084.885731,-9474.636058,-814.226536,-306.438199
4084.886061,-10066.800811,-666.185348,612.876398
4084.886391,-9844.739029,-296.082377,459.657299
4084.886721,-9474.636058,-592.164754,-76.609550
4084.887051,-9326.594869,-888.247130,306.438199
4084.887381,-9326.594869,-666.185348,1302.362347
4084.887711,-9844.739029,-962.267725,1225.752797
4084.888041,-9474.636058,-370.102971,0.000000
4084.888370,-9992.780217,-296.082377,0.000000
4084.888700,-10658.965565,0.000000,306.438199
4084.889030,-10436.903782,0.000000,1378.971896
4084.889360,-9844.739029,0.000000,842.705048
4084.889690,-9622.677246,-666.185348,229.828649
4084.890020,-8882.471304,-222.061783,-383.047749
4084.890350,-9104.533087,0.000000,-536.266849
4084.890680,-9326.594869,0.000000,-612.876398
4084.891010,-9548.656652,0.000000,0.000000
4084.891340,-10066.800811,222.061783,153.219100
4084.891670,-10658.965565,814.226536,842.705048
4084.892000,-10214.842000,518.144159,153.219100
4084.892330,-9474.636058,148.041188,-76.609550
4084.892660,-9696.697840,222.061783,-306.438199
4084.892990,-10436.903782,888.247130,995.924147
4084.893320,-10658.965565,518.144159,1225.752797
4084.893650,-9770.718434,444.123565,0.000000
4084.893980,-9030.512492,444.123565,-766.095498
4084.894310,-9474.636058,962.267725,-536.266849
4084.894640,-9696.697840,1332.370696,-1608.800546
4084.894970,-10214.842000,1776.494261,-842.705048
4084.895300,-9770.718434,814.226536,-1608.800546
4084.895630,-9770.718434,2072.576638,-306.438199
4084.895960,-11029.068536,1110.308913,0.000000
4084.896290,-10732.986159,888.247130,153.219100
4084.896620,-9400.615463,592.164754,-229.828649
4084.896950,-9326.594869,222.061783,76.609550
4084.897280,-9844.739029,592.164754,766.095498
4084.897610,-9844.739029,666.185348,1225.752797
4084.897940,-9178.553681,666.185348,459.657299
4084.898270,-9548.656652,296.082377,306.438199
4084.898600,-9992.780217,1036.288319,459.657299
4084.898930,-9474.636058,296.082377,612.876398
4084.899260,-9474.636058,592.164754,-459.657299
4084.899590,-9030.512492,222.061783,-536.266849
4084.899919,-9400.615463,222.061783,-383.047749
4084.900249,-9548.656652,148.041188,536.266849
4084.900579,-9474.636058,444.123565,229.828649
4084.900909,-9770.718434,296.082377,0.000000
4084.901239,-10658.965565,518.144159,-459.657299
4084.901569,-9770.718434,222.061783,0.000000
4084.901899,-9252.574275,-222.061783,383.047749
4084.902229,-8734.430116,148.041188,-153.219100
4084.902559,-9400.615463,-222.061783,-153.219100
4084.902889,-9992.780217,74.020594,-153.219100
4084.903219,-9844.739029,-370.102971,0.000000
4084.903549,-9770.718434,0.000000,0.000000
4084.903879,-10140.821405,-814.226536,-153.219100
4084.904209,-9696.697840,-592.164754,919.314598
4084.904539,-9622.677246,-962.267725,2298.286494
4084.904869,-9474.636058,-592.164754,1378.971896
4084.905199,-9844.739029,-666.185348,766.095498
4084.905529,-10288.862594,-888.247130,0.000000
4084.905859,-9918.759623,-740.205942,459.657299
4084.906189,-9844.739029,-148.041188,0.000000
4084.906519,-9918.759623,-370.102971,153.219100
4084.906849,-10510.924376,-666.185348,229.828649
4084.907179,-10288.862594,-296.082377,1149.143247
4084.907509,-10066.800811,-592.164754,919.314598
4084.907839,-9548.656652,-518.144159,0.000000
4084.908169,-9992.780217,-1184.329507,153.219100
4084.908499,-10140.821405,-592.164754,919.314598
4084.908829,-10362.883188,-518.144159,1302.362347
4084.909159,-9548.656652,-592.164754,612.876398
4084.909489,-9844.739029,-888.247130,0.000000
4084.909819,-10584.944971,-296.082377,842.705048
4084.910149,-10066.800811,-370.102971,1455.581446
4084.910479,-10066.800811,-148.041188,1149.143247
4084.910809,-9400.615463,-370.102971,612.876398
4084.911139,-9918.759623,-222.061783,383.047749
4084.911469,-10658.965565,0.000000,0.000000
4084.911798,-10436.903782,-370.102971,459.657299
4084.912128,-9696.697840,-444.123565,229.828649
4084.912458,-9548.656652,-518.144159,0.000000
4084.912788,-9030.512492,0.000000,1149.143247
4084.913118,-9548.656652,-370.102971,1378.971896
4084.913448,-9252.574275,0.000000,0.000000
4084.913778,-9844.739029,222.061783,-689.485948
4084.914108,-10214.842000,0.000000,-536.266849
4084.914438,-9622.677246,0.000000,229.828649
4084.914768,-9326.594869,370.102971,459.657299
4084.915098,-9326.594869,0.000000,612.876398
4084.915428,-9474.636058,0.000000,306.438199
4084.915758,-9400.615463,222.061783,1072.533697
4084.916088,-10066.800811,296.082377,306.438199
4084.916418,-10066.800811,962.267725,0.000000
4084.916748,-9992.780217,296.082377,-383.047749
4084.917078,-9474.636058,740.205942,0.000000
4084.917408,-9326.594869,296.082377,0.000000
4084.917738,-9178.553681,740.205942,-842.705048
4084.918068,-9548.656652,296.082377,-1072.533697
4084.918398,-9474.636058,740.205942,-306.438199
4084.918728,-9252.574275,740.205942,842.705048
4084.919058,-10140.821405,888.247130,842.705048
4084.919388,-10140.821405,740.205942,229.828649
4084.919718,-10214.842000,222.061783,-76.609550
4084.920048,-10140.821405,222.061783,0.000000
4084.920378,-9178.553681,444.123565,0.000000
4084.920708,-9326.594869,0.000000,0.000000
4084.921038,-9622.677246,370.102971,0.000000
4084.921368,-9474.636058,518.144159,1225.752797
4084.921698,-10436.903782,518.144159,1225.752797
4084.922028,-10362.883188,666.185348,76.609550
4084.922358,-10362.883188,0.000000,-383.047749
4084.922688,-9696.697840,74.020594,0.000000
4084.923018,-9992.780217,370.102971,995.924147
4084.923348,-9252.574275,666.185348,766.095498
4084.923677,-9844.739029,296.082377,-229.828649
4084.924007,-9696.697840,740.205942,-306.438199
4084.924337,-9992.780217,0.000000,383.047749
4084.924667,-10140.821405,148.041188,76.609550
4084.924997,-9992.780217,-148.041188,153.219100
4084.925327,-9474.636058,-296.082377,306.438199
4084.925657,-8882.471304,-296.082377,459.657299
4084.925987,-9770.718434,0.000000,459.657299
4084.926317,-10214.842000,74.020594,0.000000
4084.926647,-10288.862594,0.000000,306.438199
4084.926977,-10214.842000,370.102971,766.095498
4084.927307,-10362.883188,-296.082377,1762.019645
4084.927637,-9770.718434,0.000000,919.314598
4084.927967,-9548.656652,0.000000,383.047749
4084.928297,-9326.594869,0.000000,-766.095498
4084.928627,-9770.718434,0.000000,-612.876398
4084.928957,-9474.636058,296.082377,-306.438199
4084.929287,-10140.821405,-74.020594,0.000000
4084.929617,-10362.883188,444.123565,612.876398
4084.929947,-10362.883188,-148.041188,842.705048
4084.930277,-10066.800811,-592.164754,612.876398
4084.930607,-9992.780217,-148.041188,76.609550
4084.930937,-9918.759623,-444.123565,306.438199
4084.931267,-9844.739029,-222.061783,459.657299
4084.931597,-9622.677246,74.020594,1455.581446
4084.931927,-9622.677246,666.185348,459.657299
4084.932257,-10140.821405,-444.123565,-612.876398
4084.932587,-10140.821405,0.000000,-383.047749
4084.932917,-9548.656652,-444.123565,153.219100
4084.933247,-9474.636058,-74.020594,306.438199
4084.933577,-8956.491898,-518.144159,383.047749
4084.933907,-8882.471304,-666.185348,153.219100
4084.934237,-9326.594869,-518.144159,536.266849
4084.934567,-9622.677246,74.020594,229.828649
4084.934897,-10362.883188,-74.020594,153.219100
4084.935227,-9992.780217,-296.082377,306.438199
4084.935556,-9844.739029,0.000000,2145.067394
4084.935886,-9844.739029,-148.041188,1608.800546
4084.936216,-9696.697840,148.041188,0.000000
4084.936546,-9474.636058,-370.102971,-766.095498
4084.936876,-9474.636058,-222.061783,-153.219100
4084.937206,-9400.615463,0.000000,383.047749
4084.937536,-9178.553681,444.123565,0.000000
4084.937866,-9474.636058,-148.041188,-229.828649
4084.938196,-9622.677246,518.144159,0.000000
4084.938526,-10436.903782,-666.185348,459.657299
4084.938856,-9844.739029,0.000000,153.219100
4084.939186,-10066.800811,74.020594,229.828649
4084.939516,-9918.759623,74.020594,689.485948
4084.939846,-9030.512492,-518.144159,536.266849
4084.940176,-8882.471304,0.000000,153.219100
4084.940506,-9696.697840,148.041188,383.047749
4084.940836,-10881.027347,370.102971,459.657299
4084.941165,-10807.006753,592.164754,995.924147
4084.941495,-11029.068536,444.123565,1762.019645
4084.941825,-10436.903782,592.164754,459.657299
4084.942155,-9918.759623,296.082377,-153.219100
4084.942484,-9548.656652,222.061783,-995.924147
4084.942814,-9918.759623,444.123565,0.000000
4084.943144,-9326.594869,592.164754,-536.266849
4084.943474,-10140.821405,222.061783,-153.219100
4084.943803,-10584.944971,888.247130,229.828649
4084.944133,-10214.842000,148.041188,1302.362347
4084.944463,-10362.883188,222.061783,536.266849
4084.944793,-9992.780217,-444.123565,383.047749
4084.945122,-9400.615463,-740.205942,612.876398
4084.945452,-9474.636058,-370.102971,1072.533697
4084.945782,-9326.594869,222.061783,1149.143247
4084.946112,-9030.512492,148.041188,153.219100
4084.946441,-9696.697840,0.000000,0.000000
4084.946771,-10362.883188,444.123565,459.657299
4084.947101,-10436.903782,-370.102971,459.657299
4084.947431,-9178.553681,0.000000,-306.438199
4084.947760,-8438.347739,-444.123565,-612.876398
4084.948090,-8512.368333,0.000000,-383.047749
4084.948420,-9326.594869,0.000000,-306.438199
4084.948750,-9252.574275,444.123565,-383.047749
4084.949079,-10214.842000,518.144159,-1072.533697
4084.949409,-10658.965565,444.123565,-689.485948
4084.949739,-10881.027347,296.082377,229.828649
4084.950068,-10214.842000,0.000000,842.705048
4084.950398,-9178.553681,0.000000,306.438199
4084.950728,-8956.491898,0.000000,153.219100
4084.951058,-9548.656652,-296.082377,-459.657299
4084.951387,-9696.697840,222.061783,-306.438199
4084.951717,-9696.697840,1110.308913,-612.876398
4084.952047,-10584.944971,518.144159,-1072.533697
4084.952377,-10288.862594,1184.329507,-536.266849
4084.952706,-11029.068536,740.205942,536.266849
4084.953036,-9918.759623,518.144159,-306.438199
4084.953366,-9992.780217,222.061783,0.000000
4084.953696,-10140.821405,0.000000,153.219100
4084.954025,-9844.739029,-444.123565,1455.581446
4084.954355,-9326.594869,148.041188,766.095498
4084.954685,-9178.553681,-222.061783,459.657299
4084.955015,-10140.821405,-444.123565,76.609550
4084.955344,-10140.821405,0.000000,1225.752797
4084.955674,-9918.759623,-592.164754,995.924147
4084.956004,-9030.512492,-370.102971,536.266849
4084.956334,-8956.491898,-518.144159,76.609550
4084.956663,-9474.636058,-444.123565,153.219100
4084.956993,-9474.636058,-296.082377,229.828649
4084.957323,-9400.615463,148.041188,-306.438199
4084.957653,-9770.718434,-518.144159,0.000000
4084.957982,-10288.862594,0.000000,1685.410096
4084.958312,-10658.965565,-592.164754,1991.848295
4084.958642,-9992.780217,-296.082377,1149.143247
4084.958972,-9548.656652,-370.102971,0.000000
4084.959301,-9770.718434,-518.144159,-306.438199
4084.959631,-9400.615463,-370.102971,-306.438199
4084.959961,-9474.636058,0.000000,-536.266849
4084.960291,-9548.656652,0.000000,-766.095498
4084.960620,-10214.842000,0.000000,-689.485948
4084.960950,-9844.739029,74.020594,306.438199
4084.961280,-9844.739029,-888.247130,842.705048
4084.961610,-9474.636058,-148.041188,459.657299
4084.961939,-9548.656652,-518.144159,842.705048
4084.962269,-9696.697840,-296.082377,919.314598
4084.962599,-9696.697840,-740.205942,1378.971896
4084.962929,-9474.636058,0.000000,-306.438199
4084.963258,-10066.800811,-666.185348,-306.438199
4084.963588,-10214.842000,0.000000,-153.219100
4084.963918,-9696.697840,-296.082377,612.876398
4084.964248,-9030.512492,-148.041188,766.095498
4084.964577,-9252.574275,222.061783,383.047749
4084.964907,-9918.759623,296.082377,0.000000
4084.965237,-11029.068536,296.082377,229.828649
4084.965567,-10955.047942,592.164754,0.000000
4084.965896,-10584.944971,592.164754,-383.047749
4084.966226,-10288.862594,0.000000,-229.828649
4084.966556,-9474.636058,370.102971,229.828649
4084.966886,-9622.677246,-296.082377,383.047749
4084.967215,-9400.615463,888.247130,0.000000
4084.967545,-9474.636058,444.123565,-612.876398
4084.967875,-9622.677246,444.123565,-229.828649
4084.968205,-9918.759623,0.000000,383.047749
4084.968534,-9844.739029,444.123565,612.876398
4084.968864,-9770.718434,74.020594,306.438199
4084.969194,-9918.759623,74.020594,0.000000
4084.969524,-9844.739029,444.123565,919.314598
4084.969853,-9622.677246,222.061783,612.876398
4084.970183,-9770.718434,518.144159,612.876398
4084.970513,-9992.780217,444.123565,229.828649
4084.970843,-10066.800811,444.123565,766.095498
4084.971172,-9548.656652,148.041188,995.924147
4084.971502,-9548.656652,518.144159,0.000000
4084.971832,-9770.718434,148.041188,-459.657299
4084.972162,-9252.574275,296.082377,0.000000
4084.972491,-9474.636058,0.000000,1149.143247
4084.972821,-9400.615463,444.123565,153.219100
4084.973151,-9696.697840,370.102971,-153.219100
4084.973481,-9474.636058,0.000000,-229.828649
4084.973810,-9918.759623,0.000000,0.000000
4084.974140,-9474.636058,814.226536,536.266849
4084.974470,-9326.594869,-296.082377,-153.219100
4084.974800,-9400.615463,0.000000,-153.219100
4084.975129,-9696.697840,370.102971,766.095498
4084.975459,-10732.986159,222.061783,1072.533697
4084.975789,-10140.821405,518.144159,0.000000
4084.976119,-9992.780217,0.000000,-153.219100
4084.976448,-10140.821405,222.061783,-153.219100
4084.976778,-10881.027347,222.061783,842.705048
4084.977108,-9844.739029,296.082377,-76.609550
4084.977438,-9844.739029,0.000000,-536.266849
4084.977767,-9918.759623,370.102971,76.609550
4084.978097,-10214.842000,-74.020594,1302.362347
4084.978427,-9918.759623,0.000000,536.266849
4084.978756,-9770.718434,0.000000,0.000000
4084.979086,-9548.656652,0.000000,229.828649
4084.979416,-9770.718434,0.000000,842.705048
4084.979746,-10732.986159,222.061783,536.266849
4084.980075,-10436.903782,0.000000,0.000000
4084.980405,-9918.759623,-666.185348,-612.876398
4084.980735,-9622.677246,-148.041188,536.266849
4084.981065,-10140.821405,-370.102971,1455.581446
4084.981394,-9992.780217,74.020594,919.314598
4084.981724,-9474.636058,-370.102971,0.000000
4084.982054,-9104.533087,-296.082377,229.828649
4084.982384,-9548.656652,-370.102971,229.828649
4084.982713,-10362.883188,296.082377,306.438199
4084.983043,-10066.800811,-518.144159,-536.266849
4084.983373,-9770.718434,0.000000,0.000000
4084.983703,-9400.615463,-148.041188,1149.143247
4084.984032,-9474.636058,-370.102971,919.314598
4084.984362,-9548.656652,-222.061783,76.609550
4084.984692,-9474.636058,-222.061783,0.000000
4084.985022,-9770.718434,-444.123565,153.219100
4084.985351,-10140.821405,74.020594,1225.752797
4084.985681,-9474.636058,0.000000,689.485948
4084.986011,-9696.697840,-148.041188,459.657299
4084.986341,-9252.574275,222.061783,306.438199
4084.986670,-10288.862594,-370.102971,766.095498
4084.987000,-9548.656652,74.020594,-229.828649
4084.987330,-9400.615463,-74.020594,-76.609550
4084.987660,-9326.594869,0.000000,766.095498
4084.987989,-10214.842000,0.000000,1149.143247
4084.988319,-10140.821405,296.082377,1149.143247
4084.988649,-10066.800811,-370.102971,0.000000
4084.988979,-9918.759623,0.000000,-459.657299
4084.989308,-9770.718434,148.041188,306.438199
4084.989638,-10140.821405,0.000000,383.047749
4084.989968,-9696.697840,444.123565,842.705048
4084.990298,-9844.739029,74.020594,536.266849
4084.990627,-10214.842000,222.061783,536.266849
4084.990957,-10658.965565,0.000000,153.219100
4084.991287,-9992.780217,148.041188,-229.828649
4084.991617,-9696.697840,-296.082377,-153.219100
4084.991946,-9474.636058,296.082377,383.047749
4084.992276,-8956.491898,-74.020594,1149.143247
4084.992606,-9400.615463,222.061783,306.438199
4084.992936,-9770.718434,296.082377,153.219100
4084.993265,-10584.944971,0.000000,0.000000
4084.993595,-10584.944971,-222.061783,383.047749
4084.993925,-9474.636058,74.020594,842.705048
4084.994255,-8512.368333,-444.123565,0.000000
4084.994584,-8808.450710,0.000000,-306.438199
4084.994914,-9252.574275,74.020594,0.000000
4084.995244,-9918.759623,-296.082377,612.876398
4084.995574,-10214.842000,222.061783,459.657299
4084.995903,-10658.965565,74.020594,612.876398
4084.996233,-9548.656652,0.000000,1378.971896
4084.996563,-9252.574275,-666.185348,1378.971896
4084.996893,-8808.450710,222.061783,76.609550
4084.997222,-9844.739029,0.000000,-536.266849
4084.997552,-9992.780217,740.205942,-153.219100
4084.997882,-9696.697840,222.061783,459.657299
4084.998212,-9844.739029,740.205942,536.266849
4084.998541,-10214.842000,814.226536,76.609550
4084.998871,-10362.883188,740.205942,-229.828649
4084.999201,-10140.821405,222.061783,-459.657299
4084.999531,-10214.842000,444.123565,-766.095498
4084.999860,-9770.718434,518.144159,-536.266849
4085.000190,-10140.821405,74.020594,153.219100
4085.000520,-9770.718434,444.123565,689.485948
4085.000850,-10362.883188,-74.020594,995.924147
4085.001179,-10140.821405,370.102971,689.485948
4085.001509,-10066.800811,74.020594,-229.828649
4085.001839,-10066.800811,74.020594,0.000000
4085.002169,-9622.677246,-74.020594,995.924147
4085.002498,-9474.636058,592.164754,995.924147
4085.002828,-10066.800811,0.000000,459.657299
4085.003158,-9918.759623,74.020594,0.000000
4085.003488,-10066.800811,-592.164754,229.828649
4085.003817,-9770.718434,-518.144159,0.000000
4085.004147,-9030.512492,-518.144159,-689.485948
4085.004477,-8734.430116,-592.164754,-459.657299
4085.004807,-8512.368333,-444.123565,536.266849
4085.005136,-9474.636058,-74.020594,1072.533697
4085.005466,-10288.862594,222.061783,842.705048
4085.005796,-10362.883188,-222.061783,229.828649
4085.006126,-9696.697840,0.000000,459.657299
4085.006455,-9770.718434,-592.164754,1225.752797
4085.006785,-9770.718434,-74.020594,306.438199
4085.007115,-9326.594869,-296.082377,0.000000
4085.007444,-9178.553681,0.000000,-612.876398
4085.007774,-9992.780217,0.000000,0.000000
4085.008104,-9844.739029,296.082377,459.657299
4085.008434,-10362.883188,0.000000,0.000000
4085.008763,-9918.759623,222.061783,-459.657299
4085.009093,-9622.677246,-74.020594,229.828649
4085.009423,-9992.780217,0.000000,229.828649
4085.009753,-9696.697840,370.102971,76.609550
4085.010082,-9770.718434,296.082377,-459.657299
4085.010412,-9992.780217,222.061783,0.000000
4085.010742,-10510.924376,74.020594,612.876398
4085.011072,-9992.780217,518.144159,612.876398
4085.011401,-9548.656652,-370.102971,0.000000
4085.011731,-9696.697840,518.144159,0.000000
4085.012061,-9918.759623,0.000000,383.047749
4085.012391,-9548.656652,222.061783,-383.047749
4085.012720,-9326.594869,148.041188,-766.095498
4085.013050,-9400.615463,0.000000,-306.438199
4085.013380,-9844.739029,0.000000,1149.143247
4085.013710,-10140.821405,0.000000,1149.143247
4085.014039,-9918.759623,222.061783,0.000000
4085.014369,-9770.718434,0.000000,-536.266849
4085.014699,-9548.656652,222.061783,76.609550
4085.015029,-9474.636058,0.000000,919.314598
4085.015358,-9474.636058,370.102971,383.047749
4085.015688,-9548.656652,370.102971,459.657299
4085.016018,-9770.718434,222.061783,-306.438199
4085.016348,-9844.739029,592.164754,-689.485948
4085.016677,-9548.656652,370.102971,-995.924147
4085.017007,-9696.697840,74.020594,-383.047749
4085.017337,-9326.594869,222.061783,0.000000
4085.017667,-9622.677246,0.000000,689.485948
4085.017996,-9252.574275,148.041188,612.876398
4085.018326,-9622.677246,0.000000,0.000000
4085.018656,-9770.718434,-74.020594,0.000000
4085.018986,-9992.780217,0.000000,1149.143247
4085.019315,-9992.780217,444.123565,1378.971896
4085.019645,-9844.739029,222.061783,612.876398
4085.019975,-9696.697840,0.000000,153.219100
4085.020305,-9622.677246,222.061783,612.876398
4085.020634,-9844.739029,0.000000,612.876398
4085.020964,-9252.574275,222.061783,0.000000
4085.021294,-9622.677246,222.061783,-306.438199
4085.021624,-9770.718434,370.102971,229.828649
4085.021953,-10214.842000,0.000000,1378.971896
4085.022283,-10288.862594,740.205942,689.485948
4085.022613,-10510.924376,-296.082377,0.000000
4085.022943,-9992.780217,0.000000,153.219100
4085.023272,-9992.780217,-296.082377,689.485948
4085.023602,-9918.759623,148.041188,306.438199
4085.023932,-9400.615463,0.000000,-383.047749
4085.024262,-9770.718434,0.000000,76.609550
4085.024591,-9992.780217,0.000000,306.438199
4085.024921,-9696.697840,0.000000,689.485948
4085.025251,-9548.656652,0.000000,-229.828649
4085.025581,-9992.780217,-222.061783,-459.657299
4085.025910,-10140.821405,0.000000,153.219100
4085.026240,-10584.944971,-888.247130,689.485948
4085.026570,-9548.656652,-740.205942,0.000000
4085.026900,-8808.450710,-814.226536,306.438199
4085.027229,-9178.553681,-444.123565,459.657299
4085.027559,-9918.759623,-740.205942,1455.581446
4085.027889,-9992.780217,148.041188,689.485948
4085.028219,-9770.718434,-296.082377,229.828649
4085.028548,-10362.883188,0.000000,229.828649
4085.028878,-10066.800811,-444.123565,842.705048
4085.029208,-9992.780217,-444.123565,76.609550
4085.029538,-9030.512492,-370.102971,-229.828649
4085.029867,-9474.636058,-666.185348,-919.314598
4085.030197,-10140.821405,0.000000,-306.438199
4085.030527,-9548.656652,74.020594,229.828649
4085.030857,-9548.656652,148.041188,76.609550
4085.031186,-9992.780217,-518.144159,536.266849
4085.031516,-10807.006753,74.020594,842.705048
4085.031846,-10807.006753,-740.205942,842.705048
4085.032176,-9622.677246,-148.041188,0.000000
4085.032505,-8808.450710,-296.082377,0.000000
4085.032835,-9252.574275,-222.061783,153.219100
4085.033165,-10288.862594,222.061783,306.438199
4085.033495,-9770.718434,740.205942,0.000000
4085.033824,-9918.759623,518.144159,-383.047749
4085.034154,-10362.883188,518.144159,-612.876398
4085.034484,-9992.780217,444.123565,-459.657299
4085.034813,-9918.759623,370.102971,-306.438199
4085.035143,-9400.615463,296.082377,0.000000
4085.035473,-9178.553681,74.020594,0.000000
4085.035803,-9400.615463,370.102971,76.609550
4085.036132,-10140.821405,518.144159,0.000000
4085.036462,-10066.800811,666.185348,153.219100
4085.036792,-9992.780217,370.102971,0.000000
4085.037122,-10066.800811,962.267725,459.657299
4085.037451,-10362.883188,666.185348,1072.533697
4085.037781,-10140.821405,814.226536,-536.266849
4085.038111,-9548.656652,592.164754,-842.705048
4085.038441,-9474.636058,370.102971,-229.828649
4085.038770,-9918.759623,888.247130,229.828649
4085.039100,-9844.739029,1332.370696,-536.266849
4085.039430,-9252.574275,666.185348,-612.876398
4085.039760,-9548.656652,444.123565,-1225.752797
4085.040089,-10066.800811,1184.329507,-612.876398
4085.040419,-10658.965565,740.205942,0.000000
4085.040749,-9770.718434,888.247130,-536.266849
4085.041079,-8956.491898,0.000000,-383.047749
4085.041408,-9474.636058,592.164754,153.219100
4085.041738,-10140.821405,0.000000,1225.752797
4085.042068,-10362.883188,740.205942,1149.143247
4085.042398,-9844.739029,0.000000,459.657299
4085.042727,-9622.677246,74.020594,689.485948
4085.043057,-9548.656652,370.102971,766.095498
4085.043387,-10066.800811,370.102971,76.609550
4085.043716,-9548.656652,518.144159,-459.657299
4085.044046,-9326.594869,296.082377,-612.876398
4085.044376,-9326.594869,444.123565,-689.485948
4085.044705,-9918.759623,370.102971,-229.828649
4085.045035,-9622.677246,296.082377,536.266849
4085.045365,-10066.800811,-296.082377,0.000000
4085.045694,-10066.800811,296.082377,612.876398
4085.046024,-10436.903782,-370.102971,766.095498
4085.046354,-9622.677246,-222.061783,383.047749
4085.046683,-9474.636058,-296.082377,383.047749
4085.047013,-9548.656652,-444.123565,689.485948
4085.047343,-10066.800811,74.020594,995.924147
4085.047672,-10066.800811,148.041188,612.876398
4085.048002,-9844.739029,-814.226536,76.609550
4085.048332,-9844.739029,-370.102971,0.000000
4085.048661,-9992.780217,-148.041188,306.438199
4085.048991,-9622.677246,-814.226536,842.705048
4085.049321,-8882.471304,-1110.308913,76.609550
4085.049651,-9474.636058,-74.020594,306.438199
4085.049980,-10510.924376,-296.082377,229.828649
4085.050310,-11029.068536,74.020594,612.876398
4085.050640,-10066.800811,0.000000,229.828649
4085.050969,-10362.883188,-444.123565,229.828649
4085.051299,-10362.883188,-148.041188,995.924147
4085.051629,-9770.718434,-1184.329507,1225.752797
4085.051958,-8956.491898,-444.123565,76.609550
4085.052288,-8660.409521,-814.226536,-766.095498
4085.052618,-9400.615463,74.020594,-383.047749
4085.052947,-9992.780217,0.000000,919.314598
4085.053277,-9992.780217,74.020594,1072.533697
4085.053607,-9918.759623,-666.185348,1455.581446
4085.053936,-10140.821405,-222.061783,-229.828649
4085.054266,-9918.759623,-370.102971,0.000000
4085.054596,-9474.636058,-1036.288319,536.266849
4085.054925,-9252.574275,0.000000,76.609550
4085.055255,-9252.574275,0.000000,76.609550
4085.055585,-9622.677246,370.102971,0.000000
4085.055914,-9918.759623,0.000000,306.438199
4085.056244,-10140.821405,814.226536,919.314598
4085.056574,-10510.924376,74.020594,0.000000
4085.056903,-10288.862594,444.123565,306.438199
4085.057233,-9992.780217,-222.061783,689.485948
4085.057563,-9400.615463,0.000000,383.047749
4085.057892,-9030.512492,0.000000,-306.438199
4085.058222,-9548.656652,370.102971,-153.219100
4085.058552,-10066.800811,0.000000,0.000000
4085.058881,-10066.800811,592.164754,229.828649
4085.059211,-9918.759623,592.164754,1149.143247
4085.059541,-10362.883188,148.041188,0.000000
4085.059870,-9548.656652,222.061783,383.047749
4085.060200,-9474.636058,-148.041188,0.000000
4085.060530,-9326.594869,370.102971,-536.266849
4085.060859,-9252.574275,0.000000,-536.266849
4085.061189,-9844.739029,148.041188,0.000000
4085.061519,-10140.821405,148.041188,766.095498
4085.061848,-9400.615463,814.226536,766.095498
4085.062178,-9474.636058,296.082377,536.266849
4085.062508,-9770.718434,592.164754,-306.438199
4085.062837,-9918.759623,296.082377,459.657299
4085.063167,-9844.739029,222.061783,383.047749
4085.063497,-9326.594869,592.164754,0.000000
4085.063826,-9474.636058,518.144159,-612.876398
4085.064156,-9992.780217,740.205942,-536.266849
4085.064486,-10066.800811,444.123565,-689.485948
4085.064816,-9030.512492,370.102971,-612.876398
4085.065145,-9400.615463,296.082377,-612.876398
4085.065475,-9548.656652,1036.288319,689.485948
4085.065805,-10288.862594,148.041188,1685.410096
4085.066134,-10510.924376,814.226536,306.438199
4085.066464,-10066.800811,148.041188,0.000000
4085.066794,-9918.759623,370.102971,-153.219100
4085.067123,-10510.924376,74.020594,536.266849
4085.067453,-10140.821405,444.123565,1225.752797
4085.067783,-9400.615463,148.041188,766.095498
4085.068112,-9474.636058,222.061783,0.000000
4085.068442,-9770.718434,0.000000,0.000000
4085.068772,-9918.759623,0.000000,0.000000
4085.069101,-9400.615463,444.123565,306.438199
4085.069431,-9474.636058,444.123565,-153.219100
4085.069761,-9770.718434,148.041188,0.000000
4085.070090,-10140.821405,148.041188,229.828649
4085.070420,-9918.759623,444.123565,306.438199
4085.070750,-10140.821405,0.000000,-76.609550
4085.071079,-9548.656652,74.020594,0.000000
4085.071409,-9548.656652,-296.082377,612.876398
4085.071739,-9474.636058,74.020594,153.219100
4085.072068,-9474.636058,-296.082377,-229.828649
4085.072398,-9770.718434,222.061783,-766.095498
4085.072728,-10214.842000,-148.041188,0.000000
4085.073057,-9696.697840,-370.102971,306.438199
4085.073387,-9252.574275,-370.102971,612.876398
4085.073717,-9696.697840,-888.247130,0.000000
4085.074046,-9474.636058,-666.185348,459.657299
4085.074376,-9696.697840,-592.164754,842.705048
4085.074706,-9844.739029,-148.041188,459.657299
4085.075035,-9770.718434,-666.185348,153.219100
4085.075365,-9474.636058,-740.205942,766.095498
4085.075695,-9622.677246,-888.247130,2068.457845
4085.076024,-9548.656652,-518.144159,1991.848295
4085.076354,-9548.656652,-814.226536,1149.143247
4085.076684,-9918.759623,-370.102971,383.047749
4085.077013,-9992.780217,-518.144159,0.000000
4085.077343,-9992.780217,222.061783,-306.438199
4085.077673,-9178.553681,-74.020594,0.000000
4085.078002,-9030.512492,0.000000,-229.828649
4085.078332,-9326.594869,-518.144159,153.219100
4085.078662,-10214.842000,-370.102971,919.314598
4085.078991,-10362.883188,0.000000,1072.533697
4085.079321,-10140.821405,-666.185348,76.609550
4085.079651,-9548.656652,0.000000,766.095498
4085.079981,-9844.739029,-518.144159,919.314598
4085.080310,-9474.636058,148.041188,1149.143247
4085.080640,-9178.553681,0.000000,229.828649
4085.080970,-9918.759623,888.247130,0.000000
4085.081299,-10362.883188,370.102971,-153.219100
4085.081629,-10288.862594,962.267725,0.000000
4085.081959,-9770.718434,370.102971,-153.219100
4085.082288,-10214.842000,370.102971,-306.438199
4085.082618,-9992.780217,0.000000,306.438199
4085.082948,-10362.883188,0.000000,0.000000
4085.083277,-9178.553681,296.082377,-383.047749
4085.083607,-9400.615463,74.020594,-229.828649
4085.083937,-9770.718434,222.061783,842.705048
4085.084266,-10584.944971,148.041188,1532.190996
4085.084596,-10140.821405,666.185348,995.924147
4085.084926,-9992.780217,0.000000,76.609550
4085.085255,-9622.677246,370.102971,76.609550
4085.085585,-9992.780217,-74.020594,536.266849
4085.085915,-9622.677246,444.123565,0.000000
4085.086244,-9400.615463,0.000000,-76.609550
4085.086574,-8808.450710,592.164754,-1302.362347
4085.086904,-9770.718434,-370.102971,76.609550
4085.087233,-10066.800811,296.082377,0.000000
4085.087563,-9548.656652,-518.144159,0.000000
4085.087893,-9474.636058,-222.061783,-383.047749
4085.088222,-9252.574275,-814.226536,919.314598
4085.088552,-9252.574275,-814.226536,995.924147
4085.088882,-8956.491898,-444.123565,459.657299
4085.089211,-9030.512492,0.000000,612.876398
4085.089541,-10066.800811,74.020594,536.266849
4085.089871,-10584.944971,74.020594,842.705048
4085.090200,-9770.718434,74.020594,229.828649
4085.090530,-9474.636058,-296.082377,-689.485948
4085.090860,-9474.636058,370.102971,0.000000
4085.091189,-9548.656652,-296.082377,0.000000
4085.091519,-9178.553681,370.102971,-459.657299
4085.091849,-9104.533087,148.041188,-1225.752797
4085.092178,-9030.512492,444.123565,-1302.362347
4085.092508,-10436.903782,370.102971,153.219100
4085.092838,-11103.089130,814.226536,306.438199
4085.093167,-10214.842000,222.061783,229.828649
4085.093497,-9992.780217,0.000000,0.000000
4085.093827,-9770.718434,222.061783,306.438199
4085.094157,-9844.739029,0.000000,459.657299
4085.094486,-9252.574275,592.164754,-153.219100
4085.094816,-9992.780217,740.205942,-459.657299
4085.095146,-11029.068536,1184.329507,229.828649
4085.095475,-11103.089130,518.144159,306.438199
4085.095805,-9918.759623,592.164754,0.000000
4085.096135,-9252.574275,-518.144159,-76.609550
4085.096464,-9252.574275,518.144159,0.000000
4085.096794,-9770.718434,0.000000,842.705048
4085.097124,-9400.615463,222.061783,306.438199
4085.097453,-9030.512492,370.102971,-689.485948
4085.097783,-9326.594869,370.102971,76.609550
4085.098113,-10658.965565,444.123565,766.095498
4085.098442,-11029.068536,370.102971,1455.581446
4085.098772,-9992.780217,518.144159,1072.533697
4085.099102,-9474.636058,0.000000,0.000000
4085.099431,-9326.594869,518.144159,0.000000
4085.099761,-9622.677246,74.020594,383.047749
4085.100091,-9474.636058,592.164754,76.609550
4085.100420,-9548.656652,370.102971,-842.705048
4085.100750,-9844.739029,592.164754,-689.485948
4085.101080,-9992.780217,0.000000,0.000000
4085.101409,-9326.594869,148.041188,459.657299
4085.101739,-9030.512492,-518.144159,76.609550
4085.102069,-9770.718434,0.000000,-229.828649
4085.102398,-9918.759623,74.020594,536.266849
4085.102728,-9622.677246,0.000000,766.095498
4085.103058,-9400.615463,222.061783,0.000000
4085.103387,-9696.697840,74.020594,842.705048
4085.103717,-10881.027347,370.102971,766.095498
4085.104047,-10732.986159,148.041188,1302.362347
4085.104376,-9918.759623,74.020594,612.876398
4085.104706,-9622.677246,-444.123565,-306.438199
4085.105036,-9474.636058,0.000000,612.876398
4085.105365,-10214.842000,-74.020594,306.438199
4085.105695,-9474.636058,0.000000,-383.047749
4085.106025,-9326.594869,-518.144159,-842.705048
4085.106354,-10066.800811,74.020594,-153.219100
4085.106684,-10362.883188,-370.102971,612.876398
4085.107014,-10140.821405,0.000000,766.095498
4085.107343,-9474.636058,-814.226536,459.657299
4085.107673,-9770.718434,0.000000,1149.143247
4085.108003,-9622.677246,-666.185348,1302.362347
4085.108332,-9696.697840,-1184.329507,536.266849
4085.108662,-8660.409521,-296.082377,153.219100
4085.108992,-8956.491898,-518.144159,459.657299
4085.109322,-9474.636058,-222.061783,842.705048
4085.109651,-10510.924376,-222.061783,536.266849
4085.109981,-10140.821405,444.123565,459.657299
4085.110311,-10288.862594,-444.123565,0.000000
4085.110640,-10066.800811,296.082377,229.828649
4085.110970,-10140.821405,-518.144159,842.705048
4085.111300,-9844.739029,74.020594,0.000000
4085.111629,-9178.553681,-444.123565,-383.047749
4085.111959,-10214.842000,148.041188,0.000000
4085.112289,-10140.821405,-592.164754,612.876398
4085.112618,-10436.903782,148.041188,1072.533697
4085.112948,-9474.636058,-296.082377,306.438199
4085.113278,-9474.636058,-370.102971,229.828649
4085.113607,-9770.718434,148.041188,689.485948
4085.113937,-10510.924376,-296.082377,689.485948
4085.114267,-10214.842000,148.041188,306.438199
4085.114596,-9770.718434,0.000000,0.000000
4085.114926,-9622.677246,222.061783,-229.828649
4085.115256,-9844.739029,0.000000,153.219100
4085.115585,-9474.636058,518.144159,0.000000
4085.115915,-9178.553681,0.000000,0.000000
4085.116245,-9696.697840,1036.288319,306.438199
4085.116574,-10362.883188,296.082377,612.876398
4085.116904,-10510.924376,518.144159,0.000000
4085.117234,-9918.759623,518.144159,-459.657299
4085.117563,-9400.615463,518.144159,-229.828649
4085.117893,-9474.636058,444.123565,536.266849
4085.118223,-9474.636058,592.164754,76.609550
4085.118552,-9400.615463,592.164754,76.609550
4085.118882,-10214.842000,740.205942,153.219100
4085.119212,-10214.842000,1036.288319,0.000000
4085.119541,-10510.924376,444.123565,229.828649
4085.119871,-9770.718434,1036.288319,0.000000
4085.120201,-9178.553681,296.082377,0.000000
4085.120530,-9104.533087,814.226536,0.000000
4085.120860,-9474.636058,148.041188,0.000000
4085.121190,-9252.574275,1036.288319,-153.219100
4085.121519,-9474.636058,296.082377,-459.657299
4085.121849,-10066.800811,1110.308913,383.047749
4085.122179,-10436.903782,1036.288319,689.485948
4085.122508,-10510.924376,296.082377,306.438199
4085.122838,-9548.656652,0.000000,0.000000
4085.123168,-9548.656652,0.000000,0.000000
4085.123497,-9400.615463,0.000000,612.876398
4085.123827,-9252.574275,74.020594,383.047749
4085.124157,-8882.471304,814.226536,383.047749
4085.124487,-9326.594869,-74.020594,0.000000
4085.124816,-9918.759623,888.247130,76.609550
4085.125146,-10807.006753,-148.041188,0.000000
4085.125476,-10584.944971,370.102971,-306.438199
4085.125805,-9326.594869,74.020594,0.000000
4085.126135,-8882.471304,-296.082377,306.438199
4085.126465,-9992.780217,148.041188,842.705048
4085.126794,-10140.821405,74.020594,459.657299
4085.127124,-10510.924376,-222.061783,0.000000
4085.127454,-10140.821405,-296.082377,0.000000
4085.127783,-10362.883188,-296.082377,919.314598
4085.128113,-10140.821405,-962.267725,919.314598
4085.128443,-9400.615463,-444.123565,459.657299
4085.128772,-9474.636058,-592.164754,76.609550
4085.129102,-9548.656652,-370.102971,229.828649
4085.129432,-10658.965565,-444.123565,995.924147
4085.129761,-10362.883188,-148.041188,383.047749
4085.130091,-10362.883188,-666.185348,76.609550
4085.130421,-9252.574275,0.000000,459.657299
4085.130750,-9770.718434,-888.247130,459.657299
4085.131080,-10066.800811,-1036.288319,-383.047749
4085.131410,-9548.656652,-1036.288319,-689.485948
4085.131739,-9622.677246,-814.226536,-229.828649
4085.132069,-9844.739029,-1036.288319,842.705048
4085.132399,-9622.677246,-962.267725,1378.971896
4085.132728,-9104.533087,-1110.308913,1225.752797
4085.133058,-9992.780217,-518.144159,842.705048
4085.133388,-10140.821405,-740.205942,1302.362347
4085.133717,-10066.800811,-1480.411884,919.314598
4085.134047,-9474.636058,-814.226536,459.657299
4085.134377,-9326.594869,-962.267725,536.266849
4085.134706,-9400.615463,-740.205942,306.438199
4085.135036,-9622.677246,-888.247130,153.219100
4085.135366,-9178.553681,-148.041188,0.000000
4085.135695,-9548.656652,-444.123565,0.000000
4085.136025,-10140.821405,296.082377,766.095498
4085.136355,-10066.800811,-74.020594,1455.581446
4085.136684,-9992.780217,148.041188,1072.533697
4085.137014,-9918.759623,592.164754,612.876398
4085.137344,-10436.903782,222.061783,-612.876398
4085.137673,-10066.800811,222.061783,-766.095498
4085.138003,-9622.677246,518.144159,-612.876398
4085.138333,-8882.471304,888.247130,-306.438199
4085.138662,-9474.636058,222.061783,0.000000
4085.138992,-9548.656652,1332.370696,536.266849
4085.139322,-9622.677246,370.102971,229.828649
4085.139652,-9992.780217,1184.329507,-536.266849
4085.139981,-9696.697840,740.205942,-919.314598
4085.140311,-9918.759623,1110.308913,0.000000
4085.140641,-10214.842000,666.185348,1455.581446
4085.140970,-9918.759623,1332.370696,1455.581446
4085.141300,-9918.759623,1036.288319,0.000000
4085.141630,-9622.677246,1406.391290,-995.924147
4085.141959,-9474.636058,888.247130,153.219100
4085.142289,-10362.883188,1036.288319,383.047749
4085.142619,-10362.883188,1332.370696,306.438199
4085.142948,-9548.656652,592.164754,229.828649
4085.143278,-9252.574275,666.185348,0.000000
4085.143608,-9696.697840,592.164754,0.000000
4085.143938,-10066.800811,1036.288319,-536.266849
4085.144267,-9918.759623,222.061783,-689.485948
4085.144597,-9474.636058,740.205942,153.219100
4085.144927,-9770.718434,0.000000,1838.629195
4085.145257,-9474.636058,222.061783,1608.800546
4085.145586,-9252.574275,444.123565,766.095498
4085.145916,-9104.533087,296.082377,-76.609550
4085.146246,-10288.862594,518.144159,-459.657299
4085.146575,-10732.986159,666.185348,229.828649
4085.146905,-10288.862594,222.061783,689.485948
4085.147235,-9474.636058,148.041188,306.438199
4085.147565,-9178.553681,444.123565,229.828649
4085.147894,-9400.615463,0.000000,229.828649
4085.148224,-9104.533087,222.061783,-766.095498
4085.148554,-9474.636058,74.020594,-995.924147
4085.148884,-9992.780217,0.000000,0.000000
4085.149213,-10584.944971,0.000000,919.314598
4085.149543,-9918.759623,148.041188,1532.190996
4085.149873,-9992.780217,-296.082377,0.000000
4085.150202,-9548.656652,148.041188,306.438199
4085.150532,-9844.739029,-592.164754,153.219100
4085.150862,-9992.780217,-592.164754,153.219100
4085.151192,-9770.718434,0.000000,0.000000
4085.151521,-10214.842000,-518.144159,689.485948
4085.151851,-9918.759623,-666.185348,229.828649
4085.152181,-9770.718434,-666.185348,76.609550
4085.152510,-9104.533087,-962.267725,-1225.752797
4085.152840,-9474.636058,-814.226536,-383.047749
4085.153170,-9770.718434,-74.020594,842.705048
4085.153500,-10066.800811,-888.247130,1455.581446
4085.153829,-9696.697840,-740.205942,536.266849
4085.154159,-10140.821405,-814.226536,-76.609550
4085.154489,-10510.924376,-222.061783,459.657299
4085.154819,-10140.821405,-1332.370696,1072.533697
4085.155148,-9178.553681,-370.102971,1302.362347
4085.155478,-8956.491898,-740.205942,919.314598
4085.155808,-9474.636058,-296.082377,919.314598
4085.156137,-9918.759623,-370.102971,76.609550
4085.156467,-10140.821405,-370.102971,-383.047749
4085.156797,-9178.553681,-222.061783,-536.266849
4085.157127,-9178.553681,-592.164754,383.047749
4085.157456,-9844.739029,-296.082377,2221.676944
4085.157786,-10362.883188,74.020594,1762.019645
4085.158116,-10362.883188,370.102971,766.095498
4085.158445,-10436.903782,0.000000,-306.438199
4085.158775,-10658.965565,1184.329507,612.876398
4085.159105,-11177.109724,222.061783,2068.457845
4085.159435,-10658.965565,740.205942,1455.581446
4085.159764,-9474.636058,74.020594,919.314598
4085.160094,-9252.574275,148.041188,536.266849
4085.160424,-9474.636058,0.000000,153.219100
4085.160754,-9474.636058,740.205942,0.000000
4085.161083,-9770.718434,296.082377,76.609550
4085.161413,-10214.842000,148.041188,153.219100
4085.161743,-9474.636058,444.123565,1378.971896
4085.162072,-9622.677246,0.000000,919.314598
4085.162402,-9548.656652,296.082377,459.657299
4085.162732,-9548.656652,-296.082377,0.000000
4085.163062,-9104.533087,148.041188,383.047749
4085.163391,-9474.636058,222.061783,1225.752797
4085.163721,-9474.636058,1332.370696,842.705048
4085.164051,-10288.862594,962.267725,229.828649
4085.164381,-10214.842000,1406.391290,-306.438199
4085.164710,-9696.697840,148.041188,-766.095498
4085.165040,-9400.615463,222.061783,-766.095498
4085.165370,-9622.677246,370.102971,-383.047749
4085.165699,-9548.656652,222.061783,153.219100
4085.166029,-9030.512492,0.000000,306.438199
4085.166359,-9104.533087,888.247130,229.828649
4085.166689,-9770.718434,740.205942,-229.828649
4085.167018,-10807.006753,888.247130,-612.876398
4085.167348,-10658.965565,1110.308913,76.609550
4085.167678,-10732.986159,666.185348,0.000000
4085.168007,-9474.636058,666.185348,-766.095498
4085.168337,-9696.697840,666.185348,-995.924147
4085.168667,-9622.677246,370.102971,-536.266849
4085.168997,-9326.594869,0.000000,-919.314598
4085.169326,-9400.615463,370.102971,-919.314598
4085.169656,-10066.800811,-296.082377,-689.485948
4085.169986,-10658.965565,592.164754,919.314598
4085.170316,-10658.965565,74.020594,1532.190996
4085.170645,-10140.821405,0.000000,459.657299
4085.170975,-9548.656652,0.000000,0.000000
4085.171305,-9770.718434,0.000000,306.438199
4085.171634,-9918.759623,0.000000,766.095498
4085.171964,-9548.656652,296.082377,1225.752797
4085.172294,-9252.574275,370.102971,0.000000
4085.172624,-9548.656652,74.020594,-766.095498
4085.172953,-9844.739029,666.185348,-76.609550
4085.173283,-10732.986159,0.000000,229.828649
4085.173613,-9992.780217,592.164754,0.000000
4085.173942,-9918.759623,-370.102971,-536.266849
4085.174272,-9326.594869,-222.061783,0.000000
4085.174602,-9548.656652,-444.123565,766.095498
4085.174932,-9400.615463,222.061783,766.095498
4085.175261,-9622.677246,148.041188,0.000000
4085.175591,-10732.986159,666.185348,383.047749
4085.175921,-10807.006753,74.020594,919.314598
4085.176251,-10214.842000,-296.082377,1378.971896
4085.176580,-9252.574275,-148.041188,383.047749
4085.176910,-8808.450710,-444.123565,0.000000
4085.177240,-9326.594869,-444.123565,459.657299
4085.177569,-9400.615463,-370.102971,995.924147
4085.177899,-9178.553681,0.000000,306.438199
4085.178229,-9622.677246,-444.123565,306.438199
4085.178559,-10436.903782,-296.082377,1225.752797
4085.178888,-10362.883188,-592.164754,1455.581446
4085.179218,-9326.594869,-370.102971,995.924147
4085.179548,-9178.553681,-444.123565,0.000000
4085.179877,-9622.677246,-296.082377,0.000000
4085.180207,-9918.759623,-370.102971,306.438199
4085.180537,-9326.594869,148.041188,459.657299
4085.180867,-8956.491898,0.000000,306.438199
4085.181196,-10362.883188,-444.123565,229.828649
4085.181526,-10584.944971,0.000000,1149.143247
4085.181856,-10140.821405,-592.164754,306.438199
4085.182186,-9326.594869,-666.185348,-919.314598
4085.182515,-9622.677246,-814.226536,-459.657299
4085.182845,-9548.656652,-222.061783,689.485948
4085.183175,-9474.636058,-518.144159,1225.752797
4085.183504,-9474.636058,0.000000,612.876398
4085.183834,-10584.944971,-592.164754,76.609550
4085.184164,-10510.924376,0.000000,0.000000
4085.184494,-10140.821405,-666.185348,842.705048
4085.184823,-9326.594869,0.000000,995.924147
4085.185153,-9104.533087,-296.082377,459.657299
4085.185483,-9770.718434,0.000000,0.000000
4085.185813,-10140.821405,-222.061783,-306.438199
4085.186142,-10510.924376,74.020594,-229.828649
4085.186472,-10436.903782,-518.144159,-536.266849
4085.186802,-10510.924376,-370.102971,306.438199
4085.187131,-9474.636058,-222.061783,1225.752797
4085.187461,-9400.615463,-222.061783,1915.238745
4085.187791,-9178.553681,0.000000,689.485948
4085.188121,-9918.759623,0.000000,0.000000
4085.188450,-9918.759623,0.000000,-383.047749
4085.188780,-10362.883188,0.000000,0.000000
4085.189110,-9548.656652,444.123565,536.266849
4085.189439,-9696.697840,0.000000,689.485948
4085.189769,-10066.800811,222.061783,689.485948
4085.190099,-9918.759623,0.000000,229.828649
4085.190429,-9696.697840,444.123565,-536.266849
4085.190758,-9400.615463,148.041188,-612.876398
4085.191088,-9400.615463,592.164754,-306.438199
4085.191418,-9400.615463,296.082377,0.000000
4085.191748,-9548.656652,1036.288319,229.828649
4085.192077,-9400.615463,1036.288319,-153.219100
4085.192407,-10362.883188,666.185348,-919.314598
4085.192737,-10288.862594,888.247130,-76.609550
4085.193066,-9992.780217,666.185348,0.000000
4085.193396,-9622.677246,814.226536,536.266849
4085.193726,-10066.800811,666.185348,0.000000
4085.194056,-9622.677246,740.205942,0.000000
4085.194385,-9844.739029,518.144159,-229.828649
4085.194715,-9770.718434,1110.308913,-842.705048
4085.195045,-9474.636058,592.164754,-612.876398
4085.195374,-9548.656652,740.205942,0.000000
4085.195704,-10288.862594,518.144159,1225.752797
4085.196034,-10658.965565,296.082377,919.314598
4085.196364,-9844.739029,148.041188,229.828649
4085.196693,-8956.491898,-222.061783,0.000000
4085.197023,-9400.615463,-296.082377,612.876398
4085.197353,-10214.842000,74.020594,1072.533697
4085.197683,-10140.821405,296.082377,1302.362347
4085.198012,-9400.615463,0.000000,153.219100
4085.198342,-8956.491898,148.041188,689.485948
4085.198672,-9992.780217,-370.102971,153.219100
4085.199001,-10288.862594,74.020594,459.657299
4085.199331,-9622.677246,-148.041188,153.219100
4085.199661,-9326.594869,-148.041188,-459.657299
4085.199991,-9030.512492,-666.185348,0.000000
4085.200320,-9326.594869,148.041188,0.000000
4085.200650,-9770.718434,0.000000,306.438199
4085.200980,-10510.924376,296.082377,536.266849
4085.201309,-10584.944971,-592.164754,1072.533697
4085.201639,-10658.965565,-592.164754,1378.971896
4085.201969,-9400.615463,-592.164754,612.876398
4085.202299,-9622.677246,-148.041188,306.438199
4085.202628,-9696.697840,-296.082377,-383.047749
4085.202958,-9844.739029,-444.123565,-383.047749
4085.203288,-9770.718434,0.000000,0.000000
4085.203618,-9844.739029,-444.123565,306.438199
4085.203947,-10584.944971,0.000000,842.705048
4085.204277,-10288.862594,-518.144159,1685.410096
4085.204607,-9770.718434,-74.020594,995.924147
4085.204936,-9844.739029,-222.061783,383.047749
4085.205266,-9548.656652,-296.082377,-689.485948
4085.205596,-10288.862594,-740.205942,0.000000
4085.205926,-10214.842000,444.123565,1072.533697
4085.206255,-9844.739029,296.082377,459.657299
4085.206585,-9844.739029,148.041188,-153.219100
4085.206915,-9252.574275,814.226536,919.314598
4085.207245,-10214.842000,0.000000,612.876398
4085.207574,-10214.842000,370.102971,76.609550
4085.207904,-9844.739029,-222.061783,229.828649
4085.208234,-9400.615463,296.082377,459.657299
4085.208563,-9696.697840,0.000000,306.438199
4085.208893,-9844.739029,592.164754,-536.266849
4085.209223,-9844.739029,-222.061783,-919.314598
4085.209553,-9326.594869,296.082377,-689.485948
4085.209882,-9326.594869,74.020594,842.705048
4085.210212,-10362.883188,666.185348,1378.971896
4085.210542,-10140.821405,148.041188,459.657299
4085.210871,-9474.636058,222.061783,-306.438199
4085.211201,-9252.574275,74.020594,-766.095498
4085.211531,-10066.800811,0.000000,-306.438199
4085.211861,-9548.656652,-148.041188,-383.047749
4085.212190,-9178.553681,-370.102971,0.000000
4085.212520,-8586.388927,518.144159,995.924147
4085.212850,-9474.636058,148.041188,1072.533697
4085.213180,-9992.780217,222.061783,76.609550
4085.213509,-10140.821405,74.020594,-383.047749
4085.213839,-9770.718434,888.247130,-612.876398
4085.214169,-10362.883188,-222.061783,153.219100
4085.214498,-10066.800811,296.082377,842.705048
4085.214828,-9252.574275,-518.144159,229.828649
4085.215158,-8956.491898,-296.082377,-229.828649
4085.215488,-8882.471304,-370.102971,536.266849
4085.215817,-9992.780217,74.020594,153.219100
4085.216147,-9400.615463,74.020594,229.828649
4085.216477,-9400.615463,296.082377,229.828649
4085.216806,-9474.636058,296.082377,536.266849
4085.217136,-10436.903782,0.000000,919.314598
4085.217466,-9474.636058,518.144159,-383.047749
4085.217796,-9178.553681,-370.102971,-1149.143247
4085.218125,-9622.677246,592.164754,0.000000
4085.218455,-10732.986159,148.041188,995.924147
4085.218785,-10584.944971,370.102971,1532.190996
4085.219115,-9622.677246,-370.102971,919.314598
4085.219444,-9400.615463,148.041188,689.485948
4085.219774,-9844.739029,-296.082377,919.314598
4085.220104,-10362.883188,592.164754,689.485948
4085.220433,-9844.739029,0.000000,0.000000
4085.220763,-9918.759623,518.144159,0.000000
4085.221093,-9622.677246,814.226536,766.095498
4085.221423,-10510.924376,518.144159,612.876398
4085.221752,-10214.842000,518.144159,-459.657299
4085.222082,-9992.780217,296.082377,-842.705048
4085.222412,-9622.677246,222.061783,229.828649
4085.222742,-10510.924376,0.000000,919.314598
4085.223071,-10066.800811,296.082377,459.657299
4085.223401,-8956.491898,-740.205942,76.609550
4085.223731,-8956.491898,296.082377,612.876398
4085.224060,-10288.862594,0.000000,1455.581446
4085.224390,-10807.006753,444.123565,1072.533697
4085.224720,-10140.821405,0.000000,153.219100
4085.225050,-9622.677246,370.102971,-536.266849
4085.225379,-9696.697840,0.000000,229.828649
4085.225709,-9622.677246,0.000000,-306.438199
4085.226039,-9326.594869,0.000000,-919.314598
4085.226368,-8956.491898,-444.123565,-1225.752797
4085.226698,-8290.306550,0.000000,153.219100
4085.227028,-9992.780217,0.000000,919.314598
4085.227358,-9918.759623,148.041188,383.047749
4085.227687,-9474.636058,-148.041188,229.828649
4085.228017,-9474.636058,74.020594,0.000000
4085.228347,-10140.821405,-592.164754,459.657299
4085.228677,-9770.718434,148.041188,383.047749
4085.229006,-9326.594869,-370.102971,-536.266849
4085.229336,-9030.512492,296.082377,-383.047749
4085.229666,-9548.656652,74.020594,229.828649
4085.229995,-10362.883188,222.061783,229.828649
4085.230325,-9548.656652,0.000000,-306.438199
4085.230655,-8956.491898,0.000000,-919.314598
4085.230985,-9030.512492,-222.061783,0.000000
4085.231314,-9548.656652,0.000000,229.828649
4085.231644,-9252.574275,74.020594,0.000000
4085.231974,-9696.697840,-222.061783,153.219100
4085.232303,-9696.697840,74.020594,1225.752797
4085.232633,-10584.944971,0.000000,1608.800546
4085.232963,-9770.718434,296.082377,1072.533697
4085.233293,-9326.594869,74.020594,0.000000
4085.233622,-9622.677246,0.000000,76.609550
4085.233952,-10140.821405,-148.041188,766.095498
4085.234282,-9844.739029,296.082377,76.609550
4085.234612,-9844.739029,0.000000,76.609550
4085.234941,-9622.677246,148.041188,0.000000
4085.235271,-9992.780217,148.041188,1072.533697
4085.235601,-10214.842000,0.000000,919.314598
4085.235930,-9622.677246,-74.020594,459.657299
4085.236260,-9474.636058,-222.061783,153.219100
4085.236590,-9770.718434,148.041188,153.219100
4085.236920,-10140.821405,0.000000,1378.971896
4085.237249,-9474.636058,814.226536,229.828649
4085.237579,-9770.718434,370.102971,-1072.533697
4085.237909,-9918.759623,666.185348,0.000000
4085.238238,-10732.986159,518.144159,1149.143247
4085.238568,-10658.965565,444.123565,536.266849
4085.238898,-9844.739029,-148.041188,153.219100
4085.239228,-9474.636058,-370.102971,76.609550
4085.239557,-9844.739029,0.000000,536.266849
4085.239887,-9548.656652,0.000000,0.000000
4085.240217,-9104.533087,0.000000,-919.314598
4085.240547,-9844.739029,148.041188,-459.657299
4085.240876,-10807.006753,444.123565,229.828649
4085.241206,-11399.171507,0.000000,1149.143247
4085.241536,-9770.718434,-222.061783,766.095498
4085.241865,-8956.491898,-518.144159,536.266849
4085.242195,-8808.450710,0.000000,612.876398
4085.242525,-9918.759623,-444.123565,229.828649
4085.242855,-10288.862594,148.041188,0.000000
4085.243184,-9622.677246,-592.164754,-995.924147
4085.243514,-9918.759623,0.000000,0.000000
4085.243844,-10140.821405,0.000000,919.314598
4085.244174,-9844.739029,-296.082377,536.266849
4085.244503,-8882.471304,-370.102971,0.000000
4085.244833,-8808.450710,-74.020594,-689.485948
4085.245163,-9104.533087,-148.041188,-766.095498
4085.245493,-10066.800811,296.082377,229.828649
4085.245823,-9548.656652,148.041188,0.000000
4085.246152,-9178.553681,0.000000,-153.219100
4085.246482,-10066.800811,740.205942,229.828649
4085.246812,-10732.986159,-148.041188,459.657299
4085.247142,-9622.677246,0.000000,-536.266849
4085.247472,-8882.471304,0.000000,-459.657299
4085.247801,-9252.574275,148.041188,0.000000
4085.248131,-9770.718434,0.000000,842.705048
4085.248461,-10066.800811,740.205942,536.266849
4085.248791,-9844.739029,0.000000,-536.266849
4085.249121,-10584.944971,0.000000,-306.438199
4085.249450,-10288.862594,370.102971,536.266849
4085.249780,-9844.739029,-148.041188,919.314598
4085.250110,-8734.430116,74.020594,383.047749
4085.250440,-9326.594869,666.185348,0.000000
4085.250770,-10066.800811,444.123565,0.000000
4085.251099,-10362.883188,370.102971,-229.828649
4085.251429,-9844.739029,0.000000,-76.609550
4085.251759,-10214.842000,0.000000,306.438199
4085.252089,-10362.883188,74.020594,1302.362347
4085.252418,-10362.883188,-444.123565,1991.848295
4085.252748,-9696.697840,0.000000,459.657299
4085.253078,-9844.739029,-370.102971,459.657299
4085.253408,-10436.903782,0.000000,612.876398
4085.253738,-10140.821405,-444.123565,1532.190996
4085.254067,-9696.697840,592.164754,995.924147
4085.254397,-9474.636058,0.000000,153.219100
4085.254727,-9622.677246,0.000000,-76.609550
4085.255057,-9252.574275,222.061783,-612.876398
4085.255387,-9326.594869,222.061783,-919.314598
4085.255716,-9326.594869,222.061783,-766.095498
4085.256046,-9992.780217,148.041188,0.000000
4085.256376,-9770.718434,0.000000,689.485948
4085.256706,-10214.842000,-444.123565,536.266849
4085.257036,-9474.636058,-222.061783,-689.485948
4085.257365,-9548.656652,-814.226536,0.000000
4085.257695,-9622.677246,148.041188,1455.581446
4085.258025,-9622.677246,0.000000,2298.286494
4085.258355,-9844.739029,740.205942,1302.362347
4085.258685,-10140.821405,222.061783,76.609550
4085.259014,-10732.986159,370.102971,-1149.143247
4085.259344,-10066.800811,148.041188,-2145.067394
4085.259674,-9548.656652,518.144159,-1225.752797
4085.260004,-8956.491898,-296.082377,-1149.143247
4085.260334,-9252.574275,0.000000,-459.657299
4085.260663,-9252.574275,518.144159,612.876398
4085.260993,-9918.759623,0.000000,1072.533697
4085.261323,-9992.780217,74.020594,766.095498
4085.261653,-11103.089130,74.020594,536.266849
4085.261982,-10584.944971,0.000000,612.876398
4085.262312,-9844.739029,-740.205942,1072.533697
4085.262642,-9178.553681,148.041188,842.705048
4085.262972,-9548.656652,-814.226536,536.266849
4085.263302,-9696.697840,222.061783,-306.438199
4085.263631,-8586.388927,0.000000,-153.219100
4085.263961,-9104.533087,740.205942,306.438199
4085.264291,-9844.739029,962.267725,76.609550
4085.264621,-10510.924376,666.185348,0.000000
4085.264951,-9992.780217,0.000000,0.000000
4085.265280,-10140.821405,74.020594,-229.828649
4085.265610,-9992.780217,74.020594,-306.438199
4085.265940,-9696.697840,-370.102971,-153.219100
4085.266270,-8660.409521,0.000000,689.485948
4085.266600,-9178.553681,444.123565,1072.533697
4085.266929,-9992.780217,1258.350101,995.924147
4085.267259,-10732.986159,814.226536,536.266849
4085.267589,-10658.965565,962.267725,306.438199
4085.267919,-10510.924376,0.000000,995.924147
4085.268249,-9770.718434,518.144159,459.657299
4085.268578,-9326.594869,-444.123565,0.000000
4085.268908,-9326.594869,0.000000,-459.657299
4085.269238,-8882.471304,-444.123565,689.485948
4085.269568,-9326.594869,148.041188,0.000000
4085.269898,-9400.615463,518.144159,-306.438199
4085.270227,-10066.800811,1036.288319,0.000000
4085.270557,-10362.883188,444.123565,1149.143247
4085.270887,-10732.986159,0.000000,995.924147
4085.271217,-9844.739029,222.061783,229.828649
4085.271546,-9474.636058,-666.185348,-919.314598
4085.271876,-8808.450710,-148.041188,-383.047749
4085.272206,-9474.636058,-518.144159,612.876398
4085.272536,-10214.842000,74.020594,1072.533697
4085.272866,-10140.821405,-518.144159,306.438199
4085.273195,-9326.594869,0.000000,-153.219100
4085.273525,-9326.594869,-370.102971,0.000000
4085.273855,-9696.697840,296.082377,842.705048
4085.274185,-9844.739029,-592.164754,76.609550
4085.274515,-9696.697840,222.061783,-153.219100
4085.274844,-9548.656652,222.061783,383.047749
4085.275174,-10288.862594,-148.041188,383.047749
4085.275504,-10066.800811,-222.061783,229.828649
4085.275834,-9400.615463,-888.247130,0.000000
4085.276164,-9104.533087,-814.226536,153.219100
4085.276493,-9548.656652,-444.123565,689.485948
4085.276823,-9622.677246,296.082377,612.876398
4085.277153,-9622.677246,-148.041188,0.000000
4085.277483,-9770.718434,444.123565,0.000000
4085.277813,-10066.800811,0.000000,1072.533697
4085.278142,-10732.986159,0.000000,153.219100
4085.278472,-10066.800811,-518.144159,-229.828649
4085.278802,-9622.677246,0.000000,-76.609550
4085.279132,-9252.574275,-518.144159,612.876398
4085.279462,-9474.636058,74.020594,153.219100
4085.279791,-9474.636058,370.102971,0.000000
4085.280121,-9992.780217,444.123565,-383.047749
4085.280451,-9918.759623,888.247130,0.000000
4085.280781,-10362.883188,518.144159,306.438199
4085.281110,-9992.780217,148.041188,689.485948
4085.281440,-9400.615463,0.000000,536.266849
4085.281770,-9770.718434,370.102971,459.657299
4085.282100,-10658.965565,0.000000,306.438199
4085.282430,-10066.800811,296.082377,0.000000
4085.282759,-9622.677246,0.000000,-229.828649
4085.283089,-9918.759623,888.247130,536.266849
4085.283419,-10066.800811,740.205942,536.266849
4085.283749,-9844.739029,148.041188,536.266849
4085.284079,-9178.553681,222.061783,-383.047749
4085.284408,-9474.636058,74.020594,-383.047749
4085.284738,-9844.739029,148.041188,153.219100
4085.285068,-10140.821405,0.000000,919.314598
4085.285398,-9326.594869,222.061783,1149.143247
4085.285728,-9326.594869,-296.082377,76.609550
4085.286057,-9474.636058,148.041188,766.095498
4085.286387,-9844.739029,148.041188,766.095498
4085.286717,-9918.759623,888.247130,383.047749
4085.287047,-9326.594869,296.082377,-76.609550
4085.287377,-9918.759623,518.144159,383.047749
4085.287706,-9844.739029,74.020594,536.266849
4085.288036,-10066.800811,0.000000,306.438199
4085.288366,-9918.759623,-518.144159,-459.657299
4085.288696,-9400.615463,-222.061783,-689.485948
4085.289026,-9030.512492,0.000000,766.095498
4085.289355,-9400.615463,0.000000,842.705048
4085.289685,-8956.491898,74.020594,0.000000
4085.290015,-9548.656652,592.164754,383.047749
4085.290345,-10362.883188,296.082377,229.828649
4085.290675,-10584.944971,296.082377,-76.609550
4085.291004,-9992.780217,74.020594,-536.266849
4085.291334,-9474.636058,-296.082377,-842.705048
4085.291664,-9104.533087,74.020594,-306.438199
4085.291994,-9474.636058,-296.082377,919.314598
4085.292323,-10066.800811,296.082377,306.438199
4085.292653,-9770.718434,370.102971,-76.609550
4085.292983,-9622.677246,222.061783,-229.828649
4085.293313,-10214.842000,74.020594,766.095498
4085.293643,-10807.006753,222.061783,536.266849
4085.293972,-10140.821405,-444.123565,0.000000
4085.294302,-9252.574275,-444.123565,0.000000
4085.294632,-8512.368333,-148.041188,0.000000
4085.294962,-9696.697840,0.000000,766.095498
4085.295292,-9992.780217,74.020594,383.047749
4085.295621,-9770.718434,0.000000,842.705048
4085.295951,-9992.780217,0.000000,1225.752797
4085.296281,-11029.068536,-444.123565,1915.238745
4085.296611,-10732.986159,0.000000,1072.533697
4085.296941,-9252.574275,-592.164754,76.609550
4085.297270,-9252.574275,0.000000,-153.219100
4085.297600,-9696.697840,74.020594,0.000000
4085.297930,-10066.800811,444.123565,0.000000
4085.298260,-9844.739029,0.000000,-383.047749
4085.298590,-9400.615463,0.000000,153.219100
4085.298919,-9844.739029,0.000000,766.095498
4085.299249,-10807.006753,0.000000,1455.581446
4085.299579,-9696.697840,-74.020594,-229.828649
4085.299909,-9474.636058,-370.102971,76.609550
4085.300239,-9548.656652,74.020594,383.047749
4085.300568,-10288.862594,0.000000,995.924147
4085.300898,-9474.636058,0.000000,0.000000
4085.301228,-8882.471304,0.000000,-306.438199
4085.301558,-9030.512492,296.082377,-153.219100
4085.301887,-10584.944971,0.000000,76.609550
4085.302217,-10436.903782,740.205942,0.000000
4085.302547,-9548.656652,-518.144159,-229.828649
4085.302877,-9548.656652,0.000000,0.000000
4085.303207,-9770.718434,-296.082377,459.657299
4085.303536,-9992.780217,0.000000,536.266849
4085.303866,-9104.533087,0.000000,-536.266849
4085.304196,-9400.615463,222.061783,-536.266849
4085.304526,-10362.883188,666.185348,689.485948
4085.304856,-11103.089130,666.185348,1455.581446
4085.305185,-9918.759623,518.144159,689.485948
4085.305515,-9918.759623,-74.020594,-153.219100
4085.305845,-9696.697840,-148.041188,-459.657299
4085.306175,-9844.739029,-814.226536,-153.219100
4085.306505,-9104.533087,0.000000,-229.828649
4085.306834,-9104.533087,-148.041188,-229.828649
4085.307164,-9400.615463,148.041188,1072.533697
4085.307494,-9844.739029,0.000000,2068.457845
4085.307824,-9770.718434,592.164754,1225.752797
4085.308154,-10140.821405,0.000000,842.705048
4085.308483,-10510.924376,0.000000,153.219100
4085.308813,-10807.006753,0.000000,1532.190996
4085.309143,-10066.800811,-444.123565,1149.143247
4085.309473,-9252.574275,-444.123565,383.047749
4085.309803,-9030.512492,-370.102971,-306.438199
4085.310132,-9326.594869,-74.020594,0.000000
4085.310462,-9770.718434,222.061783,0.000000
4085.310792,-9474.636058,370.102971,229.828649
4085.311122,-10140.821405,74.020594,0.000000
4085.311451,-10510.924376,740.205942,766.095498
4085.311781,-10140.821405,0.000000,919.314598
4085.312111,-10066.800811,592.164754,0.000000
4085.312441,-9474.636058,74.020594,-1302.362347
4085.312771,-9326.594869,296.082377,-689.485948
4085.313100,-9770.718434,222.061783,0.000000
4085.313430,-10288.862594,740.205942,1149.143247
4085.313760,-10066.800811,296.082377,689.485948
4085.314090,-10066.800811,0.000000,536.266849
4085.314420,-9548.656652,148.041188,76.609550
4085.314749,-10214.842000,74.020594,0.000000
4085.315079,-9474.636058,148.041188,-1072.533697
4085.315409,-9252.574275,0.000000,-1149.143247
4085.315739,-9400.615463,592.164754,-153.219100
4085.316069,-9992.780217,222.061783,842.705048
4085.316398,-9770.718434,814.226536,536.266849
4085.316728,-9844.739029,0.000000,229.828649
4085.317058,-10066.800811,148.041188,-306.438199
4085.317388,-10288.862594,-222.061783,766.095498
4085.317718,-10066.800811,0.000000,1762.019645
4085.318047,-9178.553681,-518.144159,383.047749
4085.318377,-8956.491898,0.000000,842.705048
4085.318707,-9844.739029,-296.082377,689.485948
4085.319037,-10362.883188,74.020594,306.438199
4085.319367,-10066.800811,296.082377,-612.876398
4085.319696,-9474.636058,0.000000,-919.314598
4085.320026,-9326.594869,444.123565,306.438199
4085.320356,-9400.615463,-370.102971,229.828649
4085.320686,-9030.512492,148.041188,-612.876398
4085.321015,-9400.615463,74.020594,-842.705048
4085.321345,-10288.862594,370.102971,76.609550
4085.321675,-11029.068536,0.000000,766.095498
4085.322005,-9844.739029,444.123565,919.314598
4085.322335,-9474.636058,-296.082377,536.266849
4085.322664,-9400.615463,74.020594,0.000000
4085.322994,-9474.636058,-148.041188,536.266849
4085.323324,-9252.574275,444.123565,612.876398
4085.323654,-9474.636058,296.082377,-612.876398
4085.323984,-9992.780217,518.144159,-842.705048
4085.324313,-10066.800811,444.123565,0.000000
4085.324643,-10362.883188,444.123565,536.266849
4085.324973,-9992.780217,74.020594,459.657299
4085.325303,-10362.883188,0.000000,459.657299
4085.325633,-10288.862594,518.144159,76.609550
4085.325962,-9844.739029,0.000000,459.657299
4085.326292,-9548.656652,148.041188,229.828649
4085.326622,-9400.615463,0.000000,0.000000
4085.326952,-9992.780217,222.061783,536.266849
4085.327282,-10510.924376,74.020594,995.924147
4085.327611,-10140.821405,444.123565,1532.190996
4085.327941,-9474.636058,-370.102971,459.657299
4085.328271,-9400.615463,74.020594,76.609550
4085.328601,-9696.697840,222.061783,612.876398
4085.328931,-10584.944971,370.102971,459.657299
4085.329260,-10066.800811,0.000000,-229.828649
4085.329590,-9770.718434,-296.082377,153.219100
4085.329920,-9548.656652,-74.020594,459.657299
4085.330250,-9474.636058,-370.102971,459.657299
4085.330579,-9104.533087,222.061783,383.047749
4085.330909,-9178.553681,-222.061783,76.609550
4085.331239,-9918.759623,370.102971,689.485948
4085.331569,-9992.780217,0.000000,766.095498
4085.331899,-10066.800811,370.102971,76.609550
4085.332228,-9622.677246,-518.144159,-306.438199
4085.332558,-9400.615463,-148.041188,-383.047749
4085.332888,-9992.780217,-814.226536,229.828649
4085.333218,-9992.780217,-296.082377,0.000000
4085.333548,-9030.512492,-740.205942,0.000000
4085.333877,-9252.574275,-518.144159,306.438199
4085.334207,-9770.718434,74.020594,766.095498
4085.334537,-10362.883188,0.000000,1378.971896
4085.334867,-9992.780217,0.000000,919.314598
4085.335197,-9918.759623,0.000000,-229.828649
4085.335526,-10362.883188,0.000000,0.000000
4085.335856,-10658.965565,-296.082377,306.438199
4085.336186,-9474.636058,518.144159,612.876398
4085.336516,-8734.430116,-592.164754,-612.876398
4085.336846,-9252.574275,222.061783,0.000000
4085.337175,-10362.883188,74.020594,383.047749
4085.337505,-9770.718434,740.205942,536.266849
4085.337835,-9696.697840,222.061783,-459.657299
4085.338165,-9992.780217,666.185348,-383.047749
4085.338495,-10436.903782,0.000000,459.657299
4085.338824,-10658.965565,0.000000,689.485948
4085.339154,-9474.636058,-222.061783,0.000000
4085.339484,-9622.677246,0.000000,229.828649
4085.339814,-9844.739029,74.020594,612.876398
4085.340143,-10214.842000,-74.020594,689.485948
4085.340473,-9622.677246,518.144159,0.000000
4085.340803,-9622.677246,0.000000,-76.609550
4085.341133,-10066.800811,370.102971,306.438199
4085.341463,-10288.862594,-296.082377,1072.533697
4085.341792,-9622.677246,592.164754,766.095498
4085.342122,-9104.533087,-370.102971,306.438199
4085.342452,-9844.739029,74.020594,76.609550
4085.342782,-10288.862594,0.000000,459.657299
4085.343112,-9474.636058,74.020594,536.266849
4085.343442,-9252.574275,0.000000,-306.438199
4085.343772,-9696.697840,222.061783,306.438199
4085.344101,-9844.739029,296.082377,612.876398
4085.344431,-9844.739029,-296.082377,76.609550
4085.344761,-8660.409521,0.000000,383.047749
4085.345091,-10214.842000,-148.041188,383.047749
4085.345421,-10510.924376,148.041188,1302.362347
4085.345751,-10584.944971,-370.102971,1378.971896
4085.346081,-9030.512492,0.000000,-459.657299
4085.346411,-8956.491898,-296.082377,-842.705048
4085.346740,-9030.512492,518.144159,-383.047749
4085.347070,-9548.656652,0.000000,842.705048
4085.347400,-10140.821405,1184.329507,1149.143247
4085.347730,-10510.924376,296.082377,383.047749
4085.348060,-10584.944971,296.082377,-459.657299
4085.348390,-10584.944971,148.041188,0.000000
4085.348720,-10214.842000,-148.041188,-306.438199
4085.349049,-9400.615463,-296.082377,-76.609550
4085.349379,-9252.574275,-296.082377,0.000000
4085.349709,-8808.450710,148.041188,306.438199
4085.350039,-9548.656652,0.000000,612.876398
4085.350369,-9770.718434,1184.329507,0.000000
4085.350699,-10362.883188,0.000000,0.000000
4085.351029,-9992.780217,148.041188,0.000000
4085.351359,-10066.800811,-370.102971,536.266849
4085.351688,-9474.636058,0.000000,1072.533697
4085.352018,-9104.533087,-148.041188,153.219100
4085.352348,-9104.533087,74.020594,-306.438199
4085.352678,-10066.800811,0.000000,306.438199
4085.353008,-10658.965565,592.164754,689.485948
4085.353338,-10288.862594,222.061783,919.314598
4085.353668,-9696.697840,-148.041188,0.000000
4085.353998,-8660.409521,148.041188,459.657299
4085.354327,-9474.636058,222.061783,383.047749
4085.354657,-9696.697840,444.123565,0.000000
4085.354987,-9918.759623,370.102971,-919.314598
4085.355317,-9770.718434,518.144159,-766.095498
4085.355647,-10288.862594,0.000000,536.266849
4085.355977,-9992.780217,740.205942,1225.752797
4085.356307,-9474.636058,-518.144159,306.438199
4085.356637,-8882.471304,0.000000,229.828649
4085.356966,-9770.718434,-222.061783,1072.533697
4085.357296,-9918.759623,296.082377,766.095498
4085.357626,-10066.800811,222.061783,612.876398
4085.357956,-9326.594869,518.144159,459.657299
4085.358286,-9844.739029,444.123565,229.828649
4085.358616,-10658.965565,666.185348,306.438199
4085.358946,-9918.759623,592.164754,-306.438199
4085.359276,-10066.800811,74.020594,-842.705048
4085.359605,-9844.739029,444.123565,0.000000
4085.359935,-10066.800811,0.000000,1149.143247
4085.360265,-9992.780217,222.061783,689.485948
4085.360595,-9326.594869,74.020594,-459.657299
4085.360925,-9696.697840,222.061783,-612.876398
4085.361255,-10658.965565,-222.061783,306.438199
4085.361585,-10140.821405,444.123565,689.485948
4085.361914,-9622.677246,0.000000,689.485948
4085.362244,-9548.656652,296.082377,383.047749
4085.362574,-10214.842000,0.000000,919.314598
4085.362904,-10658.965565,74.020594,306.438199
4085.363234,-9918.759623,-222.061783,-306.438199
4085.363564,-9474.636058,-370.102971,-1149.143247
4085.363894,-9474.636058,-592.164754,76.609550
4085.364224,-9992.780217,-370.102971,919.314598
4085.364553,-9030.512492,74.020594,995.924147
4085.364883,-9474.636058,-666.185348,0.000000
4085.365213,-10066.800811,222.061783,383.047749
4085.365543,-10955.047942,0.000000,919.314598
4085.365873,-10362.883188,148.041188,842.705048
4085.366203,-8956.491898,0.000000,-383.047749
4085.366533,-9622.677246,74.020594,153.219100
4085.366863,-11103.089130,-222.061783,689.485948
4085.367192,-9918.759623,-74.020594,383.047749
4085.367522,-8882.471304,-592.164754,-383.047749
4085.367852,-8956.491898,-370.102971,-536.266849
4085.368182,-9548.656652,0.000000,76.609550
4085.368512,-9696.697840,-370.102971,306.438199
4085.368842,-9030.512492,148.041188,-306.438199
4085.369172,-9104.533087,148.041188,-459.657299
4085.369502,-10658.965565,222.061783,612.876398
4085.369831,-10807.006753,-296.082377,1072.533697
4085.370161,-10362.883188,0.000000,1072.533697
4085.370491,-9548.656652,-444.123565,0.000000
4085.370821,-9474.636058,0.000000,306.438199
4085.371151,-9622.677246,74.020594,842.705048
4085.371481,-9104.533087,74.020594,153.219100
4085.371811,-9844.739029,296.082377,-229.828649
4085.372141,-10140.821405,444.123565,-153.219100
4085.372470,-10807.006753,222.061783,0.000000
4085.372800,-10214.842000,666.185348,459.657299
4085.373130,-9474.636058,-222.061783,0.000000
4085.373460,-9770.718434,0.000000,-383.047749
4085.373790,-9622.677246,296.082377,229.828649
4085.374120,-10066.800811,-148.041188,153.219100
4085.374450,-9400.615463,740.205942,76.609550
4085.374779,-9474.636058,0.000000,229.828649
4085.375109,-9474.636058,444.123565,612.876398
4085.375439,-10288.862594,296.082377,995.924147
4085.375769,-10214.842000,370.102971,612.876398
4085.376099,-9474.636058,-814.226536,0.000000
4085.376429,-9252.574275,0.000000,0.000000
4085.376759,-9400.615463,-222.061783,1225.752797
4085.377089,-9696.697840,370.102971,612.876398
4085.377418,-9326.594869,148.041188,-459.657299
4085.377748,-8882.471304,444.123565,-766.095498
4085.378078,-10214.842000,222.061783,-153.219100
4085.378408,-11103.089130,814.226536,536.266849
4085.378738,-10214.842000,222.061783,919.314598
4085.379068,-9622.677246,-444.123565,612.876398
4085.379398,-9770.718434,222.061783,919.314598
4085.379728,-10288.862594,-444.123565,689.485948
4085.380057,-9252.574275,0.000000,0.000000
4085.380387,-8734.430116,222.061783,-689.485948
4085.380717,-8956.491898,222.061783,153.219100
4085.381047,-10436.903782,296.082377,919.314598
4085.381377,-10436.903782,1036.288319,842.705048
4085.381707,-9844.739029,0.000000,-306.438199
4085.382037,-10436.903782,444.123565,-766.095498
4085.382367,-10288.862594,148.041188,536.266849
4085.382696,-10807.006753,0.000000,766.095498
4085.383026,-9844.739029,-148.041188,76.609550
4085.383356,-9474.636058,-74.020594,0.000000
4085.383686,-9548.656652,-444.123565,153.219100
4085.384016,-9770.718434,0.000000,229.828649
4085.384346,-9104.533087,296.082377,229.828649
4085.384676,-9844.739029,-148.041188,76.609550
4085.385006,-9548.656652,296.082377,919.314598
4085.385335,-10362.883188,-370.102971,1149.143247
4085.385665,-10140.821405,296.082377,459.657299
4085.385995,-9770.718434,-222.061783,0.000000
4085.386325,-9696.697840,0.000000,-229.828649
4085.386655,-9474.636058,-518.144159,306.438199
4085.386985,-9474.636058,370.102971,229.828649
4085.387315,-9030.512492,222.061783,0.000000
4085.387644,-9770.718434,74.020594,-306.438199
4085.387974,-10066.800811,888.247130,459.657299
4085.388304,-10436.903782,148.041188,459.657299
4085.388634,-9844.739029,296.082377,-919.314598
4085.388964,-9992.780217,-370.102971,-1072.533697
4085.389294,-9770.718434,0.000000,229.828649
4085.389624,-9918.759623,-518.144159,1072.533697
4085.389954,-9178.553681,222.061783,842.705048
4085.390283,-9474.636058,-148.041188,612.876398
4085.390613,-9918.759623,592.164754,612.876398
4085.390943,-10584.944971,0.000000,766.095498
4085.391273,-10955.047942,0.000000,0.000000
4085.391603,-9992.780217,-222.061783,0.000000
4085.391933,-9252.574275,-518.144159,306.438199
4085.392263,-8956.491898,-592.164754,689.485948
4085.392593,-9548.656652,-296.082377,459.657299
4085.392922,-9252.574275,0.000000,0.000000
4085.393252,-9474.636058,-222.061783,-766.095498
4085.393582,-9992.780217,444.123565,0.000000
4085.393912,-11103.089130,222.061783,1455.581446
4085.394242,-10288.862594,296.082377,1455.581446
4085.394572,-9474.636058,148.041188,76.609550
4085.394902,-9696.697840,222.061783,0.000000
4085.395232,-10584.944971,-740.205942,0.000000
4085.395561,-9696.697840,444.123565,153.219100
4085.395891,-8956.491898,-296.082377,153.219100
4085.396221,-9252.574275,518.144159,383.047749
4085.396551,-9696.697840,148.041188,1225.752797
4085.396881,-9548.656652,148.041188,459.657299
4085.397211,-9548.656652,148.041188,-842.705048
4085.397541,-9844.739029,148.041188,-842.705048
4085.397870,-10214.842000,-296.082377,76.609550
4085.398200,-9918.759623,-296.082377,1225.752797
4085.398530,-8956.491898,74.020594,1378.971896
4085.398860,-9400.615463,-518.144159,612.876398
4085.399190,-9844.739029,518.144159,0.000000
4085.399520,-10288.862594,0.000000,0.000000
4085.399850,-9622.677246,740.205942,153.219100
4085.400180,-10066.800811,-148.041188,536.266849
4085.400509,-10584.944971,148.041188,919.314598
4085.400839,-10066.800811,-296.082377,995.924147
4085.401169,-9474.636058,444.123565,229.828649
4085.401499,-9696.697840,-370.102971,-612.876398
4085.401829,-9844.739029,0.000000,76.609550
4085.402159,-9918.759623,148.041188,1225.752797
4085.402489,-10140.821405,-222.061783,995.924147
4085.402819,-9400.615463,518.144159,383.047749
4085.403148,-9400.615463,0.000000,76.609550
4085.403478,-9474.636058,148.041188,0.000000
4085.403808,-9770.718434,0.000000,0.000000
4085.404138,-10066.800811,962.267725,229.828649
4085.404468,-10066.800811,74.020594,0.000000
4085.404798,-9918.759623,518.144159,306.438199
4085.405128,-10288.862594,0.000000,76.609550
4085.405458,-9622.677246,0.000000,-383.047749
4085.405787,-9178.553681,-518.144159,0.000000
4085.406117,-9030.512492,0.000000,459.657299
4085.406447,-9918.759623,0.000000,1378.971896
4085.406777,-10362.883188,444.123565,1072.533697
4085.407107,-10140.821405,296.082377,153.219100
4085.407437,-10140.821405,148.041188,153.219100
4085.407767,-10140.821405,444.123565,153.219100
4085.408097,-10214.842000,-370.102971,0.000000
4085.408426,-9252.574275,0.000000,306.438199
4085.408756,-8660.409521,-148.041188,-383.047749
4085.409086,-8956.491898,74.020594,306.438199
4085.409416,-10658.965565,222.061783,229.828649
4085.409746,-10436.903782,1036.288319,383.047749
4085.410076,-10288.862594,74.020594,-306.438199
4085.410406,-9844.739029,666.185348,0.000000
4085.410735,-10214.842000,222.061783,306.438199
4085.411065,-9770.718434,222.061783,0.000000
4085.411395,-9474.636058,222.061783,-842.705048
4085.411725,-9252.574275,518.144159,-306.438199
4085.412055,-9770.718434,0.000000,0.000000
4085.412385,-10214.842000,222.061783,76.609550
4085.412715,-9548.656652,0.000000,229.828649
4085.413045,-9622.677246,-222.061783,76.609550
4085.413374,-9326.594869,444.123565,536.266849
4085.413704,-9696.697840,-370.102971,612.876398
4085.414034,-9474.636058,74.020594,766.095498
4085.414364,-9548.656652,296.082377,0.000000
4085.414694,-9918.759623,518.144159,383.047749
4085.415024,-10658.965565,74.020594,766.095498
4085.415354,-9770.718434,962.267725,612.876398
4085.415684,-9622.677246,0.000000,0.000000
4085.416013,-9696.697840,74.020594,-153.219100
4085.416343,-9844.739029,0.000000,995.924147
4085.416673,-9918.759623,222.061783,1225.752797
4085.417003,-9992.780217,0.000000,995.924147
4085.417333,-9770.718434,148.041188,76.609550
4085.417663,-10066.800811,-518.144159,383.047749
4085.417993,-9992.780217,0.000000,919.314598
4085.418323,-9844.739029,-222.061783,306.438199
4085.418652,-9474.636058,-222.061783,383.047749
4085.418982,-9104.533087,222.061783,612.876398
4085.419312,-9844.739029,0.000000,842.705048
4085.419642,-10140.821405,518.144159,689.485948
4085.419972,-10140.821405,-370.102971,-689.485948
4085.420302,-9474.636058,74.020594,-383.047749
4085.420632,-9400.615463,-592.164754,153.219100
4085.420962,-9548.656652,148.041188,306.438199
4085.421291,-9326.594869,-444.123565,-153.219100
4085.421621,-9474.636058,74.020594,-766.095498
4085.421951,-9474.636058,296.082377,0.000000
4085.422281,-10807.006753,222.061783,0.000000
4085.422611,-10436.903782,222.061783,-153.219100
4085.422941,-10066.800811,-370.102971,-612.876398
4085.423271,-9622.677246,-814.226536,76.609550
4085.423600,-9770.718434,-666.185348,995.924147
4085.423930,-9400.615463,-296.082377,229.828649
4085.424260,-9104.533087,-1036.288319,-383.047749
4085.424590,-9548.656652,74.020594,306.438199
4085.424920,-10732.986159,-222.061783,1225.752797
4085.425250,-11325.150913,222.061783,1072.533697
4085.425580,-10140.821405,-518.144159,76.609550
4085.425910,-8808.450710,-370.102971,-459.657299
4085.426239,-9474.636058,-814.226536,0.000000
4085.426569,-9548.656652,0.000000,459.657299
4085.426899,-9844.739029,-222.061783,536.266849
4085.427229,-9474.636058,-148.041188,76.609550
4085.427559,-9918.759623,148.041188,383.047749
4085.427889,-10658.965565,-148.041188,1072.533697
4085.428219,-9918.759623,74.020594,459.657299
4085.428549,-9400.615463,-222.061783,-383.047749
4085.428878,-9326.594869,148.041188,-306.438199
4085.429208,-9622.677246,-296.082377,76.609550
4085.429538,-9474.636058,296.082377,536.266849
4085.429868,-9696.697840,-370.102971,383.047749
4085.430198,-10066.800811,222.061783,766.095498
4085.430528,-10362.883188,-74.020594,1072.533697
4085.430858,-10214.842000,74.020594,1072.533697
4085.431188,-8882.471304,-444.123565,612.876398
4085.431517,-9474.636058,370.102971,76.609550
4085.431847,-9918.759623,-148.041188,383.047749
4085.432177,-10140.821405,592.164754,689.485948
4085.432507,-9474.636058,814.226536,0.000000
4085.432837,-9474.636058,0.000000,-689.485948
4085.433167,-9474.636058,518.144159,-383.047749
4085.433497,-9844.739029,0.000000,536.266849
4085.433827,-9844.739029,296.082377,0.000000
4085.434156,-9770.718434,592.164754,-459.657299
4085.434486,-9548.656652,0.000000,-153.219100
4085.434816,-9844.739029,0.000000,383.047749
4085.435146,-9696.697840,888.247130,919.314598
4085.435476,-9770.718434,444.123565,536.266849
4085.435806,-9992.780217,296.082377,612.876398
4085.436136,-10288.862594,592.164754,1302.362347
4085.436465,-10140.821405,74.020594,306.438199
4085.436795,-9178.553681,814.226536,-306.438199
4085.437125,-9252.574275,222.061783,-689.485948
4085.437455,-9400.615463,0.000000,0.000000
4085.437785,-9696.697840,0.000000,306.438199
4085.438115,-9696.697840,444.123565,-383.047749
4085.438445,-9548.656652,0.000000,-306.438199
4085.438775,-9770.718434,444.123565,76.609550
4085.439104,-10362.883188,0.000000,766.095498
4085.439434,-9992.780217,222.061783,1072.533697
4085.439764,-9992.780217,74.020594,766.095498
4085.440094,-9622.677246,74.020594,0.000000
4085.440424,-9770.718434,-444.123565,0.000000
4085.440754,-9548.656652,148.041188,76.609550
4085.441084,-9178.553681,74.020594,-1225.752797
4085.441414,-9326.594869,296.082377,-1072.533697
4085.441743,-9548.656652,0.000000,-459.657299
4085.442073,-10362.883188,0.000000,0.000000
4085.442403,-9844.739029,222.061783,-306.438199
4085.442733,-9918.759623,-370.102971,-306.438199
4085.443063,-9770.718434,-518.144159,153.219100
4085.443393,-9474.636058,-666.185348,383.047749
4085.443723,-9252.574275,-370.102971,306.438199
4085.444053,-9474.636058,-740.205942,76.609550
4085.444382,-9696.697840,74.020594,842.705048
4085.444712,-10807.006753,0.000000,1532.190996
4085.445042,-10214.842000,0.000000,459.657299
4085.445372,-8956.491898,0.000000,76.609550
4085.445702,-9252.574275,-148.041188,-995.924147
4085.446032,-9548.656652,-444.123565,-306.438199
4085.446361,-9770.718434,-148.041188,536.266849
4085.446691,-9844.739029,0.000000,0.000000
4085.447021,-10214.842000,0.000000,153.219100
4085.447351,-9918.759623,296.082377,1302.362347
4085.447681,-10214.842000,0.000000,1225.752797
4085.448011,-10362.883188,740.205942,229.828649
4085.448341,-10288.862594,0.000000,-153.219100
4085.448670,-9770.718434,0.000000,0.000000
4085.449000,-10140.821405,-370.102971,766.095498
4085.449330,-9252.574275,148.041188,766.095498
4085.449660,-9400.615463,-814.226536,153.219100
4085.449990,-9178.553681,-370.102971,689.485948
4085.450320,-9992.780217,-518.144159,1302.362347
4085.450649,-9918.759623,-296.082377,995.924147
4085.450979,-9400.615463,0.000000,306.438199
4085.451309,-9696.697840,0.000000,383.047749
4085.451639,-9918.759623,-370.102971,689.485948
4085.451969,-10214.842000,0.000000,1149.143247
4085.452299,-9844.739029,148.041188,995.924147
4085.452629,-9770.718434,-1036.288319,0.000000
4085.452958,-9474.636058,-296.082377,612.876398
4085.453288,-9918.759623,-370.102971,1455.581446
4085.453618,-9918.759623,592.164754,842.705048
4085.453948,-9474.636058,0.000000,0.000000
4085.454278,-9696.697840,518.144159,-536.266849
4085.454608,-10362.883188,148.041188,-306.438199
4085.454937,-10362.883188,888.247130,76.609550
4085.455267,-9770.718434,148.041188,-459.657299
4085.455597,-9622.677246,74.020594,229.828649
4085.455927,-9770.718434,-148.041188,1072.533697
4085.456257,-10436.903782,-74.020594,1149.143247
4085.456587,-9918.759623,0.000000,-229.828649
4085.456916,-9104.533087,0.000000,76.609550
4085.457246,-9474.636058,222.061783,229.828649
4085.457576,-9992.780217,296.082377,459.657299
4085.457906,-9918.759623,814.226536,0.000000
4085.458236,-9844.739029,0.000000,-612.876398
4085.458566,-9548.656652,296.082377,-306.438199
4085.458896,-10510.924376,0.000000,383.047749
4085.459225,-9844.739029,444.123565,-229.828649
4085.459555,-8586.388927,0.000000,-689.485948
4085.459885,-8734.430116,444.123565,-612.876398
4085.460215,-10140.821405,0.000000,229.828649
4085.460545,-10362.883188,666.185348,383.047749
4085.460875,-9622.677246,74.020594,153.219100
4085.461204,-9326.594869,222.061783,-536.266849
4085.461534,-10066.800811,518.144159,536.266849
4085.461864,-10584.944971,444.123565,689.485948
4085.462194,-9400.615463,296.082377,-612.876398
4085.462524,-9030.512492,0.000000,-1225.752797
4085.462854,-9548.656652,370.102971,-536.266849
4085.463183,-10288.862594,296.082377,229.828649
4085.463513,-9770.718434,518.144159,0.000000
4085.463843,-9770.718434,148.041188,229.828649
4085.464173,-9918.759623,370.102971,536.266849
4085.464503,-10288.862594,0.000000,842.705048
4085.464833,-9844.739029,222.061783,612.876398
4085.465163,-9400.615463,-74.020594,153.219100
4085.465492,-9474.636058,0.000000,689.485948
4085.465822,-9844.739029,148.041188,1149.143247
4085.466152,-9992.780217,444.123565,306.438199
4085.466482,-9474.636058,148.041188,153.219100
4085.466812,-9844.739029,0.000000,-76.609550
4085.467142,-10436.903782,444.123565,1149.143247
4085.467471,-10436.903782,296.082377,919.314598
4085.467801,-9474.636058,148.041188,76.609550
4085.468131,-9400.615463,0.000000,0.000000
4085.468461,-9548.656652,222.061783,0.000000
4085.468791,-9918.759623,0.000000,919.314598
4085.469121,-10140.821405,296.082377,536.266849
4085.469450,-9992.780217,-222.061783,0.000000
4085.469780,-10436.903782,296.082377,383.047749
4085.470110,-10288.862594,0.000000,1072.533697
4085.470440,-9770.718434,-444.123565,229.828649
4085.470770,-9104.533087,0.000000,-306.438199
4085.471100,-9474.636058,592.164754,0.000000
4085.471430,-9770.718434,296.082377,229.828649
4085.471759,-10214.842000,370.102971,0.000000
4085.472089,-10214.842000,0.000000,-459.657299
4085.472419,-9844.739029,-518.144159,-76.609550
4085.472749,-9622.677246,-592.164754,689.485948
4085.473079,-9622.677246,-666.185348,1685.410096
4085.473409,-9326.594869,-740.205942,1455.581446
4085.473738,-9104.533087,-370.102971,766.095498
4085.474068,-9474.636058,74.020594,306.438199
4085.474398,-10362.883188,-296.082377,153.219100
4085.474728,-10436.903782,296.082377,689.485948
4085.475058,-9918.759623,-444.123565,306.438199
4085.475388,-9474.636058,-444.123565,306.438199
4085.475717,-9400.615463,-518.144159,536.266849
4085.476047,-9622.677246,-370.102971,0.000000
4085.476377,-9548.656652,-888.247130,-459.657299
4085.476707,-9400.615463,-444.123565,612.876398
4085.477037,-9326.594869,-592.164754,766.095498
4085.477367,-9548.656652,-370.102971,1072.533697
4085.477697,-9918.759623,74.020594,766.095498
4085.478026,-10140.821405,-444.123565,612.876398
4085.478356,-10066.800811,0.000000,842.705048
4085.478686,-10362.883188,0.000000,1149.143247
4085.479016,-10288.862594,222.061783,459.657299
4085.479346,-9696.697840,-148.041188,-76.609550
4085.479676,-9400.615463,296.082377,-536.266849
4085.480005,-9844.739029,-444.123565,-612.876398
4085.480335,-9918.759623,0.000000,-383.047749
4085.480665,-9622.677246,-74.020594,0.000000
4085.480995,-9474.636058,-370.102971,229.828649
4085.481325,-9696.697840,148.041188,1608.800546
4085.481655,-10955.047942,0.000000,1762.019645
4085.481984,-10436.903782,74.020594,919.314598
4085.482314,-9474.636058,0.000000,0.000000
4085.482644,-9326.594869,296.082377,-153.219100
4085.482974,-9622.677246,-296.082377,0.000000
4085.483304,-9474.636058,518.144159,76.609550
4085.483634,-9400.615463,0.000000,-229.828649
4085.483964,-9696.697840,518.144159,-612.876398
4085.484293,-10066.800811,222.061783,153.219100
4085.484623,-9844.739029,518.144159,612.876398
4085.484953,-9474.636058,74.020594,689.485948
4085.485283,-9326.594869,444.123565,76.609550
4085.485613,-9844.739029,0.000000,0.000000
4085.485943,-10214.842000,666.185348,612.876398
4085.486272,-9992.780217,148.041188,0.000000
4085.486602,-9992.780217,0.000000,306.438199
4085.486932,-9474.636058,740.205942,76.609550
4085.487262,-10140.821405,444.123565,842.705048
4085.487592,-9474.636058,296.082377,536.266849
4085.487922,-9326.594869,0.000000,-383.047749
4085.488251,-9104.533087,296.082377,-612.876398
4085.488581,-9622.677246,0.000000,0.000000
4085.488911,-9770.718434,888.247130,153.219100
4085.489241,-10140.821405,74.020594,153.219100
4085.489571,-10140.821405,592.164754,-306.438199
4085.489901,-9844.739029,0.000000,536.266849
4085.490231,-10436.903782,370.102971,536.266849
4085.490560,-9844.739029,222.061783,153.219100
4085.490890,-8882.471304,296.082377,-153.219100
4085.491220,-9178.553681,296.082377,536.266849
4085.491550,-9918.759623,296.082377,612.876398
4085.491880,-10584.944971,1110.308913,-306.438199
4085.492210,-10066.800811,444.123565,-1532.190996
4085.492539,-9548.656652,814.226536,-383.047749
4085.492869,-9400.615463,-148.041188,612.876398
4085.493199,-9918.759623,296.082377,766.095498
4085.493529,-9474.636058,-222.061783,153.219100
4085.493859,-9104.533087,74.020594,-766.095498
4085.494189,-9252.574275,-148.041188,0.000000
4085.494518,-10066.800811,1036.288319,153.219100
4085.494848,-10510.924376,370.102971,459.657299
4085.495178,-9548.656652,370.102971,459.657299
4085.495508,-9770.718434,222.061783,612.876398
4085.495838,-10362.883188,222.061783,536.266849
4085.496168,-9844.739029,0.000000,0.000000
4085.496498,-9178.553681,-370.102971,-766.095498
4085.496827,-8882.471304,0.000000,612.876398
4085.497157,-9992.780217,148.041188,842.705048
4085.497487,-9918.759623,814.226536,229.828649
4085.497817,-9474.636058,-148.041188,-306.438199
4085.498147,-9844.739029,666.185348,-153.219100
4085.498477,-10881.027347,148.041188,995.924147
4085.498806,-10955.047942,148.041188,689.485948
4085.499136,-9770.718434,-370.102971,306.438199
4085.499466,-8808.450710,0.000000,76.609550
4085.499796,-9474.636058,-518.144159,459.657299
4085.500126,-10436.903782,0.000000,536.266849
4085.500456,-10214.842000,-222.061783,229.828649
4085.500785,-9474.636058,518.144159,383.047749
4085.501115,-9770.718434,0.000000,1532.190996
4085.501445,-10436.903782,-148.041188,1532.190996
4085.501775,-10288.862594,148.041188,766.095498
4085.502105,-9400.615463,-370.102971,-1225.752797
4085.502435,-9400.615463,-370.102971,-919.314598
4085.502765,-9918.759623,-1036.288319,-383.047749
4085.503094,-9326.594869,-148.041188,153.219100
4085.503424,-9252.574275,-888.247130,0.000000
4085.503754,-9326.594869,74.020594,0.000000
4085.504084,-10214.842000,-518.144159,1378.971896
4085.504414,-10584.944971,-148.041188,1149.143247
4085.504744,-10066.800811,-518.144159,383.047749
4085.505073,-9252.574275,0.000000,-229.828649
4085.505403,-9474.636058,-962.267725,459.657299
4085.505733,-9844.739029,-74.020594,306.438199
4085.506063,-9918.759623,-74.020594,-153.219100
4085.506393,-9992.780217,-370.102971,-766.095498
4085.506723,-9326.594869,222.061783,536.266849
4085.507053,-10066.800811,444.123565,1455.581446
4085.507382,-10436.903782,370.102971,766.095498
4085.507712,-10362.883188,0.000000,0.000000
4085.508042,-9400.615463,148.041188,76.609550
4085.508372,-9770.718434,-296.082377,0.000000
4085.508702,-9696.697840,74.020594,0.000000
4085.509032,-9474.636058,-296.082377,383.047749
4085.509361,-9622.677246,444.123565,536.266849
4085.509691,-9548.656652,444.123565,689.485948
4085.510021,-10881.027347,1036.288319,229.828649
4085.510351,-10658.965565,888.247130,-76.609550
4085.510681,-9400.615463,1110.308913,-689.485948
4085.511011,-9326.594869,444.123565,-229.828649
4085.511340,-9770.718434,296.082377,-306.438199
4085.511670,-10066.800811,444.123565,-229.828649
4085.512000,-9696.697840,-296.082377,-1302.362347
4085.512330,-8734.430116,74.020594,76.609550
4085.512660,-9474.636058,-74.020594,842.705048
4085.512990,-9400.615463,444.123565,766.095498
4085.513320,-9474.636058,0.000000,459.657299
4085.513649,-9178.553681,888.247130,0.000000
4085.513979,-9844.739029,0.000000,383.047749
4085.514309,-9992.780217,740.205942,536.266849
4085.514639,-9844.739029,148.041188,459.657299
4085.514969,-9474.636058,296.082377,0.000000
4085.515299,-9326.594869,0.000000,536.266849
4085.515628,-9474.636058,74.020594,536.266849
4085.515958,-9104.533087,-148.041188,-153.219100
4085.516288,-9400.615463,0.000000,-229.828649
4085.516618,-9844.739029,518.144159,536.266849
4085.516948,-10140.821405,444.123565,1149.143247
4085.517278,-9918.759623,888.247130,76.609550
4085.517607,-9992.780217,222.061783,-766.095498
4085.517937,-10362.883188,740.205942,-459.657299
4085.518267,-10732.986159,0.000000,612.876398
4085.518597,-10288.862594,370.102971,306.438199
4085.518927,-9474.636058,-148.041188,76.609550
4085.519257,-9030.512492,-444.123565,-459.657299
4085.519587,-9548.656652,-444.123565,0.000000
4085.519916,-9548.656652,518.144159,0.000000
4085.520246,-9622.677246,296.082377,-383.047749
4085.520576,-10066.800811,148.041188,-383.047749
4085.520906,-10066.800811,148.041188,1149.143247
4085.521236,-10510.924376,0.000000,1532.190996
4085.521566,-10362.883188,0.000000,689.485948
4085.521895,-9696.697840,-148.041188,-689.485948
4085.522225,-9474.636058,-148.041188,-383.047749
4085.522555,-10288.862594,-444.123565,153.219100
4085.522885,-9622.677246,740.205942,459.657299
4085.523215,-9474.636058,74.020594,153.219100
4085.523545,-9622.677246,888.247130,229.828649
4085.523874,-9844.739029,74.020594,842.705048
4085.524204,-10732.986159,0.000000,1225.752797
4085.524534,-9844.739029,-296.082377,229.828649
4085.524864,-9326.594869,-444.123565,153.219100
4085.525194,-9548.656652,-666.185348,306.438199
4085.525524,-9474.636058,-370.102971,306.438199
4085.525854,-9400.615463,0.000000,0.000000
4085.526183,-9104.533087,-444.123565,-1378.971896
4085.526513,-9474.636058,370.102971,536.266849
4085.526843,-10510.924376,0.000000,1149.143247
4085.527173,-9696.697840,0.000000,1378.971896
4085.527503,-9622.677246,-518.144159,612.876398
4085.527833,-9474.636058,-444.123565,612.876398
4085.528162,-10362.883188,-962.267725,0.000000
4085.528492,-9400.615463,-592.164754,-153.219100
4085.528822,-8808.450710,-888.247130,-306.438199
4085.529152,-8586.388927,74.020594,229.828649
4085.529482,-10214.842000,370.102971,1685.410096
4085.529812,-10955.047942,148.041188,919.314598
4085.530141,-10362.883188,0.000000,-229.828649
4085.530471,-9696.697840,222.061783,-689.485948
4085.530801,-10436.903782,-296.082377,306.438199
4085.531131,-10362.883188,-444.123565,919.314598
4085.531461,-9030.512492,0.000000,612.876398
4085.531791,-9030.512492,-444.123565,-612.876398
4085.532121,-9770.718434,444.123565,0.000000
4085.532450,-11325.150913,0.000000,383.047749
4085.532780,-10436.903782,148.041188,-306.438199
4085.533110,-9400.615463,-592.164754,-306.438199
4085.533440,-8956.491898,518.144159,842.705048
4085.533770,-9844.739029,-740.205942,1455.581446
4085.534100,-10584.944971,0.000000,1072.533697
4085.534429,-9696.697840,-592.164754,153.219100
4085.534759,-9622.677246,296.082377,-306.438199
4085.535089,-9622.677246,-296.082377,995.924147
4085.535419,-10584.944971,0.000000,1378.971896
4085.535749,-9696.697840,0.000000,1685.410096
4085.536079,-9474.636058,-222.061783,153.219100
4085.536408,-9326.594869,0.000000,-536.266849
4085.536738,-9548.656652,-222.061783,-612.876398
4085.537068,-9474.636058,592.164754,0.000000
4085.537398,-9474.636058,-148.041188,-306.438199
4085.537728,-9326.594869,962.267725,0.000000
4085.538058,-9844.739029,74.020594,383.047749
4085.538388,-9992.780217,666.185348,0.000000
4085.538717,-10510.924376,148.041188,-306.438199
4085.539047,-10881.027347,518.144159,-612.876398
4085.539377,-9696.697840,-444.123565,842.705048
4085.539707,-9326.594869,592.164754,612.876398
4085.540037,-9104.533087,222.061783,76.609550
4085.540367,-9548.656652,222.061783,0.000000
4085.540696,-9474.636058,518.144159,-153.219100
4085.541026,-9696.697840,592.164754,-383.047749
4085.541356,-9992.780217,888.247130,-229.828649
4085.541686,-10584.944971,444.123565,229.828649
4085.542016,-9770.718434,740.205942,612.876398
4085.542346,-9474.636058,0.000000,153.219100
4085.542675,-9178.553681,666.185348,-612.876398
4085.543005,-9326.594869,0.000000,-919.314598
4085.543335,-9474.636058,962.267725,-383.047749
4085.543665,-10214.842000,666.185348,919.314598
4085.543995,-10140.821405,888.247130,383.047749
4085.544325,-9992.780217,222.061783,0.000000
4085.544654,-9622.677246,518.144159,536.266849
4085.544984,-9844.739029,0.000000,689.485948
4085.545314,-9992.780217,296.082377,766.095498
4085.545644,-9622.677246,592.164754,-153.219100
4085.545973,-9548.656652,222.061783,-229.828649
4085.546303,-9770.718434,814.226536,76.609550
4085.546633,-10362.883188,370.102971,536.266849
4085.546963,-10214.842000,296.082377,0.000000
4085.547293,-9696.697840,0.000000,0.000000
4085.547622,-9770.718434,444.123565,612.876398
4085.547952,-9844.739029,-666.185348,536.266849
4085.548282,-9918.759623,370.102971,536.266849
4085.548612,-9918.759623,-74.020594,229.828649
4085.548941,-9400.615463,148.041188,0.000000
4085.549271,-9474.636058,0.000000,459.657299
4085.549601,-10288.862594,148.041188,1149.143247
4085.549931,-9622.677246,0.000000,689.485948
4085.550261,-9474.636058,-222.061783,0.000000
4085.550590,-9770.718434,0.000000,-306.438199
4085.550920,-9992.780217,-370.102971,383.047749
4085.551250,-9474.636058,74.020594,-229.828649
4085.551580,-9696.697840,0.000000,153.219100
4085.551909,-9548.656652,74.020594,0.000000
4085.552239,-10584.944971,-222.061783,919.314598
4085.552569,-10288.862594,-370.102971,766.095498
4085.552899,-9992.780217,-592.164754,306.438199
4085.553229,-9030.512492,-592.164754,306.438199
4085.553558,-9548.656652,-888.247130,459.657299
4085.553888,-9844.739029,0.000000,536.266849
4085.554218,-9992.780217,-74.020594,306.438199
4085.554548,-9770.718434,0.000000,-536.266849
4085.554877,-9548.656652,-296.082377,0.000000
4085.555207,-9918.759623,-444.123565,995.924147
4085.555537,-9770.718434,-222.061783,383.047749
4085.555867,-9770.718434,-148.041188,0.000000
4085.556197,-9622.677246,-740.205942,-153.219100
4085.556526,-10288.862594,-814.226536,0.000000
4085.556856,-9992.780217,-74.020594,76.609550
4085.557186,-9548.656652,-1036.288319,306.438199
4085.557516,-9326.594869,-296.082377,842.705048
4085.557845,-9992.780217,-296.082377,995.924147
4085.558175,-9918.759623,296.082377,842.705048
4085.558505,-9622.677246,-296.082377,306.438199
4085.558835,-9326.594869,74.020594,0.000000
4085.559165,-9992.780217,-518.144159,766.095498
4085.559494,-10214.842000,74.020594,536.266849
4085.559824,-9474.636058,-740.205942,-153.219100
4085.560154,-9178.553681,-666.185348,-1149.143247
4085.560484,-9548.656652,-444.123565,0.000000
4085.560813,-9918.759623,0.000000,1149.143247
4085.561143,-9474.636058,0.000000,689.485948
4085.561473,-9178.553681,74.020594,383.047749
4085.561803,-9104.533087,444.123565,612.876398
4085.562133,-10881.027347,-296.082377,536.266849
4085.562462,-10732.986159,592.164754,229.828649
4085.562792,-10288.862594,-444.123565,0.000000
4085.563122,-9400.615463,148.041188,-766.095498
4085.563452,-8734.430116,0.000000,536.266849
4085.563781,-9252.574275,296.082377,689.485948
4085.564111,-9252.574275,74.020594,-306.438199
4085.564441,-9400.615463,518.144159,-689.485948
4085.564771,-9844.739029,296.082377,306.438199
4085.565100,-10436.903782,296.082377,919.314598
4085.565430,-9844.739029,444.123565,612.876398
4085.565760,-9548.656652,-370.102971,-76.609550
4085.566090,-9030.512492,444.123565,229.828649
4085.566420,-10436.903782,148.041188,1072.533697
4085.566749,-10510.924376,666.185348,842.705048
4085.567079,-9770.718434,222.061783,536.266849
4085.567409,-9104.533087,666.185348,459.657299
4085.567739,-9844.739029,148.041188,842.705048
4085.568068,-10362.883188,1184.329507,459.657299
4085.568398,-10066.800811,370.102971,-766.095498
4085.568728,-9474.636058,222.061783,-1302.362347
4085.569058,-9252.574275,-148.041188,0.000000
4085.569388,-9844.739029,296.082377,919.314598
4085.569717,-9992.780217,296.082377,919.314598
4085.570047,-9400.615463,0.000000,76.609550
4085.570377,-9844.739029,148.041188,-306.438199
4085.570707,-10140.821405,74.020594,459.657299
4085.571036,-10807.006753,740.205942,459.657299
4085.571366,-10214.842000,0.000000,0.000000
4085.571696,-9252.574275,0.000000,153.219100
4085.572026,-9326.594869,0.000000,459.657299
4085.572356,-9696.697840,148.041188,536.266849
4085.572685,-9548.656652,0.000000,0.000000
4085.573015,-9696.697840,222.061783,-612.876398
4085.573345,-9474.636058,-296.082377,0.000000
4085.573675,-9844.739029,222.061783,306.438199
4085.574004,-9622.677246,74.020594,153.219100
4085.574334,-9622.677246,-222.061783,-153.219100
4085.574664,-9992.780217,148.041188,229.828649
4085.574994,-9992.780217,0.000000,842.705048
4085.575324,-9918.759623,0.000000,306.438199
4085.575653,-9548.656652,74.020594,-76.609550
4085.575983,-9104.533087,296.082377,306.438199
4085.576313,-9622.677246,-222.061783,383.047749
4085.576643,-9474.636058,148.041188,0.000000
4085.576972,-9770.718434,0.000000,-536.266849
4085.577302,-9844.739029,74.020594,-383.047749
4085.577632,-10288.862594,0.000000,612.876398
4085.577962,-10214.842000,0.000000,383.047749
4085.578292,-9696.697840,-518.144159,-306.438199
4085.578621,-9400.615463,0.000000,0.000000
4085.578951,-9474.636058,-592.164754,919.314598
4085.579281,-10510.924376,0.000000,1302.362347
4085.579611,-10066.800811,-370.102971,766.095498
4085.579940,-9992.780217,-888.247130,0.000000
4085.580270,-9326.594869,-740.205942,766.095498
4085.580600,-9992.780217,-222.061783,1532.190996
4085.580930,-10140.821405,-148.041188,995.924147
4085.581260,-9326.594869,0.000000,-76.609550
4085.581589,-8956.491898,0.000000,536.266849
4085.581919,-9770.718434,74.020594,306.438199
4085.582249,-10214.842000,592.164754,229.828649
4085.582579,-10214.842000,-222.061783,-383.047749
4085.582908,-9696.697840,-148.041188,-459.657299
4085.583238,-9326.594869,-444.123565,306.438199
4085.583568,-10066.800811,-148.041188,612.876398
4085.583898,-10066.800811,-518.144159,689.485948
4085.584228,-9474.636058,74.020594,842.705048
4085.584557,-9844.739029,0.000000,1915.238745
4085.584887,-10362.883188,444.123565,1685.410096
4085.585217,-10510.924376,740.205942,1149.143247
4085.585547,-9992.780217,148.041188,0.000000
4085.585876,-9696.697840,148.041188,0.000000
4085.586206,-10288.862594,148.041188,0.000000
4085.586536,-9548.656652,148.041188,-153.219100
4085.586866,-9474.636058,74.020594,-689.485948
4085.587196,-8956.491898,0.000000,-842.705048
4085.587525,-9548.656652,-370.102971,459.657299
4085.587855,-9844.739029,370.102971,306.438199
4085.588185,-9030.512492,74.020594,-383.047749
4085.588515,-9474.636058,0.000000,306.438199
4085.588844,-10214.842000,518.144159,1072.533697
4085.589174,-11103.089130,444.123565,1608.800546
4085.589504,-10288.862594,222.061783,153.219100
4085.589834,-9622.677246,0.000000,-306.438199
4085.590164,-9992.780217,444.123565,536.266849
4085.590493,-10362.883188,-148.041188,995.924147
4085.590823,-9770.718434,592.164754,229.828649
4085.591153,-9104.533087,-592.164754,-383.047749
4085.591483,-8956.491898,592.164754,-76.609550
4085.591812,-9992.780217,148.041188,153.219100
4085.592142,-10510.924376,666.185348,0.000000
4085.592472,-10288.862594,148.041188,-229.828649
4085.592802,-9252.574275,296.082377,-306.438199
4085.593132,-9844.739029,0.000000,459.657299
4085.593461,-10436.903782,444.123565,766.095498
4085.593791,-9918.759623,74.020594,0.000000
4085.594121,-9770.718434,-148.041188,-459.657299
4085.594451,-9548.656652,74.020594,1149.143247
4085.594780,-10214.842000,0.000000,306.438199
4085.595110,-9548.656652,222.061783,0.000000
4085.595440,-9474.636058,296.082377,-689.485948
4085.595770,-9548.656652,148.041188,-306.438199
4085.596100,-10510.924376,0.000000,0.000000
4085.596429,-10066.800811,370.102971,76.609550
4085.596759,-9178.553681,-222.061783,0.000000
4085.597089,-8808.450710,518.144159,229.828649
4085.597419,-9622.677246,370.102971,306.438199
4085.597748,-10066.800811,518.144159,-459.657299
4085.598078,-9622.677246,-296.082377,-1072.533697
4085.598408,-9548.656652,0.000000,-306.438199
4085.598738,-9844.739029,-666.185348,1225.752797
4085.599067,-9770.718434,0.000000,1685.410096
4085.599397,-9178.553681,0.000000,995.924147
4085.599727,-9622.677246,-74.020594,689.485948
4085.600057,-10214.842000,74.020594,995.924147
4085.600387,-10807.006753,518.144159,689.485948
4085.600716,-10288.862594,592.164754,153.219100
4085.601046,-9400.615463,74.020594,-306.438199
4085.601376,-9178.553681,296.082377,612.876398
4085.601706,-10362.883188,0.000000,612.876398
4085.602035,-9992.780217,370.102971,-153.219100
4085.602365,-9696.697840,0.000000,-612.876398
4085.602695,-10214.842000,148.041188,-306.438199
4085.603025,-10140.821405,-592.164754,1072.533697
4085.603355,-9622.677246,-222.061783,1762.019645
4085.603684,-9030.512492,-444.123565,766.095498
4085.604014,-9400.615463,0.000000,995.924147
4085.604344,-10140.821405,-148.041188,1225.752797
4085.604674,-10732.986159,0.000000,842.705048
4085.605003,-10288.862594,666.185348,536.266849
4085.605333,-9622.677246,-148.041188,0.000000
4085.605663,-9474.636058,-148.041188,766.095498
4085.605993,-9622.677246,-370.102971,306.438199
4085.606323,-9400.615463,0.000000,-306.438199
4085.606652,-9104.533087,-518.144159,-919.314598
4085.606982,-9548.656652,666.185348,-612.876398
4085.607312,-10288.862594,-444.123565,459.657299
4085.607642,-10214.842000,740.205942,766.095498
4085.607971,-9696.697840,-148.041188,229.828649
4085.608301,-9992.780217,222.061783,459.657299
4085.608631,-10066.800811,518.144159,1149.143247
4085.608961,-9918.759623,0.000000,306.438199
4085.609291,-9252.574275,0.000000,-153.219100
4085.609620,-9326.594869,148.041188,-76.609550
4085.609950,-9918.759623,370.102971,459.657299
4085.610280,-9992.780217,0.000000,0.000000
4085.610610,-9326.594869,814.226536,-612.876398
4085.610939,-9622.677246,0.000000,-536.266849
4085.611269,-10362.883188,962.267725,919.314598
4085.611599,-11103.089130,444.123565,995.924147
4085.611929,-10584.944971,296.082377,153.219100
4085.612259,-9548.656652,-370.102971,-459.657299
4085.612588,-9326.594869,296.082377,-229.828649
4085.612918,-10214.842000,74.020594,383.047749
4085.613248,-9992.780217,0.000000,919.314598
4085.613578,-9326.594869,0.000000,1149.143247
4085.613907,-9918.759623,-444.123565,689.485948
4085.614237,-10584.944971,0.000000,842.705048
4085.614567,-10658.965565,-740.205942,766.095498
4085.614897,-9696.697840,-740.205942,-153.219100
4085.615227,-8290.306550,-1036.288319,-383.047749
4085.615556,-8586.388927,0.000000,766.095498
4085.615886,-9696.697840,-518.144159,1149.143247
4085.616216,-10510.924376,666.185348,459.657299
4085.616546,-10214.842000,0.000000,-536.266849
4085.616875,-10066.800811,74.020594,-536.266849
4085.617205,-10066.800811,-296.082377,-229.828649
4085.617535,-9474.636058,0.000000,0.000000
4085.617865,-9030.512492,-444.123565,0.000000
4085.618195,-8956.491898,74.020594,536.266849
4085.618524,-9474.636058,-74.020594,612.876398
4085.618854,-10732.986159,370.102971,306.438199
4085.619184,-10140.821405,592.164754,-383.047749
4085.619514,-9474.636058,0.000000,-459.657299
4085.619843,-9770.718434,370.102971,1072.533697
4085.620173,-10288.862594,148.041188,1378.971896
4085.620503,-9622.677246,370.102971,459.657299
4085.620833,-9252.574275,74.020594,-459.657299
4085.621163,-9622.677246,740.205942,0.000000
4085.621492,-10658.965565,-148.041188,995.924147
4085.621822,-10362.883188,814.226536,689.485948
4085.622152,-9252.574275,-222.061783,153.219100
4085.622482,-9326.594869,222.061783,-306.438199
4085.622811,-9918.759623,148.041188,689.485948
4085.623141,-10436.903782,444.123565,0.000000
4085.623471,-10732.986159,444.123565,0.000000
4085.623801,-10214.842000,814.226536,0.000000
4085.624131,-9918.759623,296.082377,1149.143247
4085.624460,-9992.780217,592.164754,612.876398
4085.624790,-9474.636058,518.144159,0.000000
4085.625120,-9474.636058,-296.082377,-459.657299
4085.625450,-9918.759623,296.082377,689.485948
4085.625779,-10732.986159,0.000000,1072.533697
4085.626109,-9622.677246,74.020594,842.705048
4085.626439,-9030.512492,-148.041188,229.828649
4085.626769,-8734.430116,518.144159,842.705048
4085.627099,-9844.739029,-148.041188,919.314598
4085.627428,-10288.862594,666.185348,306.438199
4085.627758,-10584.944971,74.020594,-383.047749
4085.628088,-9696.697840,222.061783,-459.657299
4085.628418,-9992.780217,444.123565,536.266849
4085.628747,-9622.677246,0.000000,383.047749
4085.629077,-9178.553681,-370.102971,-306.438199
4085.629407,-9252.574275,-222.061783,-536.266849
4085.629737,-9548.656652,592.164754,306.438199
4085.630066,-10881.027347,-148.041188,459.657299
4085.630396,-10140.821405,814.226536,612.876398
4085.630726,-9992.780217,-370.102971,229.828649
4085.631056,-9992.780217,370.102971,689.485948
4085.631386,-9844.739029,-148.041188,612.876398
4085.631715,-9918.759623,148.041188,0.000000
4085.632045,-9548.656652,-296.082377,-612.876398
4085.632375,-9770.718434,370.102971,-306.438199
4085.632705,-10066.800811,-296.082377,612.876398
4085.633034,-10066.800811,0.000000,689.485948
4085.633364,-9474.636058,-74.020594,612.876398
4085.633694,-9770.718434,-296.082377,0.000000
4085.634024,-10214.842000,148.041188,612.876398
4085.634354,-10584.944971,-148.041188,995.924147
4085.634683,-10066.800811,222.061783,689.485948
4085.635013,-9770.718434,-222.061783,0.000000
4085.635343,-9474.636058,0.000000,612.876398
4085.635673,-10066.800811,-592.164754,1302.362347
4085.636002,-10288.862594,370.102971,842.705048
4085.636332,-9992.780217,-888.247130,383.047749
4085.636662,-9770.718434,-74.020594,76.609550
4085.636992,-9474.636058,-592.164754,689.485948
4085.637322,-9548.656652,0.000000,842.705048
4085.637651,-8882.471304,-296.082377,153.219100
4085.637981,-9104.533087,370.102971,-306.438199
4085.638311,-10066.800811,0.000000,0.000000
4085.638641,-10658.965565,0.000000,306.438199
4085.638970,-9622.677246,222.061783,-76.609550
4085.639300,-9474.636058,0.000000,-306.438199
4085.639630,-9474.636058,296.082377,459.657299
4085.639960,-10140.821405,-148.041188,1072.533697
4085.640290,-9770.718434,74.020594,229.828649
4085.640619,-9770.718434,-518.144159,-766.095498
4085.640949,-9474.636058,0.000000,-229.828649
4085.641279,-10066.800811,-740.205942,1302.362347
4085.641609,-9474.636058,518.144159,1608.800546
4085.641938,-9326.594869,0.000000,383.047749
4085.642268,-9548.656652,0.000000,-459.657299
4085.642598,-10140.821405,370.102971,-229.828649
4085.642928,-10807.006753,74.020594,0.000000
4085.643258,-9696.697840,148.041188,-612.876398
4085.643587,-9178.553681,222.061783,-612.876398
4085.643917,-9252.574275,0.000000,0.000000
4085.644247,-10066.800811,-296.082377,766.095498
4085.644577,-9622.677246,296.082377,536.266849
4085.644906,-9770.718434,-444.123565,0.000000
4085.645236,-9696.697840,370.102971,612.876398
4085.645566,-10658.965565,74.020594,1762.019645
4085.645896,-10362.883188,0.000000,1608.800546
4085.646226,-9548.656652,-222.061783,536.266849
4085.646555,-8956.491898,444.123565,76.609550
4085.646885,-9770.718434,0.000000,536.266849
4085.647215,-9918.759623,1110.308913,995.924147
4085.647545,-9696.697840,444.123565,-76.609550
4085.647874,-9622.677246,0.000000,-995.924147
4085.648204,-9474.636058,370.102971,-612.876398
4085.648534,-9696.697840,-370.102971,-229.828649
4085.648864,-9400.615463,0.000000,-459.657299
4085.649193,-8956.491898,148.041188,-229.828649
4085.649523,-8956.491898,222.061783,842.705048
4085.649853,-10584.944971,-148.041188,1991.848295
4085.650183,-10584.944971,814.226536,1838.629195
4085.650512,-10510.924376,-296.082377,766.095498
4085.650842,-9770.718434,296.082377,383.047749
4085.651172,-9918.759623,-222.061783,689.485948
4085.651501,-9622.677246,-148.041188,536.266849
4085.651831,-9326.594869,74.020594,0.000000
4085.652161,-9252.574275,444.123565,-459.657299
4085.652491,-9326.594869,74.020594,153.219100
4085.652820,-9918.759623,740.205942,229.828649
4085.653150,-10214.842000,666.185348,-766.095498
4085.653480,-9844.739029,0.000000,-1378.971896
4085.653810,-9696.697840,370.102971,-612.876398
4085.654139,-10214.842000,148.041188,919.314598
4085.654469,-10140.821405,0.000000,612.876398
4085.654799,-10140.821405,-148.041188,0.000000
4085.655129,-9474.636058,0.000000,459.657299
4085.655458,-10510.924376,-74.020594,995.924147
4085.655788,-10362.883188,444.123565,919.314598
