#time,accel_x,accel_y,accel_z
3773.270256,-9696.697840,0.000000,229.828649
3773.270586,-9992.780217,0.000000,76.609550
3773.270915,-9844.739029,148.041188,0.000000
3773.271245,-9548.656652,0.000000,76.609550
3773.271575,-9844.739029,222.061783,0.000000
3773.271905,-9844.739029,148.041188,766.095498
3773.272235,-9548.656652,0.000000,76.609550
3773.272565,-9548.656652,0.000000,76.609550
3773.272894,-9696.697840,-148.041188,229.828649
3773.273224,-10214.842000,296.082377,689.485948
3773.273554,-9992.780217,0.000000,306.438199
3773.273884,-9696.697840,0.000000,459.657299
3773.274214,-9548.656652,0.000000,536.266849
3773.274543,-9918.759623,0.000000,995.924147
3773.274873,-10584.944971,370.102971,306.438199
3773.275203,-10214.842000,222.061783,153.219100
3773.275533,-10140.821405,0.000000,-766.095498
3773.275863,-9622.677246,444.123565,-766.095498
3773.276193,-10066.800811,592.164754,-536.266849
3773.276522,-10066.800811,0.000000,-536.266849
3773.276852,-9770.718434,-222.061783,-383.047749
3773.277182,-9548.656652,-592.164754,0.000000
3773.277512,-9548.656652,-296.082377,0.000000
3773.277842,-9474.636058,-592.164754,-306.438199
3773.278171,-9770.718434,-592.164754,-536.266849
3773.278501,-9622.677246,-296.082377,-459.657299
3773.278831,-9770.718434,-592.164754,-306.438199
3773.279161,-9844.739029,-296.082377,536.266849
3773.279491,-10362.883188,-444.123565,383.047749
3773.279821,-10658.965565,-296.082377,0.000000
3773.280150,-9770.718434,-444.123565,-919.314598
3773.280480,-9770.718434,-296.082377,-1532.190996
3773.280810,-9770.718434,-592.164754,-2068.457845
3773.281140,-9326.594869,-1110.308913,-1838.629195
3773.281470,-9400.615463,-1110.308913,-1608.800546
3773.281799,-9400.615463,-666.185348,-306.438199
3773.282129,-9252.574275,-1184.329507,0.000000
3773.282459,-9548.656652,-740.205942,-306.438199
3773.282789,-9696.697840,-1110.308913,-689.485948
3773.283119,-9992.780217,-518.144159,-612.876398
3773.283449,-10066.800811,-666.185348,-1302.362347
3773.283778,-10288.862594,-888.247130,-766.095498
3773.284108,-10436.903782,-740.205942,-1225.752797
3773.284438,-10140.821405,-740.205942,-1685.410096
3773.284768,-10214.842000,-1332.370696,-2451.505594
3773.285098,-9770.718434,-1480.411884,-3064.381992
3773.285427,-9622.677246,-1628.453072,-2911.162892
3773.285757,-9252.574275,-1850.514855,-2604.724693
3773.286087,-8660.409521,-1702.473667,-2451.505594
3773.286417,-8512.368333,-1554.432478,-1991.848295
3773.286747,-8808.450710,-1480.411884,-459.657299
3773.287077,-9622.677246,-962.267725,0.000000
3773.287406,-10362.883188,-592.164754,0.000000
3773.287736,-11325.150913,-1036.288319,153.219100
3773.288066,-12139.377449,-814.226536,-229.828649
3773.288396,-11991.336260,-1628.453072,-1378.971896
3773.288726,-11399.171507,-2368.659014,-3524.039291
3773.289055,-10066.800811,-2516.700203,-4673.182538
3773.289385,-8068.244768,-3478.967927,-4060.306139
3773.289715,-7254.018232,-2812.782580,-2987.772442
3773.290045,-7994.224174,-2368.659014,-689.485948
3773.290375,-9104.533087,-1110.308913,-919.314598
3773.290705,-10436.903782,-814.226536,-2374.896044
3773.291034,-11029.068536,-1258.350101,-3830.477490
3773.291364,-11621.233289,-2368.659014,-4749.792088
3773.291694,-11473.192101,-3997.112087,-3907.087040
3773.292024,-10066.800811,-4885.359217,-2374.896044
3773.292354,-8290.306550,-5255.462188,-1762.019645
3773.292683,-6735.874072,-5329.482782,-2068.457845
3773.293013,-7328.038826,-4515.256246,-2681.334243
3773.293343,-8586.388927,-3034.844362,-2298.286494
3773.293673,-9474.636058,-2294.638420,-2068.457845
3773.294003,-11103.089130,-1480.411884,-1225.752797
3773.294333,-11473.192101,-1628.453072,-2298.286494
3773.294662,-11325.150913,-2664.741391,-4290.134789
3773.294992,-9474.636058,-4515.256246,-5362.668486
3773.295322,-8956.491898,-5329.482782,-5056.230287
3773.295652,-8734.430116,-5477.523971,-3370.820191
3773.295982,-8290.306550,-5329.482782,-2068.457845
3773.296311,-7846.182985,-4737.318029,-229.828649
3773.296641,-7920.203579,-4145.153275,919.314598
3773.296971,-9770.718434,-2664.741391,306.438199
3773.297301,-11917.315666,-2516.700203,-383.047749
3773.297631,-12361.439231,-2146.597232,-2451.505594
3773.297961,-10658.965565,-3108.864956,-3140.991542
3773.298290,-9918.759623,-4071.132681,-2987.772442
3773.298620,-9770.718434,-4737.318029,-2221.676944
3773.298950,-9474.636058,-5329.482782,-1608.800546
3773.299280,-8290.306550,-4737.318029,-995.924147
3773.299610,-8734.430116,-3034.844362,0.000000
3773.299939,-8882.471304,-2442.679609,-306.438199
3773.300269,-11325.150913,-1924.535449,-919.314598
3773.300599,-11843.295072,-1702.473667,-1072.533697
3773.300929,-10807.006753,-2368.659014,383.047749
3773.301259,-10732.986159,-1998.556043,-306.438199
3773.301589,-10658.965565,-2738.761985,-919.314598
3773.301918,-9548.656652,-2738.761985,-2298.286494
3773.302248,-9918.759623,-2590.720797,-2451.505594
3773.302578,-10140.821405,-2590.720797,-2987.772442
3773.302908,-10066.800811,-2442.679609,-1225.752797
3773.303238,-9474.636058,-2072.576638,-383.047749
3773.303567,-9770.718434,-1480.411884,229.828649
3773.303897,-9992.780217,-1332.370696,-306.438199
3773.304227,-9326.594869,-1036.288319,-2068.457845
3773.304557,-8882.471304,-1184.329507,-2757.943793
3773.304887,-9178.553681,-1628.453072,-2298.286494
3773.305217,-9326.594869,-1258.350101,-1378.971896
3773.305546,-10288.862594,-740.205942,0.000000
3773.305876,-11177.109724,-518.144159,-1302.362347
3773.306206,-10288.862594,-666.185348,-3294.210641
3773.306536,-10584.944971,-814.226536,-4519.963438
3773.306866,-9992.780217,-1628.453072,-4979.620737
3773.307196,-8956.491898,-1332.370696,-2757.943793
3773.307525,-9252.574275,-370.102971,-1302.362347
3773.307855,-8290.306550,-592.164754,-2528.115143
3773.308185,-7179.997637,-592.164754,-3524.039291
3773.308515,-7624.121203,-888.247130,-4519.963438
3773.308845,-9104.533087,-370.102971,-3370.820191
3773.309174,-11251.130318,-148.041188,-536.266849
3773.309504,-11103.089130,296.082377,153.219100
3773.309834,-10140.821405,-370.102971,-536.266849
3773.310164,-10510.924376,-592.164754,-1991.848295
3773.310494,-10732.986159,-740.205942,-2911.162892
3773.310824,-12287.418637,-1036.288319,-3677.258390
3773.311153,-10288.862594,-814.226536,-3524.039291
3773.311483,-8586.388927,-666.185348,-1685.410096
3773.311813,-7698.141797,-592.164754,-766.095498
3773.312143,-8660.409521,-370.102971,-995.924147
3773.312473,-10658.965565,-222.061783,-1915.238745
3773.312802,-10066.800811,-222.061783,-3600.648841
3773.313132,-9474.636058,-740.205942,-2987.772442
3773.313462,-9622.677246,-1036.288319,0.000000
3773.313792,-11325.150913,-1628.453072,1302.362347
3773.314122,-11917.315666,-1924.535449,536.266849
3773.314452,-10732.986159,-2664.741391,-1225.752797
3773.314781,-9474.636058,-2812.782580,-2451.505594
3773.315111,-9992.780217,-2664.741391,-919.314598
3773.315441,-9844.739029,-2812.782580,612.876398
3773.315771,-9326.594869,-1702.473667,842.705048
3773.316101,-8364.327145,-2368.659014,-1762.019645
3773.316430,-9400.615463,-1998.556043,-3294.210641
3773.316760,-10584.944971,-2590.720797,-4060.306139
3773.317090,-9622.677246,-3108.864956,-2145.067394
3773.317420,-8438.347739,-3256.906145,-1378.971896
3773.317750,-9030.512492,-3034.844362,-1838.629195
3773.318080,-10362.883188,-3775.050304,-2298.286494
3773.318409,-11177.109724,-4071.132681,-2374.896044
3773.318739,-10288.862594,-4145.153275,-2374.896044
3773.319069,-9992.780217,-3849.070898,-2681.334243
3773.319399,-9918.759623,-4145.153275,-2221.676944
3773.319729,-9030.512492,-3923.091493,-1685.410096
3773.320058,-8882.471304,-3627.009116,-842.705048
3773.320388,-9326.594869,-3330.926739,-3447.429741
3773.320718,-8882.471304,-3182.885551,-5515.887586
3773.321048,-9770.718434,-3849.070898,-5132.839837
3773.321378,-10881.027347,-3034.844362,-2221.676944
3773.321708,-11251.130318,-3182.885551,-306.438199
3773.322037,-10140.821405,-3182.885551,-1455.581446
3773.322367,-8956.491898,-4071.132681,-3983.696590
3773.322697,-9104.533087,-3627.009116,-3447.429741
3773.323027,-10066.800811,-3182.885551,-1532.190996
3773.323357,-11251.130318,-3330.926739,-536.266849
3773.323686,-9474.636058,-3849.070898,0.000000
3773.324016,-7994.224174,-2886.803174,-536.266849
3773.324346,-9770.718434,-1776.494261,-612.876398
3773.324676,-10140.821405,-2146.597232,-1532.190996
3773.325006,-10436.903782,-2220.617826,-2604.724693
3773.325336,-9400.615463,-1998.556043,-2145.067394
3773.325665,-9178.553681,-2146.597232,-842.705048
3773.325995,-10658.965565,-1554.432478,229.828649
3773.326325,-11473.192101,-2146.597232,1838.629195
3773.326655,-10288.862594,-2368.659014,689.485948
3773.326985,-9178.553681,-1998.556043,-919.314598
3773.327315,-8660.409521,-2294.638420,-1225.752797
3773.327644,-8808.450710,-1554.432478,383.047749
3773.327974,-9326.594869,0.000000,2068.457845
3773.328304,-9252.574275,296.082377,1762.019645
3773.328634,-10362.883188,518.144159,0.000000
3773.328964,-10362.883188,592.164754,-1838.629195
3773.329294,-11917.315666,962.267725,-1685.410096
3773.329623,-12583.501014,222.061783,-1608.800546
3773.329953,-10732.986159,-962.267725,-1225.752797
3773.330283,-8290.306550,-666.185348,153.219100
3773.330613,-7402.059420,-1258.350101,0.000000
3773.330943,-7031.956449,-888.247130,0.000000
3773.331273,-7772.162391,-370.102971,76.609550
3773.331602,-8734.430116,962.267725,229.828649
3773.331932,-9474.636058,888.247130,612.876398
3773.332262,-10214.842000,1776.494261,1378.971896
3773.332592,-11029.068536,1628.453072,1149.143247
3773.332922,-10807.006753,1406.391290,-536.266849
3773.333251,-9918.759623,740.205942,-1302.362347
3773.333581,-9770.718434,888.247130,-842.705048
3773.333911,-9696.697840,370.102971,-76.609550
3773.334241,-8660.409521,1036.288319,0.000000
3773.334571,-9030.512492,962.267725,76.609550
3773.334901,-8956.491898,1258.350101,-612.876398
3773.335230,-9252.574275,1776.494261,-612.876398
3773.335560,-9770.718434,2516.700203,-689.485948
3773.335890,-9992.780217,2442.679609,-536.266849
3773.336220,-10214.842000,2664.741391,-383.047749
3773.336550,-10955.047942,2294.638420,842.705048
3773.336880,-11251.130318,2146.597232,612.876398
3773.337209,-11103.089130,1776.494261,459.657299
3773.337539,-11177.109724,1406.391290,0.000000
3773.337869,-10066.800811,296.082377,-306.438199
3773.338199,-9030.512492,222.061783,536.266849
3773.338529,-9178.553681,888.247130,1225.752797
3773.338859,-9178.553681,962.267725,2068.457845
3773.339188,-9844.739029,1628.453072,1149.143247
3773.339518,-10510.924376,2146.597232,0.000000
3773.339848,-10807.006753,1332.370696,-459.657299
3773.340178,-11029.068536,1184.329507,1455.581446
3773.340508,-11029.068536,518.144159,995.924147
3773.340838,-10214.842000,-222.061783,383.047749
3773.341167,-8882.471304,-962.267725,-306.438199
3773.341497,-8438.347739,-1406.391290,0.000000
3773.341827,-7920.203579,-1554.432478,76.609550
3773.342157,-8660.409521,-222.061783,0.000000
3773.342487,-8956.491898,-740.205942,-76.609550
3773.342817,-8734.430116,-444.123565,536.266849
3773.343146,-9918.759623,0.000000,1685.410096
3773.343476,-10066.800811,0.000000,1838.629195
3773.343806,-10066.800811,-592.164754,76.609550
3773.344136,-10214.842000,-814.226536,-1225.752797
3773.344466,-9474.636058,-1184.329507,-383.047749
3773.344796,-9696.697840,-888.247130,0.000000
3773.345125,-9770.718434,-962.267725,0.000000
3773.345455,-8956.491898,-1184.329507,0.000000
3773.345785,-8216.285956,-888.247130,0.000000
3773.346115,-9104.533087,-74.020594,0.000000
3773.346445,-10436.903782,74.020594,153.219100
3773.346775,-10288.862594,74.020594,1072.533697
3773.347104,-10362.883188,-148.041188,1302.362347
3773.347434,-10658.965565,0.000000,995.924147
3773.347764,-11103.089130,-814.226536,459.657299
3773.348094,-11399.171507,-814.226536,0.000000
3773.348424,-10658.965565,-1332.370696,0.000000
3773.348754,-9474.636058,-740.205942,153.219100
3773.349083,-9770.718434,-740.205942,612.876398
3773.349413,-10436.903782,-370.102971,1149.143247
3773.349743,-9992.780217,-74.020594,1378.971896
3773.350073,-10214.842000,-222.061783,536.266849
3773.350403,-9474.636058,-666.185348,-919.314598
3773.350733,-9474.636058,-814.226536,-306.438199
3773.351062,-9770.718434,-592.164754,995.924147
3773.351392,-10140.821405,-1480.411884,1762.019645
3773.351722,-9474.636058,-962.267725,995.924147
3773.352052,-9178.553681,-1332.370696,-536.266849
3773.352382,-9696.697840,-1184.329507,-766.095498
3773.352711,-10510.924376,-296.082377,995.924147
3773.353041,-10214.842000,0.000000,1072.533697
3773.353371,-9030.512492,-1036.288319,76.609550
3773.353701,-7772.162391,-592.164754,-536.266849
3773.354031,-9474.636058,0.000000,-919.314598
3773.354361,-9326.594869,444.123565,-1762.019645
3773.354690,-8660.409521,-370.102971,-2451.505594
3773.355020,-7772.162391,0.000000,-1762.019645
3773.355350,-8734.430116,-370.102971,-153.219100
3773.355680,-10066.800811,666.185348,766.095498
3773.356010,-11399.171507,222.061783,0.000000
3773.356340,-10881.027347,0.000000,-1302.362347
3773.356669,-9030.512492,0.000000,-1072.533697
3773.356999,-8956.491898,148.041188,76.609550
3773.357329,-10658.965565,1110.308913,2221.676944
3773.357659,-10510.924376,1110.308913,2451.505594
3773.357989,-9992.780217,1184.329507,-459.657299
3773.358319,-8808.450710,1554.432478,-2451.505594
3773.358648,-10066.800811,1406.391290,-1915.238745
3773.358978,-11843.295072,1110.308913,0.000000
3773.359308,-11251.130318,592.164754,1532.190996
3773.359638,-10510.924376,1258.350101,1608.800546
3773.359968,-9104.533087,0.000000,76.609550
3773.360298,-8586.388927,222.061783,229.828649
3773.360627,-9474.636058,592.164754,1608.800546
3773.360957,-10140.821405,1110.308913,1838.629195
3773.361287,-10214.842000,1110.308913,1915.238745
3773.361617,-11177.109724,1924.535449,1838.629195
3773.361947,-10881.027347,1702.473667,919.314598
3773.362277,-10066.800811,1406.391290,0.000000
3773.362606,-9400.615463,1110.308913,-1302.362347
3773.362936,-9400.615463,888.247130,-919.314598
3773.363266,-8956.491898,1036.288319,995.924147
3773.363596,-9178.553681,814.226536,842.705048
3773.363926,-8956.491898,148.041188,-306.438199
3773.364256,-8882.471304,222.061783,-842.705048
3773.364585,-9474.636058,370.102971,-536.266849
3773.364915,-9326.594869,-222.061783,459.657299
3773.365245,-8216.285956,296.082377,1455.581446
3773.365575,-8586.388927,74.020594,1838.629195
3773.365905,-9252.574275,222.061783,919.314598
3773.366235,-9918.759623,518.144159,1149.143247
3773.366564,-11103.089130,814.226536,1608.800546
3773.366894,-10955.047942,592.164754,1072.533697
3773.367224,-9622.677246,592.164754,919.314598
3773.367554,-10066.800811,370.102971,306.438199
3773.367884,-10140.821405,888.247130,612.876398
3773.368214,-10881.027347,370.102971,689.485948
3773.368543,-10732.986159,1258.350101,842.705048
3773.368873,-11103.089130,518.144159,766.095498
3773.369203,-10436.903782,1036.288319,1149.143247
3773.369533,-10732.986159,444.123565,1149.143247
3773.369863,-9844.739029,370.102971,842.705048
3773.370193,-9770.718434,74.020594,612.876398
3773.370522,-9326.594869,-296.082377,383.047749
3773.370852,-9548.656652,-666.185348,306.438199
3773.371182,-9770.718434,-296.082377,1225.752797
3773.371512,-10362.883188,-222.061783,995.924147
3773.371842,-10510.924376,-370.102971,306.438199
3773.372171,-10436.903782,-518.144159,-842.705048
3773.372501,-9622.677246,-444.123565,-1149.143247
3773.372831,-8068.244768,-814.226536,-459.657299
3773.373161,-7846.182985,-148.041188,306.438199
3773.373491,-8734.430116,-148.041188,0.000000
3773.373821,-9104.533087,-148.041188,-689.485948
3773.374150,-8808.450710,-592.164754,-1685.410096
3773.374480,-9474.636058,-148.041188,-1915.238745
3773.374810,-10288.862594,0.000000,-459.657299
3773.375140,-10436.903782,-148.041188,0.000000
3773.375470,-9474.636058,-222.061783,0.000000
3773.375800,-8660.409521,-370.102971,-766.095498
3773.376129,-9474.636058,518.144159,-766.095498
3773.376459,-11103.089130,-518.144159,-1072.533697
3773.376789,-10140.821405,-148.041188,-919.314598
3773.377119,-8808.450710,-444.123565,153.219100
3773.377449,-9696.697840,0.000000,229.828649
3773.377779,-10214.842000,-518.144159,612.876398
3773.378108,-10881.027347,370.102971,0.000000
3773.378438,-11103.089130,-222.061783,-459.657299
3773.378768,-9844.739029,-666.185348,-383.047749
3773.379098,-10214.842000,-518.144159,383.047749
3773.379428,-10140.821405,-1036.288319,1225.752797
3773.379758,-9400.615463,-1110.308913,842.705048
3773.380087,-9104.533087,-888.247130,153.219100
3773.380417,-9474.636058,-1258.350101,0.000000
3773.380747,-9400.615463,-962.267725,842.705048
3773.381077,-9844.739029,-296.082377,766.095498
3773.381407,-9918.759623,-370.102971,842.705048
3773.381737,-9548.656652,-222.061783,459.657299
3773.382066,-9622.677246,0.000000,-459.657299
3773.382396,-9400.615463,-1184.329507,-1225.752797
3773.382726,-8734.430116,-444.123565,-1915.238745
3773.383056,-8734.430116,-222.061783,-612.876398
3773.383386,-8364.327145,-888.247130,-919.314598
3773.383716,-8882.471304,0.000000,-995.924147
3773.384045,-9474.636058,370.102971,-383.047749
3773.384375,-10066.800811,-370.102971,-306.438199
3773.384705,-9844.739029,0.000000,459.657299
3773.385035,-9770.718434,-370.102971,689.485948
3773.385365,-9178.553681,0.000000,536.266849
3773.385695,-9252.574275,296.082377,1072.533697
3773.386024,-10362.883188,296.082377,383.047749
3773.386354,-10362.883188,0.000000,-306.438199
3773.386684,-10436.903782,0.000000,536.266849
3773.387014,-10807.006753,740.205942,689.485948
3773.387344,-10658.965565,518.144159,1302.362347
3773.387674,-10510.924376,296.082377,612.876398
3773.388003,-9400.615463,148.041188,0.000000
3773.388333,-9918.759623,814.226536,689.485948
3773.388663,-10955.047942,888.247130,2298.286494
3773.388993,-11103.089130,222.061783,2221.676944
3773.389323,-9770.718434,518.144159,1915.238745
3773.389653,-9252.574275,148.041188,1915.238745
3773.389982,-9844.739029,518.144159,842.705048
3773.390312,-9992.780217,0.000000,1225.752797
3773.390642,-10066.800811,518.144159,1225.752797
3773.390972,-10066.800811,518.144159,1608.800546
3773.391302,-9770.718434,1036.288319,1532.190996
3773.391631,-9844.739029,296.082377,459.657299
3773.391961,-9104.533087,592.164754,-842.705048
3773.392291,-8364.327145,222.061783,-383.047749
3773.392621,-9030.512492,888.247130,0.000000
3773.392951,-8882.471304,444.123565,-612.876398
3773.393281,-7994.224174,740.205942,-689.485948
3773.393610,-8660.409521,740.205942,-995.924147
3773.393940,-9844.739029,592.164754,-1532.190996
3773.394270,-10288.862594,666.185348,-1302.362347
3773.394600,-10066.800811,444.123565,-383.047749
3773.394930,-9400.615463,222.061783,383.047749
3773.395260,-9400.615463,592.164754,229.828649
3773.395589,-10066.800811,962.267725,-459.657299
3773.395919,-9844.739029,740.205942,-1225.752797
3773.396249,-10214.842000,740.205942,-306.438199
3773.396579,-10584.944971,1332.370696,306.438199
3773.396909,-11251.130318,1036.288319,842.705048
3773.397239,-10510.924376,888.247130,153.219100
3773.397568,-10214.842000,666.185348,0.000000
3773.397898,-10955.047942,296.082377,0.000000
3773.398228,-11029.068536,296.082377,1915.238745
3773.398558,-11029.068536,296.082377,689.485948
3773.398888,-9548.656652,74.020594,459.657299
3773.399218,-8882.471304,0.000000,1532.190996
3773.399547,-9474.636058,518.144159,1302.362347
3773.399877,-10214.842000,0.000000,842.705048
3773.400207,-10288.862594,518.144159,383.047749
3773.400537,-10140.821405,222.061783,919.314598
3773.400867,-10066.800811,296.082377,1072.533697
3773.401197,-9918.759623,0.000000,1225.752797
3773.401526,-9326.594869,-592.164754,306.438199
3773.401856,-8734.430116,-740.205942,153.219100
3773.402186,-8068.244768,-814.226536,-153.219100
3773.402516,-8586.388927,-740.205942,76.609550
3773.402846,-8660.409521,-444.123565,383.047749
3773.403176,-8956.491898,-444.123565,153.219100
3773.403505,-9178.553681,-666.185348,-612.876398
3773.403835,-8734.430116,-1258.350101,-383.047749
3773.404165,-8956.491898,-222.061783,76.609550
3773.404495,-10140.821405,-148.041188,229.828649
3773.404825,-9622.677246,-444.123565,0.000000
3773.405155,-9548.656652,-370.102971,383.047749
3773.405484,-10510.924376,74.020594,306.438199
3773.405814,-11177.109724,296.082377,229.828649
3773.406144,-11029.068536,296.082377,-76.609550
3773.406474,-10732.986159,0.000000,-612.876398
3773.406804,-10584.944971,-296.082377,-306.438199
3773.407134,-10362.883188,518.144159,612.876398
3773.407463,-10362.883188,222.061783,153.219100
3773.407793,-9474.636058,-518.144159,0.000000
3773.408123,-9622.677246,0.000000,536.266849
3773.408453,-11695.253884,0.000000,1455.581446
3773.408783,-11695.253884,148.041188,1378.971896
3773.409113,-10214.842000,-370.102971,612.876398
3773.409442,-9178.553681,-1036.288319,76.609550
3773.409772,-8586.388927,-814.226536,306.438199
3773.410102,-9770.718434,-666.185348,1532.190996
3773.410432,-9474.636058,-370.102971,1378.971896
3773.410762,-8734.430116,-222.061783,0.000000
3773.411091,-8956.491898,0.000000,-1225.752797
3773.411421,-9696.697840,-592.164754,-1072.533697
3773.411751,-10066.800811,-592.164754,-459.657299
3773.412081,-9252.574275,-592.164754,229.828649
3773.412411,-8364.327145,-1110.308913,229.828649
3773.412741,-7920.203579,-592.164754,-306.438199
3773.413070,-7772.162391,0.000000,-536.266849
3773.413400,-8956.491898,-222.061783,-1378.971896
3773.413730,-9696.697840,-222.061783,-306.438199
3773.414060,-10214.842000,74.020594,919.314598
3773.414390,-9918.759623,0.000000,919.314598
3773.414720,-10066.800811,-296.082377,689.485948
3773.415049,-9696.697840,0.000000,0.000000
3773.415379,-9474.636058,0.000000,-536.266849
3773.415709,-9770.718434,370.102971,-536.266849
3773.416039,-10658.965565,444.123565,0.000000
3773.416369,-10584.944971,814.226536,1225.752797
3773.416699,-11177.109724,962.267725,1685.410096
3773.417028,-10955.047942,1036.288319,0.000000
3773.417358,-11103.089130,370.102971,-1455.581446
3773.417688,-10807.006753,740.205942,-919.314598
3773.418018,-10214.842000,222.061783,689.485948
3773.418348,-9326.594869,0.000000,1455.581446
3773.418678,-9178.553681,296.082377,1149.143247
3773.419007,-9918.759623,518.144159,689.485948
3773.419337,-11177.109724,296.082377,842.705048
3773.419667,-10955.047942,666.185348,536.266849
3773.419997,-9474.636058,-370.102971,919.314598
3773.420327,-9104.533087,296.082377,1532.190996
3773.420657,-9326.594869,0.000000,2221.676944
3773.420986,-9474.636058,592.164754,1532.190996
3773.421316,-8882.471304,370.102971,-536.266849
3773.421646,-9178.553681,444.123565,-2068.457845
3773.421976,-9622.677246,148.041188,-1915.238745
3773.422306,-9474.636058,222.061783,0.000000
3773.422636,-9030.512492,518.144159,612.876398
3773.422965,-7920.203579,0.000000,-229.828649
3773.423295,-8438.347739,-222.061783,-1225.752797
3773.423625,-9474.636058,0.000000,-1608.800546
3773.423955,-9918.759623,148.041188,0.000000
3773.424285,-9474.636058,148.041188,1072.533697
3773.424615,-9992.780217,592.164754,1915.238745
3773.424944,-10436.903782,296.082377,689.485948
3773.425274,-10807.006753,1110.308913,842.705048
3773.425604,-10584.944971,518.144159,689.485948
3773.425934,-10955.047942,666.185348,383.047749
3773.426264,-10732.986159,740.205942,1225.752797
3773.426594,-10584.944971,592.164754,842.705048
3773.426923,-10362.883188,518.144159,0.000000
3773.427253,-10658.965565,444.123565,-306.438199
3773.427583,-10807.006753,370.102971,-842.705048
3773.427913,-10436.903782,222.061783,0.000000
3773.428243,-9252.574275,74.020594,1608.800546
3773.428573,-10362.883188,444.123565,2604.724693
3773.428903,-10658.965565,0.000000,1991.848295
3773.429233,-10584.944971,-518.144159,1455.581446
3773.429563,-9770.718434,0.000000,76.609550
3773.429893,-9548.656652,-592.164754,612.876398
3773.430223,-9400.615463,-592.164754,1149.143247
3773.430553,-8956.491898,-370.102971,1072.533697
3773.430883,-8142.265362,-666.185348,0.000000
3773.431212,-8068.244768,-592.164754,-995.924147
3773.431542,-9104.533087,-148.041188,-1608.800546
3773.431872,-9474.636058,-296.082377,-1225.752797
3773.432202,-8586.388927,-814.226536,-689.485948
3773.432532,-7402.059420,-740.205942,-689.485948
3773.432862,-8808.450710,-740.205942,-229.828649
3773.433192,-9474.636058,-370.102971,0.000000
3773.433522,-9918.759623,-222.061783,0.000000
3773.433852,-9326.594869,0.000000,612.876398
3773.434182,-9844.739029,0.000000,229.828649
3773.434512,-10881.027347,0.000000,306.438199
3773.434842,-11029.068536,148.041188,612.876398
3773.435172,-10288.862594,370.102971,0.000000
3773.435502,-10066.800811,296.082377,-1072.533697
3773.435831,-10807.006753,518.144159,-919.314598
3773.436161,-11177.109724,518.144159,-306.438199
3773.436491,-10807.006753,518.144159,229.828649
3773.436821,-10881.027347,592.164754,76.609550
3773.437151,-10807.006753,370.102971,153.219100
3773.437481,-10955.047942,0.000000,689.485948
3773.437811,-10584.944971,0.000000,1072.533697
3773.438141,-9844.739029,-148.041188,1532.190996
3773.438471,-9770.718434,0.000000,1455.581446
3773.438801,-9696.697840,-592.164754,995.924147
3773.439131,-9918.759623,-296.082377,919.314598
3773.439461,-9770.718434,-444.123565,766.095498
3773.439791,-9696.697840,-222.061783,153.219100
3773.440121,-9474.636058,-222.061783,0.000000
3773.440450,-8808.450710,-296.082377,-383.047749
3773.440780,-8512.368333,-592.164754,0.000000
3773.441110,-9178.553681,-222.061783,-76.609550
3773.441440,-9178.553681,-592.164754,-536.266849
3773.441770,-8586.388927,-518.144159,-995.924147
3773.442100,-8216.285956,-518.144159,-612.876398
3773.442430,-8808.450710,-888.247130,229.828649
3773.442760,-8512.368333,-444.123565,459.657299
3773.443090,-9622.677246,0.000000,0.000000
3773.443420,-9548.656652,0.000000,-306.438199
3773.443750,-9770.718434,-296.082377,383.047749
3773.444080,-9770.718434,740.205942,689.485948
3773.444410,-10066.800811,0.000000,459.657299
3773.444740,-10658.965565,1110.308913,689.485948
3773.445070,-11621.233289,888.247130,995.924147
3773.445399,-11177.109724,370.102971,-306.438199
3773.445729,-10214.842000,148.041188,-536.266849
3773.446059,-10214.842000,444.123565,-153.219100
3773.446389,-10362.883188,518.144159,306.438199
3773.446719,-10362.883188,1036.288319,689.485948
3773.447049,-10436.903782,666.185348,1225.752797
3773.447379,-10214.842000,518.144159,383.047749
3773.447709,-9992.780217,370.102971,229.828649
3773.448039,-10288.862594,814.226536,306.438199
3773.448369,-10140.821405,0.000000,1455.581446
3773.448699,-10140.821405,444.123565,2451.505594
3773.449029,-10584.944971,740.205942,2221.676944
3773.449359,-10807.006753,814.226536,1225.752797
3773.449689,-10140.821405,0.000000,76.609550
3773.450018,-9548.656652,370.102971,-153.219100
3773.450348,-9326.594869,148.041188,-383.047749
3773.450678,-8068.244768,74.020594,-153.219100
3773.451008,-7476.080014,-222.061783,-536.266849
3773.451338,-7846.182985,370.102971,-1072.533697
3773.451668,-9326.594869,0.000000,-766.095498
3773.451998,-10066.800811,74.020594,-919.314598
3773.452328,-8808.450710,-370.102971,-536.266849
3773.452658,-8956.491898,370.102971,536.266849
3773.452988,-9622.677246,0.000000,689.485948
3773.453318,-10214.842000,0.000000,536.266849
3773.453648,-9622.677246,74.020594,229.828649
3773.453978,-10214.842000,148.041188,995.924147
3773.454308,-10658.965565,518.144159,1225.752797
3773.454637,-11177.109724,888.247130,459.657299
3773.454967,-10510.924376,222.061783,0.000000
3773.455297,-9844.739029,296.082377,76.609550
3773.455627,-11029.068536,962.267725,-306.438199
3773.455957,-11399.171507,444.123565,-536.266849
3773.456287,-10288.862594,370.102971,229.828649
3773.456617,-10066.800811,1036.288319,612.876398
3773.456947,-10140.821405,222.061783,-383.047749
3773.457277,-10436.903782,222.061783,459.657299
3773.457607,-11103.089130,444.123565,842.705048
3773.457937,-10881.027347,-444.123565,1225.752797
3773.458267,-9696.697840,-518.144159,1991.848295
3773.458597,-9696.697840,-592.164754,2145.067394
3773.458927,-9548.656652,-444.123565,1532.190996
3773.459257,-8586.388927,0.000000,689.485948
3773.459586,-9178.553681,-296.082377,0.000000
3773.459916,-9474.636058,222.061783,-1225.752797
3773.460246,-8586.388927,0.000000,-689.485948
3773.460576,-8882.471304,0.000000,-919.314598
3773.460906,-8956.491898,-518.144159,-1455.581446
3773.461236,-8956.491898,-592.164754,-689.485948
3773.461566,-8512.368333,-962.267725,-995.924147
3773.461896,-7920.203579,-1184.329507,-1149.143247
3773.462226,-8734.430116,-814.226536,383.047749
3773.462556,-9474.636058,-370.102971,1762.019645
3773.462886,-9622.677246,-222.061783,383.047749
3773.463216,-9548.656652,-518.144159,306.438199
3773.463546,-9548.656652,222.061783,306.438199
3773.463876,-10288.862594,-518.144159,766.095498
3773.464205,-10732.986159,518.144159,1378.971896
3773.464535,-11473.192101,296.082377,995.924147
3773.464865,-11029.068536,296.082377,-153.219100
3773.465195,-9992.780217,0.000000,-612.876398
3773.465525,-9918.759623,518.144159,-766.095498
3773.465855,-10288.862594,0.000000,153.219100
3773.466185,-10732.986159,814.226536,1225.752797
3773.466515,-11547.212695,0.000000,1685.410096
3773.466845,-10288.862594,666.185348,1072.533697
3773.467175,-10658.965565,-148.041188,0.000000
3773.467505,-10658.965565,0.000000,995.924147
3773.467835,-9918.759623,-592.164754,1991.848295
3773.468165,-9696.697840,666.185348,2298.286494
3773.468495,-9770.718434,74.020594,1149.143247
3773.468824,-10214.842000,222.061783,-383.047749
3773.469154,-10140.821405,296.082377,-1302.362347
3773.469484,-9474.636058,-370.102971,-1225.752797
3773.469814,-8734.430116,-370.102971,0.000000
3773.470144,-8142.265362,-296.082377,153.219100
3773.470474,-8290.306550,0.000000,153.219100
3773.470804,-8512.368333,-518.144159,-919.314598
3773.471134,-9030.512492,-370.102971,-1915.238745
3773.471464,-9252.574275,-666.185348,-1225.752797
3773.471794,-9104.533087,0.000000,919.314598
3773.472124,-9252.574275,222.061783,1072.533697
3773.472454,-8882.471304,-444.123565,153.219100
3773.472784,-8956.491898,222.061783,-612.876398
3773.473114,-9918.759623,222.061783,-995.924147
3773.473444,-10288.862594,74.020594,-459.657299
3773.473773,-9770.718434,222.061783,536.266849
3773.474103,-10658.965565,1332.370696,612.876398
3773.474433,-10658.965565,592.164754,459.657299
3773.474763,-10436.903782,370.102971,-536.266849
3773.475093,-9992.780217,370.102971,-459.657299
3773.475423,-10066.800811,-296.082377,-229.828649
3773.475753,-10510.924376,518.144159,1455.581446
3773.476083,-11177.109724,1036.288319,2145.067394
3773.476413,-11399.171507,518.144159,1838.629195
3773.476743,-10584.944971,148.041188,612.876398
3773.477073,-10066.800811,296.082377,459.657299
3773.477403,-10362.883188,222.061783,842.705048
3773.477733,-9474.636058,740.205942,1532.190996
3773.478063,-9622.677246,814.226536,1532.190996
3773.478392,-10362.883188,592.164754,306.438199
3773.478722,-10140.821405,148.041188,-1149.143247
3773.479052,-9548.656652,518.144159,-1302.362347
3773.479382,-9178.553681,148.041188,-995.924147
3773.479712,-8290.306550,222.061783,0.000000
3773.480042,-8512.368333,-518.144159,459.657299
3773.480372,-8364.327145,0.000000,383.047749
3773.480702,-9474.636058,-444.123565,-459.657299
3773.481032,-9326.594869,-666.185348,-153.219100
3773.481362,-8956.491898,-1258.350101,0.000000
3773.481692,-8512.368333,-222.061783,995.924147
3773.482022,-8438.347739,-296.082377,1302.362347
3773.482352,-9178.553681,222.061783,766.095498
3773.482682,-9326.594869,-370.102971,-1225.752797
3773.483011,-9696.697840,0.000000,-1532.190996
3773.483341,-10807.006753,296.082377,689.485948
3773.483671,-11103.089130,74.020594,1685.410096
3773.484001,-11251.130318,518.144159,1532.190996
3773.484331,-10066.800811,592.164754,919.314598
3773.484661,-10288.862594,592.164754,-689.485948
3773.484991,-11473.192101,222.061783,-1762.019645
3773.485321,-10881.027347,444.123565,229.828649
3773.485651,-10955.047942,370.102971,1532.190996
3773.485981,-10436.903782,518.144159,1838.629195
3773.486311,-9844.739029,0.000000,1072.533697
3773.486641,-10362.883188,666.185348,1072.533697
3773.486971,-10288.862594,0.000000,153.219100
3773.487301,-10510.924376,74.020594,383.047749
3773.487631,-10214.842000,222.061783,1072.533697
3773.487960,-10510.924376,74.020594,1455.581446
3773.488290,-9918.759623,0.000000,842.705048
3773.488620,-9696.697840,0.000000,-995.924147
3773.488950,-9178.553681,-814.226536,-2374.896044
3773.489280,-7772.162391,-592.164754,-1072.533697
3773.489610,-7772.162391,-444.123565,383.047749
3773.489940,-8438.347739,-518.144159,153.219100
3773.490270,-8438.347739,-370.102971,229.828649
3773.490600,-9474.636058,-148.041188,-612.876398
3773.490930,-9474.636058,-814.226536,-1225.752797
3773.491260,-9474.636058,-740.205942,536.266849
3773.491590,-9696.697840,-370.102971,1072.533697
3773.491920,-9252.574275,0.000000,766.095498
3773.492250,-9030.512492,-296.082377,536.266849
3773.492579,-9326.594869,0.000000,-919.314598
3773.492909,-9918.759623,-666.185348,0.000000
3773.493239,-10362.883188,222.061783,995.924147
3773.493569,-10658.965565,370.102971,1455.581446
3773.493899,-9770.718434,592.164754,536.266849
3773.494229,-9622.677246,222.061783,-153.219100
3773.494559,-10510.924376,1110.308913,0.000000
3773.494889,-12213.398043,222.061783,-536.266849
3773.495219,-12213.398043,592.164754,459.657299
3773.495549,-10881.027347,-74.020594,1225.752797
3773.495879,-9474.636058,148.041188,1608.800546
3773.496209,-9474.636058,-666.185348,612.876398
3773.496539,-9918.759623,-444.123565,842.705048
3773.496869,-9400.615463,0.000000,153.219100
3773.497198,-9770.718434,-518.144159,689.485948
3773.497528,-9992.780217,592.164754,2604.724693
3773.497858,-11325.150913,0.000000,2068.457845
3773.498188,-10066.800811,-518.144159,-995.924147
3773.498518,-8068.244768,-592.164754,-1991.848295
3773.498848,-8290.306550,-1036.288319,-1915.238745
3773.499178,-9474.636058,-592.164754,-383.047749
3773.499508,-8586.388927,-444.123565,612.876398
3773.499838,-7772.162391,-444.123565,536.266849
3773.500168,-7846.182985,370.102971,-1532.190996
3773.500498,-9474.636058,0.000000,-1608.800546
3773.500828,-9918.759623,444.123565,-842.705048
3773.501158,-9992.780217,0.000000,153.219100
3773.501488,-9622.677246,0.000000,383.047749
3773.501818,-8290.306550,-148.041188,612.876398
3773.502147,-9622.677246,444.123565,689.485948
3773.502477,-10140.821405,0.000000,-306.438199
3773.502807,-10140.821405,222.061783,0.000000
3773.503137,-10140.821405,1258.350101,306.438199
3773.503467,-10214.842000,370.102971,1072.533697
3773.503797,-10362.883188,1110.308913,1302.362347
3773.504127,-11177.109724,888.247130,1378.971896
3773.504457,-10732.986159,148.041188,383.047749
3773.504787,-10658.965565,666.185348,459.657299
3773.505117,-11473.192101,666.185348,612.876398
3773.505447,-11621.233289,370.102971,2374.896044
3773.505777,-10658.965565,222.061783,2604.724693
3773.506107,-9474.636058,444.123565,1455.581446
3773.506437,-9548.656652,-222.061783,0.000000
3773.506766,-10881.027347,814.226536,1072.533697
3773.507096,-10732.986159,888.247130,1762.019645
3773.507426,-9548.656652,1110.308913,229.828649
3773.507756,-8364.327145,666.185348,-842.705048
3773.508086,-9474.636058,592.164754,-1915.238745
3773.508416,-9770.718434,0.000000,-766.095498
3773.508746,-8956.491898,0.000000,0.000000
3773.509076,-9104.533087,-296.082377,383.047749
3773.509406,-8438.347739,-518.144159,383.047749
3773.509736,-7994.224174,-666.185348,612.876398
3773.510066,-8808.450710,0.000000,612.876398
3773.510396,-9474.636058,-222.061783,-383.047749
3773.510726,-9474.636058,0.000000,0.000000
3773.511056,-9252.574275,-444.123565,306.438199
3773.511385,-8956.491898,-370.102971,459.657299
3773.511715,-9178.553681,0.000000,689.485948
3773.512045,-9548.656652,148.041188,-383.047749
3773.512375,-10140.821405,0.000000,-1225.752797
3773.512705,-10214.842000,222.061783,-1225.752797
3773.513035,-10658.965565,-296.082377,0.000000
3773.513365,-11103.089130,444.123565,766.095498
3773.513695,-10658.965565,888.247130,76.609550
3773.514025,-9400.615463,0.000000,-1072.533697
3773.514355,-9992.780217,74.020594,-1149.143247
3773.514685,-11103.089130,222.061783,-536.266849
3773.515015,-10807.006753,-666.185348,689.485948
3773.515345,-10066.800811,222.061783,1072.533697
3773.515675,-9844.739029,-518.144159,919.314598
3773.516004,-10732.986159,-370.102971,689.485948
3773.516334,-10140.821405,-592.164754,153.219100
3773.516664,-10288.862594,-518.144159,0.000000
3773.516994,-9770.718434,-740.205942,0.000000
3773.517324,-9474.636058,-592.164754,536.266849
3773.517654,-9548.656652,-222.061783,995.924147
3773.517984,-8882.471304,-444.123565,-612.876398
3773.518314,-9178.553681,0.000000,-919.314598
3773.518644,-9252.574275,-740.205942,-1991.848295
3773.518974,-8956.491898,-962.267725,-1378.971896
3773.519304,-8586.388927,-888.247130,612.876398
3773.519634,-8808.450710,0.000000,536.266849
3773.519964,-9178.553681,-1036.288319,-919.314598
3773.520294,-8956.491898,-962.267725,-842.705048
3773.520624,-9474.636058,0.000000,0.000000
3773.520953,-10510.924376,-370.102971,1149.143247
3773.521283,-9400.615463,-296.082377,1225.752797
3773.521613,-8956.491898,0.000000,766.095498
3773.521943,-9252.574275,0.000000,76.609550
3773.522273,-9770.718434,444.123565,306.438199
3773.522603,-11917.315666,518.144159,0.000000
3773.522933,-11103.089130,0.000000,-612.876398
3773.523263,-9770.718434,0.000000,-383.047749
3773.523593,-10066.800811,296.082377,306.438199
3773.523923,-10436.903782,148.041188,766.095498
3773.524253,-10881.027347,296.082377,1455.581446
3773.524583,-10066.800811,0.000000,842.705048
3773.524913,-9326.594869,-518.144159,766.095498
3773.525243,-9992.780217,222.061783,1302.362347
3773.525572,-10140.821405,814.226536,2068.457845
3773.525902,-9918.759623,0.000000,2145.067394
3773.526232,-10066.800811,962.267725,1072.533697
3773.526562,-10807.006753,592.164754,306.438199
3773.526892,-10658.965565,222.061783,0.000000
3773.527222,-9844.739029,444.123565,536.266849
3773.527552,-9104.533087,666.185348,0.000000
3773.527882,-8364.327145,518.144159,-995.924147
3773.528212,-8438.347739,74.020594,-2068.457845
3773.528542,-8808.450710,370.102971,-919.314598
3773.528872,-8216.285956,74.020594,76.609550
3773.529202,-9252.574275,0.000000,-229.828649
3773.529531,-8882.471304,148.041188,229.828649
3773.529861,-8512.368333,148.041188,383.047749
3773.530191,-9104.533087,370.102971,229.828649
3773.530521,-9992.780217,148.041188,0.000000
3773.530851,-10140.821405,222.061783,995.924147
3773.531181,-9844.739029,444.123565,766.095498
3773.531511,-9696.697840,222.061783,-153.219100
3773.531841,-9844.739029,296.082377,76.609550
3773.532171,-10288.862594,1258.350101,383.047749
3773.532501,-10584.944971,1110.308913,-229.828649
3773.532831,-10140.821405,518.144159,383.047749
3773.533161,-10362.883188,962.267725,1072.533697
3773.533490,-11029.068536,888.247130,153.219100
3773.533820,-10214.842000,1110.308913,-612.876398
3773.534150,-10510.924376,814.226536,-1225.752797
3773.534480,-11251.130318,444.123565,-536.266849
3773.534810,-10214.842000,296.082377,1762.019645
3773.535140,-10584.944971,296.082377,2068.457845
3773.535470,-10288.862594,148.041188,1302.362347
3773.535800,-8734.430116,-444.123565,0.000000
3773.536130,-9326.594869,74.020594,-459.657299
3773.536460,-9770.718434,148.041188,0.000000
3773.536790,-10658.965565,222.061783,995.924147
3773.537120,-9992.780217,444.123565,842.705048
3773.537450,-8808.450710,-444.123565,306.438199
3773.537779,-8438.347739,-592.164754,0.000000
3773.538109,-9400.615463,-444.123565,-1149.143247
3773.538439,-10436.903782,-814.226536,-1762.019645
3773.538769,-9696.697840,-1036.288319,-842.705048
3773.539099,-8586.388927,-592.164754,229.828649
3773.539429,-8512.368333,-1258.350101,459.657299
3773.539759,-8290.306550,-1184.329507,842.705048
3773.540089,-8882.471304,-1036.288319,153.219100
3773.540419,-8512.368333,-592.164754,-1378.971896
3773.540749,-9622.677246,-148.041188,0.000000
3773.541079,-10732.986159,370.102971,383.047749
3773.541409,-10658.965565,-666.185348,766.095498
3773.541738,-10658.965565,-444.123565,459.657299
3773.542068,-10362.883188,-962.267725,76.609550
3773.542398,-10658.965565,-666.185348,-612.876398
3773.542728,-10288.862594,-888.247130,536.266849
3773.543058,-9844.739029,-518.144159,1149.143247
3773.543388,-9622.677246,0.000000,919.314598
3773.543718,-9326.594869,-444.123565,919.314598
3773.544048,-9474.636058,-148.041188,536.266849
3773.544378,-10140.821405,0.000000,1149.143247
3773.544708,-9992.780217,-148.041188,1762.019645
3773.545038,-10658.965565,-222.061783,1149.143247
3773.545368,-10658.965565,0.000000,995.924147
3773.545698,-10214.842000,74.020594,536.266849
3773.546027,-10288.862594,-518.144159,-689.485948
3773.546357,-9622.677246,74.020594,-1302.362347
3773.546687,-9696.697840,74.020594,-919.314598
3773.547017,-9178.553681,-592.164754,-459.657299
3773.547347,-8364.327145,-592.164754,229.828649
3773.547677,-8438.347739,0.000000,76.609550
3773.548007,-8586.388927,0.000000,-459.657299
3773.548337,-9400.615463,0.000000,-1072.533697
3773.548667,-9696.697840,74.020594,-306.438199
3773.548997,-8734.430116,0.000000,-306.438199
3773.549327,-9104.533087,0.000000,383.047749
3773.549657,-9474.636058,74.020594,536.266849
3773.549986,-9992.780217,-296.082377,0.000000
3773.550316,-9918.759623,592.164754,689.485948
3773.550646,-10140.821405,814.226536,459.657299
3773.550976,-11029.068536,296.082377,919.314598
3773.551306,-10584.944971,1110.308913,1378.971896
3773.551636,-10140.821405,1258.350101,536.266849
3773.551966,-10066.800811,962.267725,-612.876398
3773.552296,-10955.047942,1332.370696,-1378.971896
3773.552626,-11177.109724,1406.391290,-612.876398
3773.552956,-11029.068536,444.123565,-383.047749
3773.553286,-9696.697840,740.205942,153.219100
3773.553616,-9844.739029,296.082377,1302.362347
3773.553945,-10436.903782,740.205942,1455.581446
3773.554275,-10288.862594,0.000000,1762.019645
3773.554605,-10362.883188,296.082377,1455.581446
3773.554935,-9548.656652,-222.061783,919.314598
3773.555265,-9326.594869,148.041188,1378.971896
3773.555595,-9326.594869,740.205942,689.485948
3773.555925,-8660.409521,222.061783,-766.095498
3773.556255,-8586.388927,74.020594,-995.924147
3773.556585,-8808.450710,1184.329507,-1455.581446
3773.556915,-9178.553681,592.164754,-1608.800546
3773.557245,-9622.677246,518.144159,-1225.752797
3773.557575,-9548.656652,370.102971,-1072.533697
3773.557905,-9474.636058,0.000000,-536.266849
3773.558234,-8882.471304,-592.164754,-1608.800546
3773.558564,-8216.285956,-592.164754,-1762.019645
3773.558894,-7105.977043,-592.164754,-689.485948
3773.559224,-8216.285956,296.082377,459.657299
3773.559554,-9400.615463,592.164754,153.219100
3773.559884,-9622.677246,0.000000,-229.828649
3773.560214,-10436.903782,666.185348,153.219100
3773.560544,-10881.027347,222.061783,995.924147
3773.560874,-10955.047942,-444.123565,612.876398
3773.561204,-10214.842000,0.000000,766.095498
3773.561534,-9992.780217,-740.205942,766.095498
3773.561864,-10066.800811,0.000000,536.266849
3773.562193,-11029.068536,-222.061783,306.438199
3773.562523,-11103.089130,222.061783,459.657299
3773.562853,-10066.800811,-518.144159,1302.362347
3773.563183,-10288.862594,592.164754,1225.752797
3773.563513,-10658.965565,-592.164754,2451.505594
3773.563843,-9992.780217,-518.144159,1838.629195
3773.564173,-9696.697840,0.000000,1225.752797
3773.564503,-9992.780217,-370.102971,995.924147
3773.564833,-10214.842000,-592.164754,1685.410096
3773.565163,-11029.068536,0.000000,1225.752797
3773.565493,-10362.883188,-888.247130,459.657299
3773.565823,-9474.636058,-814.226536,1072.533697
3773.566153,-9030.512492,-962.267725,0.000000
3773.566482,-8142.265362,-1628.453072,-229.828649
3773.566812,-7402.059420,-296.082377,229.828649
3773.567142,-8808.450710,0.000000,-76.609550
3773.567472,-9474.636058,-740.205942,-1225.752797
3773.567802,-9474.636058,-518.144159,-459.657299
3773.568132,-9326.594869,-666.185348,-536.266849
3773.568462,-9844.739029,-1036.288319,76.609550
3773.568792,-9104.533087,-740.205942,612.876398
3773.569122,-8808.450710,-666.185348,689.485948
3773.569452,-8882.471304,0.000000,-306.438199
3773.569782,-9770.718434,370.102971,-612.876398
3773.570112,-11103.089130,592.164754,0.000000
3773.570441,-11325.150913,740.205942,766.095498
3773.570771,-10584.944971,592.164754,919.314598
3773.571101,-11177.109724,814.226536,612.876398
3773.571431,-10658.965565,0.000000,-612.876398
3773.571761,-10362.883188,518.144159,-1302.362347
3773.572091,-9696.697840,740.205942,-995.924147
3773.572421,-9918.759623,740.205942,-229.828649
3773.572751,-10658.965565,518.144159,1302.362347
3773.573081,-10807.006753,1406.391290,1455.581446
3773.573411,-10881.027347,296.082377,459.657299
3773.573741,-10658.965565,0.000000,153.219100
3773.574071,-9548.656652,-518.144159,0.000000
3773.574400,-8364.327145,-1110.308913,766.095498
3773.574730,-7846.182985,0.000000,1455.581446
3773.575060,-7994.224174,148.041188,1149.143247
3773.575390,-8956.491898,518.144159,76.609550
3773.575720,-9030.512492,222.061783,-1532.190996
3773.576050,-9548.656652,222.061783,-2298.286494
3773.576380,-9474.636058,0.000000,-1608.800546
3773.576710,-9548.656652,370.102971,-766.095498
3773.577040,-9326.594869,0.000000,-842.705048
3773.577370,-7698.141797,0.000000,-1455.581446
3773.577700,-8734.430116,148.041188,-1225.752797
3773.578030,-9474.636058,-296.082377,-1378.971896
3773.578360,-8956.491898,0.000000,-459.657299
3773.578689,-9474.636058,222.061783,76.609550
3773.579019,-9548.656652,444.123565,0.000000
3773.579349,-9178.553681,0.000000,842.705048
3773.579679,-9474.636058,444.123565,0.000000
3773.580009,-10510.924376,370.102971,153.219100
3773.580339,-11547.212695,444.123565,612.876398
3773.580669,-11399.171507,370.102971,1149.143247
3773.580999,-10658.965565,222.061783,1685.410096
3773.581329,-10140.821405,0.000000,919.314598
3773.581659,-10584.944971,0.000000,689.485948
3773.581989,-10436.903782,-370.102971,1072.533697
3773.582319,-9622.677246,74.020594,2221.676944
3773.582648,-9918.759623,962.267725,2681.334243
3773.582978,-10881.027347,370.102971,2451.505594
3773.583308,-11251.130318,518.144159,2604.724693
3773.583638,-10732.986159,666.185348,1378.971896
3773.583968,-10214.842000,74.020594,995.924147
3773.584298,-10955.047942,1036.288319,2451.505594
3773.584628,-11621.233289,1480.411884,1302.362347
3773.584958,-10288.862594,888.247130,76.609550
3773.585288,-9030.512492,518.144159,-995.924147
3773.585618,-9252.574275,296.082377,-1455.581446
3773.585948,-8586.388927,-1036.288319,-383.047749
3773.586278,-7550.100608,-444.123565,1532.190996
3773.586607,-7328.038826,-592.164754,2221.676944
3773.586937,-8216.285956,296.082377,383.047749
3773.587267,-9474.636058,592.164754,0.000000
3773.587597,-9918.759623,444.123565,-1455.581446
3773.587927,-9326.594869,444.123565,-1455.581446
3773.588257,-9030.512492,0.000000,766.095498
3773.588587,-10658.965565,444.123565,2374.896044
3773.588917,-9548.656652,148.041188,2068.457845
3773.589247,-8586.388927,222.061783,-383.047749
3773.589577,-9400.615463,444.123565,-1225.752797
3773.589907,-10140.821405,518.144159,-919.314598
3773.590237,-10658.965565,1776.494261,306.438199
3773.590567,-11103.089130,2220.617826,459.657299
3773.590896,-10955.047942,1628.453072,-612.876398
3773.591226,-10881.027347,1776.494261,-2298.286494
3773.591556,-11177.109724,814.226536,-3370.820191
3773.591886,-10732.986159,148.041188,-2145.067394
3773.592216,-10584.944971,0.000000,153.219100
3773.592546,-9622.677246,-444.123565,2068.457845
3773.592876,-8882.471304,0.000000,1991.848295
3773.593206,-9400.615463,148.041188,1225.752797
3773.593536,-9918.759623,-444.123565,0.000000
3773.593866,-9918.759623,-370.102971,229.828649
3773.594196,-10510.924376,0.000000,842.705048
3773.594526,-10140.821405,-740.205942,766.095498
3773.594855,-8808.450710,-962.267725,383.047749
3773.595185,-8142.265362,-666.185348,-536.266849
3773.595515,-8068.244768,-1480.411884,-2068.457845
3773.595845,-8512.368333,-1480.411884,-1838.629195
3773.596175,-8956.491898,-666.185348,-766.095498
3773.596505,-8956.491898,-814.226536,459.657299
3773.596835,-8364.327145,-444.123565,612.876398
3773.597165,-9326.594869,-74.020594,-995.924147
3773.597495,-9918.759623,-592.164754,-1532.190996
3773.597825,-9104.533087,-1184.329507,-1149.143247
3773.598155,-9326.594869,-444.123565,-229.828649
3773.598485,-10066.800811,-370.102971,306.438199
3773.598815,-9992.780217,-518.144159,842.705048
3773.599144,-9548.656652,0.000000,-229.828649
3773.599474,-9696.697840,-444.123565,-1225.752797
3773.599804,-10658.965565,0.000000,-689.485948
3773.600134,-11991.336260,0.000000,766.095498
3773.600464,-10955.047942,0.000000,995.924147
3773.600794,-9992.780217,-592.164754,1378.971896
3773.601124,-10066.800811,0.000000,842.705048
3773.601454,-10881.027347,0.000000,76.609550
3773.601784,-11695.253884,370.102971,1225.752797
3773.602114,-11251.130318,148.041188,1915.238745
3773.602444,-11103.089130,0.000000,2911.162892
3773.602774,-10510.924376,-296.082377,3140.991542
3773.603103,-10436.903782,296.082377,2451.505594
3773.603433,-9696.697840,-592.164754,1072.533697
3773.603763,-9696.697840,-444.123565,1302.362347
3773.604093,-9918.759623,74.020594,1302.362347
3773.604423,-8882.471304,-740.205942,1991.848295
3773.604753,-9178.553681,-592.164754,1685.410096
3773.605083,-8586.388927,74.020594,1149.143247
3773.605413,-8290.306550,0.000000,536.266849
3773.605743,-8586.388927,0.000000,-612.876398
3773.606073,-8586.388927,222.061783,-383.047749
3773.606403,-9178.553681,148.041188,459.657299
3773.606733,-10066.800811,444.123565,306.438199
3773.607062,-8808.450710,518.144159,-383.047749
3773.607392,-8290.306550,370.102971,0.000000
3773.607722,-9696.697840,1184.329507,-1072.533697
3773.608052,-10140.821405,0.000000,-612.876398
3773.608382,-9178.553681,1184.329507,0.000000
3773.608712,-8290.306550,1406.391290,-766.095498
3773.609042,-9918.759623,1554.432478,0.000000
3773.609372,-10510.924376,1258.350101,306.438199
3773.609702,-11103.089130,1258.350101,0.000000
3773.610032,-11177.109724,1332.370696,-842.705048
3773.610362,-10881.027347,518.144159,306.438199
3773.610692,-11251.130318,1184.329507,612.876398
3773.611022,-10436.903782,222.061783,536.266849
3773.611351,-9474.636058,962.267725,1149.143247
3773.611681,-10807.006753,1184.329507,1838.629195
3773.612011,-11769.274478,1258.350101,842.705048
3773.612341,-11103.089130,814.226536,1915.238745
3773.612671,-9844.739029,1332.370696,842.705048
3773.613001,-10510.924376,888.247130,766.095498
3773.613331,-10288.862594,0.000000,459.657299
3773.613661,-9548.656652,518.144159,0.000000
3773.613991,-9178.553681,0.000000,-766.095498
3773.614321,-9474.636058,74.020594,-459.657299
3773.614651,-9474.636058,592.164754,-689.485948
3773.614981,-9104.533087,0.000000,-689.485948
3773.615310,-8364.327145,0.000000,-689.485948
3773.615640,-8956.491898,0.000000,-459.657299
3773.615970,-9770.718434,-148.041188,-536.266849
3773.616300,-9030.512492,0.000000,-842.705048
3773.616630,-9178.553681,0.000000,-689.485948
3773.616960,-9030.512492,-888.247130,-766.095498
3773.617290,-8512.368333,-518.144159,0.000000
3773.617620,-8586.388927,-592.164754,-383.047749
3773.617950,-9030.512492,-592.164754,-689.485948
3773.618280,-10140.821405,-518.144159,76.609550
3773.618610,-10140.821405,-666.185348,919.314598
3773.618940,-9992.780217,-666.185348,842.705048
3773.619270,-9622.677246,-370.102971,536.266849
3773.619599,-10140.821405,-962.267725,459.657299
3773.619929,-10066.800811,-592.164754,383.047749
3773.620259,-10658.965565,0.000000,1149.143247
3773.620589,-11029.068536,296.082377,306.438199
3773.620919,-11547.212695,0.000000,-306.438199
3773.621249,-10807.006753,296.082377,0.000000
3773.621579,-10807.006753,-370.102971,1225.752797
3773.621909,-10732.986159,-370.102971,919.314598
3773.622239,-10881.027347,-518.144159,1225.752797
3773.622569,-10510.924376,0.000000,1072.533697
3773.622899,-8808.450710,-222.061783,1455.581446
3773.623229,-9918.759623,-444.123565,383.047749
3773.623558,-10140.821405,-370.102971,459.657299
3773.623888,-10066.800811,-592.164754,842.705048
3773.624218,-9400.615463,-518.144159,153.219100
3773.624548,-8290.306550,-962.267725,0.000000
3773.624878,-8142.265362,-1036.288319,612.876398
3773.625208,-9474.636058,-1110.308913,842.705048
3773.625538,-9326.594869,-1184.329507,229.828649
3773.625867,-9252.574275,-1258.350101,0.000000
3773.626197,-8808.450710,-740.205942,-76.609550
3773.626527,-8882.471304,-962.267725,1149.143247
3773.626857,-8808.450710,-148.041188,1072.533697
3773.627186,-9178.553681,-370.102971,536.266849
3773.627516,-9030.512492,-148.041188,229.828649
3773.627846,-9474.636058,222.061783,689.485948
3773.628176,-10436.903782,740.205942,1072.533697
3773.628505,-11029.068536,518.144159,995.924147
3773.628835,-10214.842000,962.267725,842.705048
3773.629165,-10658.965565,1332.370696,229.828649
3773.629495,-11103.089130,814.226536,-229.828649
3773.629824,-11325.150913,592.164754,-229.828649
3773.630154,-10807.006753,888.247130,306.438199
3773.630484,-10510.924376,740.205942,-76.609550
3773.630814,-9696.697840,1110.308913,76.609550
3773.631143,-9622.677246,888.247130,76.609550
3773.631473,-9844.739029,1110.308913,1072.533697
3773.631803,-9770.718434,592.164754,995.924147
3773.632133,-10807.006753,888.247130,766.095498
3773.632462,-10658.965565,222.061783,459.657299
3773.632792,-9622.677246,0.000000,689.485948
3773.633122,-9104.533087,0.000000,612.876398
3773.633452,-9104.533087,-444.123565,0.000000
3773.633781,-9178.553681,74.020594,-306.438199
3773.634111,-8808.450710,0.000000,306.438199
3773.634441,-8734.430116,0.000000,153.219100
3773.634771,-8290.306550,370.102971,-383.047749
3773.635100,-8882.471304,370.102971,-612.876398
3773.635430,-9474.636058,222.061783,-1225.752797
3773.635760,-9178.553681,222.061783,-383.047749
3773.636090,-9178.553681,592.164754,306.438199
3773.636419,-8808.450710,444.123565,0.000000
3773.636749,-9696.697840,814.226536,-459.657299
3773.637079,-10140.821405,592.164754,-306.438199
3773.637409,-10362.883188,518.144159,-1302.362347
3773.637738,-10214.842000,444.123565,-842.705048
3773.638068,-10214.842000,222.061783,76.609550
3773.638398,-9326.594869,0.000000,766.095498
3773.638728,-8216.285956,296.082377,229.828649
3773.639057,-9770.718434,370.102971,0.000000
3773.639387,-11991.336260,1110.308913,-229.828649
3773.639717,-12435.459826,296.082377,0.000000
3773.640047,-11843.295072,0.000000,995.924147
3773.640376,-9400.615463,-592.164754,1838.629195
3773.640706,-9770.718434,-518.144159,2528.115143
3773.641036,-9918.759623,-296.082377,1991.848295
3773.641366,-9474.636058,-666.185348,1532.190996
3773.641695,-10436.903782,370.102971,536.266849
3773.642025,-11177.109724,0.000000,229.828649
3773.642355,-10584.944971,148.041188,919.314598
3773.642685,-10140.821405,0.000000,995.924147
3773.643014,-8956.491898,-148.041188,-229.828649
3773.643344,-8882.471304,-740.205942,-459.657299
3773.643674,-9400.615463,148.041188,-995.924147
3773.644004,-9400.615463,-592.164754,-1225.752797
3773.644333,-9474.636058,518.144159,-306.438199
3773.644663,-9326.594869,-148.041188,306.438199
3773.644993,-9326.594869,-666.185348,0.000000
3773.645323,-8438.347739,-814.226536,-153.219100
3773.645652,-8660.409521,-888.247130,-306.438199
3773.645982,-9178.553681,-888.247130,-536.266849
3773.646312,-8364.327145,-1036.288319,229.828649
3773.646642,-8660.409521,0.000000,1072.533697
3773.646971,-8734.430116,-296.082377,842.705048
3773.647301,-10066.800811,222.061783,995.924147
3773.647631,-10955.047942,0.000000,919.314598
3773.647961,-10436.903782,0.000000,76.609550
3773.648290,-10955.047942,518.144159,76.609550
3773.648620,-11325.150913,370.102971,766.095498
3773.648950,-10955.047942,740.205942,153.219100
3773.649280,-9992.780217,370.102971,-842.705048
3773.649609,-10881.027347,1184.329507,76.609550
3773.649939,-11473.192101,296.082377,919.314598
3773.650269,-11769.274478,740.205942,1378.971896
3773.650599,-9844.739029,74.020594,383.047749
3773.650928,-9696.697840,0.000000,612.876398
3773.651258,-9548.656652,-370.102971,1378.971896
3773.651588,-9770.718434,-296.082377,1455.581446
3773.651918,-9252.574275,-296.082377,766.095498
3773.652247,-9770.718434,148.041188,689.485948
3773.652577,-10881.027347,444.123565,459.657299
3773.652907,-10066.800811,-222.061783,-306.438199
3773.653237,-9178.553681,-444.123565,-842.705048
3773.653566,-8586.388927,-814.226536,-536.266849
3773.653896,-8512.368333,-814.226536,229.828649
3773.654226,-8512.368333,-148.041188,229.828649
3773.654556,-7994.224174,-740.205942,-689.485948
3773.654885,-7476.080014,-962.267725,-1225.752797
3773.655215,-9252.574275,-74.020594,-1225.752797
3773.655545,-9548.656652,-222.061783,-689.485948
3773.655875,-9030.512492,-444.123565,0.000000
3773.656204,-9474.636058,0.000000,459.657299
3773.656534,-10214.842000,-296.082377,383.047749
3773.656864,-9992.780217,-518.144159,76.609550
3773.657194,-9548.656652,0.000000,-459.657299
3773.657523,-10288.862594,-296.082377,76.609550
3773.657853,-10658.965565,296.082377,1072.533697
3773.658183,-10881.027347,814.226536,612.876398
3773.658513,-9844.739029,370.102971,-612.876398
3773.658842,-9992.780217,0.000000,-766.095498
3773.659172,-10955.047942,666.185348,-536.266849
3773.659502,-11399.171507,1184.329507,842.705048
3773.659832,-11251.130318,962.267725,1149.143247
3773.660161,-10658.965565,666.185348,766.095498
3773.660491,-10436.903782,0.000000,689.485948
3773.660821,-10510.924376,444.123565,1302.362347
3773.661151,-10658.965565,0.000000,536.266849
3773.661480,-9474.636058,-666.185348,995.924147
3773.661810,-8956.491898,-296.082377,2374.896044
3773.662140,-10066.800811,666.185348,2068.457845
3773.662470,-9548.656652,222.061783,0.000000
3773.662799,-9030.512492,740.205942,-766.095498
3773.663129,-9104.533087,74.020594,-2221.676944
3773.663459,-9400.615463,-74.020594,-995.924147
3773.663789,-8734.430116,-370.102971,995.924147
3773.664118,-8660.409521,370.102971,1149.143247
3773.664448,-7994.224174,592.164754,-306.438199
3773.664778,-8882.471304,-444.123565,-1378.971896
3773.665108,-9030.512492,370.102971,-1455.581446
3773.665437,-9992.780217,-74.020594,306.438199
3773.665767,-10436.903782,1036.288319,1991.848295
3773.666097,-10140.821405,518.144159,1302.362347
3773.666427,-8512.368333,0.000000,0.000000
3773.666756,-8142.265362,444.123565,-995.924147
3773.667086,-10066.800811,888.247130,-842.705048
3773.667416,-11621.233289,1184.329507,612.876398
3773.667746,-11399.171507,962.267725,919.314598
3773.668075,-10658.965565,666.185348,842.705048
3773.668405,-9992.780217,296.082377,153.219100
3773.668735,-10658.965565,666.185348,0.000000
3773.669065,-9844.739029,-592.164754,-229.828649
3773.669394,-9474.636058,-370.102971,459.657299
3773.669724,-10658.965565,518.144159,2681.334243
3773.670054,-11769.274478,296.082377,2834.553343
3773.670384,-10955.047942,148.041188,1838.629195
3773.670713,-10214.842000,74.020594,229.828649
3773.671043,-9844.739029,0.000000,76.609550
3773.671373,-9770.718434,-740.205942,995.924147
3773.671703,-10510.924376,518.144159,1225.752797
3773.672032,-8882.471304,0.000000,153.219100
3773.672362,-9104.533087,0.000000,-459.657299
3773.672692,-9770.718434,370.102971,-1608.800546
3773.673022,-9030.512492,-370.102971,-1762.019645
3773.673351,-8438.347739,-74.020594,-229.828649
3773.673681,-8660.409521,0.000000,0.000000
3773.674011,-8882.471304,-740.205942,0.000000
3773.674341,-9178.553681,-888.247130,306.438199
3773.674670,-9844.739029,-592.164754,0.000000
3773.675000,-9400.615463,-666.185348,0.000000
3773.675330,-8290.306550,-148.041188,229.828649
3773.675660,-9104.533087,0.000000,306.438199
3773.675989,-9326.594869,-148.041188,-383.047749
3773.676319,-9696.697840,0.000000,-536.266849
3773.676649,-10140.821405,0.000000,-995.924147
3773.676979,-9474.636058,-444.123565,-383.047749
3773.677308,-9104.533087,-222.061783,459.657299
3773.677638,-10807.006753,740.205942,1685.410096
3773.677968,-11621.233289,0.000000,1302.362347
3773.678298,-11399.171507,74.020594,0.000000
3773.678627,-10510.924376,148.041188,-766.095498
3773.678957,-10881.027347,-444.123565,0.000000
3773.679287,-10881.027347,-222.061783,2298.286494
3773.679617,-10510.924376,74.020594,3064.381992
3773.679946,-9770.718434,222.061783,1072.533697
3773.680276,-9770.718434,0.000000,-612.876398
3773.680606,-9474.636058,148.041188,-1455.581446
3773.680936,-10066.800811,-296.082377,-919.314598
3773.681265,-10362.883188,222.061783,1532.190996
3773.681595,-10140.821405,222.061783,2145.067394
3773.681925,-9696.697840,74.020594,842.705048
3773.682255,-8956.491898,-444.123565,-1838.629195
3773.682584,-8660.409521,-592.164754,-2451.505594
3773.682914,-8734.430116,-888.247130,-689.485948
3773.683244,-9104.533087,0.000000,1149.143247
3773.683574,-8956.491898,0.000000,1991.848295
3773.683903,-8216.285956,148.041188,919.314598
3773.684233,-9030.512492,74.020594,-1225.752797
3773.684563,-10066.800811,-148.041188,-2068.457845
3773.684893,-9030.512492,-518.144159,-689.485948
3773.685222,-9178.553681,74.020594,1225.752797
3773.685552,-9178.553681,222.061783,1685.410096
3773.685882,-9178.553681,-222.061783,1072.533697
3773.686212,-9696.697840,222.061783,-689.485948
3773.686541,-10436.903782,74.020594,-1302.362347
3773.686871,-11621.233289,592.164754,383.047749
3773.687201,-10881.027347,1036.288319,1838.629195
3773.687531,-9844.739029,1036.288319,1762.019645
3773.687860,-9474.636058,1110.308913,1072.533697
3773.688190,-10584.944971,962.267725,-612.876398
3773.688520,-11695.253884,592.164754,-1149.143247
3773.688850,-10881.027347,740.205942,0.000000
3773.689179,-10214.842000,1110.308913,1608.800546
3773.689509,-10881.027347,888.247130,2451.505594
3773.689839,-10362.883188,592.164754,1915.238745
3773.690169,-9770.718434,296.082377,-766.095498
3773.690498,-9770.718434,0.000000,-1991.848295
3773.690828,-9918.759623,222.061783,0.000000
3773.691158,-10436.903782,296.082377,1378.971896
3773.691488,-8734.430116,0.000000,2298.286494
3773.691817,-7772.162391,74.020594,1455.581446
3773.692147,-9252.574275,222.061783,-459.657299
3773.692477,-9992.780217,-222.061783,-1915.238745
3773.692807,-9326.594869,0.000000,-1608.800546
3773.693136,-8660.409521,222.061783,0.000000
3773.693466,-8660.409521,-222.061783,1225.752797
3773.693796,-9178.553681,0.000000,612.876398
3773.694126,-8660.409521,74.020594,-1149.143247
3773.694455,-8734.430116,-666.185348,-3064.381992
3773.694785,-8586.388927,-666.185348,-1915.238745
3773.695115,-9400.615463,-666.185348,766.095498
3773.695445,-10066.800811,370.102971,3294.210641
3773.695774,-10140.821405,0.000000,2757.943793
3773.696104,-10955.047942,518.144159,306.438199
3773.696434,-10362.883188,-592.164754,-1378.971896
3773.696764,-10510.924376,0.000000,-842.705048
3773.697093,-11325.150913,814.226536,919.314598
3773.697423,-10214.842000,444.123565,1608.800546
3773.697753,-10066.800811,666.185348,1685.410096
3773.698083,-10510.924376,370.102971,-383.047749
3773.698412,-10955.047942,-444.123565,-2298.286494
3773.698742,-11399.171507,-592.164754,-1532.190996
3773.699072,-10362.883188,-444.123565,383.047749
3773.699402,-8882.471304,-962.267725,2528.115143
3773.699731,-8216.285956,-518.144159,2145.067394
3773.700061,-9252.574275,-740.205942,1072.533697
3773.700391,-9844.739029,-518.144159,0.000000
3773.700721,-11325.150913,-370.102971,0.000000
3773.701051,-11029.068536,0.000000,766.095498
3773.701380,-9400.615463,-740.205942,1685.410096
3773.701710,-8734.430116,-592.164754,612.876398
3773.702040,-8216.285956,-666.185348,-612.876398
3773.702370,-8734.430116,-296.082377,-1915.238745
3773.702699,-9622.677246,-148.041188,-1915.238745
3773.703029,-9178.553681,-592.164754,-2068.457845
3773.703359,-8290.306550,0.000000,-612.876398
3773.703689,-8586.388927,-148.041188,-612.876398
3773.704018,-9474.636058,-296.082377,-306.438199
3773.704348,-9178.553681,-370.102971,-229.828649
3773.704678,-9474.636058,-222.061783,-689.485948
3773.705008,-9474.636058,0.000000,-766.095498
3773.705337,-10140.821405,-222.061783,919.314598
3773.705667,-11103.089130,1332.370696,1838.629195
3773.705997,-10881.027347,0.000000,1225.752797
3773.706327,-10955.047942,-518.144159,919.314598
3773.706656,-10881.027347,0.000000,459.657299
3773.706986,-10436.903782,-518.144159,0.000000
3773.707316,-10140.821405,-814.226536,536.266849
3773.707646,-9770.718434,814.226536,1149.143247
3773.707975,-9622.677246,74.020594,1378.971896
3773.708305,-10140.821405,296.082377,766.095498
3773.708635,-11029.068536,370.102971,306.438199
3773.708965,-10288.862594,0.000000,842.705048
3773.709294,-9622.677246,-222.061783,1532.190996
3773.709624,-9918.759623,74.020594,1455.581446
3773.709954,-9992.780217,-296.082377,1072.533697
3773.710284,-9178.553681,-444.123565,1378.971896
3773.710613,-8956.491898,0.000000,766.095498
3773.710943,-9104.533087,-370.102971,689.485948
3773.711273,-9992.780217,740.205942,306.438199
3773.711603,-9918.759623,740.205942,76.609550
3773.711932,-9252.574275,0.000000,-689.485948
3773.712262,-9252.574275,296.082377,-919.314598
3773.712592,-9030.512492,148.041188,-536.266849
3773.712922,-8660.409521,-296.082377,-612.876398
3773.713251,-7920.203579,296.082377,-689.485948
3773.713581,-8142.265362,740.205942,-536.266849
3773.713911,-8956.491898,444.123565,-766.095498
3773.714241,-10436.903782,962.267725,-689.485948
3773.714570,-10955.047942,666.185348,153.219100
3773.714900,-10510.924376,518.144159,1455.581446
3773.715230,-10510.924376,222.061783,1532.190996
3773.715560,-9622.677246,-444.123565,1608.800546
3773.715889,-9548.656652,0.000000,1608.800546
3773.716219,-9992.780217,814.226536,2068.457845
3773.716549,-10510.924376,592.164754,1685.410096
3773.716879,-11769.274478,1850.514855,1532.190996
3773.717208,-11843.295072,1924.535449,383.047749
3773.717538,-10732.986159,1036.288319,-919.314598
3773.717868,-9992.780217,370.102971,-919.314598
3773.718198,-10066.800811,518.144159,0.000000
3773.718527,-10140.821405,-74.020594,842.705048
3773.718857,-8438.347739,74.020594,1915.238745
3773.719187,-8808.450710,592.164754,1378.971896
3773.719517,-10362.883188,296.082377,995.924147
3773.719846,-10510.924376,0.000000,1302.362347
3773.720176,-11695.253884,444.123565,1838.629195
3773.720506,-10510.924376,148.041188,1685.410096
3773.720836,-9474.636058,-370.102971,1455.581446
3773.721165,-9326.594869,370.102971,0.000000
3773.721495,-8438.347739,0.000000,-1072.533697
3773.721825,-8216.285956,0.000000,-1838.629195
3773.722155,-8734.430116,222.061783,-2374.896044
3773.722484,-8438.347739,370.102971,-1532.190996
3773.722814,-8734.430116,592.164754,-459.657299
3773.723144,-9400.615463,592.164754,-459.657299
3773.723474,-9844.739029,-148.041188,-612.876398
3773.723803,-9474.636058,74.020594,-536.266849
3773.724133,-9548.656652,592.164754,-612.876398
3773.724463,-9918.759623,-296.082377,0.000000
3773.724793,-10436.903782,444.123565,1685.410096
3773.725122,-10510.924376,740.205942,1225.752797
3773.725452,-10807.006753,74.020594,0.000000
3773.725782,-10955.047942,444.123565,229.828649
3773.726112,-11029.068536,0.000000,0.000000
3773.726441,-10658.965565,-148.041188,-306.438199
3773.726771,-9474.636058,222.061783,-689.485948
3773.727101,-9474.636058,0.000000,153.219100
3773.727431,-10066.800811,-518.144159,-306.438199
3773.727760,-10140.821405,-444.123565,-612.876398
3773.728090,-10214.842000,-370.102971,0.000000
3773.728420,-9770.718434,-518.144159,1072.533697
3773.728750,-9622.677246,-148.041188,1762.019645
3773.729080,-10362.883188,-296.082377,1915.238745
3773.729409,-10584.944971,-370.102971,1072.533697
3773.729739,-9770.718434,-740.205942,0.000000
3773.730069,-9844.739029,-740.205942,-689.485948
3773.730399,-9030.512492,-740.205942,-1149.143247
3773.730729,-8734.430116,-814.226536,-766.095498
3773.731058,-8290.306550,-370.102971,-1378.971896
3773.731388,-8808.450710,-888.247130,-995.924147
3773.731718,-8956.491898,-518.144159,-1838.629195
3773.732048,-9104.533087,-592.164754,-919.314598
3773.732378,-9104.533087,-370.102971,383.047749
3773.732707,-9400.615463,-814.226536,1455.581446
3773.733037,-9474.636058,-666.185348,229.828649
3773.733367,-9326.594869,-1332.370696,0.000000
3773.733697,-9770.718434,-444.123565,153.219100
3773.734026,-10066.800811,-962.267725,842.705048
3773.734356,-9622.677246,-592.164754,1378.971896
3773.734686,-9844.739029,148.041188,1455.581446
3773.735016,-10658.965565,74.020594,1455.581446
3773.735346,-9844.739029,592.164754,536.266849
3773.735675,-10436.903782,518.144159,-766.095498
3773.736005,-11473.192101,370.102971,-689.485948
3773.736335,-11473.192101,0.000000,-229.828649
3773.736665,-10658.965565,74.020594,459.657299
3773.736995,-9992.780217,74.020594,612.876398
3773.737324,-9770.718434,0.000000,1302.362347
3773.737654,-10140.821405,296.082377,1072.533697
3773.737984,-10214.842000,74.020594,1532.190996
3773.738314,-9696.697840,592.164754,2298.286494
3773.738644,-9992.780217,592.164754,1991.848295
3773.738973,-10066.800811,296.082377,1225.752797
3773.739303,-9622.677246,370.102971,995.924147
3773.739633,-9696.697840,888.247130,-306.438199
3773.739963,-9622.677246,0.000000,-995.924147
3773.740293,-9178.553681,148.041188,-1685.410096
3773.740622,-8882.471304,370.102971,-1225.752797
3773.740952,-7846.182985,0.000000,-766.095498
3773.741282,-7772.162391,222.061783,-612.876398
3773.741612,-9326.594869,518.144159,-689.485948
3773.741942,-9104.533087,74.020594,0.000000
3773.742271,-9178.553681,222.061783,689.485948
3773.742601,-9918.759623,740.205942,612.876398
3773.742931,-9548.656652,-518.144159,612.876398
3773.743261,-9548.656652,222.061783,919.314598
3773.743591,-9252.574275,148.041188,1225.752797
3773.743920,-9770.718434,370.102971,842.705048
3773.744250,-10288.862594,740.205942,229.828649
3773.744580,-10140.821405,1036.288319,0.000000
3773.744910,-10362.883188,1184.329507,1149.143247
3773.745240,-11325.150913,1776.494261,1225.752797
3773.745569,-10955.047942,592.164754,229.828649
3773.745899,-10732.986159,666.185348,306.438199
3773.746229,-10214.842000,1184.329507,229.828649
3773.746559,-10510.924376,740.205942,0.000000
3773.746888,-11325.150913,1036.288319,536.266849
3773.747218,-10881.027347,814.226536,612.876398
3773.747548,-9992.780217,740.205942,306.438199
3773.747878,-9326.594869,592.164754,383.047749
3773.748208,-10288.862594,444.123565,612.876398
3773.748537,-9622.677246,0.000000,1302.362347
3773.748867,-8956.491898,0.000000,995.924147
3773.749197,-9252.574275,-296.082377,536.266849
3773.749527,-9474.636058,222.061783,0.000000
3773.749857,-9252.574275,-296.082377,-306.438199
3773.750186,-9696.697840,296.082377,-1378.971896
3773.750516,-8882.471304,-370.102971,-1685.410096
3773.750846,-8586.388927,-814.226536,-995.924147
3773.751176,-9178.553681,148.041188,0.000000
3773.751506,-8734.430116,-296.082377,-766.095498
3773.751835,-8438.347739,-518.144159,-1225.752797
3773.752165,-8808.450710,148.041188,-1149.143247
3773.752495,-9326.594869,-444.123565,76.609550
3773.752825,-9696.697840,-370.102971,1225.752797
3773.753155,-10140.821405,-296.082377,383.047749
3773.753484,-10288.862594,-444.123565,383.047749
3773.753814,-9992.780217,-222.061783,1225.752797
3773.754144,-10288.862594,370.102971,306.438199
3773.754474,-10807.006753,-518.144159,459.657299
3773.754804,-10214.842000,148.041188,612.876398
3773.755133,-11251.130318,888.247130,1072.533697
3773.755463,-11251.130318,0.000000,0.000000
3773.755793,-11251.130318,-74.020594,-229.828649
3773.756123,-10510.924376,-296.082377,76.609550
3773.756453,-9696.697840,-666.185348,1149.143247
3773.756782,-9400.615463,-222.061783,1149.143247
3773.757112,-10436.903782,-222.061783,1685.410096
3773.757442,-10362.883188,-888.247130,1378.971896
3773.757772,-10362.883188,-740.205942,1532.190996
3773.758102,-10807.006753,-222.061783,1149.143247
3773.758431,-10288.862594,-1036.288319,1302.362347
3773.758761,-9548.656652,-444.123565,1608.800546
3773.759091,-8586.388927,-1036.288319,306.438199
3773.759421,-8364.327145,-888.247130,-766.095498
3773.759750,-8808.450710,-814.226536,-1608.800546
3773.760080,-8364.327145,-962.267725,-1455.581446
3773.760410,-8660.409521,-1110.308913,-995.924147
3773.760740,-9104.533087,-666.185348,1072.533697
3773.761070,-9178.553681,-370.102971,-229.828649
3773.761399,-8956.491898,-666.185348,-1225.752797
3773.761729,-8734.430116,-592.164754,-1149.143247
3773.762059,-9030.512492,-814.226536,-229.828649
3773.762389,-9030.512492,-592.164754,1149.143247
3773.762719,-9622.677246,74.020594,1225.752797
3773.763048,-9918.759623,148.041188,995.924147
3773.763378,-9400.615463,0.000000,-612.876398
3773.763708,-10066.800811,740.205942,-919.314598
3773.764038,-10732.986159,296.082377,-766.095498
3773.764368,-10955.047942,592.164754,229.828649
3773.764697,-11029.068536,1406.391290,1072.533697
3773.765027,-10807.006753,1332.370696,842.705048
3773.765357,-10955.047942,1184.329507,0.000000
3773.765687,-12065.356855,1702.473667,-766.095498
3773.766017,-11399.171507,518.144159,-1225.752797
3773.766346,-9474.636058,444.123565,306.438199
3773.766676,-9844.739029,1184.329507,1225.752797
3773.767006,-10584.944971,444.123565,1149.143247
3773.767336,-9918.759623,0.000000,612.876398
3773.767666,-9030.512492,962.267725,229.828649
3773.767995,-8734.430116,-222.061783,229.828649
3773.768325,-9548.656652,74.020594,1302.362347
3773.768655,-10140.821405,518.144159,1991.848295
3773.768985,-9918.759623,-148.041188,1149.143247
3773.769315,-9030.512492,-148.041188,383.047749
3773.769644,-9104.533087,-370.102971,-1302.362347
3773.769974,-8882.471304,-444.123565,-766.095498
3773.770304,-8438.347739,-148.041188,229.828649
3773.770634,-8068.244768,74.020594,-153.219100
3773.770964,-8660.409521,0.000000,-766.095498
3773.771293,-8882.471304,444.123565,-842.705048
3773.771623,-9104.533087,296.082377,-995.924147
3773.771953,-9252.574275,0.000000,-766.095498
3773.772283,-9622.677246,370.102971,842.705048
3773.772612,-9770.718434,0.000000,1225.752797
3773.772942,-9844.739029,0.000000,1225.752797
3773.773272,-10436.903782,0.000000,1378.971896
3773.773602,-11103.089130,592.164754,1072.533697
3773.773932,-10510.924376,-74.020594,612.876398
3773.774261,-10288.862594,592.164754,766.095498
3773.774591,-11251.130318,814.226536,1838.629195
3773.774921,-11473.192101,518.144159,1455.581446
3773.775251,-10658.965565,444.123565,0.000000
3773.775581,-10140.821405,666.185348,-766.095498
3773.775910,-10140.821405,0.000000,536.266849
3773.776240,-10288.862594,740.205942,2145.067394
3773.776570,-10214.842000,444.123565,1608.800546
3773.776900,-9474.636058,0.000000,919.314598
3773.777230,-9474.636058,444.123565,229.828649
3773.777559,-11177.109724,444.123565,459.657299
3773.777889,-10732.986159,0.000000,1302.362347
3773.778219,-9992.780217,-148.041188,1455.581446
3773.778549,-9252.574275,-444.123565,842.705048
3773.778879,-8808.450710,-370.102971,306.438199
3773.779208,-9400.615463,-296.082377,459.657299
3773.779538,-8808.450710,-666.185348,-1072.533697
3773.779868,-7920.203579,-518.144159,-1225.752797
3773.780198,-9030.512492,0.000000,-766.095498
3773.780528,-9474.636058,-740.205942,306.438199
3773.780857,-8734.430116,-888.247130,0.000000
3773.781187,-8142.265362,0.000000,-1225.752797
3773.781517,-9326.594869,-518.144159,-1072.533697
3773.781847,-10288.862594,-148.041188,-76.609550
3773.782177,-10140.821405,-74.020594,459.657299
3773.782506,-9622.677246,0.000000,612.876398
3773.782836,-9326.594869,-444.123565,536.266849
3773.783166,-10066.800811,370.102971,153.219100
3773.783496,-10214.842000,-740.205942,-229.828649
3773.783826,-10214.842000,74.020594,0.000000
3773.784155,-10214.842000,74.020594,689.485948
3773.784485,-10732.986159,518.144159,306.438199
3773.784815,-10214.842000,518.144159,0.000000
3773.785145,-10658.965565,888.247130,-919.314598
3773.785474,-11177.109724,0.000000,-1149.143247
3773.785804,-10658.965565,0.000000,0.000000
3773.786134,-10214.842000,0.000000,459.657299
3773.786464,-9548.656652,-222.061783,459.657299
3773.786794,-9178.553681,0.000000,1302.362347
3773.787123,-10066.800811,0.000000,1838.629195
3773.787453,-10288.862594,0.000000,919.314598
3773.787783,-9992.780217,-444.123565,612.876398
3773.788113,-9252.574275,-296.082377,229.828649
3773.788443,-9030.512492,-740.205942,612.876398
3773.788772,-8956.491898,-518.144159,612.876398
3773.789102,-9178.553681,0.000000,-995.924147
3773.789432,-9178.553681,-1110.308913,-1991.848295
3773.789762,-8734.430116,-296.082377,-1225.752797
3773.790092,-9178.553681,0.000000,0.000000
3773.790421,-9474.636058,0.000000,459.657299
3773.790751,-8438.347739,-740.205942,0.000000
3773.791081,-8438.347739,-370.102971,153.219100
3773.791411,-8956.491898,-962.267725,383.047749
3773.791741,-9918.759623,0.000000,919.314598
3773.792070,-9844.739029,296.082377,1455.581446
3773.792400,-9918.759623,222.061783,919.314598
3773.792730,-10140.821405,814.226536,689.485948
3773.793060,-11177.109724,962.267725,153.219100
3773.793390,-11473.192101,814.226536,0.000000
3773.793719,-11177.109724,814.226536,306.438199
3773.794049,-10214.842000,444.123565,842.705048
3773.794379,-10288.862594,518.144159,1608.800546
3773.794709,-10732.986159,1036.288319,689.485948
3773.795039,-10658.965565,444.123565,153.219100
3773.795368,-9252.574275,518.144159,0.000000
3773.795698,-9696.697840,814.226536,919.314598
3773.796028,-11029.068536,1036.288319,1685.410096
3773.796358,-10881.027347,592.164754,2757.943793
3773.796688,-10214.842000,962.267725,1302.362347
3773.797017,-9178.553681,666.185348,0.000000
3773.797347,-9252.574275,148.041188,0.000000
3773.797677,-9770.718434,518.144159,766.095498
3773.798007,-8956.491898,0.000000,1225.752797
3773.798337,-9474.636058,592.164754,1225.752797
3773.798666,-9326.594869,888.247130,-536.266849
3773.798996,-9030.512492,-222.061783,-2221.676944
3773.799326,-7846.182985,74.020594,-1532.190996
3773.799656,-8364.327145,0.000000,0.000000
3773.799985,-9474.636058,74.020594,1072.533697
3773.800315,-9474.636058,518.144159,1072.533697
3773.800645,-9252.574275,0.000000,-306.438199
3773.800975,-8660.409521,-370.102971,-689.485948
3773.801305,-9326.594869,0.000000,76.609550
3773.801634,-11029.068536,1184.329507,919.314598
3773.801964,-10955.047942,666.185348,229.828649
3773.802294,-9770.718434,1110.308913,1225.752797
3773.802624,-9770.718434,1258.350101,-229.828649
3773.802954,-10732.986159,0.000000,-1455.581446
3773.803283,-11177.109724,1184.329507,-536.266849
3773.803613,-10807.006753,740.205942,0.000000
3773.803943,-10214.842000,0.000000,229.828649
3773.804273,-9548.656652,518.144159,842.705048
3773.804603,-10584.944971,666.185348,76.609550
3773.804932,-10732.986159,0.000000,-536.266849
3773.805262,-10510.924376,-518.144159,0.000000
3773.805592,-10362.883188,0.000000,2068.457845
3773.805922,-10955.047942,-666.185348,2221.676944
3773.806252,-10066.800811,-444.123565,1685.410096
3773.806581,-9030.512492,-888.247130,306.438199
3773.806911,-8290.306550,-1258.350101,153.219100
3773.807241,-8956.491898,-666.185348,-76.609550
3773.807571,-9400.615463,-444.123565,0.000000
3773.807901,-8586.388927,-1036.288319,-153.219100
3773.808230,-8660.409521,-370.102971,-459.657299
3773.808560,-9030.512492,-962.267725,-1225.752797
3773.808890,-9548.656652,-1332.370696,-1225.752797
3773.809220,-10214.842000,-592.164754,-842.705048
3773.809550,-8956.491898,-1110.308913,-919.314598
3773.809879,-7624.121203,-1258.350101,-459.657299
3773.810209,-8438.347739,0.000000,-306.438199
3773.810539,-9696.697840,-296.082377,-689.485948
3773.810869,-10140.821405,-222.061783,-459.657299
3773.811199,-10140.821405,0.000000,-612.876398
3773.811528,-9548.656652,-296.082377,-612.876398
3773.811858,-9696.697840,-592.164754,1072.533697
3773.812188,-10807.006753,74.020594,1838.629195
3773.812518,-10881.027347,-444.123565,1378.971896
3773.812847,-10436.903782,-74.020594,306.438199
3773.813177,-10288.862594,0.000000,-689.485948
3773.813507,-11103.089130,-222.061783,0.000000
3773.813837,-10658.965565,74.020594,1302.362347
3773.814167,-11251.130318,814.226536,1302.362347
3773.814496,-10732.986159,0.000000,229.828649
3773.814826,-9918.759623,-370.102971,689.485948
3773.815156,-10436.903782,222.061783,842.705048
3773.815486,-10214.842000,-592.164754,995.924147
3773.815816,-9696.697840,370.102971,1762.019645
3773.816145,-8956.491898,222.061783,1149.143247
3773.816475,-9400.615463,0.000000,229.828649
3773.816805,-9548.656652,0.000000,1149.143247
3773.817135,-10807.006753,370.102971,689.485948
3773.817465,-10955.047942,-592.164754,1532.190996
3773.817794,-9104.533087,-370.102971,842.705048
3773.818124,-8068.244768,-148.041188,766.095498
3773.818454,-7402.059420,-888.247130,536.266849
3773.818784,-7846.182985,-148.041188,-229.828649
3773.819114,-8882.471304,0.000000,76.609550
3773.819443,-9104.533087,0.000000,0.000000
3773.819773,-9178.553681,296.082377,459.657299
3773.820103,-9400.615463,1110.308913,459.657299
3773.820433,-9770.718434,222.061783,-766.095498
3773.820763,-9770.718434,740.205942,-459.657299
3773.821092,-9400.615463,666.185348,0.000000
3773.821422,-10066.800811,518.144159,306.438199
3773.821752,-9770.718434,1258.350101,383.047749
3773.822082,-10362.883188,1702.473667,-459.657299
3773.822412,-10658.965565,962.267725,-766.095498
3773.822741,-11473.192101,1554.432478,-153.219100
3773.823071,-11695.253884,1406.391290,536.266849
3773.823401,-10881.027347,518.144159,153.219100
3773.823731,-9622.677246,1110.308913,-536.266849
3773.824061,-9696.697840,814.226536,306.438199
3773.824390,-10362.883188,962.267725,919.314598
3773.824720,-10881.027347,962.267725,1072.533697
3773.825050,-10732.986159,296.082377,383.047749
3773.825380,-10214.842000,444.123565,689.485948
3773.825709,-9770.718434,518.144159,1072.533697
3773.826039,-9622.677246,0.000000,1685.410096
3773.826369,-8660.409521,-222.061783,383.047749
3773.826699,-9474.636058,296.082377,-153.219100
3773.827029,-9770.718434,74.020594,-842.705048
3773.827358,-9622.677246,-444.123565,-689.485948
3773.827688,-8956.491898,296.082377,-766.095498
3773.828018,-9252.574275,-148.041188,-229.828649
3773.828348,-8956.491898,-222.061783,306.438199
3773.828678,-9326.594869,-222.061783,76.609550
3773.829007,-9030.512492,-148.041188,-612.876398
3773.829337,-8956.491898,-592.164754,0.000000
3773.829667,-9770.718434,518.144159,0.000000
3773.829997,-9326.594869,-666.185348,76.609550
3773.830326,-9844.739029,592.164754,536.266849
3773.830656,-10140.821405,518.144159,0.000000
3773.830986,-10658.965565,-370.102971,-842.705048
3773.831315,-9548.656652,-444.123565,-919.314598
3773.831645,-10584.944971,222.061783,-766.095498
3773.831975,-10807.006753,-148.041188,0.000000
3773.832304,-10066.800811,-444.123565,1149.143247
3773.832634,-9844.739029,592.164754,1149.143247
3773.832964,-9992.780217,-444.123565,766.095498
3773.833293,-10658.965565,148.041188,612.876398
3773.833623,-11843.295072,74.020594,1149.143247
3773.833953,-12065.356855,-444.123565,919.314598
3773.834282,-9992.780217,-444.123565,1302.362347
3773.834612,-9178.553681,-296.082377,1149.143247
3773.834942,-9622.677246,-666.185348,1378.971896
3773.835271,-9400.615463,-814.226536,383.047749
3773.835601,-9178.553681,-592.164754,-229.828649
3773.835931,-9030.512492,-666.185348,-536.266849
3773.836260,-9918.759623,0.000000,229.828649
3773.836590,-9844.739029,-296.082377,995.924147
3773.836920,-9104.533087,-1480.411884,1225.752797
3773.837249,-8660.409521,-666.185348,612.876398
3773.837579,-8734.430116,-592.164754,0.000000
3773.837909,-9252.574275,-444.123565,-1149.143247
3773.838238,-9030.512492,-666.185348,-612.876398
3773.838568,-9030.512492,-370.102971,536.266849
3773.838898,-9104.533087,-444.123565,919.314598
3773.839227,-9918.759623,-444.123565,842.705048
3773.839557,-9770.718434,-592.164754,-153.219100
3773.839887,-9326.594869,-74.020594,-536.266849
3773.840216,-9178.553681,0.000000,-459.657299
3773.840546,-9622.677246,-222.061783,229.828649
3773.840876,-9548.656652,222.061783,612.876398
3773.841205,-10140.821405,296.082377,229.828649
3773.841535,-10658.965565,592.164754,-306.438199
3773.841865,-10732.986159,0.000000,-306.438199
3773.842194,-11103.089130,740.205942,76.609550
3773.842524,-11177.109724,222.061783,842.705048
3773.842854,-11103.089130,0.000000,995.924147
3773.843183,-11029.068536,444.123565,689.485948
3773.843513,-10732.986159,0.000000,0.000000
3773.843843,-9104.533087,148.041188,-306.438199
3773.844172,-9548.656652,0.000000,459.657299
3773.844502,-9992.780217,592.164754,0.000000
3773.844832,-9474.636058,-296.082377,689.485948
3773.845161,-9696.697840,370.102971,76.609550
3773.845491,-10214.842000,-592.164754,153.219100
3773.845821,-10066.800811,0.000000,766.095498
3773.846150,-9252.574275,0.000000,383.047749
3773.846480,-8438.347739,-888.247130,-919.314598
3773.846810,-7772.162391,-592.164754,-612.876398
3773.847139,-9326.594869,0.000000,0.000000
3773.847469,-9622.677246,-444.123565,0.000000
3773.847799,-9326.594869,0.000000,229.828649
3773.848128,-8956.491898,1036.288319,-459.657299
3773.848458,-8364.327145,0.000000,-919.314598
3773.848788,-8068.244768,296.082377,-1302.362347
3773.849117,-9252.574275,1036.288319,-229.828649
3773.849447,-10140.821405,518.144159,0.000000
3773.849777,-10436.903782,592.164754,995.924147
3773.850106,-10510.924376,1332.370696,383.047749
3773.850436,-10066.800811,74.020594,0.000000
3773.850766,-9844.739029,666.185348,383.047749
3773.851095,-10362.883188,1406.391290,1072.533697
3773.851425,-10214.842000,666.185348,1149.143247
3773.851755,-10510.924376,740.205942,1838.629195
3773.852084,-10436.903782,1406.391290,1608.800546
3773.852414,-11473.192101,1332.370696,919.314598
3773.852744,-11251.130318,740.205942,-612.876398
3773.853073,-10732.986159,444.123565,-842.705048
3773.853403,-9548.656652,-888.247130,536.266849
3773.853733,-9474.636058,0.000000,2451.505594
3773.854062,-9474.636058,148.041188,2528.115143
3773.854392,-9696.697840,-222.061783,1455.581446
3773.854722,-9474.636058,666.185348,919.314598
3773.855051,-9918.759623,370.102971,0.000000
3773.855381,-10362.883188,-74.020594,995.924147
3773.855711,-10066.800811,370.102971,2068.457845
3773.856040,-9252.574275,-148.041188,1685.410096
3773.856370,-8216.285956,-518.144159,-306.438199
3773.856700,-8660.409521,0.000000,-1838.629195
3773.857029,-8808.450710,-592.164754,-1915.238745
3773.857359,-9252.574275,-592.164754,-766.095498
3773.857689,-9992.780217,0.000000,0.000000
3773.858018,-9326.594869,-296.082377,459.657299
3773.858348,-7846.182985,-888.247130,-229.828649
3773.858678,-7994.224174,0.000000,-1608.800546
3773.859007,-9474.636058,-148.041188,-766.095498
3773.859337,-10436.903782,0.000000,842.705048
3773.859667,-10584.944971,518.144159,1072.533697
3773.859996,-10362.883188,0.000000,689.485948
3773.860326,-10140.821405,74.020594,459.657299
3773.860656,-10732.986159,444.123565,-1072.533697
3773.860985,-10436.903782,0.000000,-1915.238745
3773.861315,-9696.697840,0.000000,-919.314598
3773.861645,-9918.759623,518.144159,383.047749
3773.861974,-10510.924376,148.041188,229.828649
3773.862304,-10881.027347,0.000000,-995.924147
3773.862634,-11029.068536,222.061783,-1225.752797
3773.862963,-10807.006753,-666.185348,-459.657299
3773.863293,-10658.965565,-740.205942,536.266849
3773.863623,-9548.656652,-444.123565,1838.629195
3773.863952,-9104.533087,-1332.370696,1915.238745
3773.864282,-8808.450710,-740.205942,1302.362347
3773.864612,-9844.739029,0.000000,689.485948
3773.864941,-10584.944971,-592.164754,229.828649
3773.865271,-10510.924376,-518.144159,919.314598
3773.865601,-9474.636058,-148.041188,536.266849
3773.865930,-8586.388927,-592.164754,0.000000
3773.866260,-8808.450710,-148.041188,-1378.971896
3773.866590,-8660.409521,0.000000,-2604.724693
3773.866919,-8364.327145,-1184.329507,-2451.505594
3773.867249,-9030.512492,518.144159,-153.219100
3773.867579,-9326.594869,-222.061783,919.314598
3773.867908,-9770.718434,-592.164754,1608.800546
3773.868238,-9104.533087,-370.102971,842.705048
3773.868568,-9992.780217,-592.164754,459.657299
3773.868897,-10510.924376,-666.185348,-306.438199
3773.869227,-9992.780217,-296.082377,1532.190996
3773.869557,-9326.594869,0.000000,2528.115143
3773.869886,-8734.430116,74.020594,1838.629195
3773.870216,-9696.697840,1110.308913,612.876398
3773.870546,-10510.924376,888.247130,0.000000
3773.870875,-11029.068536,888.247130,0.000000
3773.871205,-11917.315666,1110.308913,1455.581446
3773.871535,-11251.130318,814.226536,1685.410096
3773.871864,-10066.800811,814.226536,842.705048
3773.872194,-9548.656652,814.226536,-306.438199
3773.872524,-9844.739029,592.164754,-612.876398
3773.872853,-10436.903782,518.144159,459.657299
3773.873183,-9918.759623,1036.288319,919.314598
3773.873513,-10066.800811,666.185348,1149.143247
3773.873842,-10140.821405,888.247130,1608.800546
3773.874172,-9844.739029,1184.329507,1378.971896
3773.874502,-10214.842000,0.000000,-383.047749
3773.874831,-8882.471304,-518.144159,-76.609550
3773.875161,-8660.409521,444.123565,1149.143247
3773.875491,-9252.574275,222.061783,1072.533697
3773.875820,-9326.594869,296.082377,229.828649
3773.876150,-9474.636058,888.247130,-1302.362347
3773.876480,-9770.718434,296.082377,-1991.848295
3773.876809,-9178.553681,222.061783,-1225.752797
3773.877139,-8734.430116,518.144159,-689.485948
3773.877469,-8290.306550,370.102971,0.000000
3773.877798,-8734.430116,444.123565,0.000000
3773.878128,-9326.594869,666.185348,-842.705048
3773.878458,-9918.759623,0.000000,-1838.629195
3773.878787,-9770.718434,0.000000,153.219100
3773.879117,-10436.903782,814.226536,1302.362347
3773.879447,-10362.883188,74.020594,1302.362347
3773.879776,-9844.739029,666.185348,459.657299
3773.880106,-10510.924376,888.247130,-995.924147
3773.880436,-11325.150913,0.000000,-2145.067394
3773.880765,-10214.842000,296.082377,-689.485948
3773.881095,-10362.883188,592.164754,919.314598
3773.881425,-10584.944971,0.000000,842.705048
3773.881754,-9696.697840,-888.247130,689.485948
3773.882084,-9918.759623,-444.123565,-536.266849
3773.882414,-9474.636058,-592.164754,-306.438199
3773.882743,-9770.718434,-444.123565,1225.752797
3773.883073,-10066.800811,0.000000,2911.162892
3773.883403,-10288.862594,-518.144159,2911.162892
3773.883732,-10288.862594,-296.082377,1685.410096
3773.884062,-10807.006753,-740.205942,306.438199
3773.884392,-9992.780217,-1480.411884,-612.876398
3773.884721,-8660.409521,-1406.391290,459.657299
3773.885051,-7698.141797,-444.123565,919.314598
3773.885381,-8438.347739,-962.267725,459.657299
3773.885710,-8660.409521,0.000000,-995.924147
3773.886040,-9030.512492,-444.123565,-2528.115143
3773.886370,-8882.471304,-444.123565,-2604.724693
3773.886699,-9622.677246,-666.185348,-766.095498
3773.887029,-9918.759623,-444.123565,766.095498
3773.887359,-9770.718434,-148.041188,1532.190996
3773.887688,-9622.677246,-444.123565,-229.828649
3773.888018,-9844.739029,-666.185348,-766.095498
3773.888348,-9400.615463,-888.247130,-153.219100
3773.888677,-9326.594869,0.000000,2145.067394
3773.889007,-9844.739029,370.102971,2451.505594
3773.889337,-9548.656652,0.000000,1072.533697
3773.889666,-10807.006753,0.000000,0.000000
3773.889996,-11029.068536,0.000000,-766.095498
3773.890326,-10955.047942,-740.205942,229.828649
3773.890655,-11177.109724,74.020594,1532.190996
3773.890985,-9770.718434,-222.061783,1991.848295
3773.891315,-9474.636058,296.082377,1608.800546
3773.891644,-9992.780217,1184.329507,229.828649
3773.891974,-11029.068536,370.102971,-1072.533697
3773.892304,-11029.068536,74.020594,612.876398
3773.892633,-11547.212695,370.102971,2451.505594
3773.892963,-10881.027347,518.144159,3677.258390
3773.893293,-9030.512492,0.000000,2451.505594
3773.893622,-8586.388927,222.061783,-689.485948
3773.893952,-9178.553681,0.000000,-1608.800546
3773.894282,-9474.636058,0.000000,-459.657299
3773.894611,-10807.006753,1110.308913,842.705048
3773.894941,-9844.739029,518.144159,1532.190996
3773.895271,-9178.553681,222.061783,689.485948
3773.895600,-9104.533087,592.164754,-842.705048
3773.895930,-8956.491898,-222.061783,-1762.019645
3773.896260,-8734.430116,-148.041188,-1532.190996
3773.896589,-8882.471304,370.102971,76.609550
3773.896919,-8586.388927,0.000000,1532.190996
3773.897249,-8734.430116,814.226536,536.266849
3773.897578,-9474.636058,1406.391290,-1378.971896
3773.897908,-9622.677246,0.000000,-1915.238745
3773.898238,-9548.656652,148.041188,-1378.971896
3773.898567,-10214.842000,666.185348,-536.266849
3773.898897,-9696.697840,-666.185348,995.924147
3773.899227,-9400.615463,1036.288319,2068.457845
3773.899556,-10436.903782,1332.370696,842.705048
3773.899886,-10732.986159,666.185348,-995.924147
3773.900216,-10658.965565,518.144159,-1455.581446
3773.900545,-10807.006753,1110.308913,0.000000
3773.900875,-10362.883188,370.102971,1838.629195
3773.901205,-10584.944971,888.247130,1838.629195
3773.901535,-10510.924376,222.061783,766.095498
3773.901864,-10140.821405,0.000000,-689.485948
3773.902194,-10732.986159,666.185348,-842.705048
3773.902524,-10510.924376,0.000000,-76.609550
3773.902853,-9178.553681,-888.247130,842.705048
3773.903183,-9178.553681,296.082377,1072.533697
3773.903513,-9252.574275,148.041188,612.876398
3773.903842,-9992.780217,-888.247130,536.266849
3773.904172,-10732.986159,0.000000,-76.609550
3773.904502,-9548.656652,-962.267725,-306.438199
3773.904831,-9104.533087,-444.123565,689.485948
3773.905161,-9474.636058,296.082377,842.705048
3773.905491,-8734.430116,-666.185348,0.000000
3773.905820,-8734.430116,-1036.288319,-766.095498
3773.906150,-9400.615463,-370.102971,-1149.143247
3773.906480,-9548.656652,-1332.370696,-306.438199
3773.906809,-8734.430116,-814.226536,459.657299
3773.907139,-8290.306550,222.061783,766.095498
3773.907469,-8734.430116,-888.247130,-153.219100
3773.907798,-9252.574275,-222.061783,-689.485948
3773.908128,-9696.697840,444.123565,-766.095498
3773.908458,-10955.047942,0.000000,-536.266849
3773.908787,-11251.130318,444.123565,612.876398
3773.909117,-10584.944971,444.123565,1762.019645
3773.909447,-10140.821405,-740.205942,1072.533697
3773.909776,-9918.759623,-222.061783,842.705048
3773.910106,-10881.027347,444.123565,1149.143247
3773.910436,-11029.068536,74.020594,1302.362347
3773.910765,-9918.759623,518.144159,842.705048
3773.911095,-10214.842000,1110.308913,153.219100
3773.911425,-11325.150913,74.020594,76.609550
3773.911754,-11473.192101,518.144159,689.485948
3773.912084,-10807.006753,0.000000,383.047749
3773.912414,-9030.512492,-962.267725,-76.609550
3773.912743,-8438.347739,-740.205942,1378.971896
3773.913073,-9400.615463,0.000000,995.924147
3773.913403,-9770.718434,-888.247130,229.828649
3773.913732,-9474.636058,0.000000,536.266849
3773.914062,-9548.656652,296.082377,689.485948
3773.914392,-9696.697840,-148.041188,1455.581446
3773.914721,-9548.656652,74.020594,1378.971896
3773.915051,-9252.574275,0.000000,229.828649
3773.915381,-8956.491898,-518.144159,-1532.190996
3773.915710,-8956.491898,222.061783,-1302.362347
3773.916040,-9178.553681,222.061783,-1072.533697
3773.916370,-8290.306550,-370.102971,0.000000
3773.916699,-8290.306550,444.123565,612.876398
3773.917029,-8956.491898,74.020594,766.095498
3773.917359,-9326.594869,0.000000,-612.876398
3773.917688,-9400.615463,518.144159,-1685.410096
3773.918018,-9400.615463,296.082377,-459.657299
3773.918348,-9918.759623,-222.061783,842.705048
3773.918677,-10658.965565,814.226536,2068.457845
3773.919007,-10732.986159,148.041188,1838.629195
3773.919337,-9474.636058,74.020594,306.438199
3773.919666,-10658.965565,1036.288319,-1302.362347
3773.919996,-10807.006753,592.164754,-1149.143247
3773.920326,-10436.903782,518.144159,76.609550
3773.920655,-10510.924376,1036.288319,1762.019645
3773.920985,-11325.150913,740.205942,2068.457845
3773.921315,-10436.903782,0.000000,306.438199
3773.921644,-9770.718434,814.226536,-1532.190996
3773.921974,-9548.656652,-518.144159,-1455.581446
3773.922304,-9992.780217,666.185348,1455.581446
3773.922633,-10510.924376,962.267725,2221.676944
3773.922963,-10140.821405,592.164754,229.828649
3773.923293,-9474.636058,222.061783,-383.047749
3773.923622,-10362.883188,148.041188,-842.705048
3773.923952,-9844.739029,-592.164754,-229.828649
3773.924282,-9548.656652,-370.102971,383.047749
3773.924611,-8956.491898,0.000000,153.219100
3773.924941,-8734.430116,-444.123565,-383.047749
3773.925271,-8068.244768,0.000000,-1225.752797
3773.925600,-8734.430116,-518.144159,-1915.238745
3773.925930,-9474.636058,-518.144159,-1685.410096
3773.926260,-8956.491898,-740.205942,229.828649
3773.926589,-9104.533087,-370.102971,1149.143247
3773.926919,-8956.491898,-1036.288319,1532.190996
3773.927249,-9622.677246,-370.102971,689.485948
3773.927578,-10881.027347,-296.082377,995.924147
3773.927908,-10140.821405,-962.267725,459.657299
3773.928238,-9030.512492,-222.061783,612.876398
3773.928567,-8512.368333,148.041188,766.095498
3773.928897,-10510.924376,0.000000,689.485948
3773.929227,-10658.965565,222.061783,459.657299
3773.929556,-10584.944971,296.082377,-383.047749
3773.929886,-10807.006753,0.000000,-1149.143247
3773.930216,-10658.965565,740.205942,-153.219100
3773.930545,-9992.780217,296.082377,153.219100
3773.930875,-8512.368333,-296.082377,76.609550
3773.931205,-9252.574275,296.082377,383.047749
3773.931534,-11029.068536,444.123565,1532.190996
3773.931864,-11399.171507,-444.123565,1072.533697
3773.932194,-9178.553681,0.000000,1225.752797
3773.932523,-8734.430116,370.102971,1455.581446
3773.932853,-9770.718434,74.020594,1532.190996
3773.933183,-11029.068536,370.102971,1838.629195
3773.933512,-9104.533087,0.000000,612.876398
3773.933842,-7994.224174,-666.185348,-536.266849
3773.934172,-9326.594869,370.102971,-76.609550
3773.934501,-11251.130318,0.000000,689.485948
3773.934831,-9252.574275,-296.082377,0.000000
3773.935161,-7402.059420,0.000000,-995.924147
3773.935490,-8660.409521,592.164754,-919.314598
3773.935820,-9252.574275,-296.082377,0.000000
3773.936150,-9252.574275,888.247130,612.876398
3773.936480,-9622.677246,444.123565,995.924147
3773.936809,-9844.739029,518.144159,612.876398
3773.937139,-10658.965565,1036.288319,383.047749
3773.937469,-10362.883188,0.000000,229.828649
3773.937798,-9252.574275,-222.061783,383.047749
3773.938128,-9474.636058,1554.432478,1455.581446
3773.938458,-10732.986159,1184.329507,1532.190996
3773.938787,-10881.027347,1110.308913,-459.657299
3773.939117,-9770.718434,1406.391290,-1302.362347
3773.939447,-11103.089130,666.185348,-842.705048
3773.939776,-11103.089130,296.082377,-76.609550
3773.940106,-10510.924376,666.185348,459.657299
3773.940436,-9474.636058,0.000000,383.047749
3773.940765,-9030.512492,-518.144159,1072.533697
3773.941095,-10362.883188,518.144159,842.705048
3773.941425,-10288.862594,-518.144159,995.924147
3773.941754,-10066.800811,148.041188,1608.800546
3773.942084,-9622.677246,518.144159,1991.848295
3773.942414,-9992.780217,-666.185348,1532.190996
3773.942743,-9992.780217,-888.247130,612.876398
3773.943073,-9252.574275,0.000000,-1072.533697
3773.943403,-8290.306550,-1258.350101,-1685.410096
3773.943732,-8364.327145,-370.102971,-995.924147
3773.944062,-9178.553681,74.020594,-536.266849
3773.944392,-9178.553681,-814.226536,-842.705048
3773.944721,-9252.574275,0.000000,-1149.143247
3773.945051,-9918.759623,-222.061783,-1455.581446
3773.945381,-9474.636058,-814.226536,-919.314598
3773.945710,-8364.327145,-518.144159,-459.657299
3773.946040,-8882.471304,-370.102971,459.657299
3773.946370,-9400.615463,-518.144159,1378.971896
3773.946700,-10140.821405,0.000000,459.657299
3773.947029,-9770.718434,-296.082377,-842.705048
3773.947359,-9696.697840,-592.164754,-919.314598
3773.947689,-10362.883188,0.000000,0.000000
3773.948018,-10140.821405,0.000000,383.047749
3773.948348,-9326.594869,-962.267725,153.219100
3773.948678,-9918.759623,518.144159,536.266849
3773.949007,-11029.068536,222.061783,306.438199
3773.949337,-11399.171507,-222.061783,-612.876398
3773.949667,-11103.089130,296.082377,-229.828649
3773.949996,-11399.171507,296.082377,1455.581446
3773.950326,-10584.944971,-370.102971,2221.676944
3773.950656,-9918.759623,370.102971,1991.848295
3773.950985,-9622.677246,-222.061783,76.609550
3773.951315,-9252.574275,-296.082377,-153.219100
3773.951645,-10140.821405,370.102971,766.095498
3773.951974,-10881.027347,74.020594,995.924147
3773.952304,-10584.944971,148.041188,1915.238745
3773.952634,-9844.739029,296.082377,1532.190996
3773.952963,-9474.636058,-370.102971,76.609550
3773.953293,-8512.368333,-666.185348,-383.047749
3773.953623,-9548.656652,370.102971,-459.657299
3773.953952,-10214.842000,0.000000,153.219100
3773.954282,-9178.553681,0.000000,919.314598
3773.954612,-8068.244768,592.164754,229.828649
3773.954941,-9030.512492,148.041188,0.000000
3773.955271,-10288.862594,444.123565,-689.485948
3773.955601,-10362.883188,518.144159,-842.705048
3773.955930,-9770.718434,-222.061783,-919.314598
3773.956260,-9104.533087,0.000000,689.485948
3773.956590,-9918.759623,1036.288319,2374.896044
3773.956919,-10140.821405,0.000000,1762.019645
3773.957249,-9252.574275,-148.041188,-306.438199
3773.957579,-8512.368333,148.041188,-536.266849
3773.957909,-9104.533087,-370.102971,-919.314598
3773.958238,-9770.718434,370.102971,1378.971896
3773.958568,-9992.780217,740.205942,2451.505594
3773.958898,-10066.800811,222.061783,1838.629195
3773.959227,-10214.842000,518.144159,306.438199
3773.959557,-9918.759623,740.205942,-1532.190996
3773.959887,-9400.615463,-518.144159,-1302.362347
3773.960216,-9178.553681,740.205942,1455.581446
3773.960546,-10214.842000,592.164754,2528.115143
3773.960876,-10807.006753,444.123565,1838.629195
3773.961205,-9844.739029,814.226536,612.876398
3773.961535,-9326.594869,740.205942,-536.266849
3773.961865,-9326.594869,-148.041188,-1455.581446
3773.962194,-9474.636058,962.267725,383.047749
3773.962524,-9844.739029,1332.370696,2528.115143
3773.962854,-8808.450710,740.205942,2911.162892
3773.963183,-9844.739029,1998.556043,1225.752797
3773.963513,-12139.377449,1702.473667,-229.828649
3773.963843,-11843.295072,740.205942,-1149.143247
3773.964172,-9104.533087,962.267725,0.000000
3773.964502,-8290.306550,518.144159,919.314598
3773.964832,-8734.430116,444.123565,1378.971896
3773.965161,-8512.368333,1258.350101,1225.752797
3773.965491,-8882.471304,814.226536,306.438199
3773.965821,-9326.594869,222.061783,919.314598
3773.966150,-10362.883188,1332.370696,2987.772442
3773.966480,-10436.903782,1332.370696,3753.867940
3773.966810,-10140.821405,1924.535449,2681.334243
3773.967139,-9548.656652,1924.535449,1762.019645
3773.967469,-11325.150913,1184.329507,1608.800546
3773.967799,-11843.295072,1110.308913,1225.752797
3773.968129,-10584.944971,1628.453072,2681.334243
3773.968458,-9030.512492,1406.391290,3600.648841
3773.968788,-8438.347739,2442.679609,4060.306139
3773.969118,-8438.347739,2442.679609,3064.381992
3773.969447,-9844.739029,2146.597232,1838.629195
3773.969777,-10955.047942,2368.659014,1838.629195
3773.970107,-10732.986159,2812.782580,3447.429741
3773.970436,-10584.944971,2220.617826,4366.744339
3773.970766,-10140.821405,2220.617826,4290.134789
3773.971096,-9622.677246,1924.535449,3524.039291
3773.971425,-9918.759623,1480.411884,3447.429741
3773.971755,-9918.759623,1406.391290,2451.505594
3773.972085,-10584.944971,1850.514855,2757.943793
3773.972414,-8808.450710,1924.535449,2834.553343
3773.972744,-7994.224174,1998.556043,2374.896044
3773.973074,-8438.347739,3478.967927,1225.752797
3773.973403,-8142.265362,2368.659014,-689.485948
3773.973733,-8438.347739,3034.844362,-612.876398
3773.974063,-8734.430116,2738.761985,1991.848295
3773.974392,-10510.924376,3923.091493,3524.039291
3773.974722,-10584.944971,3330.926739,3600.648841
3773.975052,-11029.068536,2516.700203,2834.553343
3773.975381,-10214.842000,3256.906145,1532.190996
3773.975711,-10140.821405,3182.885551,1225.752797
3773.976041,-10584.944971,3997.112087,766.095498
3773.976370,-10214.842000,3849.070898,1991.848295
3773.976700,-9844.739029,4293.194464,3294.210641
3773.977030,-9474.636058,4145.153275,2145.067394
3773.977359,-9622.677246,3775.050304,1838.629195
3773.977689,-9474.636058,3330.926739,2068.457845
3773.978019,-9548.656652,3034.844362,3064.381992
3773.978348,-10066.800811,2590.720797,3983.696590
3773.978678,-9770.718434,2960.823768,3600.648841
3773.979008,-11029.068536,2516.700203,2834.553343
3773.979338,-11769.274478,2664.741391,3064.381992
3773.979667,-11695.253884,2590.720797,1915.238745
3773.979997,-9548.656652,2368.659014,2451.505594
3773.980327,-8734.430116,1998.556043,2757.943793
3773.980656,-8290.306550,2294.638420,3753.867940
3773.980986,-9474.636058,2294.638420,4136.915689
3773.981316,-9844.739029,2368.659014,1762.019645
3773.981645,-8734.430116,888.247130,383.047749
3773.981975,-9474.636058,962.267725,459.657299
3773.982305,-9770.718434,1554.432478,919.314598
3773.982634,-10881.027347,1036.288319,1378.971896
3773.982964,-8586.388927,740.205942,1149.143247
3773.983294,-8142.265362,962.267725,1608.800546
3773.983623,-8438.347739,2220.617826,2604.724693
3773.983953,-10066.800811,1554.432478,2221.676944
3773.984283,-10807.006753,2146.597232,842.705048
3773.984612,-9400.615463,1184.329507,612.876398
3773.984942,-9178.553681,1332.370696,1532.190996
3773.985272,-9326.594869,888.247130,2221.676944
3773.985601,-10584.944971,518.144159,1532.190996
3773.985931,-10658.965565,1628.453072,383.047749
3773.986261,-9548.656652,814.226536,153.219100
3773.986590,-9474.636058,1924.535449,-153.219100
3773.986920,-8808.450710,2442.679609,1455.581446
3773.987250,-9992.780217,2294.638420,3217.601092
3773.987579,-10807.006753,2590.720797,4443.353888
3773.987909,-10436.903782,1628.453072,3524.039291
3773.988239,-10140.821405,1036.288319,3677.258390
3773.988568,-10955.047942,1258.350101,3370.820191
3773.988898,-11325.150913,1332.370696,4673.182538
3773.989228,-11325.150913,1998.556043,5056.230287
3773.989557,-10288.862594,2664.741391,2834.553343
3773.989887,-9104.533087,2294.638420,3370.820191
3773.990217,-10881.027347,2664.741391,1838.629195
3773.990547,-10362.883188,3034.844362,1991.848295
3773.990876,-9474.636058,1850.514855,3600.648841
3773.991206,-9696.697840,2960.823768,3524.039291
3773.991536,-9474.636058,1924.535449,3677.258390
3773.991865,-9400.615463,740.205942,2987.772442
3773.992195,-9104.533087,962.267725,1915.238745
3773.992525,-9326.594869,74.020594,2298.286494
3773.992854,-8586.388927,666.185348,4443.353888
3773.993184,-9104.533087,2072.576638,5898.935335
3773.993514,-9104.533087,2368.659014,4903.011187
3773.993843,-9030.512492,2590.720797,2068.457845
3773.994173,-9622.677246,2886.803174,0.000000
3773.994503,-9548.656652,2294.638420,995.924147
3773.994832,-9696.697840,2886.803174,3140.991542
3773.995162,-8956.491898,1702.473667,3217.601092
3773.995492,-7476.080014,2368.659014,3524.039291
3773.995821,-8808.450710,3108.864956,2068.457845
3773.996151,-9992.780217,2960.823768,-306.438199
3773.996481,-10807.006753,3404.947333,-2068.457845
3773.996810,-10807.006753,3256.906145,-1302.362347
3773.997140,-9104.533087,2960.823768,689.485948
3773.997470,-8660.409521,3330.926739,2757.943793
3773.997799,-9252.574275,2812.782580,2911.162892
3773.998129,-9252.574275,1998.556043,2834.553343
3773.998459,-8290.306550,2368.659014,2068.457845
3773.998788,-9548.656652,3404.947333,1991.848295
3773.999118,-11103.089130,3478.967927,2451.505594
3773.999448,-12361.439231,4663.297435,3217.601092
3773.999777,-12213.398043,4145.153275,2068.457845
3774.000107,-11695.253884,4145.153275,689.485948
3774.000437,-11399.171507,3108.864956,-612.876398
3774.000767,-11325.150913,2368.659014,76.609550
3774.001096,-8956.491898,2442.679609,1225.752797
3774.001426,-7846.182985,2220.617826,2145.067394
3774.001756,-7105.977043,2220.617826,2911.162892
3774.002085,-8068.244768,2072.576638,4060.306139
3774.002415,-9844.739029,2738.761985,4673.182538
3774.002745,-10881.027347,2960.823768,4443.353888
3774.003074,-12139.377449,2886.803174,2528.115143
3774.003404,-12805.562797,2294.638420,1608.800546
3774.003734,-12361.439231,1924.535449,1685.410096
3774.004063,-10140.821405,444.123565,1532.190996
3774.004393,-7698.141797,74.020594,1225.752797
3774.004723,-6069.688724,0.000000,2221.676944
3774.005052,-6365.771101,148.041188,1915.238745
3774.005382,-6069.688724,814.226536,3064.381992
3774.005712,-6291.750507,1406.391290,2374.896044
3774.006041,-9252.574275,2368.659014,2987.772442
3774.006371,-11325.150913,2590.720797,3370.820191
3774.006701,-12583.501014,2516.700203,4213.525239
3774.007030,-11769.274478,1924.535449,3677.258390
3774.007360,-11843.295072,1998.556043,2451.505594
3774.007690,-11917.315666,814.226536,2298.286494
3774.008019,-10881.027347,1110.308913,1991.848295
3774.008349,-9178.553681,1480.411884,3064.381992
3774.008679,-7846.182985,1110.308913,3677.258390
3774.009008,-7476.080014,1776.494261,2681.334243
3774.009338,-8734.430116,1850.514855,1838.629195
3774.009668,-8660.409521,1480.411884,229.828649
3774.009997,-9844.739029,1702.473667,536.266849
3774.010327,-10807.006753,1554.432478,2221.676944
3774.010657,-11029.068536,1332.370696,3600.648841
3774.010986,-11177.109724,2072.576638,4673.182538
3774.011316,-10584.944971,1702.473667,3064.381992
3774.011646,-10955.047942,2072.576638,1915.238745
3774.011976,-10584.944971,2294.638420,2451.505594
3774.012305,-10288.862594,1480.411884,2374.896044
3774.012635,-9992.780217,1998.556043,2681.334243
3774.012965,-9622.677246,1480.411884,2987.772442
3774.013294,-9326.594869,1628.453072,1532.190996
3774.013624,-8956.491898,962.267725,-612.876398
3774.013954,-8808.450710,814.226536,-1991.848295
3774.014283,-9474.636058,814.226536,-842.705048
3774.014613,-9918.759623,962.267725,1455.581446
3774.014943,-10214.842000,888.247130,2911.162892
3774.015272,-9844.739029,592.164754,2911.162892
3774.015602,-9474.636058,74.020594,1915.238745
3774.015932,-9474.636058,0.000000,1532.190996
3774.016261,-9474.636058,222.061783,1532.190996
3774.016591,-9104.533087,0.000000,2068.457845
3774.016921,-8882.471304,814.226536,1991.848295
3774.017250,-8808.450710,740.205942,1532.190996
3774.017580,-9696.697840,1184.329507,612.876398
3774.017910,-9844.739029,1406.391290,-229.828649
3774.018239,-10214.842000,1554.432478,-536.266849
3774.018569,-10066.800811,1184.329507,383.047749
3774.018899,-9992.780217,1110.308913,1532.190996
3774.019228,-9400.615463,592.164754,2068.457845
3774.019558,-9400.615463,0.000000,1608.800546
3774.019888,-9474.636058,222.061783,1608.800546
3774.020217,-9030.512492,0.000000,1608.800546
3774.020547,-8586.388927,666.185348,2221.676944
3774.020877,-8882.471304,962.267725,3447.429741
3774.021206,-9400.615463,2072.576638,3983.696590
3774.021536,-10214.842000,2442.679609,3907.087040
3774.021866,-11177.109724,2886.803174,2528.115143
3774.022196,-11991.336260,2886.803174,1762.019645
3774.022525,-11843.295072,2590.720797,1455.581446
3774.022855,-11399.171507,2368.659014,1608.800546
3774.023185,-10066.800811,1776.494261,1915.238745
3774.023514,-8882.471304,1480.411884,2374.896044
3774.023844,-7920.203579,1924.535449,2681.334243
3774.024174,-7624.121203,2072.576638,3753.867940
3774.024503,-7772.162391,2590.720797,4519.963438
3774.024833,-9474.636058,3701.029710,4749.792088
3774.025163,-10658.965565,4145.153275,4213.525239
3774.025492,-12213.398043,4737.318029,4136.915689
3774.025822,-12435.459826,4071.132681,3600.648841
3774.026152,-11769.274478,3256.906145,3677.258390
3774.026481,-11103.089130,3034.844362,3217.601092
3774.026811,-9474.636058,2664.741391,2987.772442
3774.027141,-7920.203579,2442.679609,2911.162892
3774.027470,-7550.100608,3108.864956,2604.724693
3774.027800,-7624.121203,3701.029710,3140.991542
3774.028130,-7772.162391,4219.173869,4136.915689
3774.028460,-9030.512492,4367.215058,4596.572988
3774.028789,-9770.718434,4663.297435,4596.572988
3774.029119,-10584.944971,4737.318029,4826.401637
3774.029449,-11399.171507,5329.482782,3907.087040
3774.029778,-12065.356855,4737.318029,3217.601092
3774.030108,-11769.274478,4663.297435,2604.724693
3774.030438,-10807.006753,4219.173869,2298.286494
3774.030768,-9400.615463,3997.112087,3677.258390
3774.031097,-8660.409521,3701.029710,3677.258390
3774.031427,-8364.327145,3849.070898,2528.115143
3774.031757,-7994.224174,4145.153275,1762.019645
3774.032086,-7550.100608,3849.070898,2068.457845
3774.032416,-7994.224174,4293.194464,2604.724693
3774.032746,-9696.697840,4589.276840,3217.601092
3774.033076,-10732.986159,4737.318029,2604.724693
3774.033405,-11547.212695,4441.235652,1838.629195
3774.033735,-11621.233289,4145.153275,459.657299
3774.034065,-11843.295072,3552.988522,919.314598
3774.034394,-11399.171507,3034.844362,2298.286494
3774.034724,-10288.862594,2886.803174,2681.334243
3774.035054,-8142.265362,2442.679609,2221.676944
3774.035384,-7031.956449,2516.700203,919.314598
3774.035713,-7105.977043,2590.720797,153.219100
3774.036043,-8882.471304,2664.741391,842.705048
3774.036373,-9548.656652,3256.906145,1149.143247
3774.036702,-9696.697840,3552.988522,1225.752797
3774.037032,-10066.800811,3404.947333,1378.971896
3774.037362,-11547.212695,2886.803174,383.047749
3774.037692,-11621.233289,2664.741391,306.438199
3774.038021,-10214.842000,1332.370696,842.705048
3774.038351,-9474.636058,1332.370696,1225.752797
3774.038681,-9178.553681,740.205942,2757.943793
3774.039010,-9548.656652,1258.350101,4290.134789
3774.039340,-7994.224174,1036.288319,3524.039291
3774.039670,-8216.285956,1850.514855,1072.533697
3774.040000,-8586.388927,1776.494261,229.828649
3774.040329,-9326.594869,1776.494261,842.705048
3774.040659,-11177.109724,2516.700203,2528.115143
3774.040989,-11399.171507,1998.556043,2451.505594
3774.041318,-11251.130318,1184.329507,1991.848295
3774.041648,-10955.047942,148.041188,1302.362347
3774.041978,-11251.130318,0.000000,1991.848295
3774.042308,-10066.800811,-740.205942,3217.601092
3774.042637,-9400.615463,-444.123565,2987.772442
3774.042967,-7772.162391,-1184.329507,2528.115143
3774.043297,-7624.121203,-1036.288319,2068.457845
3774.043626,-7994.224174,-296.082377,2221.676944
3774.043956,-10066.800811,-296.082377,2145.067394
3774.044286,-10658.965565,0.000000,1225.752797
3774.044616,-10362.883188,-518.144159,1302.362347
3774.044945,-9992.780217,-1406.391290,2298.286494
3774.045275,-10510.924376,-1258.350101,3983.696590
3774.045605,-10140.821405,-1258.350101,3753.867940
3774.045934,-9104.533087,-1184.329507,2834.553343
3774.046264,-8216.285956,-444.123565,2528.115143
3774.046594,-8290.306550,148.041188,3753.867940
3774.046924,-9992.780217,740.205942,4519.963438
3774.047253,-10955.047942,1776.494261,3064.381992
3774.047583,-10066.800811,1110.308913,2298.286494
3774.047913,-9622.677246,1776.494261,1072.533697
3774.048242,-9992.780217,1628.453072,1225.752797
3774.048572,-10807.006753,1776.494261,2451.505594
3774.048902,-9918.759623,1776.494261,3140.991542
3774.049232,-9178.553681,1702.473667,2681.334243
3774.049561,-8882.471304,1628.453072,2757.943793
3774.049891,-10658.965565,2368.659014,2681.334243
3774.050221,-10362.883188,2294.638420,3524.039291
3774.050550,-9326.594869,1998.556043,4213.525239
3774.050880,-8808.450710,2738.761985,4519.963438
3774.051210,-8734.430116,2664.741391,4826.401637
3774.051540,-9844.739029,3256.906145,4826.401637
3774.051869,-10214.842000,3849.070898,3370.820191
3774.052199,-10066.800811,3923.091493,2528.115143
3774.052529,-10807.006753,4589.276840,2221.676944
3774.052858,-11177.109724,4663.297435,1915.238745
3774.053188,-11325.150913,4293.194464,2834.553343
3774.053518,-10362.883188,4663.297435,2528.115143
3774.053848,-8808.450710,4219.173869,2068.457845
3774.054177,-8586.388927,4293.194464,2987.772442
3774.054507,-9252.574275,4885.359217,2681.334243
3774.054837,-9696.697840,5255.462188,2834.553343
3774.055166,-9400.615463,4885.359217,2068.457845
3774.055496,-10732.986159,4589.276840,2145.067394
3774.055826,-11917.315666,4441.235652,2604.724693
3774.056156,-11917.315666,3478.967927,3064.381992
3774.056485,-10732.986159,3552.988522,2451.505594
3774.056815,-9696.697840,2590.720797,1072.533697
3774.057145,-8142.265362,2516.700203,-919.314598
3774.057474,-7550.100608,2294.638420,-2451.505594
3774.057804,-7476.080014,3182.885551,-1149.143247
3774.058134,-8290.306550,3034.844362,229.828649
3774.058464,-9030.512492,2368.659014,1532.190996
3774.058793,-8068.244768,3108.864956,1378.971896
3774.059123,-8364.327145,1924.535449,1378.971896
3774.059453,-9400.615463,2220.617826,153.219100
3774.059782,-9548.656652,1850.514855,-306.438199
3774.060112,-10066.800811,1850.514855,-229.828649
3774.060442,-9178.553681,1628.453072,689.485948
3774.060772,-9474.636058,2146.597232,2451.505594
3774.061101,-11547.212695,3108.864956,1685.410096
3774.061431,-12139.377449,2886.803174,-459.657299
3774.061761,-10807.006753,2738.761985,-2834.553343
3774.062090,-8956.491898,2368.659014,-2681.334243
3774.062420,-8956.491898,2664.741391,-766.095498
3774.062750,-9400.615463,1850.514855,1225.752797
3774.063080,-10214.842000,2220.617826,1762.019645
3774.063409,-9622.677246,1406.391290,1378.971896
3774.063739,-10140.821405,814.226536,842.705048
3774.064069,-11917.315666,814.226536,689.485948
3774.064398,-12731.542202,296.082377,1991.848295
3774.064728,-11991.336260,148.041188,3217.601092
3774.065058,-11325.150913,-592.164754,2604.724693
3774.065388,-10066.800811,-1184.329507,842.705048
3774.065717,-8734.430116,-2294.638420,0.000000
3774.066047,-8068.244768,-2072.576638,0.000000
3774.066377,-8956.491898,-1776.494261,1149.143247
3774.066706,-9696.697840,-1628.453072,2221.676944
3774.067036,-9178.553681,-1998.556043,995.924147
3774.067366,-9474.636058,-2442.679609,-612.876398
3774.067696,-11103.089130,-2590.720797,-919.314598
3774.068025,-11399.171507,-2886.803174,-919.314598
3774.068355,-9474.636058,-3627.009116,919.314598
3774.068685,-8142.265362,-3701.029710,2834.553343
3774.069015,-8808.450710,-3404.947333,4213.525239
3774.069344,-9770.718434,-3701.029710,4596.572988
3774.069674,-8364.327145,-3997.112087,2681.334243
3774.070004,-7328.038826,-3404.947333,1149.143247
3774.070333,-7179.997637,-2886.803174,1685.410096
3774.070663,-8586.388927,-2516.700203,1455.581446
3774.070993,-9252.574275,-1332.370696,1225.752797
3774.071323,-10214.842000,0.000000,536.266849
3774.071652,-12731.542202,296.082377,-842.705048
3774.071982,-13693.809927,74.020594,-2221.676944
3774.072312,-10807.006753,-1184.329507,-2451.505594
3774.072641,-8734.430116,-740.205942,-1378.971896
3774.072971,-8364.327145,-1110.308913,0.000000
3774.073301,-8438.347739,-1406.391290,995.924147
3774.073631,-8364.327145,-1110.308913,153.219100
3774.073960,-8882.471304,-148.041188,-689.485948
3774.074290,-9770.718434,592.164754,-229.828649
3774.074620,-11843.295072,888.247130,-383.047749
3774.074949,-12139.377449,1776.494261,-229.828649
3774.075279,-11991.336260,1258.350101,0.000000
3774.075609,-13027.624579,1110.308913,-1455.581446
3774.075939,-12953.603985,-370.102971,-3217.601092
3774.076268,-10436.903782,-1184.329507,-2681.334243
3774.076598,-8068.244768,-1406.391290,-1762.019645
3774.076928,-7624.121203,-1332.370696,-1072.533697
3774.077257,-7105.977043,-666.185348,-919.314598
3774.077587,-7179.997637,-222.061783,-1302.362347
3774.077917,-7254.018232,74.020594,-2451.505594
3774.078247,-8068.244768,518.144159,-1225.752797
3774.078576,-10658.965565,1702.473667,1762.019645
3774.078906,-11917.315666,1110.308913,2987.772442
3774.079236,-11029.068536,814.226536,2528.115143
3774.079565,-10214.842000,-296.082377,1378.971896
3774.079895,-9474.636058,-814.226536,76.609550
3774.080225,-8364.327145,-888.247130,766.095498
3774.080555,-8364.327145,0.000000,2374.896044
3774.080884,-8586.388927,1332.370696,2987.772442
3774.081214,-8142.265362,2146.597232,2068.457845
3774.081544,-8068.244768,2590.720797,-1072.533697
3774.081873,-8586.388927,2812.782580,-2757.943793
3774.082203,-10510.924376,3330.926739,-1608.800546
3774.082533,-11177.109724,3923.091493,0.000000
3774.082863,-11621.233289,3849.070898,612.876398
3774.083192,-11621.233289,3775.050304,-919.314598
3774.083522,-11843.295072,3034.844362,-1378.971896
3774.083852,-12435.459826,2072.576638,-1302.362347
3774.084181,-10066.800811,1332.370696,-689.485948
3774.084511,-8586.388927,1184.329507,536.266849
3774.084841,-8438.347739,1184.329507,1302.362347
3774.085171,-9326.594869,1184.329507,1149.143247
3774.085500,-9844.739029,1110.308913,-536.266849
3774.085830,-10436.903782,888.247130,-2298.286494
3774.086160,-10288.862594,592.164754,-1762.019645
3774.086489,-10732.986159,666.185348,0.000000
3774.086819,-10510.924376,0.000000,689.485948
3774.087149,-9252.574275,-814.226536,919.314598
3774.087479,-9548.656652,-1554.432478,459.657299
3774.087808,-10288.862594,-1332.370696,919.314598
3774.088138,-9474.636058,-1258.350101,1991.848295
3774.088468,-9030.512492,-1554.432478,2451.505594
3774.088797,-7550.100608,-1406.391290,3370.820191
3774.089127,-7179.997637,-592.164754,2911.162892
3774.089457,-9178.553681,-74.020594,2451.505594
