#time,accel_x,accel_y,accel_z
3838.737937,-9622.677246,0.000000,153.219100
3838.738267,-9696.697840,0.000000,153.219100
3838.738597,-9622.677246,0.000000,459.657299
3838.738927,-9622.677246,74.020594,229.828649
3838.739257,-9992.780217,74.020594,229.828649
3838.739587,-9918.759623,0.000000,459.657299
3838.739917,-9992.780217,0.000000,536.266849
3838.740247,-9844.739029,0.000000,229.828649
3838.740577,-9770.718434,0.000000,229.828649
3838.740907,-9770.718434,0.000000,76.609550
3838.741237,-9474.636058,-74.020594,459.657299
3838.741567,-9918.759623,0.000000,612.876398
3838.741897,-10140.821405,0.000000,383.047749
3838.742227,-10066.800811,0.000000,0.000000
3838.742557,-9474.636058,-148.041188,-306.438199
3838.742887,-9548.656652,0.000000,-612.876398
3838.743217,-9918.759623,0.000000,-612.876398
3838.743547,-10140.821405,-148.041188,-383.047749
3838.743877,-9622.677246,-518.144159,-536.266849
3838.744207,-9770.718434,-370.102971,0.000000
3838.744537,-9474.636058,-518.144159,0.000000
3838.744867,-9326.594869,-962.267725,-612.876398
3838.745197,-9474.636058,-740.205942,-689.485948
3838.745527,-9622.677246,-518.144159,-612.876398
3838.745856,-9844.739029,-592.164754,-306.438199
3838.746186,-10140.821405,-148.041188,306.438199
3838.746516,-10140.821405,-592.164754,306.438199
3838.746846,-10214.842000,-370.102971,-459.657299
3838.747176,-9844.739029,-296.082377,-1378.971896
3838.747506,-10066.800811,-444.123565,-2221.676944
3838.747836,-9622.677246,-592.164754,-2528.115143
3838.748166,-9326.594869,-962.267725,-1991.848295
3838.748496,-9474.636058,-1036.288319,-1072.533697
3838.748826,-9030.512492,-1036.288319,-229.828649
3838.749156,-9326.594869,-1184.329507,229.828649
3838.749486,-9696.697840,-1258.350101,0.000000
3838.749816,-9696.697840,-1036.288319,-689.485948
3838.750146,-10066.800811,-740.205942,-766.095498
3838.750476,-10140.821405,-666.185348,-919.314598
3838.750806,-10510.924376,-814.226536,-459.657299
3838.751136,-10584.944971,-296.082377,-1455.581446
3838.751466,-9992.780217,-592.164754,-2298.286494
3838.751796,-10288.862594,-1184.329507,-2834.553343
3838.752126,-9844.739029,-1776.494261,-3064.381992
3838.752456,-9770.718434,-1924.535449,-2911.162892
3838.752786,-9178.553681,-2072.576638,-2451.505594
3838.753116,-8290.306550,-1924.535449,-2451.505594
3838.753446,-8216.285956,-1702.473667,-1608.800546
3838.753776,-8808.450710,-1480.411884,-612.876398
3838.754106,-10066.800811,-1332.370696,0.000000
3838.754436,-10881.027347,-740.205942,0.000000
3838.754766,-11399.171507,-888.247130,0.000000
3838.755096,-12287.418637,-1332.370696,-536.266849
3838.755426,-12139.377449,-1776.494261,-1762.019645
3838.755755,-11251.130318,-2442.679609,-4060.306139
3838.756085,-9696.697840,-3108.864956,-5056.230287
3838.756415,-7624.121203,-3627.009116,-4749.792088
3838.756745,-7105.977043,-2960.823768,-2451.505594
3838.757075,-7920.203579,-2220.617826,-919.314598
3838.757405,-9178.553681,-1184.329507,-766.095498
3838.757735,-10510.924376,-888.247130,-2681.334243
3838.758065,-11029.068536,-1702.473667,-4519.963438
3838.758395,-11917.315666,-2738.761985,-4596.572988
3838.758725,-11695.253884,-4219.173869,-3447.429741
3838.759055,-9770.718434,-5107.421000,-1685.410096
3838.759385,-7476.080014,-5699.585753,-1225.752797
3838.759715,-6513.812290,-5403.503377,-1838.629195
3838.760045,-7550.100608,-4441.235652,-2757.943793
3838.760375,-8586.388927,-3330.926739,-2528.115143
3838.760705,-9918.759623,-1998.556043,-1608.800546
3838.761035,-11103.089130,-1184.329507,-1072.533697
3838.761365,-11251.130318,-1850.514855,-2451.505594
3838.761695,-11103.089130,-2812.782580,-4060.306139
3838.762025,-9770.718434,-4441.235652,-5515.887586
3838.762355,-9252.574275,-5329.482782,-4979.620737
3838.762685,-8956.491898,-5773.606348,-3064.381992
3838.763015,-8586.388927,-5329.482782,-1072.533697
3838.763345,-7772.162391,-4737.318029,766.095498
3838.763675,-7920.203579,-3923.091493,1378.971896
3838.764005,-10362.883188,-2442.679609,842.705048
3838.764335,-12731.542202,-1850.514855,-1072.533697
3838.764665,-12435.459826,-1998.556043,-2451.505594
3838.764995,-11103.089130,-2738.761985,-2451.505594
3838.765325,-9474.636058,-3849.070898,-2374.896044
3838.765654,-9844.739029,-4589.276840,-1915.238745
3838.765984,-9326.594869,-5699.585753,-2298.286494
3838.766314,-9104.533087,-5033.400406,-1455.581446
3838.766644,-7846.182985,-2886.803174,-1225.752797
3838.766974,-9178.553681,-2294.638420,-1455.581446
3838.767304,-11399.171507,-1406.391290,76.609550
3838.767634,-10807.006753,-1332.370696,1532.190996
3838.767964,-11399.171507,-1702.473667,0.000000
3838.768294,-11177.109724,-2220.617826,-1915.238745
3838.768624,-10436.903782,-2442.679609,-2145.067394
3838.768954,-9326.594869,-1850.514855,-1685.410096
3838.769284,-9696.697840,-1998.556043,-1225.752797
3838.769614,-10807.006753,-2368.659014,-2298.286494
3838.769944,-9918.759623,-2442.679609,-2834.553343
3838.770274,-9622.677246,-2146.597232,-2221.676944
3838.770604,-9770.718434,-1406.391290,766.095498
3838.770934,-10362.883188,-1480.411884,76.609550
3838.771264,-8808.450710,-1406.391290,-2298.286494
3838.771594,-8364.327145,-1554.432478,-4213.525239
3838.771924,-9548.656652,-1628.453072,-3140.991542
3838.772254,-10288.862594,-888.247130,-995.924147
3838.772584,-10807.006753,-518.144159,689.485948
3838.772914,-10288.862594,-370.102971,-153.219100
3838.773244,-10214.842000,-444.123565,-2911.162892
3838.773574,-10436.903782,-444.123565,-4979.620737
3838.773904,-10214.842000,-1628.453072,-4519.963438
3838.774234,-9474.636058,-1110.308913,-3217.601092
3838.774564,-9548.656652,-740.205942,-2145.067394
3838.774894,-8438.347739,-1110.308913,-1991.848295
3838.775224,-7031.956449,-592.164754,-3140.991542
3838.775553,-7254.018232,-888.247130,-3983.696590
3838.775883,-9178.553681,-296.082377,-2681.334243
3838.776213,-11769.274478,0.000000,-153.219100
3838.776543,-11917.315666,444.123565,229.828649
3838.776873,-10955.047942,-296.082377,-842.705048
3838.777203,-10140.821405,-666.185348,-2145.067394
3838.777533,-10584.944971,-666.185348,-3447.429741
3838.777863,-11917.315666,-1406.391290,-4060.306139
3838.778193,-10436.903782,-1258.350101,-4136.915689
3838.778523,-8438.347739,-1332.370696,-2298.286494
3838.778853,-6809.894666,-1480.411884,-153.219100
3838.779183,-7846.182985,-370.102971,229.828649
3838.779513,-10584.944971,-296.082377,-1302.362347
3838.779843,-11029.068536,-1036.288319,-2604.724693
3838.780173,-10214.842000,-962.267725,-1915.238745
3838.780503,-9400.615463,-1480.411884,-383.047749
3838.780833,-10881.027347,-1850.514855,689.485948
3838.781163,-11769.274478,-2146.597232,383.047749
3838.781493,-10214.842000,-3108.864956,-1685.410096
3838.781823,-8734.430116,-2664.741391,-2221.676944
3838.782153,-9696.697840,-2590.720797,-842.705048
3838.782483,-10436.903782,-1998.556043,-306.438199
3838.782813,-9326.594869,-1850.514855,-459.657299
3838.783143,-8068.244768,-1998.556043,-2451.505594
3838.783473,-9030.512492,-1332.370696,-4673.182538
3838.783803,-10807.006753,-2220.617826,-3830.477490
3838.784133,-10584.944971,-2960.823768,-2374.896044
3838.784463,-9252.574275,-3478.967927,-1762.019645
3838.784793,-8882.471304,-3627.009116,-1991.848295
3838.785123,-10362.883188,-3923.091493,-1225.752797
3838.785452,-10807.006753,-3923.091493,-689.485948
3838.785782,-10436.903782,-3849.070898,-1378.971896
3838.786112,-10066.800811,-3478.967927,-2681.334243
3838.786442,-10362.883188,-3627.009116,-2757.943793
3838.786772,-10214.842000,-3330.926739,-2374.896044
3838.787102,-9548.656652,-3330.926739,-1991.848295
3838.787432,-9104.533087,-3256.906145,-3677.258390
3838.787762,-8660.409521,-3997.112087,-5515.887586
3838.788092,-9696.697840,-3923.091493,-4060.306139
3838.788422,-10807.006753,-3404.947333,-1532.190996
3838.788752,-10881.027347,-3182.885551,-153.219100
3838.789082,-9696.697840,-3923.091493,-1455.581446
3838.789412,-9326.594869,-4367.215058,-2834.553343
3838.789742,-9326.594869,-3701.029710,-2145.067394
3838.790072,-10288.862594,-3256.906145,-766.095498
3838.790402,-11251.130318,-2812.782580,-1378.971896
3838.790732,-8882.471304,-3034.844362,-2834.553343
3838.791062,-7772.162391,-2886.803174,-3524.039291
3838.791392,-9622.677246,-2442.679609,-2298.286494
3838.791722,-10807.006753,-2294.638420,-1455.581446
3838.792052,-9918.759623,-2294.638420,-1608.800546
3838.792382,-10436.903782,-2072.576638,-2604.724693
3838.792712,-9992.780217,-2220.617826,-3140.991542
3838.793042,-10510.924376,-2738.761985,-2068.457845
3838.793371,-10362.883188,-2368.659014,-689.485948
3838.793701,-9178.553681,-2886.803174,306.438199
3838.794031,-8586.388927,-2072.576638,-536.266849
3838.794361,-7920.203579,-2368.659014,-1072.533697
3838.794691,-8956.491898,-1776.494261,-766.095498
3838.795021,-10214.842000,-518.144159,383.047749
3838.795351,-11843.295072,-518.144159,-383.047749
3838.795681,-11621.233289,-1036.288319,-2374.896044
3838.796011,-9400.615463,-1332.370696,-2757.943793
3838.796340,-9992.780217,-1480.411884,-2221.676944
3838.796670,-9252.574275,-2590.720797,-2068.457845
3838.797000,-9030.512492,-2294.638420,-2604.724693
3838.797330,-8216.285956,-1776.494261,-3064.381992
3838.797660,-8512.368333,-1850.514855,-2757.943793
3838.797990,-9474.636058,-370.102971,-2068.457845
3838.798320,-9918.759623,-1036.288319,-1455.581446
3838.798650,-9400.615463,-1332.370696,-1532.190996
3838.798980,-8512.368333,-1702.473667,-919.314598
3838.799310,-9622.677246,-666.185348,766.095498
3838.799639,-9622.677246,-666.185348,0.000000
3838.799969,-10658.965565,-444.123565,-995.924147
3838.800299,-10881.027347,-592.164754,-2757.943793
3838.800629,-11103.089130,-666.185348,-3140.991542
3838.800959,-11177.109724,-888.247130,-2834.553343
3838.801289,-9918.759623,-370.102971,-2221.676944
3838.801619,-9252.574275,-592.164754,-2374.896044
3838.801949,-8660.409521,-666.185348,-2911.162892
3838.802279,-8586.388927,444.123565,-3064.381992
3838.802608,-9178.553681,-370.102971,-2451.505594
3838.802938,-9030.512492,296.082377,-1455.581446
3838.803268,-10214.842000,-148.041188,0.000000
3838.803598,-11399.171507,-814.226536,0.000000
3838.803928,-10955.047942,-666.185348,153.219100
3838.804258,-11547.212695,-1628.453072,-306.438199
3838.804588,-11621.233289,-1332.370696,-1225.752797
3838.804918,-11029.068536,-1480.411884,-1532.190996
3838.805248,-9548.656652,-1850.514855,-2145.067394
3838.805577,-8216.285956,-1184.329507,-1149.143247
3838.805907,-8586.388927,-1258.350101,-229.828649
3838.806237,-9030.512492,-888.247130,-995.924147
3838.806567,-8734.430116,-740.205942,-2068.457845
3838.806897,-9622.677246,-1258.350101,-2068.457845
3838.807227,-9474.636058,-1332.370696,-1608.800546
3838.807557,-10066.800811,-1406.391290,229.828649
3838.807887,-10288.862594,-2664.741391,1455.581446
3838.808217,-9326.594869,-1850.514855,842.705048
3838.808546,-9992.780217,-2368.659014,459.657299
3838.808876,-9844.739029,-2220.617826,0.000000
3838.809206,-9992.780217,-2146.597232,612.876398
3838.809536,-9474.636058,-1702.473667,-76.609550
3838.809866,-8808.450710,-1036.288319,0.000000
3838.810196,-9326.594869,-740.205942,-766.095498
3838.810526,-8586.388927,-740.205942,-1455.581446
3838.810856,-8660.409521,-666.185348,-2451.505594
3838.811186,-9474.636058,0.000000,-1991.848295
3838.811515,-9992.780217,-666.185348,-1225.752797
3838.811845,-11399.171507,-814.226536,76.609550
3838.812175,-10658.965565,-814.226536,-153.219100
3838.812505,-9844.739029,-1776.494261,-306.438199
3838.812835,-10066.800811,-370.102971,459.657299
3838.813165,-9474.636058,-888.247130,612.876398
3838.813495,-10436.903782,-148.041188,689.485948
3838.813825,-9844.739029,0.000000,612.876398
3838.814155,-9992.780217,-370.102971,306.438199
3838.814485,-10584.944971,0.000000,-76.609550
3838.814814,-10584.944971,-1184.329507,-1225.752797
3838.815144,-10066.800811,-962.267725,-612.876398
3838.815474,-8660.409521,-1776.494261,-459.657299
3838.815804,-7550.100608,-1554.432478,-612.876398
3838.816134,-7698.141797,-1036.288319,1838.629195
3838.816464,-10584.944971,0.000000,3907.087040
3838.816794,-11621.233289,1036.288319,3907.087040
3838.817124,-11769.274478,74.020594,1302.362347
3838.817454,-10658.965565,296.082377,-306.438199
3838.817783,-10436.903782,-740.205942,536.266849
3838.818113,-10288.862594,-592.164754,1225.752797
3838.818443,-8956.491898,-518.144159,0.000000
3838.818773,-7772.162391,0.000000,-1378.971896
3838.819103,-7254.018232,0.000000,-2068.457845
3838.819433,-9696.697840,518.144159,-2374.896044
3838.819763,-10955.047942,444.123565,-459.657299
3838.820093,-10955.047942,296.082377,459.657299
3838.820423,-9474.636058,592.164754,689.485948
3838.820752,-9178.553681,-444.123565,766.095498
3838.821082,-10362.883188,-148.041188,383.047749
3838.821412,-10584.944971,-296.082377,229.828649
3838.821742,-9474.636058,0.000000,-76.609550
3838.822072,-7698.141797,-666.185348,612.876398
3838.822402,-8808.450710,-148.041188,1685.410096
3838.822732,-9400.615463,666.185348,2834.553343
3838.823062,-10214.842000,1406.391290,2068.457845
3838.823392,-9992.780217,370.102971,-1072.533697
3838.823721,-9326.594869,592.164754,-1302.362347
3838.824051,-9548.656652,962.267725,0.000000
3838.824381,-9474.636058,888.247130,1762.019645
3838.824711,-10140.821405,1628.453072,2528.115143
3838.825041,-9548.656652,518.144159,766.095498
3838.825371,-9178.553681,1850.514855,-1378.971896
3838.825701,-10807.006753,1702.473667,-1455.581446
3838.826031,-11251.130318,2146.597232,-383.047749
3838.826361,-9844.739029,1924.535449,153.219100
3838.826690,-9400.615463,1998.556043,689.485948
3838.827020,-9178.553681,1332.370696,919.314598
3838.827350,-10584.944971,1776.494261,842.705048
3838.827680,-9918.759623,1554.432478,0.000000
3838.828010,-9770.718434,740.205942,-536.266849
3838.828340,-8882.471304,1258.350101,-1225.752797
3838.828670,-9844.739029,296.082377,459.657299
3838.829000,-10732.986159,740.205942,1455.581446
3838.829330,-9622.677246,518.144159,1072.533697
3838.829660,-8734.430116,74.020594,-383.047749
3838.829989,-8586.388927,-444.123565,-383.047749
3838.830319,-9104.533087,-444.123565,1072.533697
3838.830649,-8808.450710,296.082377,2451.505594
3838.830979,-9918.759623,444.123565,1762.019645
3838.831309,-9104.533087,296.082377,76.609550
3838.831639,-8734.430116,-148.041188,-536.266849
3838.831969,-9844.739029,740.205942,0.000000
3838.832299,-10955.047942,592.164754,536.266849
3838.832629,-10881.027347,222.061783,612.876398
3838.832958,-9030.512492,0.000000,0.000000
3838.833288,-9474.636058,296.082377,842.705048
3838.833618,-9992.780217,296.082377,1378.971896
3838.833948,-10584.944971,-148.041188,689.485948
3838.834278,-9548.656652,148.041188,-459.657299
3838.834608,-9548.656652,814.226536,-842.705048
3838.834938,-10658.965565,296.082377,-1532.190996
3838.835268,-10881.027347,370.102971,-459.657299
3838.835598,-10955.047942,592.164754,306.438199
3838.835927,-10288.862594,-74.020594,-536.266849
3838.836257,-9696.697840,-888.247130,-1838.629195
3838.836587,-9770.718434,-1110.308913,0.000000
3838.836917,-10066.800811,-888.247130,1838.629195
3838.837247,-10140.821405,-1036.288319,2374.896044
3838.837577,-9474.636058,-740.205942,1532.190996
3838.837907,-9252.574275,-1776.494261,383.047749
3838.838237,-8734.430116,-1110.308913,-689.485948
3838.838567,-9474.636058,-1628.453072,0.000000
3838.838896,-10214.842000,-1110.308913,153.219100
3838.839226,-9622.677246,-1110.308913,612.876398
3838.839556,-8512.368333,-1554.432478,1072.533697
3838.839886,-8734.430116,-962.267725,306.438199
3838.840216,-10288.862594,-592.164754,612.876398
3838.840546,-9770.718434,-1036.288319,0.000000
3838.840876,-9770.718434,-518.144159,1149.143247
3838.841206,-10436.903782,148.041188,1838.629195
3838.841536,-11399.171507,148.041188,1225.752797
3838.841865,-10955.047942,-296.082377,-536.266849
3838.842195,-8882.471304,0.000000,-2681.334243
3838.842525,-8734.430116,0.000000,-1915.238745
3838.842855,-9474.636058,296.082377,229.828649
3838.843185,-10214.842000,148.041188,459.657299
3838.843515,-10362.883188,518.144159,0.000000
3838.843845,-9178.553681,74.020594,-1532.190996
3838.844175,-9918.759623,-518.144159,-1532.190996
3838.844505,-9770.718434,-296.082377,995.924147
3838.844835,-10288.862594,-592.164754,2298.286494
3838.845164,-9474.636058,-74.020594,2451.505594
3838.845494,-9030.512492,-592.164754,1762.019645
3838.845824,-9622.677246,-666.185348,919.314598
3838.846154,-9992.780217,444.123565,1608.800546
3838.846484,-10288.862594,814.226536,459.657299
3838.846814,-9992.780217,888.247130,-383.047749
3838.847144,-9178.553681,0.000000,306.438199
3838.847474,-9104.533087,444.123565,-76.609550
3838.847804,-9104.533087,740.205942,153.219100
3838.848133,-9992.780217,740.205942,0.000000
3838.848463,-9104.533087,592.164754,0.000000
3838.848793,-9030.512492,370.102971,536.266849
3838.849123,-9844.739029,1554.432478,766.095498
3838.849453,-11473.192101,1184.329507,153.219100
3838.849783,-11547.212695,1258.350101,-1685.410096
3838.850113,-9992.780217,592.164754,-1685.410096
3838.850443,-9252.574275,74.020594,-1149.143247
3838.850773,-9252.574275,888.247130,536.266849
3838.851102,-10214.842000,962.267725,-306.438199
3838.851432,-9696.697840,888.247130,-1455.581446
3838.851762,-9030.512492,74.020594,-2374.896044
3838.852092,-9030.512492,962.267725,-919.314598
3838.852422,-10214.842000,0.000000,153.219100
3838.852752,-9548.656652,444.123565,995.924147
3838.853082,-9030.512492,0.000000,766.095498
3838.853412,-9622.677246,222.061783,153.219100
3838.853742,-9696.697840,74.020594,612.876398
3838.854071,-11103.089130,-296.082377,995.924147
3838.854401,-10288.862594,0.000000,689.485948
3838.854731,-9178.553681,-444.123565,229.828649
3838.855061,-8882.471304,-740.205942,229.828649
3838.855391,-8290.306550,-370.102971,1149.143247
3838.855721,-8956.491898,0.000000,1225.752797
3838.856051,-9548.656652,814.226536,842.705048
3838.856381,-9474.636058,222.061783,-1225.752797
3838.856711,-9178.553681,962.267725,919.314598
3838.857041,-10362.883188,962.267725,1455.581446
3838.857370,-11843.295072,1036.288319,995.924147
3838.857700,-11695.253884,1628.453072,0.000000
3838.858030,-11251.130318,962.267725,-842.705048
3838.858360,-9844.739029,518.144159,-1149.143247
3838.858690,-9992.780217,444.123565,-383.047749
3838.859020,-9770.718434,296.082377,-536.266849
3838.859350,-9326.594869,-666.185348,-689.485948
3838.859680,-9400.615463,-296.082377,-612.876398
3838.860010,-9104.533087,-1036.288319,1608.800546
3838.860339,-9844.739029,-1184.329507,2911.162892
3838.860669,-8512.368333,-1184.329507,3064.381992
3838.860999,-9252.574275,-1184.329507,1378.971896
3838.861329,-9844.739029,-592.164754,1532.190996
3838.861659,-10584.944971,-888.247130,1915.238745
3838.861989,-11029.068536,-592.164754,2987.772442
3838.862319,-10658.965565,-740.205942,1838.629195
3838.862649,-10510.924376,-592.164754,842.705048
3838.862979,-9030.512492,-370.102971,383.047749
3838.863308,-9992.780217,0.000000,0.000000
3838.863638,-9844.739029,74.020594,-153.219100
3838.863968,-8956.491898,444.123565,-919.314598
3838.864298,-8142.265362,962.267725,-1608.800546
3838.864628,-9548.656652,1110.308913,-995.924147
3838.864958,-11843.295072,1480.411884,76.609550
3838.865288,-10807.006753,370.102971,919.314598
3838.865618,-10658.965565,-370.102971,459.657299
3838.865948,-9770.718434,0.000000,229.828649
3838.866277,-9622.677246,-962.267725,383.047749
3838.866607,-9770.718434,-814.226536,459.657299
3838.866937,-8660.409521,-962.267725,76.609550
3838.867267,-8882.471304,-444.123565,-766.095498
3838.867597,-8512.368333,222.061783,-612.876398
3838.867927,-9992.780217,-74.020594,306.438199
3838.868257,-8660.409521,74.020594,306.438199
3838.868587,-8956.491898,0.000000,76.609550
3838.868917,-10066.800811,-740.205942,229.828649
3838.869246,-9918.759623,0.000000,0.000000
3838.869576,-10732.986159,0.000000,689.485948
3838.869906,-10732.986159,148.041188,1532.190996
3838.870236,-10362.883188,-666.185348,536.266849
3838.870566,-8586.388927,518.144159,459.657299
3838.870896,-9696.697840,74.020594,306.438199
3838.871226,-10066.800811,666.185348,536.266849
3838.871556,-10658.965565,592.164754,0.000000
3838.871886,-10436.903782,1258.350101,-995.924147
3838.872216,-8956.491898,888.247130,-995.924147
3838.872545,-9400.615463,888.247130,-766.095498
3838.872875,-10658.965565,1258.350101,-766.095498
3838.873205,-11251.130318,370.102971,-766.095498
3838.873535,-10362.883188,0.000000,-459.657299
3838.873865,-9622.677246,0.000000,383.047749
3838.874195,-10807.006753,0.000000,1072.533697
3838.874525,-10066.800811,1036.288319,1072.533697
3838.874855,-10658.965565,148.041188,229.828649
3838.875185,-9844.739029,74.020594,-1072.533697
3838.875514,-9844.739029,-222.061783,-383.047749
3838.875844,-10140.821405,0.000000,459.657299
3838.876174,-9548.656652,-888.247130,229.828649
3838.876504,-8068.244768,-1332.370696,153.219100
3838.876834,-7105.977043,-814.226536,1149.143247
3838.877164,-8586.388927,-888.247130,2221.676944
3838.877494,-9622.677246,74.020594,2911.162892
3838.877824,-10807.006753,148.041188,2374.896044
3838.878154,-10584.944971,296.082377,1378.971896
3838.878483,-9770.718434,-518.144159,0.000000
3838.878813,-10066.800811,-592.164754,76.609550
3838.879143,-10214.842000,444.123565,919.314598
3838.879473,-10955.047942,74.020594,0.000000
3838.879803,-8438.347739,370.102971,-2298.286494
3838.880133,-7994.224174,592.164754,-1915.238745
3838.880463,-8808.450710,1036.288319,-1991.848295
3838.880793,-10362.883188,1036.288319,0.000000
3838.881123,-11399.171507,592.164754,536.266849
3838.881452,-9030.512492,296.082377,153.219100
3838.881782,-9844.739029,1036.288319,153.219100
3838.882112,-11473.192101,592.164754,-153.219100
3838.882442,-11621.233289,-888.247130,0.000000
3838.882772,-10955.047942,222.061783,383.047749
3838.883102,-9548.656652,-888.247130,0.000000
3838.883432,-10214.842000,-666.185348,842.705048
3838.883762,-8734.430116,-814.226536,1455.581446
3838.884092,-8438.347739,-1110.308913,1149.143247
3838.884421,-7920.203579,0.000000,229.828649
3838.884751,-9548.656652,296.082377,459.657299
3838.885081,-10732.986159,0.000000,919.314598
3838.885411,-9326.594869,0.000000,1532.190996
3838.885741,-9696.697840,370.102971,689.485948
3838.886071,-10658.965565,444.123565,0.000000
3838.886401,-11251.130318,222.061783,-459.657299
3838.886731,-9770.718434,0.000000,0.000000
3838.887061,-8956.491898,0.000000,229.828649
3838.887391,-9326.594869,222.061783,306.438199
3838.887720,-9696.697840,222.061783,153.219100
3838.888050,-9548.656652,-370.102971,0.000000
3838.888380,-9326.594869,444.123565,0.000000
3838.888710,-9104.533087,370.102971,229.828649
3838.889040,-8956.491898,814.226536,0.000000
3838.889370,-9622.677246,148.041188,-536.266849
3838.889700,-9770.718434,148.041188,-459.657299
3838.890030,-10732.986159,74.020594,-536.266849
3838.890360,-11029.068536,-592.164754,0.000000
3838.890689,-10214.842000,-888.247130,0.000000
3838.891019,-8660.409521,-1332.370696,229.828649
3838.891349,-7402.059420,-370.102971,1455.581446
3838.891679,-8956.491898,-814.226536,1608.800546
3838.892009,-9844.739029,-222.061783,995.924147
3838.892339,-9548.656652,0.000000,383.047749
3838.892669,-9326.594869,296.082377,229.828649
3838.892999,-10362.883188,592.164754,536.266849
3838.893329,-11029.068536,740.205942,536.266849
3838.893658,-10732.986159,666.185348,76.609550
3838.893988,-10066.800811,-296.082377,-919.314598
3838.894318,-9622.677246,370.102971,459.657299
3838.894648,-9030.512492,-296.082377,1608.800546
3838.894978,-9770.718434,0.000000,1762.019645
3838.895308,-9474.636058,1036.288319,1072.533697
3838.895638,-10510.924376,1406.391290,-536.266849
3838.895968,-10214.842000,1184.329507,-1762.019645
3838.896298,-10510.924376,1184.329507,-919.314598
3838.896628,-10955.047942,1480.411884,536.266849
3838.896957,-10510.924376,296.082377,459.657299
3838.897287,-9548.656652,0.000000,-459.657299
3838.897617,-7846.182985,-296.082377,-306.438199
3838.897947,-10140.821405,-74.020594,-612.876398
3838.898277,-10584.944971,0.000000,459.657299
3838.898607,-10732.986159,-888.247130,1225.752797
3838.898937,-8882.471304,-148.041188,1455.581446
3838.899267,-7624.121203,-370.102971,842.705048
3838.899597,-10066.800811,0.000000,1149.143247
3838.899927,-10066.800811,-666.185348,0.000000
3838.900256,-9696.697840,0.000000,612.876398
3838.900586,-8438.347739,444.123565,1378.971896
3838.900916,-9622.677246,0.000000,1762.019645
3838.901246,-10214.842000,296.082377,1149.143247
3838.901576,-10140.821405,666.185348,-76.609550
3838.901906,-9696.697840,370.102971,-1838.629195
3838.902236,-10214.842000,222.061783,-995.924147
3838.902566,-10658.965565,148.041188,919.314598
3838.902896,-9770.718434,740.205942,2451.505594
3838.903225,-9622.677246,814.226536,919.314598
3838.903555,-8290.306550,518.144159,-1225.752797
3838.903885,-9622.677246,444.123565,-1838.629195
3838.904215,-10732.986159,888.247130,-306.438199
3838.904545,-11695.253884,888.247130,-612.876398
3838.904875,-10436.903782,666.185348,-766.095498
3838.905205,-8512.368333,-370.102971,-1149.143247
3838.905535,-9400.615463,-296.082377,-919.314598
3838.905865,-9844.739029,740.205942,383.047749
3838.906195,-11991.336260,-296.082377,-459.657299
3838.906524,-10510.924376,-666.185348,-1072.533697
3838.906854,-8512.368333,-592.164754,-306.438199
3838.907184,-9474.636058,-814.226536,1455.581446
3838.907514,-9252.574275,-814.226536,2681.334243
3838.907844,-9844.739029,-370.102971,1762.019645
3838.908174,-9252.574275,-666.185348,76.609550
3838.908504,-8882.471304,-888.247130,0.000000
3838.908834,-9918.759623,-814.226536,1378.971896
3838.909164,-10214.842000,-518.144159,1455.581446
3838.909494,-10214.842000,-296.082377,766.095498
3838.909823,-8956.491898,-592.164754,0.000000
3838.910153,-9474.636058,-666.185348,76.609550
3838.910483,-9622.677246,-592.164754,766.095498
3838.910813,-10288.862594,-370.102971,1149.143247
3838.911143,-9918.759623,-518.144159,153.219100
3838.911473,-8734.430116,0.000000,0.000000
3838.911803,-8734.430116,-666.185348,-612.876398
3838.912133,-9474.636058,888.247130,-536.266849
3838.912463,-11177.109724,962.267725,-1225.752797
3838.912792,-11103.089130,740.205942,-1915.238745
3838.913122,-10288.862594,444.123565,-1762.019645
3838.913452,-10584.944971,0.000000,-536.266849
3838.913782,-10732.986159,-666.185348,153.219100
3838.914112,-10066.800811,-1258.350101,76.609550
3838.914442,-7994.224174,0.000000,612.876398
3838.914772,-8216.285956,-1258.350101,0.000000
3838.915102,-8808.450710,74.020594,842.705048
3838.915432,-9992.780217,-518.144159,2068.457845
3838.915762,-10658.965565,74.020594,1762.019645
3838.916091,-9400.615463,0.000000,153.219100
3838.916421,-10362.883188,-370.102971,-459.657299
3838.916751,-9844.739029,-296.082377,1608.800546
3838.917081,-10140.821405,-370.102971,1378.971896
3838.917411,-9474.636058,-592.164754,842.705048
3838.917741,-8512.368333,-592.164754,76.609550
3838.918071,-8882.471304,222.061783,766.095498
3838.918401,-10436.903782,592.164754,1608.800546
3838.918731,-11399.171507,1110.308913,766.095498
3838.919061,-9696.697840,1776.494261,-459.657299
3838.919390,-9252.574275,1554.432478,-1532.190996
3838.919720,-10214.842000,1702.473667,-1225.752797
3838.920050,-11547.212695,1702.473667,153.219100
3838.920380,-12287.418637,1480.411884,229.828649
3838.920710,-10510.924376,592.164754,-919.314598
3838.921040,-9548.656652,74.020594,-995.924147
3838.921370,-8586.388927,148.041188,229.828649
3838.921700,-9252.574275,0.000000,1838.629195
3838.922030,-9622.677246,962.267725,1302.362347
3838.922359,-9252.574275,0.000000,919.314598
3838.922689,-9400.615463,0.000000,766.095498
3838.923019,-9178.553681,740.205942,1149.143247
3838.923349,-11547.212695,222.061783,995.924147
3838.923679,-11177.109724,0.000000,842.705048
3838.924009,-9030.512492,-592.164754,536.266849
3838.924339,-7772.162391,0.000000,1991.848295
3838.924669,-9474.636058,370.102971,1991.848295
3838.924999,-10658.965565,0.000000,842.705048
3838.925329,-9474.636058,148.041188,-153.219100
3838.925658,-8512.368333,592.164754,-919.314598
3838.925988,-8882.471304,666.185348,76.609550
3838.926318,-12065.356855,1184.329507,689.485948
3838.926648,-11695.253884,888.247130,0.000000
3838.926978,-9474.636058,148.041188,-1608.800546
3838.927308,-9030.512492,0.000000,-1762.019645
3838.927638,-8882.471304,-222.061783,-1072.533697
3838.927968,-10362.883188,222.061783,536.266849
3838.928298,-9326.594869,222.061783,306.438199
3838.928628,-9992.780217,222.061783,76.609550
3838.928957,-9992.780217,592.164754,76.609550
3838.929287,-10881.027347,-222.061783,229.828649
3838.929617,-11029.068536,0.000000,612.876398
3838.929947,-9030.512492,-814.226536,0.000000
3838.930277,-8734.430116,-888.247130,689.485948
3838.930607,-8216.285956,-740.205942,1149.143247
3838.930937,-9474.636058,-444.123565,1072.533697
3838.931267,-10362.883188,0.000000,689.485948
3838.931597,-11029.068536,-518.144159,0.000000
3838.931926,-10436.903782,-962.267725,689.485948
3838.932256,-8882.471304,-592.164754,2298.286494
3838.932586,-9622.677246,0.000000,2987.772442
3838.932916,-9622.677246,74.020594,2068.457845
3838.933246,-9474.636058,148.041188,-459.657299
3838.933576,-9622.677246,740.205942,-1225.752797
3838.933906,-11251.130318,592.164754,0.000000
3838.934236,-11251.130318,1554.432478,842.705048
3838.934566,-9992.780217,888.247130,0.000000
3838.934896,-9844.739029,518.144159,-2068.457845
3838.935225,-8660.409521,666.185348,-2451.505594
3838.935555,-10140.821405,0.000000,-1225.752797
3838.935885,-10510.924376,148.041188,306.438199
3838.936215,-10214.842000,-444.123565,1685.410096
3838.936545,-9696.697840,222.061783,2221.676944
3838.936875,-10288.862594,0.000000,2528.115143
3838.937205,-10881.027347,-296.082377,1608.800546
3838.937535,-9178.553681,-74.020594,383.047749
3838.937865,-9326.594869,-296.082377,-689.485948
3838.938195,-9104.533087,222.061783,0.000000
3838.938524,-10066.800811,0.000000,1838.629195
3838.938854,-10066.800811,-296.082377,2298.286494
3838.939184,-8734.430116,148.041188,689.485948
3838.939514,-9400.615463,-592.164754,-1685.410096
3838.939844,-8364.327145,0.000000,-1149.143247
3838.940174,-9252.574275,-222.061783,1302.362347
3838.940504,-9696.697840,1110.308913,3600.648841
3838.940834,-10214.842000,962.267725,2221.676944
3838.941164,-10658.965565,1258.350101,0.000000
3838.941493,-10288.862594,518.144159,-842.705048
3838.941823,-10807.006753,740.205942,229.828649
3838.942153,-10807.006753,814.226536,612.876398
3838.942483,-10436.903782,74.020594,0.000000
3838.942813,-8068.244768,740.205942,-766.095498
3838.943143,-8068.244768,222.061783,-1378.971896
3838.943473,-10214.842000,740.205942,-1302.362347
3838.943803,-10881.027347,740.205942,-1302.362347
3838.944133,-10288.862594,814.226536,-1149.143247
3838.944463,-8438.347739,962.267725,-1302.362347
3838.944792,-9548.656652,814.226536,-459.657299
3838.945122,-11177.109724,1036.288319,459.657299
3838.945452,-11399.171507,0.000000,0.000000
3838.945782,-9696.697840,148.041188,-766.095498
3838.946112,-8438.347739,-814.226536,-76.609550
3838.946442,-9548.656652,-370.102971,1455.581446
3838.946772,-9770.718434,0.000000,1915.238745
3838.947102,-9252.574275,-592.164754,536.266849
3838.947432,-8068.244768,-518.144159,-612.876398
3838.947762,-8586.388927,-222.061783,-459.657299
3838.948091,-9844.739029,592.164754,459.657299
3838.948421,-11103.089130,592.164754,383.047749
3838.948751,-10436.903782,-296.082377,-842.705048
3838.949081,-9696.697840,-370.102971,-689.485948
3838.949411,-10140.821405,-1110.308913,0.000000
3838.949741,-9622.677246,-740.205942,995.924147
3838.950071,-9696.697840,-1036.288319,766.095498
3838.950401,-8882.471304,-444.123565,0.000000
3838.950731,-8956.491898,-666.185348,-919.314598
3838.951060,-10807.006753,0.000000,-153.219100
3838.951390,-11621.233289,222.061783,306.438199
3838.951720,-11621.233289,-814.226536,0.000000
3838.952050,-8586.388927,0.000000,-459.657299
3838.952380,-9400.615463,-962.267725,-995.924147
3838.952710,-9178.553681,-296.082377,0.000000
3838.953040,-8956.491898,-962.267725,0.000000
3838.953370,-10732.986159,-444.123565,229.828649
3838.953700,-9622.677246,-666.185348,-229.828649
3838.954030,-9622.677246,-1036.288319,459.657299
3838.954359,-8956.491898,-666.185348,2451.505594
3838.954689,-9696.697840,-1258.350101,1838.629195
3838.955019,-9992.780217,0.000000,995.924147
3838.955349,-9770.718434,-1036.288319,-689.485948
3838.955679,-9992.780217,0.000000,-383.047749
3838.956009,-9252.574275,0.000000,1608.800546
3838.956339,-10288.862594,0.000000,1532.190996
3838.956669,-9252.574275,370.102971,612.876398
3838.956999,-8512.368333,0.000000,153.219100
3838.957329,-9178.553681,518.144159,766.095498
3838.957658,-10807.006753,444.123565,1149.143247
3838.957988,-11991.336260,1110.308913,1072.533697
3838.958318,-10955.047942,592.164754,153.219100
3838.958648,-9770.718434,666.185348,-383.047749
3838.958978,-9104.533087,592.164754,0.000000
3838.959308,-9770.718434,296.082377,0.000000
3838.959638,-10881.027347,592.164754,229.828649
3838.959968,-10362.883188,148.041188,0.000000
3838.960298,-9030.512492,222.061783,383.047749
3838.960627,-9104.533087,814.226536,612.876398
3838.960957,-9992.780217,222.061783,536.266849
3838.961287,-9696.697840,148.041188,0.000000
3838.961617,-9918.759623,148.041188,76.609550
3838.961947,-9622.677246,-370.102971,306.438199
3838.962277,-9622.677246,666.185348,1455.581446
3838.962607,-9770.718434,444.123565,689.485948
3838.962937,-9400.615463,296.082377,0.000000
3838.963267,-9474.636058,370.102971,-153.219100
3838.963597,-9992.780217,1110.308913,383.047749
3838.963926,-10140.821405,222.061783,383.047749
3838.964256,-9474.636058,740.205942,536.266849
3838.964586,-9474.636058,444.123565,1149.143247
3838.964916,-10140.821405,222.061783,612.876398
3838.965246,-9770.718434,1258.350101,76.609550
3838.965576,-10214.842000,592.164754,-1532.190996
3838.965906,-9474.636058,1184.329507,-1991.848295
3838.966236,-9104.533087,296.082377,-1991.848295
3838.966566,-9474.636058,740.205942,-1378.971896
3838.966896,-9622.677246,0.000000,383.047749
3838.967225,-10362.883188,444.123565,0.000000
3838.967555,-9326.594869,148.041188,-459.657299
3838.967885,-9770.718434,-444.123565,-612.876398
3838.968215,-9622.677246,-444.123565,612.876398
3838.968545,-9622.677246,-666.185348,1838.629195
3838.968875,-9992.780217,370.102971,2221.676944
3838.969205,-9696.697840,-592.164754,766.095498
3838.969535,-9918.759623,-222.061783,-153.219100
3838.969865,-9178.553681,-666.185348,689.485948
3838.970194,-10288.862594,0.000000,1455.581446
3838.970524,-10288.862594,74.020594,919.314598
3838.970854,-10066.800811,0.000000,-1225.752797
3838.971184,-8586.388927,-666.185348,-766.095498
3838.971514,-9252.574275,-370.102971,-766.095498
3838.971844,-10881.027347,518.144159,153.219100
3838.972174,-10658.965565,0.000000,536.266849
3838.972504,-10140.821405,-74.020594,306.438199
3838.972834,-8586.388927,-444.123565,306.438199
3838.973164,-9992.780217,-814.226536,383.047749
3838.973493,-11917.315666,-444.123565,766.095498
3838.973823,-11177.109724,-740.205942,842.705048
3838.974153,-10362.883188,-1258.350101,459.657299
3838.974483,-8882.471304,-444.123565,459.657299
3838.974813,-10214.842000,-1036.288319,689.485948
3838.975143,-9770.718434,-296.082377,689.485948
3838.975473,-9252.574275,-1036.288319,-306.438199
3838.975803,-9252.574275,-444.123565,0.000000
3838.976133,-9474.636058,-592.164754,0.000000
3838.976463,-9178.553681,-1480.411884,229.828649
3838.976792,-8882.471304,74.020594,1302.362347
3838.977122,-9992.780217,-962.267725,383.047749
3838.977452,-9992.780217,-148.041188,229.828649
3838.977782,-9918.759623,-1036.288319,306.438199
3838.978112,-9622.677246,0.000000,1225.752797
3838.978442,-9622.677246,-296.082377,1302.362347
3838.978772,-9548.656652,222.061783,153.219100
3838.979102,-10066.800811,296.082377,0.000000
3838.979432,-9844.739029,222.061783,-383.047749
3838.979761,-9252.574275,1406.391290,-459.657299
3838.980091,-10066.800811,370.102971,-1302.362347
3838.980421,-9696.697840,518.144159,-2145.067394
3838.980751,-9400.615463,296.082377,-842.705048
3838.981081,-10807.006753,296.082377,383.047749
3838.981411,-9622.677246,296.082377,536.266849
3838.981741,-10140.821405,0.000000,-153.219100
3838.982071,-9400.615463,740.205942,-766.095498
3838.982401,-9474.636058,0.000000,-612.876398
3838.982731,-10214.842000,592.164754,1225.752797
3838.983060,-10066.800811,0.000000,1378.971896
3838.983390,-10732.986159,0.000000,689.485948
3838.983720,-8956.491898,74.020594,0.000000
3838.984050,-9400.615463,-148.041188,459.657299
3838.984380,-8734.430116,0.000000,536.266849
3838.984710,-9030.512492,-296.082377,306.438199
3838.985040,-8734.430116,0.000000,612.876398
3838.985370,-9622.677246,-444.123565,1532.190996
3838.985700,-10584.944971,74.020594,1378.971896
3838.986030,-9474.636058,740.205942,1149.143247
3838.986359,-10658.965565,592.164754,-536.266849
3838.986689,-9474.636058,370.102971,0.000000
3838.987019,-10362.883188,222.061783,229.828649
3838.987349,-10362.883188,814.226536,1072.533697
3838.987679,-9844.739029,296.082377,536.266849
3838.988009,-9548.656652,444.123565,-383.047749
3838.988339,-8808.450710,518.144159,-1149.143247
3838.988669,-10140.821405,888.247130,-1149.143247
3838.988999,-10066.800811,814.226536,-919.314598
3838.989328,-10510.924376,444.123565,0.000000
3838.989658,-9696.697840,518.144159,459.657299
3838.989988,-9844.739029,296.082377,0.000000
3838.990318,-10288.862594,0.000000,-383.047749
3838.990648,-10658.965565,0.000000,383.047749
3838.990978,-10140.821405,0.000000,1455.581446
3838.991308,-9548.656652,0.000000,1378.971896
3838.991638,-9992.780217,296.082377,383.047749
3838.991968,-9474.636058,148.041188,0.000000
3838.992298,-9178.553681,0.000000,-459.657299
3838.992627,-9178.553681,-296.082377,-536.266849
3838.992957,-9030.512492,296.082377,-306.438199
3838.993287,-9252.574275,-370.102971,459.657299
3838.993617,-8882.471304,592.164754,459.657299
3838.993947,-9992.780217,148.041188,536.266849
3838.994277,-10140.821405,0.000000,0.000000
3838.994606,-10510.924376,0.000000,-229.828649
3838.994936,-10362.883188,0.000000,0.000000
3838.995266,-10066.800811,-296.082377,689.485948
3838.995595,-9622.677246,-740.205942,229.828649
3838.995925,-8734.430116,-518.144159,612.876398
3838.996255,-8956.491898,74.020594,-306.438199
3838.996584,-9104.533087,666.185348,76.609550
3838.996914,-10362.883188,444.123565,153.219100
3838.997244,-11325.150913,222.061783,383.047749
3838.997573,-10955.047942,592.164754,0.000000
3838.997903,-10510.924376,-444.123565,-919.314598
3838.998233,-9400.615463,0.000000,-76.609550
3838.998562,-10362.883188,-888.247130,0.000000
3838.998892,-10066.800811,-444.123565,1378.971896
3838.999222,-9622.677246,-740.205942,1378.971896
3838.999552,-9178.553681,-1036.288319,1378.971896
3838.999881,-7920.203579,-592.164754,1455.581446
3839.000211,-10066.800811,-74.020594,1455.581446
3839.000541,-9992.780217,296.082377,1302.362347
3839.000870,-9918.759623,-296.082377,536.266849
3839.001200,-9326.594869,148.041188,153.219100
3839.001530,-10288.862594,222.061783,-459.657299
3839.001859,-11325.150913,74.020594,-1685.410096
3839.002189,-9992.780217,-444.123565,-995.924147
3839.002519,-9696.697840,-444.123565,0.000000
3839.002848,-9252.574275,-222.061783,536.266849
3839.003178,-9252.574275,-962.267725,766.095498
3839.003508,-8586.388927,-1036.288319,306.438199
3839.003837,-7994.224174,-518.144159,0.000000
3839.004167,-9400.615463,0.000000,1149.143247
3839.004497,-9844.739029,0.000000,536.266849
3839.004826,-11177.109724,814.226536,1225.752797
3839.005156,-11325.150913,814.226536,0.000000
3839.005486,-11325.150913,-592.164754,-842.705048
3839.005816,-10066.800811,-666.185348,-1378.971896
3839.006145,-9992.780217,-814.226536,-459.657299
3839.006475,-10436.903782,-1184.329507,383.047749
3839.006805,-9104.533087,-296.082377,229.828649
3839.007134,-7698.141797,-1258.350101,-459.657299
3839.007464,-7179.997637,-148.041188,0.000000
3839.007794,-9104.533087,296.082377,76.609550
3839.008123,-11177.109724,740.205942,919.314598
3839.008453,-11029.068536,444.123565,229.828649
3839.008783,-10732.986159,444.123565,0.000000
3839.009112,-11029.068536,0.000000,459.657299
3839.009442,-11621.233289,-148.041188,229.828649
3839.009772,-9992.780217,-222.061783,766.095498
3839.010101,-8512.368333,-962.267725,0.000000
3839.010431,-7476.080014,592.164754,0.000000
3839.010761,-9178.553681,370.102971,919.314598
3839.011091,-9326.594869,592.164754,229.828649
3839.011420,-9178.553681,1036.288319,-1072.533697
3839.011750,-10288.862594,592.164754,-1762.019645
3839.012080,-10140.821405,814.226536,-612.876398
3839.012409,-10214.842000,592.164754,612.876398
3839.012739,-9844.739029,592.164754,842.705048
3839.013069,-10140.821405,0.000000,229.828649
3839.013398,-10732.986159,518.144159,153.219100
3839.013728,-9992.780217,518.144159,-306.438199
3839.014058,-9844.739029,-370.102971,0.000000
3839.014387,-7846.182985,-814.226536,1685.410096
3839.014717,-8808.450710,962.267725,3140.991542
3839.015047,-9696.697840,1036.288319,1149.143247
3839.015376,-8216.285956,222.061783,-459.657299
3839.015706,-7698.141797,0.000000,0.000000
3839.016036,-9622.677246,1554.432478,459.657299
3839.016366,-12879.583391,1110.308913,383.047749
3839.016695,-11695.253884,1332.370696,229.828649
3839.017025,-10436.903782,518.144159,383.047749
3839.017355,-9474.636058,740.205942,536.266849
3839.017684,-9992.780217,0.000000,0.000000
3839.018014,-10658.965565,296.082377,995.924147
3839.018344,-8438.347739,1332.370696,1608.800546
3839.018673,-8956.491898,962.267725,1455.581446
3839.019003,-9844.739029,1776.494261,766.095498
3839.019333,-11251.130318,1702.473667,-536.266849
3839.019662,-10140.821405,1998.556043,-1991.848295
3839.019992,-9030.512492,666.185348,-1455.581446
3839.020322,-10066.800811,1110.308913,-612.876398
3839.020651,-11399.171507,1036.288319,1225.752797
3839.020981,-11251.130318,370.102971,0.000000
3839.021311,-9844.739029,0.000000,-919.314598
3839.021641,-9918.759623,-592.164754,-919.314598
3839.021970,-9696.697840,-296.082377,0.000000
3839.022300,-7846.182985,-740.205942,1685.410096
3839.022630,-7624.121203,0.000000,2221.676944
3839.022959,-7994.224174,518.144159,1838.629195
3839.023289,-11177.109724,518.144159,995.924147
3839.023619,-11843.295072,1554.432478,-536.266849
3839.023948,-12731.542202,518.144159,-842.705048
3839.024278,-10288.862594,0.000000,-536.266849
3839.024608,-9178.553681,-1184.329507,0.000000
3839.024937,-9178.553681,-1184.329507,0.000000
3839.025267,-8290.306550,-962.267725,766.095498
3839.025597,-8956.491898,-1036.288319,229.828649
3839.025926,-7772.162391,74.020594,229.828649
3839.026256,-8068.244768,0.000000,-689.485948
3839.026586,-9844.739029,1184.329507,306.438199
3839.026916,-11843.295072,444.123565,995.924147
3839.027245,-12213.398043,0.000000,-306.438199
3839.027575,-10955.047942,-666.185348,-1915.238745
3839.027905,-10288.862594,-1480.411884,-1838.629195
3839.028234,-9326.594869,-1702.473667,0.000000
3839.028564,-8290.306550,-2072.576638,766.095498
3839.028894,-8438.347739,-740.205942,612.876398
3839.029223,-8660.409521,-370.102971,-153.219100
3839.029553,-9548.656652,-814.226536,-1225.752797
3839.029883,-9474.636058,-740.205942,0.000000
3839.030212,-10955.047942,-1554.432478,1455.581446
3839.030542,-9844.739029,-740.205942,1838.629195
3839.030872,-9400.615463,-1702.473667,1532.190996
3839.031201,-9326.594869,-1406.391290,-536.266849
3839.031531,-8956.491898,-1554.432478,-306.438199
3839.031861,-9844.739029,-888.247130,459.657299
3839.032191,-10732.986159,-444.123565,536.266849
3839.032520,-9992.780217,-814.226536,995.924147
3839.032850,-8512.368333,-444.123565,689.485948
3839.033180,-8956.491898,-740.205942,306.438199
3839.033509,-9992.780217,962.267725,0.000000
3839.033839,-10955.047942,518.144159,-383.047749
3839.034169,-10658.965565,592.164754,-689.485948
3839.034498,-9326.594869,592.164754,-612.876398
3839.034828,-10140.821405,148.041188,-536.266849
3839.035158,-10955.047942,370.102971,536.266849
3839.035487,-11325.150913,-370.102971,766.095498
3839.035817,-10066.800811,0.000000,1072.533697
3839.036147,-9030.512492,-518.144159,995.924147
3839.036476,-9326.594869,370.102971,229.828649
3839.036806,-8660.409521,74.020594,0.000000
3839.037136,-8882.471304,592.164754,-459.657299
3839.037465,-9548.656652,1184.329507,612.876398
3839.037795,-10881.027347,1480.411884,1072.533697
3839.038125,-11029.068536,1184.329507,1072.533697
3839.038455,-10584.944971,592.164754,0.000000
3839.038784,-10066.800811,148.041188,-153.219100
3839.039114,-8956.491898,370.102971,536.266849
3839.039444,-9622.677246,74.020594,2528.115143
3839.039773,-8438.347739,666.185348,2528.115143
3839.040103,-8438.347739,444.123565,1685.410096
3839.040433,-8956.491898,1924.535449,2145.067394
3839.040762,-10732.986159,2442.679609,1302.362347
3839.041092,-11695.253884,1998.556043,0.000000
3839.041422,-10807.006753,1850.514855,-76.609550
3839.041751,-9770.718434,1924.535449,153.219100
3839.042081,-9622.677246,1554.432478,-383.047749
3839.042411,-9844.739029,1036.288319,-536.266849
3839.042740,-9326.594869,1628.453072,-919.314598
3839.043070,-9474.636058,814.226536,-1302.362347
3839.043400,-9622.677246,518.144159,-1149.143247
3839.043730,-9178.553681,518.144159,689.485948
3839.044059,-9696.697840,888.247130,1302.362347
3839.044389,-9104.533087,1184.329507,995.924147
3839.044719,-9622.677246,592.164754,0.000000
3839.045048,-10436.903782,1184.329507,-153.219100
3839.045378,-10436.903782,444.123565,229.828649
3839.045708,-11029.068536,296.082377,1838.629195
3839.046037,-10584.944971,-222.061783,1991.848295
3839.046367,-9548.656652,-592.164754,536.266849
3839.046697,-7105.977043,0.000000,-153.219100
3839.047026,-8364.327145,222.061783,-383.047749
3839.047356,-9992.780217,814.226536,-766.095498
3839.047686,-10510.924376,814.226536,-459.657299
3839.048015,-10066.800811,740.205942,-1378.971896
3839.048345,-9474.636058,518.144159,-612.876398
3839.048675,-11103.089130,370.102971,0.000000
3839.049005,-10510.924376,-592.164754,459.657299
3839.049334,-9992.780217,-666.185348,-612.876398
3839.049664,-9474.636058,-370.102971,229.828649
3839.049994,-9474.636058,-740.205942,383.047749
3839.050323,-10510.924376,-222.061783,1149.143247
3839.050653,-9844.739029,296.082377,76.609550
3839.050983,-10140.821405,-222.061783,-2068.457845
3839.051312,-10066.800811,0.000000,-2298.286494
3839.051642,-10732.986159,-1110.308913,-2145.067394
3839.051972,-9696.697840,-1406.391290,-919.314598
3839.052301,-8956.491898,-1850.514855,-1149.143247
3839.052631,-7402.059420,-2812.782580,-306.438199
3839.052961,-6809.894666,-2590.720797,1225.752797
3839.053290,-8438.347739,-1554.432478,1838.629195
3839.053620,-9844.739029,-962.267725,1991.848295
3839.053950,-10510.924376,-888.247130,1149.143247
3839.054280,-10436.903782,-222.061783,1072.533697
3839.054609,-11177.109724,-1036.288319,919.314598
3839.054939,-11695.253884,-296.082377,1072.533697
3839.055269,-10658.965565,-1110.308913,0.000000
3839.055598,-9548.656652,-1480.411884,-2221.676944
3839.055928,-7772.162391,-518.144159,-3064.381992
3839.056258,-8956.491898,-1184.329507,-1608.800546
3839.056587,-8808.450710,148.041188,1225.752797
3839.056917,-10066.800811,592.164754,1225.752797
3839.057247,-10510.924376,0.000000,229.828649
3839.057576,-10362.883188,-148.041188,-995.924147
3839.057906,-11695.253884,-74.020594,229.828649
3839.058236,-11399.171507,-222.061783,2145.067394
3839.058565,-11547.212695,-370.102971,1378.971896
3839.058895,-9622.677246,-222.061783,306.438199
3839.059225,-9770.718434,-740.205942,-153.219100
3839.059555,-10140.821405,74.020594,306.438199
3839.059884,-9770.718434,-1258.350101,459.657299
3839.060214,-9474.636058,-296.082377,842.705048
3839.060544,-7772.162391,-740.205942,536.266849
3839.060873,-8364.327145,-518.144159,229.828649
3839.061203,-8512.368333,0.000000,842.705048
3839.061533,-9770.718434,-444.123565,306.438199
3839.061862,-9030.512492,-592.164754,612.876398
3839.062192,-9474.636058,592.164754,1838.629195
3839.062522,-10658.965565,296.082377,2757.943793
3839.062851,-9548.656652,74.020594,2221.676944
3839.063181,-10288.862594,592.164754,919.314598
3839.063511,-9696.697840,592.164754,-76.609550
3839.063840,-9770.718434,1184.329507,-995.924147
3839.064170,-9918.759623,1406.391290,0.000000
3839.064500,-9400.615463,592.164754,612.876398
3839.064830,-8734.430116,1110.308913,-306.438199
3839.065159,-7772.162391,1924.535449,-1532.190996
3839.065489,-9992.780217,592.164754,-2604.724693
3839.065819,-11029.068536,1702.473667,-1532.190996
3839.066148,-10288.862594,888.247130,76.609550
3839.066478,-10288.862594,1480.411884,1225.752797
3839.066808,-10436.903782,0.000000,0.000000
3839.067137,-10658.965565,0.000000,153.219100
3839.067467,-8882.471304,0.000000,0.000000
3839.067797,-10658.965565,1184.329507,383.047749
3839.068126,-10066.800811,444.123565,459.657299
3839.068456,-8586.388927,296.082377,383.047749
3839.068786,-8216.285956,1406.391290,1302.362347
3839.069115,-10140.821405,814.226536,1455.581446
3839.069445,-11991.336260,1110.308913,-229.828649
3839.069775,-9992.780217,814.226536,-842.705048
3839.070105,-9326.594869,444.123565,-459.657299
3839.070434,-9548.656652,962.267725,1072.533697
3839.070764,-11325.150913,666.185348,1378.971896
3839.071094,-10955.047942,888.247130,0.000000
3839.071423,-9178.553681,592.164754,-1225.752797
3839.071753,-9696.697840,222.061783,-1072.533697
3839.072083,-9622.677246,0.000000,0.000000
3839.072412,-10140.821405,370.102971,1225.752797
3839.072742,-8586.388927,592.164754,919.314598
3839.073072,-8586.388927,148.041188,-919.314598
3839.073401,-9474.636058,0.000000,-1685.410096
3839.073731,-9474.636058,-592.164754,-842.705048
3839.074061,-10288.862594,-518.144159,383.047749
3839.074390,-10584.944971,-962.267725,536.266849
3839.074720,-9030.512492,-1850.514855,919.314598
3839.075050,-7920.203579,-962.267725,766.095498
3839.075379,-8660.409521,-1184.329507,306.438199
3839.075709,-9622.677246,-888.247130,842.705048
3839.076039,-10066.800811,-1406.391290,1455.581446
3839.076369,-9252.574275,-148.041188,1072.533697
3839.076698,-8660.409521,-666.185348,2221.676944
3839.077028,-11103.089130,0.000000,2528.115143
3839.077358,-9622.677246,0.000000,1302.362347
3839.077687,-9770.718434,0.000000,-459.657299
3839.078017,-9770.718434,518.144159,-1455.581446
3839.078347,-10732.986159,-296.082377,0.000000
3839.078676,-12657.521608,222.061783,1685.410096
3839.079006,-9326.594869,-444.123565,766.095498
3839.079336,-8808.450710,-296.082377,0.000000
3839.079665,-8364.327145,296.082377,76.609550
3839.079995,-10881.027347,0.000000,995.924147
3839.080325,-11103.089130,296.082377,1838.629195
3839.080654,-9400.615463,370.102971,0.000000
3839.080984,-10510.924376,592.164754,0.000000
3839.081314,-10807.006753,222.061783,459.657299
3839.081644,-11547.212695,222.061783,153.219100
3839.081973,-10584.944971,370.102971,-842.705048
3839.082303,-9326.594869,-1036.288319,-1685.410096
3839.082633,-9178.553681,-370.102971,-536.266849
3839.082962,-8808.450710,-370.102971,1302.362347
3839.083292,-9178.553681,0.000000,1685.410096
3839.083622,-9326.594869,222.061783,459.657299
3839.083951,-10955.047942,148.041188,-459.657299
3839.084281,-10214.842000,-518.144159,0.000000
3839.084611,-9844.739029,-370.102971,1378.971896
3839.084940,-9844.739029,518.144159,2374.896044
3839.085270,-9918.759623,148.041188,1991.848295
3839.085600,-8956.491898,-666.185348,-766.095498
3839.085929,-7698.141797,-740.205942,-1225.752797
3839.086259,-9770.718434,148.041188,-229.828649
3839.086589,-10732.986159,962.267725,76.609550
3839.086919,-10955.047942,74.020594,-995.924147
3839.087248,-8364.327145,0.000000,-1378.971896
3839.087578,-8216.285956,0.000000,-612.876398
3839.087908,-10362.883188,444.123565,153.219100
3839.088237,-10732.986159,666.185348,-612.876398
3839.088567,-9770.718434,222.061783,-1302.362347
3839.088897,-8290.306550,888.247130,-842.705048
3839.089226,-10955.047942,148.041188,153.219100
3839.089556,-12583.501014,148.041188,842.705048
3839.089886,-10510.924376,-296.082377,-306.438199
3839.090215,-8808.450710,-888.247130,-1455.581446
3839.090545,-7994.224174,-740.205942,-1302.362347
3839.090875,-9474.636058,-740.205942,919.314598
3839.091204,-9326.594869,74.020594,1302.362347
3839.091534,-9104.533087,-370.102971,0.000000
3839.091864,-9548.656652,222.061783,153.219100
3839.092194,-10214.842000,-444.123565,1455.581446
3839.092523,-11473.192101,148.041188,1838.629195
3839.092853,-10510.924376,148.041188,1378.971896
3839.093183,-10436.903782,-888.247130,0.000000
3839.093512,-9400.615463,-222.061783,76.609550
3839.093842,-8808.450710,-962.267725,995.924147
3839.094172,-9326.594869,296.082377,1608.800546
3839.094501,-9178.553681,592.164754,612.876398
3839.094831,-9252.574275,962.267725,-1302.362347
3839.095161,-8660.409521,1110.308913,-1532.190996
3839.095490,-10436.903782,1258.350101,-1072.533697
3839.095820,-12139.377449,1406.391290,1225.752797
3839.096150,-11991.336260,222.061783,459.657299
3839.096480,-9326.594869,-370.102971,-536.266849
3839.096809,-7994.224174,-962.267725,-306.438199
3839.097139,-9992.780217,-296.082377,1149.143247
3839.097469,-10510.924376,518.144159,2068.457845
3839.097799,-10140.821405,-222.061783,689.485948
3839.098128,-8216.285956,0.000000,76.609550
3839.098458,-9178.553681,222.061783,1225.752797
3839.098788,-10658.965565,814.226536,2298.286494
3839.099118,-10732.986159,-148.041188,766.095498
3839.099447,-9104.533087,444.123565,-1225.752797
3839.099777,-8216.285956,-592.164754,-1225.752797
3839.100107,-10140.821405,-444.123565,1072.533697
3839.100437,-9696.697840,962.267725,2451.505594
3839.100767,-9918.759623,-148.041188,1762.019645
3839.101096,-8586.388927,592.164754,-306.438199
3839.101426,-8512.368333,74.020594,612.876398
3839.101756,-10584.944971,666.185348,2451.505594
3839.102086,-11325.150913,1258.350101,1991.848295
3839.102415,-11473.192101,592.164754,1149.143247
3839.102745,-8364.327145,296.082377,-536.266849
3839.103075,-8586.388927,592.164754,-689.485948
3839.103405,-10214.842000,666.185348,1378.971896
3839.103734,-10955.047942,444.123565,1532.190996
3839.104064,-10066.800811,1184.329507,-612.876398
3839.104394,-8438.347739,-74.020594,-2068.457845
3839.104724,-9992.780217,888.247130,-1072.533697
3839.105053,-11177.109724,888.247130,2298.286494
3839.105383,-11547.212695,518.144159,2221.676944
3839.105713,-9178.553681,518.144159,76.609550
3839.106043,-8882.471304,-148.041188,-536.266849
3839.106373,-10288.862594,148.041188,689.485948
3839.106702,-10732.986159,592.164754,919.314598
3839.107032,-10362.883188,296.082377,612.876398
3839.107362,-8660.409521,-222.061783,229.828649
3839.107692,-9030.512492,148.041188,1532.190996
3839.108021,-9400.615463,666.185348,2298.286494
3839.108351,-10658.965565,148.041188,689.485948
3839.108681,-9992.780217,-296.082377,-1302.362347
3839.109011,-8216.285956,296.082377,-1455.581446
3839.109340,-9622.677246,296.082377,76.609550
3839.109670,-10436.903782,666.185348,1991.848295
3839.110000,-10510.924376,296.082377,1225.752797
3839.110330,-8882.471304,518.144159,-383.047749
3839.110659,-8956.491898,74.020594,-2451.505594
3839.110989,-10066.800811,296.082377,-1072.533697
3839.111319,-11177.109724,518.144159,306.438199
3839.111649,-10881.027347,518.144159,383.047749
3839.111979,-10362.883188,518.144159,-995.924147
3839.112308,-9992.780217,-296.082377,-2528.115143
3839.112638,-9400.615463,-370.102971,-1838.629195
3839.112968,-8956.491898,-592.164754,-459.657299
3839.113298,-8290.306550,-814.226536,0.000000
3839.113627,-8290.306550,-1554.432478,153.219100
3839.113957,-9326.594869,-1110.308913,995.924147
3839.114287,-9770.718434,-518.144159,1378.971896
3839.114617,-10510.924376,-1184.329507,0.000000
3839.114946,-8438.347739,-814.226536,-2068.457845
3839.115276,-8734.430116,-148.041188,0.000000
3839.115606,-10362.883188,-962.267725,1378.971896
3839.115936,-10881.027347,-74.020594,1915.238745
3839.116265,-10584.944971,-962.267725,-383.047749
3839.116595,-9474.636058,-74.020594,-1915.238745
3839.116925,-9252.574275,-592.164754,-1455.581446
3839.117255,-9770.718434,0.000000,1532.190996
3839.117584,-10362.883188,444.123565,2911.162892
3839.117914,-10288.862594,1776.494261,1532.190996
3839.118244,-10362.883188,296.082377,-1455.581446
3839.118574,-11103.089130,0.000000,-2681.334243
3839.118904,-11103.089130,296.082377,-995.924147
3839.119233,-10807.006753,-592.164754,689.485948
3839.119563,-9548.656652,296.082377,76.609550
3839.119893,-8882.471304,-888.247130,76.609550
3839.120223,-8734.430116,-814.226536,153.219100
3839.120552,-9252.574275,-592.164754,153.219100
3839.120882,-10807.006753,-370.102971,306.438199
3839.121212,-10066.800811,74.020594,842.705048
3839.121542,-9474.636058,-592.164754,1149.143247
3839.121871,-9400.615463,-1036.288319,2757.943793
3839.122201,-9400.615463,-1332.370696,2757.943793
3839.122531,-9770.718434,-1036.288319,1532.190996
3839.122861,-9252.574275,-1332.370696,76.609550
3839.123190,-8956.491898,-518.144159,536.266849
3839.123520,-9474.636058,222.061783,2528.115143
3839.123850,-10066.800811,740.205942,1685.410096
3839.124180,-9030.512492,592.164754,536.266849
3839.124510,-8734.430116,740.205942,-766.095498
3839.124839,-10288.862594,740.205942,0.000000
3839.125169,-11103.089130,1480.411884,1455.581446
3839.125499,-11029.068536,888.247130,689.485948
3839.125829,-8956.491898,1702.473667,-612.876398
3839.126158,-9474.636058,1184.329507,-1608.800546
3839.126488,-11399.171507,1184.329507,-842.705048
3839.126818,-10658.965565,962.267725,306.438199
3839.127148,-10214.842000,518.144159,306.438199
3839.127477,-10066.800811,666.185348,459.657299
3839.127807,-10658.965565,370.102971,1149.143247
3839.128137,-9770.718434,1036.288319,2145.067394
3839.128467,-9474.636058,666.185348,536.266849
3839.128796,-9696.697840,592.164754,-536.266849
3839.129126,-9770.718434,444.123565,-1225.752797
3839.129456,-10140.821405,222.061783,0.000000
3839.129786,-9770.718434,518.144159,1991.848295
3839.130116,-9992.780217,296.082377,1762.019645
3839.130445,-9622.677246,814.226536,536.266849
3839.130775,-9474.636058,222.061783,-1225.752797
3839.131105,-8734.430116,888.247130,-995.924147
3839.131435,-8882.471304,592.164754,383.047749
3839.131764,-10362.883188,814.226536,1072.533697
3839.132094,-9548.656652,962.267725,229.828649
3839.132424,-8882.471304,74.020594,-919.314598
3839.132754,-9474.636058,1036.288319,-1532.190996
3839.133083,-11251.130318,0.000000,-995.924147
3839.133413,-10510.924376,518.144159,-1225.752797
3839.133743,-8364.327145,-370.102971,-1149.143247
3839.134073,-8586.388927,0.000000,-306.438199
3839.134402,-10362.883188,592.164754,1149.143247
3839.134732,-11843.295072,-296.082377,995.924147
3839.135062,-9178.553681,0.000000,-689.485948
3839.135392,-7920.203579,-444.123565,-1838.629195
3839.135721,-9770.718434,666.185348,-919.314598
3839.136051,-11177.109724,-666.185348,766.095498
3839.136381,-10214.842000,-148.041188,306.438199
3839.136711,-7698.141797,-1258.350101,-536.266849
3839.137041,-9252.574275,-1184.329507,-536.266849
3839.137370,-10140.821405,-1258.350101,1532.190996
3839.137700,-10362.883188,-1924.535449,2604.724693
3839.138030,-9400.615463,-666.185348,2451.505594
3839.138360,-9252.574275,-1332.370696,1302.362347
3839.138689,-9770.718434,-962.267725,919.314598
3839.139019,-9474.636058,-148.041188,995.924147
3839.139349,-11177.109724,-666.185348,1762.019645
3839.139679,-10510.924376,296.082377,1532.190996
3839.140008,-10362.883188,-370.102971,0.000000
3839.140338,-10140.821405,222.061783,-536.266849
3839.140668,-9104.533087,-962.267725,-1455.581446
3839.140998,-10732.986159,296.082377,0.000000
3839.141327,-10066.800811,-666.185348,76.609550
3839.141657,-10436.903782,-74.020594,-766.095498
3839.141987,-9104.533087,0.000000,-536.266849
3839.142317,-10214.842000,-666.185348,612.876398
3839.142647,-10955.047942,-74.020594,842.705048
3839.142976,-9844.739029,-1332.370696,-536.266849
3839.143306,-9696.697840,-666.185348,-1072.533697
3839.143636,-9326.594869,-666.185348,-766.095498
3839.143966,-9770.718434,-1628.453072,153.219100
3839.144295,-8586.388927,-1110.308913,1532.190996
3839.144625,-9178.553681,-1480.411884,995.924147
3839.144955,-8660.409521,-888.247130,1072.533697
3839.145285,-8660.409521,-592.164754,306.438199
3839.145614,-8808.450710,-222.061783,536.266849
3839.145944,-9178.553681,0.000000,383.047749
3839.146274,-10807.006753,148.041188,229.828649
3839.146604,-11103.089130,222.061783,0.000000
3839.146933,-10955.047942,518.144159,-306.438199
3839.147263,-8956.491898,666.185348,-1149.143247
3839.147593,-9030.512492,444.123565,-1302.362347
3839.147923,-9992.780217,1036.288319,-153.219100
3839.148252,-10140.821405,1036.288319,1072.533697
3839.148582,-9622.677246,1184.329507,1302.362347
3839.148912,-9622.677246,1036.288319,612.876398
3839.149242,-10732.986159,888.247130,919.314598
3839.149572,-10807.006753,1184.329507,459.657299
3839.149901,-9992.780217,296.082377,383.047749
3839.150231,-9918.759623,444.123565,229.828649
3839.150561,-10288.862594,444.123565,1149.143247
3839.150891,-10658.965565,666.185348,1991.848295
3839.151220,-9030.512492,592.164754,919.314598
3839.151550,-9030.512492,592.164754,766.095498
3839.151880,-9918.759623,1184.329507,1838.629195
3839.152210,-10140.821405,1036.288319,2298.286494
3839.152539,-9844.739029,962.267725,536.266849
3839.152869,-9252.574275,888.247130,842.705048
3839.153199,-9252.574275,888.247130,919.314598
3839.153529,-9622.677246,1332.370696,612.876398
3839.153858,-10807.006753,814.226536,0.000000
3839.154188,-9992.780217,1332.370696,-459.657299
3839.154518,-8512.368333,-74.020594,-459.657299
3839.154848,-8438.347739,444.123565,536.266849
3839.155178,-10066.800811,740.205942,2221.676944
3839.155507,-10732.986159,1184.329507,2374.896044
3839.155837,-10066.800811,1554.432478,229.828649
3839.156167,-9474.636058,592.164754,-1608.800546
3839.156497,-9622.677246,666.185348,-1685.410096
3839.156826,-10807.006753,888.247130,-229.828649
3839.157156,-11103.089130,962.267725,0.000000
3839.157486,-8808.450710,296.082377,-995.924147
3839.157816,-8364.327145,-370.102971,-2298.286494
3839.158145,-9696.697840,0.000000,-1838.629195
3839.158475,-12065.356855,0.000000,0.000000
3839.158805,-11621.233289,296.082377,689.485948
3839.159135,-8364.327145,-962.267725,-995.924147
3839.159464,-8660.409521,-1480.411884,-689.485948
3839.159794,-9178.553681,-1258.350101,1225.752797
3839.160124,-10214.842000,-1850.514855,2681.334243
3839.160454,-8734.430116,-370.102971,1762.019645
3839.160784,-9030.512492,-888.247130,689.485948
3839.161113,-9622.677246,74.020594,0.000000
3839.161443,-10584.944971,74.020594,0.000000
3839.161773,-11399.171507,-148.041188,-612.876398
3839.162103,-11103.089130,-1036.288319,-383.047749
3839.162432,-11177.109724,-1184.329507,-689.485948
3839.162762,-7920.203579,-1332.370696,0.000000
3839.163092,-7402.059420,-1332.370696,76.609550
3839.163422,-8586.388927,592.164754,229.828649
3839.163751,-10140.821405,-370.102971,0.000000
3839.164081,-11029.068536,740.205942,-459.657299
3839.164411,-9918.759623,0.000000,459.657299
3839.164741,-11843.295072,-296.082377,1302.362347
3839.165070,-10807.006753,-518.144159,919.314598
3839.165400,-9770.718434,-1628.453072,-536.266849
3839.165730,-7846.182985,-814.226536,-459.657299
3839.166060,-8660.409521,-1258.350101,76.609550
3839.166389,-10807.006753,-666.185348,766.095498
3839.166719,-9918.759623,-592.164754,1072.533697
3839.167049,-9252.574275,-1184.329507,229.828649
3839.167379,-8142.265362,-1110.308913,1225.752797
3839.167709,-10214.842000,-592.164754,1762.019645
3839.168038,-10510.924376,-222.061783,1838.629195
3839.168368,-9178.553681,-666.185348,153.219100
3839.168698,-9400.615463,370.102971,-766.095498
3839.169028,-10436.903782,74.020594,0.000000
3839.169357,-11843.295072,666.185348,919.314598
3839.169687,-10214.842000,666.185348,919.314598
3839.170017,-9400.615463,-148.041188,0.000000
3839.170347,-7772.162391,296.082377,-306.438199
3839.170676,-9548.656652,0.000000,1072.533697
3839.171006,-11473.192101,296.082377,919.314598
3839.171336,-10066.800811,814.226536,-689.485948
3839.171666,-9252.574275,444.123565,-1532.190996
3839.171995,-8660.409521,814.226536,-1378.971896
3839.172325,-10362.883188,888.247130,0.000000
3839.172655,-10140.821405,814.226536,1149.143247
3839.172985,-9622.677246,296.082377,0.000000
3839.173315,-9326.594869,740.205942,-536.266849
3839.173644,-8660.409521,-148.041188,0.000000
3839.173974,-10436.903782,592.164754,1225.752797
3839.174304,-10288.862594,444.123565,2451.505594
3839.174634,-11029.068536,370.102971,919.314598
3839.174963,-9104.533087,888.247130,-612.876398
3839.175293,-9030.512492,444.123565,-842.705048
3839.175623,-9918.759623,296.082377,689.485948
3839.175953,-10066.800811,444.123565,1072.533697
3839.176282,-9474.636058,518.144159,-153.219100
3839.176612,-8364.327145,740.205942,-689.485948
3839.176942,-9548.656652,592.164754,-383.047749
3839.177272,-11029.068536,1184.329507,1149.143247
3839.177601,-9622.677246,740.205942,766.095498
3839.177931,-9992.780217,1258.350101,-229.828649
3839.178261,-9474.636058,592.164754,0.000000
3839.178591,-10881.027347,74.020594,766.095498
3839.178921,-10436.903782,1258.350101,0.000000
3839.179250,-9770.718434,0.000000,-76.609550
3839.179580,-9474.636058,814.226536,383.047749
3839.179910,-9178.553681,0.000000,1225.752797
3839.180240,-9770.718434,888.247130,995.924147
3839.180569,-9474.636058,0.000000,-459.657299
3839.180899,-10955.047942,518.144159,-1608.800546
3839.181229,-9770.718434,592.164754,-1378.971896
3839.181559,-9918.759623,74.020594,-842.705048
3839.181888,-9400.615463,444.123565,919.314598
3839.182218,-10140.821405,0.000000,1302.362347
3839.182548,-10436.903782,740.205942,536.266849
3839.182878,-9400.615463,-814.226536,-536.266849
3839.183207,-9474.636058,-296.082377,76.609550
3839.183537,-9696.697840,-370.102971,1838.629195
3839.183867,-10807.006753,-444.123565,1915.238745
3839.184197,-9326.594869,-74.020594,995.924147
3839.184526,-8808.450710,-444.123565,766.095498
3839.184856,-8734.430116,444.123565,0.000000
3839.185186,-10214.842000,0.000000,-153.219100
3839.185516,-9770.718434,-222.061783,-306.438199
3839.185846,-8512.368333,-74.020594,-919.314598
3839.186175,-9770.718434,0.000000,0.000000
3839.186505,-10881.027347,148.041188,1532.190996
3839.186835,-10436.903782,-888.247130,0.000000
3839.187165,-9696.697840,0.000000,-919.314598
3839.187494,-9326.594869,-1110.308913,-1149.143247
3839.187824,-10732.986159,-1184.329507,459.657299
3839.188154,-9696.697840,-666.185348,1378.971896
3839.188484,-9844.739029,-1184.329507,1072.533697
3839.188813,-8660.409521,-592.164754,0.000000
3839.189143,-9178.553681,-740.205942,-1225.752797
3839.189473,-9770.718434,0.000000,0.000000
3839.189803,-9844.739029,-962.267725,-612.876398
3839.190132,-10510.924376,-592.164754,-536.266849
3839.190462,-10436.903782,-370.102971,0.000000
3839.190792,-11177.109724,-666.185348,766.095498
3839.191122,-10140.821405,-592.164754,0.000000
3839.191452,-8956.491898,-1776.494261,-919.314598
3839.191781,-8586.388927,-518.144159,-229.828649
3839.192111,-9770.718434,-444.123565,76.609550
3839.192441,-10066.800811,-666.185348,536.266849
3839.192771,-9400.615463,0.000000,306.438199
3839.193100,-9918.759623,0.000000,0.000000
3839.193430,-10214.842000,888.247130,-1225.752797
3839.193760,-11177.109724,0.000000,-1532.190996
3839.194090,-10658.965565,-962.267725,459.657299
3839.194419,-8734.430116,-592.164754,1915.238745
3839.194749,-9474.636058,0.000000,1302.362347
3839.195079,-9622.677246,-1036.288319,-536.266849
3839.195409,-9400.615463,-592.164754,-1608.800546
3839.195738,-7994.224174,-592.164754,-306.438199
3839.196068,-9326.594869,-444.123565,1225.752797
3839.196398,-10955.047942,518.144159,1838.629195
3839.196727,-11103.089130,74.020594,1455.581446
3839.197057,-9326.594869,-888.247130,153.219100
3839.197387,-8512.368333,0.000000,-229.828649
3839.197717,-10362.883188,740.205942,0.000000
3839.198046,-10732.986159,1036.288319,76.609550
3839.198376,-9252.574275,1036.288319,76.609550
3839.198706,-8438.347739,444.123565,459.657299
3839.199036,-9548.656652,888.247130,1378.971896
3839.199365,-12065.356855,962.267725,689.485948
3839.199695,-10658.965565,444.123565,689.485948
3839.200025,-8586.388927,296.082377,1072.533697
3839.200354,-8142.265362,1036.288319,1149.143247
3839.200684,-9622.677246,222.061783,1149.143247
3839.201014,-9992.780217,814.226536,842.705048
3839.201344,-9400.615463,888.247130,536.266849
3839.201673,-10288.862594,592.164754,0.000000
3839.202003,-9770.718434,1554.432478,0.000000
3839.202333,-9844.739029,740.205942,995.924147
3839.202662,-9770.718434,1184.329507,995.924147
3839.202992,-9992.780217,1258.350101,76.609550
3839.203322,-9992.780217,1332.370696,-919.314598
3839.203652,-9918.759623,592.164754,-459.657299
3839.203981,-9918.759623,814.226536,229.828649
3839.204311,-9770.718434,1036.288319,76.609550
3839.204641,-10362.883188,148.041188,-842.705048
3839.204970,-9548.656652,444.123565,-1378.971896
3839.205300,-8586.388927,74.020594,-612.876398
3839.205630,-9030.512492,1406.391290,306.438199
3839.205960,-9770.718434,74.020594,1225.752797
3839.206289,-10066.800811,444.123565,1455.581446
3839.206619,-8956.491898,296.082377,1072.533697
3839.206949,-10955.047942,296.082377,383.047749
3839.207278,-10658.965565,444.123565,76.609550
3839.207608,-9918.759623,74.020594,-306.438199
3839.207938,-8586.388927,296.082377,229.828649
3839.208268,-8734.430116,0.000000,689.485948
3839.208597,-10362.883188,296.082377,536.266849
3839.208927,-8956.491898,74.020594,-383.047749
3839.209257,-9400.615463,-148.041188,-995.924147
3839.209587,-9252.574275,888.247130,153.219100
3839.209916,-10584.944971,444.123565,1608.800546
3839.210246,-10658.965565,518.144159,1762.019645
3839.210576,-9252.574275,-296.082377,919.314598
3839.210905,-10362.883188,-296.082377,-306.438199
3839.211235,-9400.615463,-666.185348,-229.828649
3839.211565,-10658.965565,-222.061783,766.095498
3839.211895,-10288.862594,666.185348,1378.971896
3839.212224,-11325.150913,-444.123565,153.219100
3839.212554,-10658.965565,0.000000,-1149.143247
3839.212884,-8734.430116,-1480.411884,-1532.190996
3839.213213,-8882.471304,-518.144159,-919.314598
3839.213543,-8364.327145,-1480.411884,842.705048
3839.213873,-9696.697840,-888.247130,1302.362347
3839.214203,-8808.450710,-296.082377,1149.143247
3839.214532,-8808.450710,-444.123565,-689.485948
3839.214862,-10436.903782,222.061783,536.266849
3839.215192,-12435.459826,0.000000,612.876398
3839.215521,-12435.459826,-962.267725,1072.533697
3839.215851,-9474.636058,-740.205942,612.876398
3839.216181,-9104.533087,-962.267725,689.485948
3839.216511,-8068.244768,-592.164754,995.924147
3839.216840,-9252.574275,148.041188,153.219100
3839.217170,-9992.780217,370.102971,-1225.752797
3839.217500,-9696.697840,222.061783,-995.924147
3839.217830,-10510.924376,1184.329507,0.000000
3839.218159,-10732.986159,0.000000,612.876398
3839.218489,-11177.109724,74.020594,-536.266849
3839.218819,-9696.697840,0.000000,-2604.724693
3839.219148,-9178.553681,-666.185348,-2451.505594
3839.219478,-8660.409521,-592.164754,-919.314598
3839.219808,-10288.862594,74.020594,76.609550
3839.220138,-10362.883188,-444.123565,459.657299
3839.220467,-8734.430116,-888.247130,306.438199
3839.220797,-8512.368333,-666.185348,153.219100
3839.221127,-8586.388927,-444.123565,536.266849
3839.221456,-10362.883188,-518.144159,459.657299
3839.221786,-9844.739029,-592.164754,0.000000
3839.222116,-8364.327145,-888.247130,766.095498
3839.222446,-9326.594869,0.000000,1532.190996
3839.222775,-9992.780217,148.041188,1455.581446
3839.223105,-10510.924376,148.041188,-153.219100
3839.223435,-8364.327145,148.041188,-1532.190996
3839.223764,-8956.491898,148.041188,-919.314598
3839.224094,-9992.780217,962.267725,459.657299
3839.224424,-10214.842000,666.185348,842.705048
3839.224754,-9326.594869,1184.329507,842.705048
3839.225083,-9252.574275,1258.350101,-153.219100
3839.225413,-11325.150913,1332.370696,-1149.143247
3839.225743,-10214.842000,1184.329507,-383.047749
3839.226072,-10140.821405,1258.350101,1072.533697
3839.226402,-9918.759623,1776.494261,1838.629195
3839.226732,-10362.883188,962.267725,536.266849
3839.227062,-11103.089130,740.205942,76.609550
3839.227391,-9770.718434,962.267725,-383.047749
3839.227721,-10510.924376,370.102971,0.000000
3839.228051,-9770.718434,740.205942,-153.219100
3839.228381,-9252.574275,370.102971,-612.876398
3839.228710,-8660.409521,1480.411884,919.314598
3839.229040,-8438.347739,148.041188,0.000000
3839.229370,-9696.697840,0.000000,766.095498
3839.229699,-9918.759623,296.082377,1532.190996
3839.230029,-10881.027347,-444.123565,2451.505594
3839.230359,-9474.636058,592.164754,3294.210641
3839.230689,-9918.759623,-148.041188,3217.601092
3839.231018,-9474.636058,0.000000,2145.067394
3839.231348,-9770.718434,-74.020594,689.485948
3839.231678,-10288.862594,444.123565,842.705048
3839.232007,-9770.718434,814.226536,1915.238745
3839.232337,-10288.862594,962.267725,919.314598
3839.232667,-9622.677246,1110.308913,-459.657299
3839.232997,-10807.006753,296.082377,-1302.362347
3839.233326,-10658.965565,1628.453072,-689.485948
3839.233656,-11177.109724,74.020594,-459.657299
3839.233986,-10510.924376,370.102971,-1225.752797
3839.234315,-8956.491898,0.000000,-1225.752797
3839.234645,-9474.636058,74.020594,-995.924147
3839.234975,-9178.553681,-222.061783,-306.438199
3839.235305,-11399.171507,74.020594,919.314598
3839.235634,-11473.192101,-296.082377,995.924147
3839.235964,-9770.718434,-1184.329507,76.609550
3839.236294,-8364.327145,-1702.473667,-229.828649
3839.236623,-7624.121203,-1924.535449,459.657299
3839.236953,-9326.594869,-1776.494261,766.095498
3839.237283,-8586.388927,-592.164754,919.314598
3839.237613,-8364.327145,-1036.288319,76.609550
3839.237942,-8512.368333,222.061783,459.657299
3839.238272,-11103.089130,-740.205942,76.609550
3839.238602,-11991.336260,148.041188,459.657299
3839.238932,-9622.677246,-518.144159,-1608.800546
3839.239261,-8660.409521,-592.164754,-1838.629195
3839.239591,-7772.162391,-296.082377,-766.095498
3839.239921,-9918.759623,222.061783,842.705048
3839.240250,-10955.047942,444.123565,76.609550
3839.240580,-10362.883188,148.041188,-842.705048
3839.240910,-9474.636058,0.000000,-2451.505594
3839.241240,-9622.677246,74.020594,-1455.581446
3839.241569,-11029.068536,518.144159,689.485948
3839.241899,-10658.965565,666.185348,1149.143247
3839.242229,-9548.656652,148.041188,-459.657299
3839.242558,-9622.677246,296.082377,-1149.143247
3839.242888,-9992.780217,0.000000,0.000000
3839.243218,-10807.006753,-296.082377,383.047749
3839.243548,-9474.636058,-74.020594,76.609550
3839.243877,-9474.636058,-1258.350101,536.266849
3839.244207,-9474.636058,-1110.308913,2298.286494
3839.244537,-9474.636058,-666.185348,2298.286494
3839.244866,-8882.471304,-814.226536,1608.800546
3839.245196,-9252.574275,-518.144159,459.657299
3839.245526,-10288.862594,0.000000,919.314598
3839.245856,-10955.047942,-370.102971,1685.410096
3839.246185,-10362.883188,-962.267725,1532.190996
3839.246515,-8808.450710,0.000000,1225.752797
3839.246845,-9548.656652,0.000000,842.705048
3839.247175,-9622.677246,592.164754,229.828649
3839.247504,-9548.656652,148.041188,1149.143247
3839.247834,-9622.677246,592.164754,1762.019645
3839.248164,-9474.636058,1480.411884,76.609550
3839.248493,-10436.903782,1480.411884,-1915.238745
3839.248823,-10214.842000,666.185348,-1762.019645
3839.249153,-10288.862594,148.041188,0.000000
3839.249483,-10881.027347,74.020594,842.705048
3839.249812,-10288.862594,0.000000,689.485948
3839.250142,-9844.739029,370.102971,-536.266849
3839.250472,-7698.141797,-444.123565,-1072.533697
3839.250801,-9030.512492,148.041188,0.000000
3839.251131,-9844.739029,1332.370696,1302.362347
3839.251461,-10584.944971,370.102971,306.438199
3839.251791,-9474.636058,814.226536,0.000000
3839.252120,-9474.636058,-148.041188,459.657299
3839.252450,-10362.883188,0.000000,1225.752797
3839.252780,-10436.903782,0.000000,995.924147
3839.253109,-9992.780217,-666.185348,-689.485948
3839.253439,-8142.265362,-370.102971,229.828649
3839.253769,-8290.306550,518.144159,1225.752797
3839.254099,-9474.636058,1184.329507,919.314598
3839.254428,-10807.006753,888.247130,76.609550
3839.254758,-10436.903782,740.205942,-919.314598
3839.255088,-9696.697840,370.102971,-153.219100
3839.255417,-11177.109724,592.164754,459.657299
3839.255747,-10436.903782,962.267725,919.314598
3839.256077,-10214.842000,-370.102971,383.047749
3839.256407,-8142.265362,592.164754,-842.705048
3839.256736,-8808.450710,444.123565,-995.924147
3839.257066,-11399.171507,592.164754,0.000000
3839.257396,-11251.130318,888.247130,0.000000
3839.257726,-9622.677246,222.061783,-766.095498
3839.258055,-7402.059420,0.000000,-383.047749
3839.258385,-10807.006753,370.102971,-459.657299
3839.258715,-11473.192101,666.185348,-306.438199
3839.259044,-9326.594869,-962.267725,-995.924147
3839.259374,-7476.080014,-370.102971,-1455.581446
3839.259704,-8438.347739,-1184.329507,383.047749
3839.260034,-11621.233289,-888.247130,2528.115143
3839.260363,-10362.883188,0.000000,3217.601092
3839.260693,-9252.574275,-1258.350101,1225.752797
3839.261023,-8142.265362,-148.041188,-1149.143247
3839.261352,-9326.594869,-1628.453072,-842.705048
3839.261682,-10955.047942,-814.226536,2451.505594
3839.262012,-8882.471304,-962.267725,2374.896044
3839.262342,-9030.512492,0.000000,536.266849
3839.262671,-8586.388927,148.041188,-2298.286494
3839.263001,-9992.780217,370.102971,-1991.848295
3839.263331,-10584.944971,666.185348,-229.828649
3839.263660,-10584.944971,-296.082377,1378.971896
3839.263990,-11251.130318,740.205942,1455.581446
3839.264320,-10140.821405,148.041188,153.219100
3839.264650,-10362.883188,296.082377,-612.876398
3839.264979,-9474.636058,222.061783,-612.876398
3839.265309,-10214.842000,370.102971,-612.876398
3839.265639,-10732.986159,888.247130,-306.438199
3839.265968,-10066.800811,518.144159,-1225.752797
3839.266298,-9770.718434,0.000000,-459.657299
3839.266628,-10140.821405,0.000000,153.219100
3839.266958,-10807.006753,-814.226536,919.314598
3839.267287,-10362.883188,-1184.329507,459.657299
3839.267617,-9622.677246,-1480.411884,1149.143247
3839.267947,-8068.244768,-1036.288319,1762.019645
3839.268277,-8290.306550,-962.267725,1225.752797
3839.268606,-9400.615463,-518.144159,612.876398
3839.268936,-10066.800811,-370.102971,1072.533697
3839.269266,-10955.047942,-222.061783,1455.581446
3839.269595,-10807.006753,148.041188,1608.800546
3839.269925,-10436.903782,-296.082377,459.657299
3839.270255,-8512.368333,222.061783,-459.657299
3839.270585,-8438.347739,0.000000,-383.047749
3839.270914,-9548.656652,222.061783,-229.828649
3839.271244,-9918.759623,518.144159,766.095498
3839.271574,-10881.027347,518.144159,0.000000
3839.271903,-8956.491898,888.247130,-1072.533697
3839.272233,-9622.677246,296.082377,-842.705048
3839.272563,-11177.109724,814.226536,689.485948
3839.272893,-10807.006753,296.082377,1532.190996
3839.273222,-10214.842000,1110.308913,0.000000
3839.273552,-8364.327145,-74.020594,-2374.896044
3839.273882,-9178.553681,-518.144159,-2374.896044
3839.274211,-9696.697840,296.082377,229.828649
3839.274541,-10584.944971,-296.082377,1302.362347
3839.274871,-9992.780217,740.205942,536.266849
3839.275201,-8290.306550,-296.082377,-229.828649
3839.275530,-9400.615463,0.000000,0.000000
3839.275860,-9770.718434,296.082377,1072.533697
3839.276190,-11547.212695,148.041188,1762.019645
3839.276520,-10436.903782,148.041188,1455.581446
3839.276849,-9474.636058,222.061783,536.266849
3839.277179,-9326.594869,296.082377,612.876398
3839.277509,-9992.780217,74.020594,1072.533697
3839.277838,-9844.739029,592.164754,766.095498
3839.278168,-8290.306550,222.061783,229.828649
3839.278498,-9548.656652,1184.329507,-306.438199
3839.278828,-10436.903782,1184.329507,689.485948
3839.279157,-11177.109724,444.123565,689.485948
3839.279487,-9844.739029,1110.308913,0.000000
3839.279817,-10732.986159,814.226536,-459.657299
3839.280146,-11991.336260,222.061783,383.047749
3839.280476,-9696.697840,-296.082377,689.485948
3839.280806,-9622.677246,-370.102971,689.485948
3839.281136,-8438.347739,592.164754,306.438199
3839.281465,-9400.615463,0.000000,-536.266849
3839.281795,-9178.553681,518.144159,-919.314598
3839.282125,-9474.636058,74.020594,-995.924147
3839.282454,-10955.047942,148.041188,-383.047749
3839.282784,-10214.842000,-1184.329507,76.609550
3839.283114,-9474.636058,-1332.370696,919.314598
3839.283444,-7328.038826,-1258.350101,1685.410096
3839.283773,-8142.265362,-888.247130,1532.190996
3839.284103,-9178.553681,-592.164754,383.047749
3839.284433,-10066.800811,-518.144159,536.266849
3839.284762,-9548.656652,370.102971,1608.800546
3839.285092,-9030.512492,-592.164754,1685.410096
3839.285422,-10066.800811,1184.329507,1991.848295
3839.285752,-9844.739029,1110.308913,229.828649
3839.286081,-9844.739029,296.082377,-1608.800546
3839.286411,-9844.739029,740.205942,-1608.800546
3839.286741,-10066.800811,740.205942,153.219100
3839.287071,-11769.274478,1480.411884,1685.410096
3839.287400,-10362.883188,814.226536,0.000000
3839.287730,-9326.594869,666.185348,-1455.581446
3839.288060,-8512.368333,888.247130,-1225.752797
3839.288389,-10066.800811,1184.329507,153.219100
3839.288719,-10881.027347,1332.370696,1685.410096
3839.289049,-11103.089130,888.247130,2451.505594
3839.289379,-10214.842000,1184.329507,2911.162892
3839.289708,-9400.615463,370.102971,842.705048
3839.290038,-11325.150913,148.041188,229.828649
3839.290368,-10584.944971,370.102971,0.000000
3839.290697,-9104.533087,0.000000,0.000000
3839.291027,-7624.121203,666.185348,1532.190996
3839.291357,-7550.100608,74.020594,3140.991542
3839.291687,-8956.491898,1480.411884,3677.258390
3839.292016,-10214.842000,1184.329507,2451.505594
3839.292346,-10066.800811,296.082377,1302.362347
3839.292676,-9252.574275,814.226536,2451.505594
3839.293005,-9474.636058,518.144159,3524.039291
3839.293335,-9400.615463,1628.453072,4826.401637
3839.293665,-9252.574275,2368.659014,4213.525239
3839.293995,-10436.903782,3034.844362,1991.848295
3839.294324,-10288.862594,3552.988522,383.047749
3839.294654,-10510.924376,2960.823768,459.657299
3839.294984,-10732.986159,3552.988522,1762.019645
3839.295313,-10658.965565,3034.844362,2068.457845
3839.295643,-9696.697840,1924.535449,1532.190996
3839.295973,-8438.347739,1184.329507,1838.629195
3839.296303,-7772.162391,1554.432478,2068.457845
3839.296632,-9474.636058,1184.329507,3217.601092
3839.296962,-9474.636058,2738.761985,2834.553343
3839.297292,-9104.533087,1998.556043,3983.696590
3839.297622,-10510.924376,3256.906145,3524.039291
3839.297951,-11621.233289,2220.617826,2604.724693
3839.298281,-11547.212695,2294.638420,1532.190996
3839.298611,-9770.718434,2294.638420,76.609550
3839.298941,-7698.141797,2072.576638,766.095498
3839.299271,-8882.471304,3034.844362,2987.772442
3839.299600,-8882.471304,3330.926739,3140.991542
3839.299930,-9252.574275,3034.844362,2604.724693
3839.300260,-9918.759623,3330.926739,229.828649
3839.300590,-10732.986159,3552.988522,1608.800546
3839.300920,-12879.583391,3478.967927,3217.601092
3839.301249,-11621.233289,4219.173869,2451.505594
3839.301579,-9918.759623,2738.761985,1762.019645
3839.301909,-9400.615463,3034.844362,1838.629195
3839.302239,-9326.594869,3627.009116,1455.581446
3839.302568,-9696.697840,2664.741391,3294.210641
3839.302898,-9696.697840,2812.782580,3907.087040
3839.303228,-8586.388927,2072.576638,3983.696590
3839.303558,-7994.224174,1184.329507,4290.134789
3839.303888,-8142.265362,2368.659014,4213.525239
3839.304217,-9030.512492,222.061783,3447.429741
3839.304547,-9548.656652,2072.576638,4673.182538
3839.304877,-10214.842000,4071.132681,2604.724693
3839.305207,-10510.924376,3034.844362,1915.238745
3839.305537,-10214.842000,3478.967927,1149.143247
3839.305866,-12139.377449,3923.091493,1838.629195
3839.306196,-11325.150913,2442.679609,2911.162892
3839.306526,-10066.800811,2368.659014,1608.800546
3839.306856,-9326.594869,1628.453072,1685.410096
3839.307185,-8142.265362,1036.288319,2757.943793
3839.307515,-9030.512492,1776.494261,1991.848295
3839.307845,-8512.368333,1184.329507,1685.410096
3839.308175,-8364.327145,370.102971,919.314598
3839.308505,-8956.491898,2146.597232,2681.334243
3839.308834,-10732.986159,1184.329507,4290.134789
3839.309164,-11399.171507,1702.473667,4213.525239
3839.309494,-9178.553681,1998.556043,2374.896044
3839.309824,-8364.327145,2442.679609,2528.115143
3839.310153,-10140.821405,2590.720797,3294.210641
3839.310483,-10362.883188,2590.720797,2681.334243
3839.310813,-9400.615463,2220.617826,2374.896044
3839.311143,-10658.965565,2442.679609,842.705048
3839.311473,-10436.903782,1998.556043,76.609550
3839.311802,-10362.883188,2590.720797,0.000000
3839.312132,-9918.759623,2664.741391,-306.438199
3839.312462,-8956.491898,2738.761985,0.000000
3839.312792,-8216.285956,2960.823768,536.266849
3839.313122,-9992.780217,2072.576638,1762.019645
3839.313451,-10881.027347,1850.514855,4213.525239
3839.313781,-10732.986159,592.164754,4903.011187
3839.314111,-10214.842000,518.144159,3753.867940
3839.314441,-9326.594869,-814.226536,3447.429741
3839.314770,-8142.265362,148.041188,3140.991542
3839.315100,-7772.162391,814.226536,3677.258390
3839.315430,-8364.327145,2368.659014,3447.429741
3839.315760,-9474.636058,3404.947333,2451.505594
3839.316090,-11103.089130,4441.235652,995.924147
3839.316419,-12509.480420,4441.235652,1302.362347
3839.316749,-12583.501014,2960.823768,689.485948
3839.317079,-10732.986159,2294.638420,919.314598
3839.317409,-9770.718434,1258.350101,1072.533697
3839.317739,-9104.533087,740.205942,1532.190996
3839.318068,-9104.533087,296.082377,3294.210641
3839.318398,-7550.100608,1406.391290,4060.306139
3839.318728,-7994.224174,1628.453072,3217.601092
3839.319058,-8882.471304,2590.720797,4060.306139
3839.319387,-11029.068536,2590.720797,3677.258390
3839.319717,-10955.047942,2590.720797,3140.991542
3839.320047,-10658.965565,2072.576638,4060.306139
3839.320377,-11029.068536,1702.473667,3140.991542
3839.320707,-11769.274478,1110.308913,2681.334243
3839.321036,-9992.780217,1924.535449,2451.505594
3839.321366,-8734.430116,1332.370696,995.924147
3839.321696,-9030.512492,2294.638420,536.266849
3839.322026,-9030.512492,2220.617826,-383.047749
3839.322356,-8734.430116,2368.659014,689.485948
3839.322685,-7994.224174,2294.638420,306.438199
3839.323015,-7846.182985,1850.514855,1532.190996
3839.323345,-8956.491898,2442.679609,2911.162892
3839.323675,-10214.842000,1924.535449,3524.039291
3839.324004,-11177.109724,2812.782580,2451.505594
3839.324334,-10955.047942,1554.432478,3064.381992
3839.324664,-10732.986159,1332.370696,3447.429741
3839.324994,-9844.739029,2442.679609,3294.210641
3839.325324,-10140.821405,3034.844362,3524.039291
3839.325653,-10510.924376,3552.988522,2681.334243
3839.325983,-8882.471304,3108.864956,153.219100
3839.326313,-8438.347739,2590.720797,-612.876398
3839.326643,-9992.780217,3108.864956,153.219100
3839.326973,-10436.903782,3034.844362,1915.238745
3839.327302,-10362.883188,2294.638420,2757.943793
3839.327632,-9030.512492,2738.761985,1532.190996
3839.327962,-8364.327145,1850.514855,1838.629195
3839.328292,-10288.862594,2220.617826,2528.115143
3839.328621,-11103.089130,2812.782580,3983.696590
3839.328951,-10214.842000,2294.638420,5669.106685
3839.329281,-10140.821405,3627.009116,5515.887586
3839.329611,-10510.924376,4145.153275,4060.306139
3839.329941,-10584.944971,2886.803174,2604.724693
3839.330270,-10288.862594,3404.947333,842.705048
3839.330600,-9548.656652,2368.659014,153.219100
3839.330930,-8956.491898,1776.494261,1991.848295
3839.331260,-8438.347739,2886.803174,2528.115143
3839.331590,-9400.615463,2294.638420,2987.772442
3839.331919,-8808.450710,2442.679609,1302.362347
3839.332249,-9104.533087,2294.638420,-459.657299
3839.332579,-9178.553681,1628.453072,153.219100
3839.332909,-9474.636058,2146.597232,2451.505594
3839.333238,-9252.574275,1924.535449,5132.839837
3839.333568,-8956.491898,1406.391290,6971.469032
3839.333898,-9548.656652,2664.741391,5439.278036
3839.334228,-10140.821405,2368.659014,1685.410096
3839.334558,-11103.089130,2442.679609,229.828649
3839.334887,-11473.192101,2738.761985,766.095498
3839.335217,-9844.739029,1924.535449,1991.848295
3839.335547,-9696.697840,2294.638420,2604.724693
3839.335877,-9696.697840,1850.514855,1302.362347
3839.336207,-9030.512492,1184.329507,689.485948
3839.336536,-8660.409521,2072.576638,0.000000
3839.336866,-8882.471304,2368.659014,153.219100
3839.337196,-9622.677246,2220.617826,1762.019645
3839.337526,-10807.006753,2590.720797,3064.381992
3839.337855,-11103.089130,1776.494261,3217.601092
3839.338185,-10288.862594,2220.617826,2681.334243
3839.338515,-10955.047942,1406.391290,2298.286494
3839.338845,-11399.171507,888.247130,2757.943793
3839.339175,-10584.944971,1554.432478,3677.258390
3839.339504,-9104.533087,2072.576638,3140.991542
3839.339834,-8586.388927,1924.535449,2451.505594
3839.340164,-9252.574275,2220.617826,2221.676944
3839.340494,-10288.862594,2590.720797,1762.019645
3839.340824,-10436.903782,2886.803174,2145.067394
3839.341153,-10658.965565,2812.782580,689.485948
3839.341483,-10955.047942,1332.370696,-689.485948
3839.341813,-10658.965565,1332.370696,0.000000
3839.342143,-9104.533087,666.185348,919.314598
3839.342472,-7920.203579,592.164754,1915.238745
3839.342802,-7328.038826,444.123565,4366.744339
3839.343132,-7476.080014,814.226536,4443.353888
3839.343462,-8068.244768,1554.432478,3524.039291
3839.343792,-8956.491898,2886.803174,2145.067394
3839.344121,-10658.965565,2442.679609,1838.629195
3839.344451,-11547.212695,3034.844362,2451.505594
3839.344781,-11547.212695,2664.741391,3140.991542
3839.345111,-10881.027347,1776.494261,2757.943793
3839.345440,-9918.759623,1776.494261,1225.752797
3839.345770,-8882.471304,1628.453072,229.828649
3839.346100,-9400.615463,1850.514855,306.438199
3839.346430,-9030.512492,2516.700203,2221.676944
3839.346760,-8438.347739,2442.679609,3370.820191
3839.347089,-8660.409521,2812.782580,3140.991542
3839.347419,-9770.718434,2664.741391,2221.676944
3839.347749,-10881.027347,2072.576638,919.314598
3839.348079,-11251.130318,1998.556043,1685.410096
3839.348409,-11251.130318,1554.432478,2834.553343
3839.348738,-10436.903782,1776.494261,3907.087040
3839.349068,-9844.739029,2146.597232,3907.087040
3839.349398,-9400.615463,1924.535449,3294.210641
3839.349728,-9252.574275,2442.679609,1838.629195
3839.350057,-9400.615463,2960.823768,1532.190996
3839.350387,-10658.965565,2886.803174,1455.581446
3839.350717,-10807.006753,3182.885551,2145.067394
3839.351047,-10436.903782,2590.720797,2451.505594
3839.351377,-10807.006753,2368.659014,1685.410096
3839.351706,-9844.739029,1776.494261,612.876398
3839.352036,-9400.615463,1110.308913,76.609550
3839.352366,-9252.574275,518.144159,1455.581446
3839.352696,-9918.759623,888.247130,2451.505594
3839.353026,-10066.800811,814.226536,3524.039291
3839.353355,-8956.491898,888.247130,3370.820191
3839.353685,-9104.533087,888.247130,2145.067394
3839.354015,-9400.615463,666.185348,1532.190996
3839.354345,-9326.594869,814.226536,1072.533697
3839.354674,-9252.574275,740.205942,1532.190996
3839.355004,-8956.491898,518.144159,1991.848295
3839.355334,-9474.636058,1110.308913,1455.581446
3839.355664,-9548.656652,1110.308913,1225.752797
3839.355994,-9844.739029,888.247130,689.485948
3839.356323,-9696.697840,1184.329507,612.876398
3839.356653,-9696.697840,1480.411884,612.876398
3839.356983,-9548.656652,962.267725,1685.410096
3839.357313,-9474.636058,1110.308913,1838.629195
3839.357643,-9622.677246,814.226536,1608.800546
3839.357972,-9548.656652,1036.288319,2068.457845
3839.358302,-9548.656652,444.123565,1532.190996
3839.358632,-8808.450710,74.020594,1991.848295
3839.358962,-8956.491898,666.185348,2834.553343
3839.359291,-9400.615463,1184.329507,4060.306139
3839.359621,-9696.697840,1924.535449,4290.134789
3839.359951,-10140.821405,2368.659014,3753.867940
3839.360281,-11103.089130,2812.782580,2757.943793
3839.360611,-11769.274478,2812.782580,1991.848295
3839.360940,-11399.171507,2738.761985,1685.410096
3839.361270,-11029.068536,2442.679609,1915.238745
3839.361600,-9918.759623,2146.597232,2374.896044
3839.361930,-9030.512492,1850.514855,2911.162892
3839.362260,-8512.368333,1776.494261,4136.915689
3839.362589,-8734.430116,2442.679609,4213.525239
3839.362919,-9400.615463,3034.844362,4366.744339
3839.363249,-10436.903782,3404.947333,4366.744339
3839.363579,-10955.047942,2960.823768,3907.087040
3839.363908,-11325.150913,3256.906145,3140.991542
3839.364238,-10881.027347,2812.782580,3294.210641
3839.364568,-10732.986159,2294.638420,4213.525239
3839.364898,-9474.636058,2590.720797,3907.087040
3839.365228,-8734.430116,3182.885551,3140.991542
3839.365557,-8512.368333,2960.823768,1608.800546
3839.365887,-7994.224174,3478.967927,1915.238745
3839.366217,-8882.471304,4293.194464,3217.601092
3839.366547,-9178.553681,4589.276840,3753.867940
3839.366877,-9548.656652,4515.256246,4136.915689
3839.367206,-9770.718434,4367.215058,3524.039291
3839.367536,-10807.006753,4663.297435,2528.115143
3839.367866,-11103.089130,4959.379811,2145.067394
3839.368196,-10881.027347,4367.215058,2145.067394
3839.368525,-9918.759623,4515.256246,2604.724693
3839.368855,-9252.574275,4145.153275,2911.162892
3839.369185,-9474.636058,3478.967927,2451.505594
3839.369515,-9104.533087,3997.112087,1838.629195
3839.369845,-9104.533087,3404.947333,1378.971896
3839.370174,-8068.244768,3552.988522,1225.752797
3839.370504,-7772.162391,3701.029710,2374.896044
3839.370834,-9252.574275,4811.338623,2834.553343
3839.371164,-10732.986159,4885.359217,3064.381992
3839.371494,-11325.150913,5255.462188,1532.190996
3839.371823,-11621.233289,4589.276840,306.438199
3839.372153,-11325.150913,4811.338623,383.047749
3839.372483,-11473.192101,3849.070898,1225.752797
3839.372813,-10584.944971,3404.947333,2834.553343
3839.373142,-8956.491898,3182.885551,2604.724693
3839.373472,-7772.162391,2664.741391,1072.533697
3839.373802,-7772.162391,2590.720797,383.047749
3839.374132,-8956.491898,2960.823768,383.047749
3839.374462,-9104.533087,3182.885551,1378.971896
3839.374791,-9548.656652,3404.947333,2145.067394
3839.375121,-10066.800811,2812.782580,2451.505594
3839.375451,-10955.047942,2590.720797,2221.676944
3839.375781,-11547.212695,2146.597232,1455.581446
3839.376111,-10955.047942,1258.350101,689.485948
3839.376440,-9696.697840,1702.473667,2145.067394
3839.376770,-8734.430116,0.000000,3064.381992
3839.377100,-9622.677246,814.226536,3064.381992
3839.377430,-6587.832884,1110.308913,2757.943793
3839.377759,-9474.636058,518.144159,1302.362347
3839.378089,-10288.862594,1776.494261,76.609550
3839.378419,-9622.677246,1776.494261,689.485948
3839.378749,-10214.842000,1480.411884,2987.772442
3839.379079,-11029.068536,1184.329507,3294.210641
3839.379408,-11103.089130,1036.288319,2451.505594
3839.379738,-10140.821405,-444.123565,1762.019645
3839.380068,-10955.047942,-148.041188,1608.800546
3839.380398,-10436.903782,-1480.411884,3370.820191
3839.380728,-9844.739029,-740.205942,3064.381992
3839.381057,-8882.471304,-962.267725,3370.820191
3839.381387,-7920.203579,-1332.370696,2145.067394
3839.381717,-8068.244768,0.000000,1532.190996
3839.382047,-9992.780217,148.041188,1225.752797
3839.382376,-11621.233289,-592.164754,1455.581446
3839.382706,-9844.739029,-1110.308913,766.095498
3839.383036,-9252.574275,-1184.329507,2145.067394
3839.383366,-10658.965565,-962.267725,3370.820191
3839.383696,-10140.821405,-1184.329507,2987.772442
3839.384025,-9104.533087,-1480.411884,2374.896044
3839.384355,-8068.244768,-814.226536,1378.971896
3839.384685,-8660.409521,74.020594,2374.896044
3839.385015,-9474.636058,518.144159,4519.963438
3839.385344,-10955.047942,1036.288319,3600.648841
3839.385674,-10066.800811,814.226536,2145.067394
3839.386004,-10140.821405,592.164754,1302.362347
3839.386334,-10955.047942,962.267725,1608.800546
3839.386664,-10510.924376,814.226536,2451.505594
3839.386993,-9696.697840,1184.329507,3064.381992
3839.387323,-8216.285956,1110.308913,2757.943793
3839.387653,-7772.162391,1554.432478,2528.115143
3839.387983,-9474.636058,2368.659014,2528.115143
3839.388313,-10881.027347,2590.720797,2681.334243
3839.388642,-10436.903782,2442.679609,3907.087040
3839.388972,-10288.862594,3034.844362,4213.525239
3839.389302,-9992.780217,3478.967927,4826.401637
3839.389632,-10436.903782,3552.988522,4290.134789
3839.389961,-10140.821405,4589.276840,3064.381992
3839.390291,-9992.780217,4663.297435,2068.457845
3839.390621,-10732.986159,5033.400406,1685.410096
3839.390951,-10732.986159,4811.338623,1762.019645
3839.391281,-11029.068536,4515.256246,3753.867940
3839.391610,-10140.821405,4367.215058,3907.087040
3839.391940,-8734.430116,3923.091493,2451.505594
3839.392270,-8142.265362,3701.029710,1685.410096
3839.392600,-7698.141797,4145.153275,1838.629195
3839.392930,-8808.450710,4885.359217,3140.991542
3839.393259,-9770.718434,5181.441594,3830.477490
3839.393589,-11251.130318,5255.462188,2681.334243
3839.393919,-11843.295072,4885.359217,2604.724693
3839.394249,-11399.171507,4293.194464,1685.410096
3839.394578,-11473.192101,4367.215058,919.314598
3839.394908,-10362.883188,2812.782580,536.266849
3839.395238,-7846.182985,3330.926739,76.609550
3839.395568,-6957.935855,3330.926739,76.609550
3839.395898,-7179.997637,3478.967927,1532.190996
3839.396227,-8808.450710,3404.947333,2068.457845
3839.396557,-9696.697840,3256.906145,1685.410096
3839.396887,-9326.594869,2960.823768,766.095498
3839.397217,-8438.347739,3182.885551,919.314598
3839.397546,-8290.306550,3256.906145,2298.286494
3839.397876,-9548.656652,3552.988522,3370.820191
3839.398206,-11029.068536,3478.967927,3370.820191
3839.398536,-10510.924376,3478.967927,3217.601092
3839.398866,-11251.130318,3923.091493,1838.629195
3839.399195,-11843.295072,3997.112087,995.924147
3839.399525,-10436.903782,3478.967927,-306.438199
3839.399855,-9696.697840,3701.029710,-459.657299
3839.400185,-8068.244768,2664.741391,-536.266849
3839.400514,-8142.265362,3108.864956,1225.752797
3839.400844,-8808.450710,2812.782580,1991.848295
3839.401174,-9400.615463,2442.679609,2528.115143
3839.401504,-9696.697840,2368.659014,2987.772442
3839.401833,-10807.006753,1628.453072,3830.477490
3839.402163,-11621.233289,1702.473667,4519.963438
3839.402493,-11769.274478,1776.494261,5439.278036
3839.402823,-11177.109724,592.164754,3447.429741
3839.403153,-9400.615463,518.144159,3064.381992
3839.403482,-9326.594869,888.247130,2604.724693
3839.403812,-11029.068536,296.082377,2145.067394
3839.404142,-10955.047942,74.020594,842.705048
3839.404472,-9844.739029,0.000000,689.485948
3839.404801,-8734.430116,-814.226536,1532.190996
3839.405131,-8364.327145,-370.102971,1532.190996
3839.405461,-7994.224174,-1850.514855,2451.505594
3839.405791,-9104.533087,-592.164754,2987.772442
3839.406121,-9548.656652,-888.247130,3140.991542
3839.406450,-10807.006753,-1702.473667,4596.572988
3839.406780,-11251.130318,-1036.288319,6511.811733
3839.407110,-9474.636058,-1332.370696,7967.393179
3839.407440,-9474.636058,-518.144159,6894.859482
3839.407769,-9178.553681,370.102971,2451.505594
3839.408099,-10436.903782,592.164754,842.705048
3839.408429,-10807.006753,2294.638420,1149.143247
3839.408759,-10658.965565,2294.638420,689.485948
3839.409088,-10807.006753,1332.370696,919.314598
3839.409418,-9844.739029,1332.370696,1378.971896
3839.409748,-8734.430116,-370.102971,1072.533697
3839.410078,-8216.285956,-1110.308913,2298.286494
3839.410408,-8586.388927,-222.061783,2068.457845
3839.410737,-9252.574275,148.041188,2757.943793
3839.411067,-9474.636058,740.205942,3217.601092
3839.411397,-9548.656652,1850.514855,2528.115143
3839.411727,-11547.212695,2294.638420,1838.629195
3839.412056,-12435.459826,2886.803174,-459.657299
3839.412386,-12953.603985,1184.329507,-2834.553343
3839.412716,-11177.109724,592.164754,-2528.115143
3839.413046,-9178.553681,1036.288319,-1608.800546
3839.413375,-9252.574275,1184.329507,-689.485948
3839.413705,-8068.244768,1554.432478,-2068.457845
3839.414035,-7698.141797,814.226536,-3907.087040
3839.414365,-7476.080014,1332.370696,-3907.087040
3839.414695,-8808.450710,1480.411884,-1685.410096
3839.415024,-11325.150913,1184.329507,766.095498
3839.415354,-10362.883188,1332.370696,2145.067394
3839.415684,-8956.491898,370.102971,1072.533697
3839.416014,-9178.553681,0.000000,1072.533697
3839.416343,-9844.739029,740.205942,1608.800546
3839.416673,-8734.430116,592.164754,2374.896044
3839.417003,-7328.038826,296.082377,2987.772442
3839.417333,-8068.244768,740.205942,3600.648841
3839.417663,-10584.944971,962.267725,3907.087040
3839.417992,-10362.883188,1406.391290,1838.629195
3839.418322,-9252.574275,1850.514855,-229.828649
3839.418652,-8290.306550,1776.494261,-995.924147
3839.418982,-9326.594869,3478.967927,229.828649
3839.419311,-11991.336260,4293.194464,-229.828649
3839.419641,-13175.665768,4071.132681,-2451.505594
3839.419971,-11843.295072,3997.112087,-4290.134789
3839.420301,-11473.192101,2072.576638,-4060.306139
3839.420630,-11991.336260,1628.453072,-1455.581446
3839.420960,-10214.842000,740.205942,0.000000
3839.421290,-7550.100608,444.123565,1302.362347
3839.421620,-7476.080014,962.267725,76.609550
3839.421950,-9252.574275,814.226536,-1455.581446
3839.422279,-10881.027347,962.267725,-1378.971896
3839.422609,-11917.315666,518.144159,0.000000
3839.422939,-10658.965565,-148.041188,2451.505594
3839.423269,-8586.388927,-962.267725,3370.820191
3839.423598,-8734.430116,-1924.535449,2834.553343
3839.423928,-8142.265362,-2442.679609,1838.629195
3839.424258,-7698.141797,-1998.556043,1991.848295
3839.424588,-7698.141797,-1406.391290,2221.676944
3839.424917,-8512.368333,-1258.350101,1225.752797
3839.425247,-8586.388927,0.000000,2068.457845
3839.425577,-9548.656652,222.061783,1915.238745
3839.425907,-10066.800811,518.144159,842.705048
3839.426237,-11251.130318,962.267725,-919.314598
3839.426566,-13027.624579,592.164754,-383.047749
3839.426896,-11621.233289,888.247130,1685.410096
3839.427226,-11991.336260,1850.514855,1532.190996
3839.427556,-11769.274478,0.000000,-1225.752797
3839.427885,-10658.965565,-814.226536,-3064.381992
3839.428215,-9696.697840,-1332.370696,-1991.848295
3839.428545,-9622.677246,-1258.350101,0.000000
3839.428875,-9622.677246,-1258.350101,1302.362347
3839.429205,-8882.471304,-1628.453072,1455.581446
3839.429534,-8290.306550,-2146.597232,-536.266849
3839.429864,-8290.306550,-1924.535449,-306.438199
3839.430194,-10584.944971,-2146.597232,919.314598
3839.430524,-10436.903782,-2368.659014,2528.115143
3839.430853,-8438.347739,-3182.885551,3370.820191
3839.431183,-7994.224174,-2812.782580,3753.867940
3839.431513,-9474.636058,-2072.576638,3370.820191
3839.431843,-10658.965565,-2146.597232,1762.019645
3839.432172,-8512.368333,-1480.411884,-459.657299
3839.432502,-7179.997637,-740.205942,-536.266849
3839.432832,-9178.553681,592.164754,612.876398
3839.433162,-10807.006753,1184.329507,383.047749
3839.433492,-11547.212695,1258.350101,-229.828649
3839.433821,-11547.212695,592.164754,-1915.238745
3839.434151,-10955.047942,1184.329507,-3370.820191
3839.434481,-10140.821405,296.082377,-2528.115143
3839.434811,-10288.862594,1184.329507,-1838.629195
3839.435140,-9992.780217,1258.350101,-919.314598
3839.435470,-10955.047942,666.185348,-1378.971896
3839.435800,-11251.130318,518.144159,-2911.162892
3839.436130,-10288.862594,296.082377,-3064.381992
3839.436459,-9918.759623,296.082377,-1762.019645
3839.436789,-9992.780217,-444.123565,-689.485948
3839.437119,-7994.224174,-1924.535449,-1532.190996
3839.437449,-5921.647536,-2664.741391,-1608.800546
3839.437779,-7328.038826,-1998.556043,536.266849
3839.438108,-8142.265362,-1850.514855,3677.258390
3839.438438,-9030.512492,-1258.350101,4443.353888
3839.438768,-9844.739029,0.000000,2834.553343
3839.439098,-9844.739029,518.144159,2298.286494
3839.439427,-11325.150913,0.000000,1225.752797
3839.439757,-10658.965565,370.102971,766.095498
3839.440087,-9030.512492,148.041188,1532.190996
3839.440417,-8882.471304,592.164754,2374.896044
3839.440747,-10732.986159,962.267725,1915.238745
3839.441076,-10658.965565,1480.411884,76.609550
3839.441406,-9326.594869,2294.638420,-2604.724693
3839.441736,-9622.677246,3552.988522,-3907.087040
3839.442066,-12583.501014,4145.153275,-1302.362347
3839.442395,-13545.768739,3330.926739,-536.266849
3839.442725,-11843.295072,3108.864956,-536.266849
3839.443055,-10288.862594,814.226536,-1838.629195
3839.443385,-10881.027347,370.102971,-1915.238745
3839.443714,-10362.883188,-222.061783,-459.657299
3839.444044,-9548.656652,-1184.329507,766.095498
3839.444374,-8660.409521,-222.061783,-153.219100
3839.444704,-6809.894666,-1998.556043,-612.876398
3839.445034,-6439.791695,-2294.638420,0.000000
3839.445363,-6069.688724,-2146.597232,1762.019645
3839.445693,-7402.059420,-1850.514855,3217.601092
3839.446023,-8882.471304,-1036.288319,3677.258390
3839.446353,-9622.677246,-518.144159,3677.258390
3839.446682,-11029.068536,0.000000,2221.676944
3839.447012,-10214.842000,148.041188,-229.828649
3839.447342,-10140.821405,148.041188,-76.609550
3839.447672,-10510.924376,518.144159,1608.800546
3839.448001,-9992.780217,1110.308913,2374.896044
3839.448331,-9548.656652,1406.391290,842.705048
3839.448661,-9474.636058,1702.473667,-995.924147
3839.448991,-9474.636058,2812.782580,-2604.724693
3839.449321,-10807.006753,3997.112087,-2298.286494
3839.449650,-13693.809927,4071.132681,-2834.553343
3839.449980,-12361.439231,2960.823768,-2145.067394
3839.450310,-10288.862594,518.144159,-1455.581446
3839.450640,-10066.800811,666.185348,-1302.362347
3839.450969,-11177.109724,-518.144159,383.047749
3839.451299,-11399.171507,-1036.288319,1685.410096
3839.451629,-10881.027347,-1036.288319,2068.457845
3839.451959,-10732.986159,-814.226536,1991.848295
3839.452288,-9474.636058,-2590.720797,-766.095498
3839.452618,-6291.750507,-3330.926739,-1225.752797
3839.452948,-5625.565159,-3182.885551,1915.238745
3839.453278,-7105.977043,-2146.597232,3907.087040
3839.453608,-8808.450710,-962.267725,3370.820191
3839.453937,-8808.450710,-148.041188,995.924147
3839.454267,-9030.512492,370.102971,-1302.362347
3839.454597,-11473.192101,444.123565,-1378.971896
3839.454927,-13249.686362,0.000000,-842.705048
3839.455256,-11325.150913,-1184.329507,153.219100
3839.455586,-8216.285956,-666.185348,1378.971896
3839.455916,-8734.430116,-222.061783,2221.676944
3839.456246,-10214.842000,296.082377,1608.800546
3839.456576,-9548.656652,1184.329507,-1532.190996
3839.456905,-8290.306550,1776.494261,-3753.867940
3839.457235,-10066.800811,2590.720797,-3983.696590
3839.457565,-12509.480420,2442.679609,-1762.019645
3839.457895,-12583.501014,1998.556043,-919.314598
3839.458224,-10955.047942,518.144159,-1072.533697
3839.458554,-10732.986159,0.000000,-1991.848295
3839.458884,-11029.068536,-1480.411884,-2298.286494
3839.459214,-10140.821405,-1776.494261,-1532.190996
3839.459543,-7846.182985,-2590.720797,-689.485948
3839.459873,-7179.997637,-2812.782580,1378.971896
3839.460203,-6661.853478,-3034.844362,2374.896044
3839.460533,-7031.956449,-2442.679609,2528.115143
3839.460863,-7698.141797,-2368.659014,1838.629195
3839.461192,-9030.512492,-888.247130,1991.848295
3839.461522,-10288.862594,-444.123565,2145.067394
3839.461852,-11473.192101,-444.123565,1302.362347
3839.462182,-10807.006753,222.061783,536.266849
3839.462511,-10881.027347,-1110.308913,689.485948
3839.462841,-9474.636058,-1258.350101,383.047749
3839.463171,-8290.306550,-1036.288319,383.047749
3839.463501,-8808.450710,-74.020594,995.924147
3839.463830,-9918.759623,888.247130,1455.581446
3839.464160,-9178.553681,1554.432478,919.314598
3839.464490,-9252.574275,2220.617826,-459.657299
3839.464820,-10362.883188,2960.823768,-2911.162892
3839.465150,-13397.727550,3404.947333,-1455.581446
3839.465479,-14434.015869,2220.617826,-612.876398
3839.465809,-12435.459826,888.247130,-689.485948
3839.466139,-9104.533087,0.000000,-1838.629195
3839.466469,-9474.636058,-592.164754,-306.438199
3839.466798,-11251.130318,-222.061783,1532.190996
3839.467128,-9992.780217,-814.226536,1532.190996
3839.467458,-7105.977043,-592.164754,229.828649
3839.467788,-6809.894666,0.000000,689.485948
3839.468118,-9622.677246,148.041188,1762.019645
3839.468447,-11103.089130,0.000000,1915.238745
3839.468777,-9252.574275,-444.123565,1762.019645
3839.469107,-8290.306550,-666.185348,2451.505594
3839.469437,-9696.697840,74.020594,3217.601092
3839.469766,-10732.986159,-148.041188,3217.601092
3839.470096,-9400.615463,74.020594,1838.629195
3839.470426,-8068.244768,592.164754,536.266849
3839.470756,-9622.677246,888.247130,306.438199
3839.471085,-9548.656652,1110.308913,1608.800546
3839.471415,-9400.615463,1258.350101,2145.067394
3839.471745,-9696.697840,2220.617826,766.095498
3839.472075,-9104.533087,2738.761985,-1532.190996
3839.472405,-9326.594869,2738.761985,-3140.991542
3839.472734,-11251.130318,3256.906145,-2528.115143
3839.473064,-12657.521608,3478.967927,-766.095498
3839.473394,-12805.562797,2146.597232,-1149.143247
3839.473724,-10510.924376,1702.473667,-2604.724693
3839.474053,-9104.533087,0.000000,-2834.553343
3839.474383,-9548.656652,0.000000,-1149.143247
3839.474713,-11177.109724,0.000000,0.000000
3839.475043,-10881.027347,0.000000,306.438199
3839.475372,-7476.080014,-1036.288319,-995.924147
3839.475702,-6365.771101,-962.267725,-919.314598
3839.476032,-8586.388927,-1406.391290,153.219100
3839.476362,-10807.006753,-1480.411884,1532.190996
3839.476692,-9030.512492,-1776.494261,919.314598
3839.477021,-7994.224174,-2146.597232,1302.362347
3839.477351,-9252.574275,-1258.350101,2604.724693
3839.477681,-10584.944971,-1554.432478,3217.601092
3839.478011,-9326.594869,-666.185348,612.876398
3839.478340,-7772.162391,-296.082377,-1455.581446
3839.478670,-9844.739029,-592.164754,-1072.533697
3839.479000,-9770.718434,74.020594,1378.971896
3839.479330,-9474.636058,74.020594,2757.943793
3839.479660,-9918.759623,1332.370696,2068.457845
3839.479989,-10288.862594,1554.432478,-612.876398
3839.480319,-12213.398043,1628.453072,-2987.772442
3839.480649,-11991.336260,1628.453072,-3217.601092
3839.480979,-13027.624579,1924.535449,-1838.629195
3839.481308,-12805.562797,1258.350101,-1072.533697
3839.481638,-9770.718434,-296.082377,-2451.505594
3839.481968,-8142.265362,-444.123565,-919.314598
3839.482298,-8660.409521,-962.267725,-459.657299
3839.482627,-9844.739029,-1258.350101,-689.485948
3839.482957,-9326.594869,-1924.535449,-612.876398
3839.483287,-7328.038826,-3256.906145,-842.705048
3839.483617,-5699.585753,-4071.132681,1608.800546
3839.483947,-9178.553681,-3256.906145,4673.182538
3839.484276,-11251.130318,-2516.700203,5056.230287
3839.484606,-8882.471304,-2442.679609,1991.848295
3839.484936,-7105.977043,-1998.556043,995.924147
3839.485266,-8734.430116,-1036.288319,2911.162892
3839.485595,-11473.192101,296.082377,4290.134789
3839.485925,-9770.718434,222.061783,1378.971896
3839.486255,-8142.265362,-222.061783,-1225.752797
3839.486585,-9770.718434,666.185348,-612.876398
3839.486914,-13027.624579,2220.617826,1149.143247
3839.487244,-12805.562797,814.226536,383.047749
3839.487574,-8734.430116,1406.391290,-1608.800546
3839.487904,-8364.327145,2220.617826,-2374.896044
3839.488234,-10362.883188,2442.679609,-1225.752797
3839.488563,-13397.727550,2442.679609,-306.438199
3839.488893,-12657.521608,1998.556043,-1302.362347
3839.489223,-10584.944971,962.267725,-1991.848295
3839.489553,-10066.800811,-74.020594,-1072.533697
3839.489882,-11177.109724,-740.205942,459.657299
3839.490212,-10140.821405,-962.267725,1149.143247
3839.490542,-8290.306550,-1036.288319,229.828649
3839.490872,-7179.997637,-2368.659014,-1608.800546
3839.491201,-6587.832884,-2294.638420,-995.924147
3839.491531,-8734.430116,-592.164754,2451.505594
3839.491861,-9178.553681,-1480.411884,3983.696590
3839.492191,-9696.697840,-888.247130,3294.210641
3839.492521,-8586.388927,-592.164754,919.314598
3839.492850,-8068.244768,-740.205942,-766.095498
3839.493180,-9104.533087,0.000000,229.828649
3839.493510,-9696.697840,1184.329507,1378.971896
3839.493840,-9696.697840,1036.288319,1072.533697
3839.494169,-8438.347739,1480.411884,766.095498
3839.494499,-10066.800811,2442.679609,0.000000
3839.494829,-13175.665768,2294.638420,459.657299
3839.495159,-11621.233289,3256.906145,-766.095498
3839.495489,-8734.430116,2664.741391,-2987.772442
3839.495818,-9770.718434,3997.112087,-3064.381992
3839.496148,-11547.212695,3997.112087,-1455.581446
3839.496478,-12139.377449,2442.679609,-612.876398
3839.496808,-10436.903782,1110.308913,-2221.676944
3839.497137,-9252.574275,-444.123565,-2987.772442
3839.497467,-9474.636058,-888.247130,153.219100
3839.497797,-10881.027347,-740.205942,3370.820191
3839.498127,-10362.883188,74.020594,2681.334243
3839.498457,-8364.327145,-888.247130,-153.219100
3839.498786,-8438.347739,-1480.411884,-2374.896044
3839.499116,-8290.306550,-1702.473667,306.438199
3839.499446,-8734.430116,-1554.432478,4290.134789
3839.499776,-8956.491898,-1850.514855,4519.963438
3839.500105,-8142.265362,-444.123565,3753.867940
3839.500435,-8956.491898,-518.144159,1762.019645
3839.500765,-10140.821405,0.000000,306.438199
3839.501095,-11473.192101,222.061783,536.266849
3839.501425,-10436.903782,74.020594,1378.971896
3839.501754,-8808.450710,74.020594,1685.410096
3839.502084,-9104.533087,1258.350101,2145.067394
3839.502414,-10288.862594,1258.350101,1302.362347
3839.502744,-11695.253884,2886.803174,0.000000
3839.503073,-11473.192101,3256.906145,-2451.505594
3839.503403,-12731.542202,3256.906145,-4213.525239
3839.503733,-10436.903782,2738.761985,-3370.820191
3839.504063,-11029.068536,1776.494261,-1455.581446
3839.504393,-10584.944971,148.041188,-306.438199
3839.504722,-9252.574275,-1184.329507,-1302.362347
3839.505052,-9548.656652,-1332.370696,-1455.581446
3839.505382,-10140.821405,-1776.494261,153.219100
3839.505712,-10140.821405,-1554.432478,1608.800546
3839.506041,-8142.265362,-3404.947333,1378.971896
3839.506371,-5477.523971,-3849.070898,536.266849
3839.506701,-6365.771101,-3701.029710,1991.848295
3839.507031,-7624.121203,-3034.844362,3600.648841
3839.507361,-10140.821405,-1554.432478,4136.915689
3839.507690,-10066.800811,-296.082377,2451.505594
3839.508020,-10288.862594,-444.123565,-229.828649
3839.508350,-9770.718434,-296.082377,-1072.533697
3839.508680,-10732.986159,-666.185348,0.000000
3839.509009,-8956.491898,-444.123565,919.314598
3839.509339,-8512.368333,148.041188,1225.752797
3839.509669,-10436.903782,814.226536,-153.219100
3839.509999,-10807.006753,962.267725,-1762.019645
3839.510329,-11103.089130,2590.720797,-1915.238745
3839.510658,-10732.986159,2072.576638,-1991.848295
3839.510988,-12287.418637,3182.885551,-766.095498
3839.511318,-12139.377449,2442.679609,-383.047749
3839.511648,-11029.068536,888.247130,-995.924147
3839.511977,-10732.986159,148.041188,-995.924147
3839.512307,-10584.944971,-740.205942,-1302.362347
3839.512637,-10881.027347,-370.102971,-766.095498
3839.512967,-9918.759623,-1258.350101,0.000000
3839.513297,-9844.739029,-1702.473667,612.876398
3839.513626,-7772.162391,-2960.823768,689.485948
3839.513956,-6513.812290,-3182.885551,306.438199
3839.514286,-6735.874072,-3034.844362,1302.362347
3839.514616,-6365.771101,-2664.741391,2145.067394
3839.514945,-7402.059420,-2220.617826,3294.210641
3839.515275,-8660.409521,-370.102971,4596.572988
3839.515605,-10436.903782,-444.123565,2451.505594
3839.515935,-11029.068536,0.000000,306.438199
3839.516265,-9844.739029,-296.082377,536.266849
3839.516594,-9474.636058,444.123565,1378.971896
3839.516924,-9548.656652,814.226536,2298.286494
3839.517254,-11177.109724,740.205942,1991.848295
3839.517584,-10436.903782,2072.576638,229.828649
3839.517913,-9548.656652,3108.864956,-2451.505594
3839.518243,-10140.821405,3923.091493,-4366.744339
3839.518573,-11399.171507,4737.318029,-3524.039291
3839.518903,-11917.315666,3849.070898,-1532.190996
3839.519233,-11399.171507,2886.803174,0.000000
3839.519562,-10510.924376,1332.370696,-383.047749
3839.519892,-9918.759623,-666.185348,76.609550
3839.520222,-10807.006753,-962.267725,-76.609550
3839.520552,-11769.274478,-814.226536,1532.190996
3839.520881,-11029.068536,-814.226536,1455.581446
3839.521211,-9252.574275,-1776.494261,0.000000
3839.521541,-6217.729913,-2294.638420,-306.438199
3839.521871,-6069.688724,-2368.659014,1225.752797
3839.522201,-6883.915261,-2368.659014,2757.943793
3839.522530,-8216.285956,-518.144159,4136.915689
3839.522860,-9474.636058,518.144159,3830.477490
3839.523190,-9918.759623,1628.453072,1149.143247
3839.523520,-11473.192101,1258.350101,-1072.533697
3839.523850,-11621.233289,888.247130,-1455.581446
3839.524179,-10362.883188,222.061783,-459.657299
3839.524509,-9400.615463,1110.308913,1915.238745
3839.524839,-11103.089130,962.267725,1838.629195
3839.525169,-10214.842000,1332.370696,919.314598
3839.525498,-8364.327145,2960.823768,-383.047749
3839.525828,-9178.553681,3923.091493,-2374.896044
3839.526158,-11325.150913,4589.276840,-2298.286494
3839.526488,-13027.624579,3923.091493,-459.657299
3839.526818,-11843.295072,2220.617826,76.609550
3839.527147,-11473.192101,888.247130,0.000000
3839.527477,-10214.842000,-1480.411884,-919.314598
3839.527807,-9622.677246,-1258.350101,-1991.848295
3839.528137,-10288.862594,-1702.473667,-612.876398
3839.528466,-10288.862594,-1036.288319,-153.219100
3839.528796,-10214.842000,-1480.411884,-459.657299
3839.529126,-6809.894666,-2960.823768,-229.828649
3839.529456,-4737.318029,-3775.050304,766.095498
3839.529786,-6291.750507,-2442.679609,2757.943793
3839.530115,-8956.491898,-1110.308913,3064.381992
3839.530445,-10436.903782,-666.185348,1991.848295
3839.530775,-9030.512492,0.000000,-1072.533697
3839.531105,-10362.883188,-740.205942,-1455.581446
3839.531434,-12065.356855,-888.247130,1455.581446
3839.531764,-11843.295072,-1184.329507,3217.601092
3839.532094,-8660.409521,-1332.370696,2298.286494
3839.532424,-8142.265362,-592.164754,0.000000
3839.532754,-9178.553681,0.000000,-1302.362347
3839.533083,-10288.862594,1110.308913,-1991.848295
3839.533413,-9992.780217,1110.308913,-2068.457845
3839.533743,-9844.739029,2368.659014,-842.705048
3839.534073,-10807.006753,1480.411884,689.485948
3839.534402,-11399.171507,1184.329507,-229.828649
3839.534732,-11103.089130,296.082377,-2145.067394
3839.535062,-11547.212695,-888.247130,-2604.724693
3839.535392,-11177.109724,-1184.329507,-1991.848295
3839.535722,-11769.274478,-2220.617826,842.705048
3839.536051,-10955.047942,-1258.350101,2451.505594
3839.536381,-10066.800811,-2146.597232,2528.115143
3839.536711,-8290.306550,-2590.720797,-306.438199
3839.537041,-6217.729913,-3034.844362,-1455.581446
3839.537370,-6883.915261,-3182.885551,-689.485948
3839.537700,-7846.182985,-2368.659014,1608.800546
3839.538030,-9918.759623,-888.247130,4213.525239
3839.538360,-10288.862594,-814.226536,3753.867940
3839.538690,-10066.800811,-592.164754,306.438199
3839.539019,-10658.965565,-370.102971,-995.924147
3839.539349,-10732.986159,-1184.329507,-153.219100
3839.539679,-10658.965565,-740.205942,919.314598
3839.540009,-9918.759623,74.020594,3064.381992
3839.540338,-9622.677246,74.020594,2451.505594
3839.540668,-9252.574275,1480.411884,995.924147
3839.540998,-8660.409521,1110.308913,-2221.676944
3839.541328,-9178.553681,2368.659014,-3447.429741
3839.541658,-10658.965565,3330.926739,-2298.286494
3839.541987,-11917.315666,3034.844362,-842.705048
3839.542317,-11177.109724,2812.782580,459.657299
3839.542647,-11325.150913,1924.535449,-1225.752797
3839.542977,-10881.027347,444.123565,-3753.867940
3839.543306,-11325.150913,-1184.329507,-2987.772442
3839.543636,-9918.759623,-592.164754,-153.219100
3839.543966,-8956.491898,-962.267725,3524.039291
3839.544296,-8068.244768,0.000000,2757.943793
3839.544626,-6957.935855,-1184.329507,612.876398
3839.544955,-7031.956449,-1110.308913,0.000000
3839.545285,-7254.018232,0.000000,459.657299
3839.545615,-10658.965565,-592.164754,1532.190996
3839.545945,-9844.739029,0.000000,2451.505594
3839.546274,-8512.368333,0.000000,3370.820191
3839.546604,-9252.574275,296.082377,2911.162892
3839.546934,-10807.006753,1110.308913,2451.505594
3839.547264,-11177.109724,740.205942,689.485948
3839.547594,-9696.697840,814.226536,536.266849
3839.547923,-9178.553681,1184.329507,1225.752797
3839.548253,-9918.759623,2294.638420,3677.258390
3839.548583,-11251.130318,2442.679609,2757.943793
3839.548913,-10881.027347,3701.029710,-383.047749
3839.549242,-9474.636058,4367.215058,-4136.915689
3839.549572,-10807.006753,4293.194464,-4749.792088
3839.549902,-12435.459826,3552.988522,-3217.601092
3839.550232,-12435.459826,2442.679609,-1762.019645
3839.550562,-11843.295072,444.123565,-842.705048
3839.550891,-12287.418637,-1480.411884,76.609550
3839.551221,-9548.656652,-1628.453072,1225.752797
