#time,accel_x,accel_y,accel_z
3732.106081,-9918.759623,0.000000,76.609550
3732.106411,-9474.636058,0.000000,76.609550
3732.106740,-9770.718434,0.000000,536.266849
3732.107070,-10066.800811,0.000000,383.047749
3732.107400,-9918.759623,0.000000,229.828649
3732.107730,-9844.739029,74.020594,-76.609550
3732.108059,-9918.759623,148.041188,153.219100
3732.108389,-9918.759623,296.082377,0.000000
3732.108719,-9992.780217,74.020594,0.000000
3732.109048,-9770.718434,222.061783,0.000000
3732.109378,-9770.718434,222.061783,459.657299
3732.109708,-9696.697840,0.000000,383.047749
3732.110037,-9918.759623,148.041188,229.828649
3732.110367,-9844.739029,0.000000,0.000000
3732.110697,-10066.800811,74.020594,0.000000
3732.111026,-9918.759623,0.000000,229.828649
3732.111356,-9696.697840,0.000000,536.266849
3732.111686,-9770.718434,0.000000,536.266849
3732.112015,-9474.636058,296.082377,76.609550
3732.112345,-10140.821405,0.000000,459.657299
3732.112675,-10214.842000,0.000000,306.438199
3732.113004,-9918.759623,0.000000,-229.828649
3732.113334,-9844.739029,370.102971,-383.047749
3732.113664,-9770.718434,148.041188,-689.485948
3732.113993,-9844.739029,0.000000,-459.657299
3732.114323,-10214.842000,0.000000,-153.219100
3732.114653,-9622.677246,-222.061783,0.000000
3732.114982,-9622.677246,-222.061783,-76.609550
3732.115312,-9252.574275,-888.247130,-153.219100
3732.115642,-9474.636058,-666.185348,-842.705048
3732.115971,-9104.533087,-592.164754,-459.657299
3732.116301,-9474.636058,-370.102971,-919.314598
3732.116631,-9918.759623,-444.123565,0.000000
3732.116960,-10362.883188,-444.123565,229.828649
3732.117290,-10436.903782,-592.164754,229.828649
3732.117620,-10140.821405,-370.102971,-459.657299
3732.117949,-10066.800811,-444.123565,-1455.581446
3732.118279,-9844.739029,-666.185348,-1762.019645
3732.118609,-9548.656652,-740.205942,-2451.505594
3732.118938,-9474.636058,-888.247130,-1915.238745
3732.119268,-9104.533087,-814.226536,-1378.971896
3732.119598,-8808.450710,-1258.350101,-153.219100
3732.119927,-9548.656652,-888.247130,229.828649
3732.120257,-9992.780217,-888.247130,-306.438199
3732.120587,-10066.800811,-1036.288319,-689.485948
3732.120916,-10140.821405,-962.267725,-1532.190996
3732.121246,-9992.780217,-1036.288319,-1302.362347
3732.121576,-10362.883188,-962.267725,-1072.533697
3732.121905,-10214.842000,-1184.329507,-995.924147
3732.122235,-9992.780217,-1184.329507,-2145.067394
3732.122565,-9770.718434,-1776.494261,-2374.896044
3732.122894,-9992.780217,-1924.535449,-2681.334243
3732.123224,-9622.677246,-2220.617826,-2451.505594
3732.123554,-8586.388927,-2294.638420,-2451.505594
3732.123883,-7846.182985,-2220.617826,-2145.067394
3732.124213,-8438.347739,-1776.494261,-1302.362347
3732.124543,-9252.574275,-1628.453072,-995.924147
3732.124872,-10288.862594,-888.247130,-383.047749
3732.125202,-10955.047942,-1110.308913,0.000000
3732.125532,-11695.253884,-1332.370696,-459.657299
3732.125861,-12287.418637,-1702.473667,-1302.362347
3732.126191,-12065.356855,-2146.597232,-2834.553343
3732.126521,-10362.883188,-2886.803174,-4443.353888
3732.126850,-8808.450710,-3552.988522,-4290.134789
3732.127180,-7179.997637,-3627.009116,-3753.867940
3732.127510,-7402.059420,-2516.700203,-1915.238745
3732.127839,-8808.450710,-1628.453072,-995.924147
3732.128169,-9918.759623,-1258.350101,-2298.286494
3732.128499,-10807.006753,-962.267725,-4213.525239
3732.128828,-11325.150913,-2220.617826,-5132.839837
3732.129158,-11991.336260,-3034.844362,-4749.792088
3732.129488,-11177.109724,-4589.276840,-3064.381992
3732.129817,-9400.615463,-5329.482782,-1762.019645
3732.130147,-7402.059420,-5255.462188,-2068.457845
3732.130477,-7402.059420,-4811.338623,-2451.505594
3732.130806,-8142.265362,-3849.070898,-2298.286494
3732.131136,-9474.636058,-2738.761985,-1991.848295
3732.131466,-10436.903782,-1332.370696,-1072.533697
3732.131795,-10955.047942,-1332.370696,-1685.410096
3732.132125,-11177.109724,-1776.494261,-2604.724693
3732.132455,-11029.068536,-2960.823768,-4826.401637
3732.132784,-9844.739029,-4145.153275,-5286.058936
3732.133114,-9252.574275,-5181.441594,-4903.011187
3732.133444,-8882.471304,-5033.400406,-2451.505594
3732.133773,-8364.327145,-4589.276840,-842.705048
3732.134103,-7994.224174,-3849.070898,766.095498
3732.134433,-9104.533087,-2590.720797,612.876398
3732.134762,-11103.089130,-1480.411884,-766.095498
3732.135092,-12509.480420,-1554.432478,-2221.676944
3732.135422,-11843.295072,-2220.617826,-3064.381992
3732.135751,-10140.821405,-3034.844362,-2681.334243
3732.136081,-9030.512492,-3627.009116,-2757.943793
3732.136411,-9326.594869,-4515.256246,-1532.190996
3732.136740,-9030.512492,-4663.297435,-766.095498
3732.137070,-8216.285956,-3330.926739,-1149.143247
3732.137400,-8512.368333,-2294.638420,-1302.362347
3732.137729,-9844.739029,-2738.761985,-1685.410096
3732.138059,-11695.253884,-1258.350101,-536.266849
3732.138389,-11621.233289,-962.267725,536.266849
3732.138718,-11991.336260,-1036.288319,-612.876398
3732.139048,-10732.986159,-1628.453072,-2068.457845
3732.139378,-8882.471304,-2368.659014,-1991.848295
3732.139707,-9178.553681,-2442.679609,-2374.896044
3732.140037,-9992.780217,-1998.556043,-3370.820191
3732.140367,-9474.636058,-2294.638420,-3140.991542
3732.140696,-9252.574275,-1702.473667,-1608.800546
3732.141026,-9400.615463,-1554.432478,306.438199
3732.141356,-10510.924376,-1406.391290,612.876398
3732.141685,-9770.718434,-888.247130,-1149.143247
3732.142015,-9178.553681,-1332.370696,-3217.601092
3732.142345,-9178.553681,-1332.370696,-3294.210641
3732.142674,-9474.636058,-1258.350101,-1455.581446
3732.143004,-9548.656652,-814.226536,153.219100
3732.143334,-10362.883188,-814.226536,0.000000
3732.143663,-10658.965565,-888.247130,-2298.286494
3732.143993,-10658.965565,-1258.350101,-3983.696590
3732.144323,-10362.883188,-1480.411884,-4596.572988
3732.144652,-9252.574275,-1258.350101,-3217.601092
3732.144982,-9770.718434,-1406.391290,-995.924147
3732.145312,-9548.656652,-1184.329507,-1225.752797
3732.145641,-7772.162391,-1406.391290,-2528.115143
3732.145971,-7254.018232,-888.247130,-2987.772442
3732.146301,-7550.100608,-666.185348,-3600.648841
3732.146630,-10362.883188,-518.144159,-1608.800546
3732.146960,-12065.356855,444.123565,-306.438199
3732.147290,-11547.212695,74.020594,-1455.581446
3732.147619,-11325.150913,-814.226536,-2145.067394
3732.147949,-10732.986159,-888.247130,-3140.991542
3732.148279,-11325.150913,-1702.473667,-3907.087040
3732.148608,-10658.965565,-1850.514855,-3524.039291
3732.148938,-8142.265362,-1924.535449,-2681.334243
3732.149268,-7179.997637,-1998.556043,-1532.190996
3732.149597,-7105.977043,-1258.350101,-919.314598
3732.149927,-8808.450710,-666.185348,-1532.190996
3732.150257,-9918.759623,-666.185348,-2757.943793
3732.150586,-10066.800811,-1332.370696,-1991.848295
3732.150916,-9400.615463,-1258.350101,306.438199
3732.151246,-10807.006753,-1554.432478,1378.971896
3732.151575,-12509.480420,-1480.411884,-153.219100
3732.151905,-11547.212695,-1850.514855,-1991.848295
3732.152235,-9104.533087,-2516.700203,-2987.772442
3732.152564,-8734.430116,-1998.556043,-919.314598
3732.152894,-10066.800811,-1554.432478,1149.143247
3732.153224,-9992.780217,-814.226536,1608.800546
3732.153553,-8956.491898,-740.205942,-842.705048
3732.153883,-8882.471304,-1258.350101,-3064.381992
3732.154213,-10658.965565,-1332.370696,-3677.258390
3732.154542,-11695.253884,-1480.411884,-3600.648841
3732.154872,-9770.718434,-2960.823768,-1302.362347
3732.155202,-8290.306550,-3108.864956,-229.828649
3732.155531,-8216.285956,-3182.885551,689.485948
3732.155861,-10881.027347,-2960.823768,536.266849
3732.156191,-11177.109724,-2738.761985,766.095498
3732.156520,-9770.718434,-2590.720797,-76.609550
3732.156850,-9178.553681,-1998.556043,-612.876398
3732.157180,-10362.883188,-1776.494261,459.657299
3732.157509,-10658.965565,-1776.494261,1072.533697
3732.157839,-9474.636058,-1998.556043,0.000000
3732.158169,-7846.182985,-2220.617826,-1915.238745
3732.158499,-8882.471304,-1850.514855,-3677.258390
3732.158828,-9992.780217,-1258.350101,-1838.629195
3732.159158,-11325.150913,-1406.391290,383.047749
3732.159488,-11029.068536,-666.185348,536.266849
3732.159817,-10362.883188,-1332.370696,-1225.752797
3732.160147,-8660.409521,-1406.391290,-1838.629195
3732.160477,-9474.636058,-1554.432478,536.266849
3732.160806,-10510.924376,-888.247130,2681.334243
3732.161136,-9178.553681,-592.164754,1915.238745
3732.161466,-8142.265362,-74.020594,153.219100
3732.161795,-8586.388927,74.020594,-383.047749
3732.162125,-10955.047942,814.226536,153.219100
3732.162455,-11991.336260,518.144159,459.657299
3732.162785,-10732.986159,148.041188,-689.485948
3732.163115,-9844.739029,444.123565,0.000000
3732.163445,-9178.553681,-74.020594,0.000000
3732.163775,-9622.677246,0.000000,1991.848295
3732.164105,-9474.636058,296.082377,2681.334243
3732.164435,-9844.739029,222.061783,1225.752797
3732.164765,-8882.471304,222.061783,-306.438199
3732.165094,-8512.368333,0.000000,383.047749
3732.165424,-8734.430116,666.185348,1685.410096
3732.165754,-9918.759623,962.267725,2451.505594
3732.166084,-10584.944971,1480.411884,919.314598
3732.166414,-9474.636058,740.205942,536.266849
3732.166744,-9992.780217,1702.473667,383.047749
3732.167074,-10955.047942,1480.411884,1149.143247
3732.167404,-12509.480420,2146.597232,1532.190996
3732.167734,-10140.821405,888.247130,919.314598
3732.168064,-8216.285956,222.061783,0.000000
3732.168394,-8660.409521,1036.288319,0.000000
3732.168724,-9918.759623,1406.391290,536.266849
3732.169054,-9918.759623,1702.473667,-229.828649
3732.169384,-9252.574275,1628.453072,-1608.800546
3732.169713,-9548.656652,2220.617826,-1455.581446
3732.170043,-10732.986159,1480.411884,229.828649
3732.170373,-10955.047942,1776.494261,766.095498
3732.170703,-10140.821405,444.123565,153.219100
3732.171033,-10140.821405,222.061783,-766.095498
3732.171363,-8808.450710,370.102971,0.000000
3732.171693,-9918.759623,740.205942,1302.362347
3732.172023,-9104.533087,1184.329507,76.609550
3732.172353,-9326.594869,1184.329507,-1455.581446
3732.172683,-8882.471304,1184.329507,-766.095498
3732.173013,-9030.512492,1110.308913,0.000000
3732.173343,-10288.862594,1924.535449,689.485948
3732.173673,-10807.006753,1924.535449,919.314598
3732.174002,-11325.150913,2072.576638,-306.438199
3732.174332,-10584.944971,1406.391290,-1455.581446
3732.174662,-10288.862594,814.226536,-1991.848295
3732.174992,-10288.862594,518.144159,153.219100
3732.175322,-9104.533087,444.123565,306.438199
3732.175652,-8364.327145,0.000000,0.000000
3732.175982,-8512.368333,0.000000,-306.438199
3732.176312,-9474.636058,666.185348,2145.067394
3732.176642,-10436.903782,666.185348,2987.772442
3732.176972,-11029.068536,814.226536,1685.410096
3732.177302,-9992.780217,296.082377,383.047749
3732.177632,-9622.677246,0.000000,919.314598
3732.177962,-9992.780217,0.000000,1838.629195
3732.178292,-10436.903782,74.020594,1762.019645
3732.178621,-10140.821405,-370.102971,689.485948
3732.178951,-9548.656652,-370.102971,766.095498
3732.179281,-8956.491898,-148.041188,536.266849
3732.179611,-9400.615463,148.041188,229.828649
3732.179941,-10362.883188,0.000000,383.047749
3732.180271,-9696.697840,222.061783,229.828649
3732.180601,-9474.636058,-518.144159,459.657299
3732.180931,-9696.697840,-296.082377,766.095498
3732.181261,-10214.842000,-740.205942,919.314598
3732.181591,-10658.965565,-888.247130,153.219100
3732.181921,-10140.821405,-1258.350101,-689.485948
3732.182251,-9474.636058,-1702.473667,-842.705048
3732.182581,-8808.450710,-1554.432478,0.000000
3732.182911,-9474.636058,-1702.473667,536.266849
3732.183240,-9918.759623,-1258.350101,0.000000
3732.183570,-9030.512492,-1184.329507,-1072.533697
3732.183900,-8290.306550,-1036.288319,-1608.800546
3732.184230,-8882.471304,-740.205942,-612.876398
3732.184560,-10066.800811,-296.082377,383.047749
3732.184890,-10510.924376,-1036.288319,306.438199
3732.185220,-9918.759623,-888.247130,-383.047749
3732.185550,-9696.697840,-1480.411884,-612.876398
3732.185880,-9770.718434,-1406.391290,-229.828649
3732.186210,-10140.821405,-1332.370696,766.095498
3732.186540,-9918.759623,-888.247130,689.485948
3732.186870,-9400.615463,-592.164754,-612.876398
3732.187200,-9696.697840,-444.123565,153.219100
3732.187529,-9474.636058,-370.102971,229.828649
3732.187859,-10214.842000,370.102971,153.219100
3732.188189,-10584.944971,296.082377,-459.657299
3732.188519,-9844.739029,-222.061783,-383.047749
3732.188849,-9548.656652,-444.123565,306.438199
3732.189179,-9548.656652,-518.144159,842.705048
3732.189509,-10140.821405,-222.061783,229.828649
3732.189839,-10881.027347,-370.102971,536.266849
3732.190169,-10140.821405,0.000000,1608.800546
3732.190499,-10288.862594,0.000000,2068.457845
3732.190829,-10288.862594,0.000000,1762.019645
3732.191159,-9548.656652,148.041188,1685.410096
3732.191489,-9400.615463,296.082377,766.095498
3732.191819,-9400.615463,222.061783,0.000000
3732.192148,-9622.677246,0.000000,153.219100
3732.192478,-9992.780217,0.000000,1225.752797
3732.192808,-10214.842000,0.000000,1302.362347
3732.193138,-10510.924376,0.000000,0.000000
3732.193468,-10066.800811,148.041188,-919.314598
3732.193798,-9252.574275,0.000000,-919.314598
3732.194128,-9178.553681,148.041188,-306.438199
3732.194458,-9030.512492,888.247130,229.828649
3732.194788,-9770.718434,296.082377,0.000000
3732.195118,-9622.677246,814.226536,0.000000
3732.195448,-9844.739029,518.144159,-76.609550
3732.195778,-10362.883188,814.226536,-995.924147
3732.196108,-9548.656652,296.082377,-1225.752797
3732.196438,-8882.471304,814.226536,-306.438199
3732.196767,-8364.327145,740.205942,229.828649
3732.197097,-9918.759623,1480.411884,-383.047749
3732.197427,-10140.821405,1184.329507,-612.876398
3732.197757,-10066.800811,1036.288319,-919.314598
3732.198087,-10658.965565,1258.350101,-995.924147
3732.198417,-10584.944971,814.226536,306.438199
3732.198747,-9696.697840,888.247130,1685.410096
3732.199077,-9030.512492,1184.329507,1072.533697
3732.199407,-8216.285956,1110.308913,-459.657299
3732.199737,-9326.594869,1406.391290,-1072.533697
3732.200067,-10436.903782,1776.494261,-459.657299
3732.200397,-11399.171507,962.267725,0.000000
3732.200727,-10807.006753,1110.308913,0.000000
3732.201057,-8956.491898,296.082377,612.876398
3732.201386,-8956.491898,148.041188,1378.971896
3732.201716,-9400.615463,370.102971,1302.362347
3732.202046,-9918.759623,444.123565,995.924147
3732.202376,-9622.677246,740.205942,1532.190996
3732.202706,-9696.697840,666.185348,2068.457845
3732.203036,-10732.986159,370.102971,2221.676944
3732.203366,-11029.068536,74.020594,1915.238745
3732.203696,-10288.862594,74.020594,1302.362347
3732.204026,-9400.615463,-370.102971,383.047749
3732.204356,-8882.471304,-518.144159,-306.438199
3732.204686,-9548.656652,-592.164754,536.266849
3732.205016,-9326.594869,0.000000,1455.581446
3732.205346,-9844.739029,-296.082377,689.485948
3732.205675,-9918.759623,-518.144159,-612.876398
3732.206005,-10214.842000,-814.226536,-766.095498
3732.206335,-9844.739029,-962.267725,229.828649
3732.206665,-9992.780217,-1110.308913,383.047749
3732.206995,-10140.821405,-1406.391290,459.657299
3732.207325,-9326.594869,-1184.329507,229.828649
3732.207655,-9178.553681,-962.267725,536.266849
3732.207985,-9844.739029,-666.185348,306.438199
3732.208315,-10807.006753,-592.164754,-459.657299
3732.208645,-9696.697840,-1036.288319,-229.828649
3732.208975,-9400.615463,-1036.288319,306.438199
3732.209305,-9844.739029,-592.164754,-306.438199
3732.209635,-9696.697840,-888.247130,-612.876398
3732.209965,-8586.388927,-1184.329507,-919.314598
3732.210294,-8882.471304,-370.102971,-1455.581446
3732.210624,-9622.677246,-222.061783,-689.485948
3732.210954,-10214.842000,-518.144159,306.438199
3732.211284,-10140.821405,-370.102971,459.657299
3732.211614,-9918.759623,74.020594,306.438199
3732.211944,-10584.944971,74.020594,-229.828649
3732.212274,-10881.027347,-222.061783,229.828649
3732.212604,-10066.800811,0.000000,229.828649
3732.212934,-9474.636058,-222.061783,0.000000
3732.213264,-9474.636058,-518.144159,-229.828649
3732.213594,-9252.574275,-592.164754,689.485948
3732.213924,-9622.677246,-296.082377,1608.800546
3732.214254,-9400.615463,0.000000,1225.752797
3732.214584,-9696.697840,-518.144159,1072.533697
3732.214913,-9400.615463,0.000000,766.095498
3732.215243,-9918.759623,0.000000,1685.410096
3732.215573,-10732.986159,74.020594,2145.067394
3732.215903,-10436.903782,222.061783,1991.848295
3732.216233,-9844.739029,592.164754,1149.143247
3732.216563,-9844.739029,296.082377,0.000000
3732.216893,-10288.862594,370.102971,0.000000
3732.217223,-9992.780217,518.144159,306.438199
3732.217553,-9548.656652,814.226536,229.828649
3732.217883,-9104.533087,1110.308913,-842.705048
3732.218213,-9474.636058,740.205942,-995.924147
3732.218543,-10362.883188,1036.288319,-612.876398
3732.218873,-11177.109724,666.185348,-383.047749
3732.219202,-10288.862594,444.123565,-689.485948
3732.219532,-9326.594869,0.000000,-919.314598
3732.219862,-8512.368333,0.000000,0.000000
3732.220192,-9474.636058,0.000000,536.266849
3732.220522,-9622.677246,222.061783,-383.047749
3732.220852,-9178.553681,222.061783,-689.485948
3732.221182,-8734.430116,222.061783,-689.485948
3732.221512,-9622.677246,518.144159,0.000000
3732.221842,-10066.800811,592.164754,76.609550
3732.222172,-9622.677246,370.102971,0.000000
3732.222502,-8808.450710,444.123565,-1608.800546
3732.222832,-9252.574275,370.102971,-1532.190996
3732.223162,-10510.924376,444.123565,-612.876398
3732.223492,-10066.800811,814.226536,306.438199
3732.223821,-9474.636058,740.205942,229.828649
3732.224151,-9178.553681,592.164754,-536.266849
3732.224481,-10658.965565,666.185348,0.000000
3732.224811,-11251.130318,1110.308913,689.485948
3732.225141,-10807.006753,814.226536,229.828649
3732.225471,-10362.883188,888.247130,-383.047749
3732.225801,-9474.636058,370.102971,306.438199
3732.226131,-9622.677246,444.123565,1455.581446
3732.226461,-9918.759623,518.144159,1915.238745
3732.226791,-10140.821405,296.082377,919.314598
3732.227121,-9548.656652,0.000000,306.438199
3732.227451,-9622.677246,74.020594,842.705048
3732.227781,-10584.944971,-148.041188,1838.629195
3732.228111,-10214.842000,-444.123565,1608.800546
3732.228440,-9030.512492,-222.061783,1378.971896
3732.228770,-9178.553681,-518.144159,766.095498
3732.229100,-9770.718434,0.000000,689.485948
3732.229430,-10288.862594,-592.164754,766.095498
3732.229760,-9770.718434,-370.102971,1685.410096
3732.230090,-8956.491898,-592.164754,306.438199
3732.230420,-9696.697840,-370.102971,-229.828649
3732.230750,-9918.759623,-814.226536,-229.828649
3732.231080,-9770.718434,-888.247130,1149.143247
3732.231410,-9548.656652,-740.205942,459.657299
3732.231740,-9548.656652,-592.164754,-153.219100
3732.232070,-9992.780217,-518.144159,383.047749
3732.232400,-9770.718434,0.000000,612.876398
3732.232729,-9548.656652,-592.164754,0.000000
3732.233059,-9770.718434,-296.082377,-1302.362347
3732.233389,-9474.636058,-888.247130,-1378.971896
3732.233719,-8882.471304,-888.247130,-459.657299
3732.234049,-8734.430116,-1110.308913,0.000000
3732.234379,-9918.759623,-444.123565,-153.219100
3732.234709,-9770.718434,-222.061783,-459.657299
3732.235039,-9770.718434,-148.041188,-459.657299
3732.235369,-9770.718434,-148.041188,-842.705048
3732.235699,-10510.924376,74.020594,-153.219100
3732.236029,-10584.944971,222.061783,0.000000
3732.236359,-9844.739029,-518.144159,-229.828649
3732.236689,-9474.636058,148.041188,-612.876398
3732.237019,-9992.780217,-148.041188,229.828649
3732.237348,-10288.862594,148.041188,229.828649
3732.237678,-9992.780217,0.000000,0.000000
3732.238008,-9770.718434,222.061783,-383.047749
3732.238338,-9104.533087,-296.082377,0.000000
3732.238668,-9770.718434,0.000000,1072.533697
3732.238998,-10436.903782,-222.061783,995.924147
3732.239328,-10288.862594,-518.144159,1455.581446
3732.239658,-9252.574275,-666.185348,2068.457845
3732.239988,-9178.553681,-370.102971,1302.362347
3732.240318,-9770.718434,0.000000,1378.971896
3732.240648,-10140.821405,-592.164754,1378.971896
3732.240978,-9474.636058,-74.020594,1225.752797
3732.241308,-8734.430116,-222.061783,1072.533697
3732.241638,-9696.697840,296.082377,919.314598
3732.241967,-10436.903782,0.000000,612.876398
3732.242297,-9770.718434,740.205942,0.000000
3732.242627,-9622.677246,148.041188,-459.657299
3732.242957,-10288.862594,74.020594,-689.485948
3732.243287,-9844.739029,0.000000,76.609550
3732.243617,-10066.800811,370.102971,383.047749
3732.243947,-9030.512492,370.102971,0.000000
3732.244277,-9474.636058,370.102971,-1302.362347
3732.244607,-9178.553681,74.020594,-383.047749
3732.244937,-9474.636058,444.123565,0.000000
3732.245267,-10214.842000,518.144159,612.876398
3732.245597,-9770.718434,0.000000,76.609550
3732.245927,-10214.842000,444.123565,229.828649
3732.246256,-10288.862594,370.102971,229.828649
3732.246586,-10140.821405,148.041188,-689.485948
3732.246916,-9030.512492,74.020594,-842.705048
3732.247246,-7698.141797,592.164754,-383.047749
3732.247576,-9326.594869,962.267725,612.876398
3732.247906,-10955.047942,1702.473667,-229.828649
3732.248236,-10584.944971,1702.473667,-1225.752797
3732.248566,-9474.636058,1406.391290,-1915.238745
3732.248896,-10066.800811,1406.391290,-1991.848295
3732.249226,-10510.924376,444.123565,-612.876398
3732.249556,-10362.883188,444.123565,1608.800546
3732.249886,-9030.512492,888.247130,1302.362347
3732.250216,-9104.533087,888.247130,306.438199
3732.250546,-9548.656652,1184.329507,-766.095498
3732.250875,-10436.903782,1110.308913,306.438199
3732.251205,-10732.986159,888.247130,1608.800546
3732.251535,-9918.759623,592.164754,1685.410096
3732.251865,-10066.800811,740.205942,1991.848295
3732.252195,-9326.594869,592.164754,1991.848295
3732.252525,-9622.677246,222.061783,1302.362347
3732.252855,-10658.965565,666.185348,459.657299
3732.253185,-9696.697840,0.000000,153.219100
3732.253515,-9326.594869,370.102971,1072.533697
3732.253845,-9326.594869,296.082377,2068.457845
3732.254175,-10066.800811,0.000000,1685.410096
3732.254505,-10066.800811,74.020594,1532.190996
3732.254835,-9474.636058,-74.020594,76.609550
3732.255165,-9474.636058,-444.123565,-459.657299
3732.255494,-9696.697840,-444.123565,-153.219100
3732.255824,-9400.615463,0.000000,612.876398
3732.256154,-9474.636058,-666.185348,612.876398
3732.256484,-9696.697840,-296.082377,-76.609550
3732.256814,-9548.656652,-1036.288319,-153.219100
3732.257144,-10140.821405,-444.123565,229.828649
3732.257474,-9696.697840,-962.267725,0.000000
3732.257804,-9622.677246,-444.123565,-689.485948
3732.258134,-8734.430116,-444.123565,0.000000
3732.258464,-9030.512492,-296.082377,0.000000
3732.258794,-10140.821405,222.061783,0.000000
3732.259124,-11251.130318,-148.041188,-766.095498
3732.259454,-10436.903782,-666.185348,-995.924147
3732.259784,-9252.574275,-518.144159,-689.485948
3732.260113,-9474.636058,-296.082377,-229.828649
3732.260443,-9992.780217,-444.123565,153.219100
3732.260773,-10066.800811,0.000000,459.657299
3732.261103,-9622.677246,0.000000,-459.657299
3732.261433,-9696.697840,0.000000,-1762.019645
3732.261763,-10510.924376,-296.082377,-459.657299
3732.262092,-10436.903782,-444.123565,1072.533697
3732.262422,-10066.800811,-740.205942,1532.190996
3732.262752,-9622.677246,-666.185348,383.047749
3732.263082,-9474.636058,-814.226536,229.828649
3732.263411,-9474.636058,-592.164754,1225.752797
3732.263741,-9844.739029,-370.102971,1072.533697
3732.264071,-9992.780217,148.041188,612.876398
3732.264401,-10066.800811,-592.164754,1225.752797
3732.264730,-10140.821405,-296.082377,1991.848295
3732.265060,-10436.903782,-296.082377,1762.019645
3732.265390,-10584.944971,0.000000,995.924147
3732.265720,-9326.594869,-518.144159,76.609550
3732.266049,-9030.512492,-296.082377,76.609550
3732.266379,-8956.491898,296.082377,306.438199
3732.266709,-10881.027347,444.123565,1072.533697
3732.267039,-11029.068536,444.123565,1302.362347
3732.267368,-9992.780217,0.000000,536.266849
3732.267698,-9252.574275,370.102971,-459.657299
3732.268028,-9474.636058,444.123565,-1072.533697
3732.268358,-10288.862594,814.226536,612.876398
3732.268687,-10140.821405,148.041188,459.657299
3732.269017,-9474.636058,0.000000,-1302.362347
3732.269347,-9104.533087,222.061783,-1225.752797
3732.269677,-9252.574275,-296.082377,-536.266849
3732.270007,-9918.759623,0.000000,0.000000
3732.270336,-10140.821405,296.082377,-612.876398
3732.270666,-9326.594869,370.102971,-995.924147
3732.270996,-8808.450710,74.020594,-612.876398
3732.271326,-9178.553681,814.226536,-383.047749
3732.271655,-10066.800811,296.082377,-689.485948
3732.271985,-9918.759623,592.164754,-689.485948
3732.272315,-9178.553681,148.041188,-536.266849
3732.272645,-10214.842000,666.185348,0.000000
3732.272974,-10881.027347,370.102971,383.047749
3732.273304,-10140.821405,592.164754,0.000000
3732.273634,-9918.759623,814.226536,-1608.800546
3732.273964,-9326.594869,740.205942,-1608.800546
3732.274293,-9474.636058,370.102971,-153.219100
3732.274623,-9992.780217,1258.350101,919.314598
3732.274953,-10807.006753,1184.329507,766.095498
3732.275283,-10140.821405,1110.308913,-536.266849
3732.275612,-9030.512492,0.000000,-536.266849
3732.275942,-9252.574275,592.164754,383.047749
3732.276272,-10288.862594,740.205942,1532.190996
3732.276602,-10510.924376,370.102971,1302.362347
3732.276931,-10066.800811,296.082377,2298.286494
3732.277261,-9474.636058,-222.061783,2451.505594
3732.277591,-9992.780217,148.041188,1838.629195
3732.277921,-10066.800811,222.061783,2068.457845
3732.278250,-9548.656652,0.000000,1225.752797
3732.278580,-8956.491898,74.020594,612.876398
3732.278910,-9770.718434,74.020594,536.266849
3732.279240,-10584.944971,0.000000,1072.533697
3732.279570,-10362.883188,0.000000,689.485948
3732.279899,-9622.677246,-148.041188,-383.047749
3732.280229,-9252.574275,-370.102971,-689.485948
3732.280559,-9326.594869,-740.205942,153.219100
3732.280889,-9770.718434,-666.185348,1685.410096
3732.281218,-10140.821405,-296.082377,842.705048
3732.281548,-10288.862594,-222.061783,-229.828649
3732.281878,-9770.718434,-444.123565,-153.219100
3732.282208,-9548.656652,-444.123565,842.705048
3732.282537,-10140.821405,0.000000,459.657299
3732.282867,-10288.862594,-370.102971,-689.485948
3732.283197,-9474.636058,-592.164754,-1302.362347
3732.283527,-9104.533087,-666.185348,-1225.752797
3732.283856,-9696.697840,-148.041188,-612.876398
3732.284186,-10140.821405,-444.123565,76.609550
3732.284516,-9400.615463,-74.020594,-536.266849
3732.284846,-8956.491898,-592.164754,-306.438199
3732.285175,-10436.903782,370.102971,-536.266849
3732.285505,-10881.027347,74.020594,306.438199
3732.285835,-10658.965565,0.000000,0.000000
3732.286165,-9104.533087,-148.041188,-536.266849
3732.286494,-9548.656652,0.000000,-766.095498
3732.286824,-9918.759623,222.061783,383.047749
3732.287154,-10214.842000,-296.082377,536.266849
3732.287484,-10066.800811,0.000000,-383.047749
3732.287813,-9252.574275,-370.102971,-306.438199
3732.288143,-9030.512492,-592.164754,766.095498
3732.288473,-9548.656652,-592.164754,1838.629195
3732.288803,-9400.615463,-148.041188,1378.971896
3732.289133,-9844.739029,-592.164754,1302.362347
3732.289462,-9696.697840,-222.061783,536.266849
3732.289792,-9918.759623,-666.185348,1149.143247
3732.290122,-10362.883188,-370.102971,1838.629195
3732.290452,-9400.615463,0.000000,1685.410096
3732.290781,-8808.450710,-444.123565,842.705048
3732.291111,-9770.718434,370.102971,-76.609550
3732.291441,-9622.677246,-148.041188,0.000000
3732.291771,-9548.656652,0.000000,919.314598
3732.292100,-9326.594869,0.000000,536.266849
3732.292430,-9770.718434,148.041188,153.219100
3732.292760,-9770.718434,-148.041188,-766.095498
3732.293090,-9474.636058,0.000000,-919.314598
3732.293419,-10214.842000,0.000000,-153.219100
3732.293749,-9770.718434,-148.041188,-536.266849
3732.294079,-9548.656652,-222.061783,0.000000
3732.294409,-8734.430116,0.000000,459.657299
3732.294738,-9696.697840,222.061783,383.047749
3732.295068,-10362.883188,-296.082377,536.266849
3732.295398,-10214.842000,74.020594,-459.657299
3732.295728,-9400.615463,-74.020594,-536.266849
3732.296057,-9104.533087,518.144159,0.000000
3732.296387,-9770.718434,0.000000,76.609550
3732.296717,-9770.718434,370.102971,-612.876398
3732.297047,-9622.677246,592.164754,-689.485948
3732.297377,-10436.903782,1036.288319,-1072.533697
3732.297706,-10658.965565,666.185348,-995.924147
3732.298036,-9696.697840,666.185348,-306.438199
3732.298366,-9252.574275,444.123565,383.047749
3732.298696,-9474.636058,814.226536,229.828649
3732.299025,-10732.986159,814.226536,459.657299
3732.299355,-10436.903782,962.267725,383.047749
3732.299685,-10066.800811,888.247130,76.609550
3732.300015,-9918.759623,592.164754,-76.609550
3732.300344,-9844.739029,444.123565,1149.143247
3732.300674,-9918.759623,222.061783,2145.067394
3732.301004,-9474.636058,814.226536,1685.410096
3732.301334,-9474.636058,148.041188,1072.533697
3732.301663,-9474.636058,444.123565,1302.362347
3732.301993,-9844.739029,0.000000,1762.019645
3732.302323,-10140.821405,444.123565,1991.848295
3732.302653,-9770.718434,74.020594,2068.457845
3732.302982,-9326.594869,222.061783,1915.238745
3732.303312,-9400.615463,0.000000,1149.143247
3732.303642,-9400.615463,296.082377,536.266849
3732.303972,-10214.842000,148.041188,306.438199
3732.304301,-9548.656652,370.102971,766.095498
3732.304631,-9770.718434,148.041188,0.000000
3732.304961,-9400.615463,0.000000,612.876398
3732.305291,-9474.636058,0.000000,229.828649
3732.305620,-9770.718434,-370.102971,536.266849
3732.305950,-9770.718434,0.000000,0.000000
3732.306280,-9844.739029,0.000000,-459.657299
3732.306610,-9992.780217,0.000000,0.000000
3732.306940,-9918.759623,0.000000,229.828649
3732.307269,-9918.759623,0.000000,-153.219100
3732.307599,-9474.636058,0.000000,-1302.362347
3732.307929,-8586.388927,-518.144159,-919.314598
3732.308259,-8882.471304,-444.123565,-459.657299
3732.308588,-9548.656652,74.020594,0.000000
3732.308918,-10436.903782,0.000000,-383.047749
3732.309248,-10436.903782,370.102971,-612.876398
3732.309578,-10066.800811,-148.041188,-612.876398
3732.309907,-10288.862594,74.020594,-612.876398
3732.310237,-10362.883188,-148.041188,-229.828649
3732.310567,-9030.512492,74.020594,-383.047749
3732.310897,-9326.594869,-74.020594,0.000000
3732.311226,-9844.739029,0.000000,-153.219100
3732.311556,-10732.986159,74.020594,459.657299
3732.311886,-10288.862594,0.000000,76.609550
3732.312216,-9548.656652,-592.164754,153.219100
3732.312545,-9104.533087,-444.123565,766.095498
3732.312875,-9548.656652,-518.144159,2298.286494
3732.313205,-10214.842000,-592.164754,1838.629195
3732.313535,-9770.718434,74.020594,689.485948
3732.313864,-9770.718434,-740.205942,306.438199
3732.314194,-9252.574275,0.000000,689.485948
3732.314524,-9770.718434,-518.144159,1608.800546
3732.314854,-10214.842000,148.041188,1991.848295
3732.315183,-9918.759623,-222.061783,1455.581446
3732.315513,-9326.594869,-296.082377,612.876398
3732.315843,-9770.718434,0.000000,153.219100
3732.316173,-10732.986159,0.000000,612.876398
3732.316503,-10214.842000,0.000000,1532.190996
3732.316832,-8956.491898,0.000000,306.438199
3732.317162,-8956.491898,-74.020594,-689.485948
3732.317492,-9844.739029,-296.082377,-689.485948
3732.317822,-9918.759623,-296.082377,76.609550
3732.318151,-9992.780217,-370.102971,153.219100
3732.318481,-9326.594869,-148.041188,-842.705048
3732.318811,-9030.512492,-1036.288319,-689.485948
3732.319141,-9030.512492,0.000000,76.609550
3732.319470,-9178.553681,-148.041188,-76.609550
3732.319800,-9992.780217,444.123565,-842.705048
3732.320130,-10140.821405,0.000000,-689.485948
3732.320460,-9622.677246,0.000000,229.828649
3732.320789,-10140.821405,0.000000,919.314598
3732.321119,-10214.842000,0.000000,383.047749
3732.321449,-9770.718434,148.041188,-383.047749
3732.321779,-8216.285956,148.041188,-1378.971896
3732.322108,-9178.553681,740.205942,-1378.971896
3732.322438,-10807.006753,1406.391290,-306.438199
3732.322768,-11621.233289,1480.411884,76.609550
3732.323098,-10510.924376,962.267725,-689.485948
3732.323427,-9548.656652,1258.350101,-1225.752797
3732.323757,-10066.800811,962.267725,-229.828649
3732.324087,-10214.842000,740.205942,306.438199
3732.324417,-9622.677246,518.144159,0.000000
3732.324746,-9696.697840,1406.391290,76.609550
3732.325076,-9548.656652,518.144159,1072.533697
3732.325406,-10214.842000,814.226536,1991.848295
3732.325736,-10362.883188,370.102971,2145.067394
3732.326066,-9622.677246,518.144159,1532.190996
3732.326395,-9918.759623,148.041188,1225.752797
3732.326725,-9474.636058,296.082377,1302.362347
3732.327055,-10140.821405,74.020594,2374.896044
3732.327385,-10436.903782,296.082377,1991.848295
3732.327714,-9548.656652,-296.082377,306.438199
3732.328044,-8808.450710,0.000000,0.000000
3732.328374,-8882.471304,-444.123565,-306.438199
3732.328704,-9770.718434,222.061783,689.485948
3732.329033,-9104.533087,222.061783,1225.752797
3732.329363,-9992.780217,222.061783,459.657299
3732.329693,-9844.739029,518.144159,-1378.971896
3732.330023,-9622.677246,-370.102971,-919.314598
3732.330352,-9548.656652,0.000000,-536.266849
3732.330682,-9992.780217,-444.123565,229.828649
3732.331012,-9548.656652,-444.123565,0.000000
3732.331342,-9622.677246,-888.247130,383.047749
3732.331671,-9770.718434,0.000000,306.438199
3732.332001,-10140.821405,-740.205942,-229.828649
3732.332331,-10140.821405,0.000000,-1225.752797
3732.332661,-9770.718434,-666.185348,-689.485948
3732.332990,-9400.615463,-666.185348,76.609550
3732.333320,-9104.533087,-296.082377,153.219100
3732.333650,-10140.821405,-370.102971,0.000000
3732.333980,-9844.739029,-518.144159,-766.095498
3732.334309,-9252.574275,-592.164754,-1302.362347
3732.334639,-9770.718434,296.082377,-1149.143247
3732.334969,-10436.903782,-592.164754,153.219100
3732.335299,-9918.759623,0.000000,919.314598
3732.335629,-9622.677246,-444.123565,459.657299
3732.335958,-9696.697840,0.000000,76.609550
3732.336288,-9696.697840,-592.164754,306.438199
3732.336618,-10066.800811,148.041188,919.314598
3732.336948,-10214.842000,0.000000,1072.533697
3732.337277,-9918.759623,74.020594,383.047749
3732.337607,-9474.636058,-296.082377,766.095498
3732.337937,-9548.656652,-814.226536,1762.019645
3732.338267,-9992.780217,-592.164754,1762.019645
3732.338596,-9770.718434,-740.205942,1302.362347
3732.338926,-8438.347739,-296.082377,1455.581446
3732.339256,-8808.450710,0.000000,919.314598
3732.339586,-9622.677246,444.123565,842.705048
3732.339915,-10362.883188,0.000000,612.876398
3732.340245,-9992.780217,0.000000,995.924147
3732.340575,-9770.718434,-222.061783,1072.533697
3732.340905,-9548.656652,296.082377,1302.362347
3732.341234,-9918.759623,-518.144159,1455.581446
3732.341564,-9696.697840,-222.061783,766.095498
3732.341894,-9844.739029,0.000000,459.657299
3732.342224,-9992.780217,444.123565,-612.876398
3732.342553,-9622.677246,0.000000,-459.657299
3732.342883,-9474.636058,444.123565,-153.219100
3732.343213,-9548.656652,222.061783,-229.828649
3732.343543,-9770.718434,-296.082377,-766.095498
3732.343872,-9252.574275,0.000000,0.000000
3732.344202,-8808.450710,0.000000,-306.438199
3732.344532,-9770.718434,444.123565,-1072.533697
3732.344862,-10066.800811,0.000000,-766.095498
3732.345192,-10214.842000,296.082377,-536.266849
3732.345521,-10214.842000,74.020594,-383.047749
3732.345851,-9696.697840,148.041188,-229.828649
3732.346181,-9326.594869,-296.082377,-153.219100
3732.346511,-8734.430116,592.164754,-612.876398
3732.346840,-9696.697840,888.247130,-995.924147
3732.347170,-10510.924376,1036.288319,-1302.362347
3732.347500,-10436.903782,888.247130,0.000000
3732.347830,-9696.697840,296.082377,-153.219100
3732.348159,-9770.718434,148.041188,612.876398
3732.348489,-10510.924376,0.000000,919.314598
3732.348819,-9696.697840,148.041188,919.314598
3732.349149,-9474.636058,518.144159,153.219100
3732.349478,-9474.636058,1036.288319,-383.047749
3732.349808,-10436.903782,666.185348,0.000000
3732.350138,-10436.903782,888.247130,842.705048
3732.350468,-9918.759623,592.164754,1455.581446
3732.350797,-9474.636058,518.144159,229.828649
3732.351127,-9696.697840,-444.123565,229.828649
3732.351457,-9400.615463,0.000000,1149.143247
3732.351787,-9030.512492,-296.082377,1608.800546
3732.352116,-9548.656652,444.123565,1378.971896
3732.352446,-9696.697840,444.123565,1225.752797
3732.352776,-10288.862594,148.041188,1455.581446
3732.353106,-10362.883188,-222.061783,1378.971896
3732.353435,-10362.883188,0.000000,536.266849
3732.353765,-9622.677246,-296.082377,1302.362347
3732.354095,-8734.430116,-518.144159,919.314598
3732.354425,-9104.533087,0.000000,536.266849
3732.354755,-9474.636058,-74.020594,0.000000
3732.355084,-9474.636058,296.082377,0.000000
3732.355414,-9992.780217,-222.061783,-229.828649
3732.355744,-10066.800811,0.000000,-536.266849
3732.356074,-9770.718434,-444.123565,689.485948
3732.356403,-9770.718434,74.020594,1072.533697
3732.356733,-10214.842000,0.000000,536.266849
3732.357063,-10436.903782,0.000000,-1838.629195
3732.357393,-9918.759623,0.000000,-1608.800546
3732.357722,-9548.656652,0.000000,-919.314598
3732.358052,-9770.718434,0.000000,229.828649
3732.358382,-9474.636058,-222.061783,229.828649
3732.358712,-8882.471304,0.000000,383.047749
3732.359041,-9474.636058,0.000000,0.000000
3732.359371,-10436.903782,0.000000,-995.924147
3732.359701,-10732.986159,74.020594,-1149.143247
3732.360031,-9474.636058,74.020594,-995.924147
3732.360360,-9178.553681,0.000000,0.000000
3732.360690,-9992.780217,0.000000,229.828649
3732.361020,-10955.047942,-592.164754,842.705048
3732.361350,-9992.780217,-222.061783,306.438199
3732.361679,-8808.450710,-296.082377,153.219100
3732.362009,-9474.636058,148.041188,0.000000
3732.362339,-9844.739029,-296.082377,1072.533697
3732.362669,-9770.718434,222.061783,1915.238745
3732.362998,-9992.780217,0.000000,1838.629195
3732.363328,-9696.697840,0.000000,1455.581446
3732.363658,-9474.636058,-74.020594,1072.533697
3732.363988,-9918.759623,444.123565,1302.362347
3732.364318,-10362.883188,592.164754,1532.190996
3732.364648,-10955.047942,592.164754,995.924147
3732.364977,-9696.697840,148.041188,-76.609550
3732.365307,-9104.533087,0.000000,-306.438199
3732.365637,-9474.636058,0.000000,153.219100
3732.365967,-9844.739029,-222.061783,1455.581446
3732.366297,-9104.533087,-370.102971,1532.190996
3732.366626,-8512.368333,-518.144159,1225.752797
3732.366956,-9252.574275,74.020594,612.876398
3732.367286,-10807.006753,370.102971,842.705048
3732.367616,-10658.965565,0.000000,383.047749
3732.367946,-9992.780217,-370.102971,-153.219100
3732.368276,-9104.533087,0.000000,0.000000
3732.368605,-9178.553681,0.000000,306.438199
3732.368935,-9474.636058,74.020594,306.438199
3732.369265,-10066.800811,148.041188,-995.924147
3732.369595,-10140.821405,370.102971,-1991.848295
3732.369925,-9696.697840,370.102971,-1302.362347
3732.370254,-9918.759623,222.061783,-536.266849
3732.370584,-10436.903782,370.102971,0.000000
3732.370914,-9844.739029,-74.020594,-383.047749
3732.371244,-9474.636058,0.000000,-612.876398
3732.371574,-8956.491898,148.041188,-229.828649
3732.371903,-10584.944971,814.226536,-459.657299
3732.372233,-11103.089130,370.102971,-383.047749
3732.372563,-10658.965565,592.164754,-612.876398
3732.372893,-10066.800811,-148.041188,76.609550
3732.373223,-9696.697840,-444.123565,0.000000
3732.373553,-9696.697840,-518.144159,1225.752797
3732.373882,-9030.512492,-148.041188,995.924147
3732.374212,-8882.471304,-222.061783,-383.047749
3732.374542,-8660.409521,518.144159,-1072.533697
3732.374872,-9400.615463,518.144159,-306.438199
3732.375202,-10510.924376,666.185348,842.705048
3732.375531,-10955.047942,518.144159,842.705048
3732.375861,-9992.780217,-148.041188,1072.533697
3732.376191,-9030.512492,0.000000,1225.752797
3732.376521,-9252.574275,0.000000,1762.019645
3732.376851,-9622.677246,444.123565,1685.410096
3732.377181,-10066.800811,518.144159,383.047749
3732.377510,-9696.697840,518.144159,0.000000
3732.377840,-9844.739029,222.061783,0.000000
3732.378170,-9992.780217,296.082377,689.485948
3732.378500,-9918.759623,-296.082377,1302.362347
3732.378830,-9770.718434,0.000000,1149.143247
3732.379159,-9548.656652,-148.041188,383.047749
3732.379489,-9474.636058,0.000000,-459.657299
3732.379819,-9548.656652,74.020594,536.266849
3732.380149,-10658.965565,0.000000,995.924147
3732.380479,-10510.924376,148.041188,766.095498
3732.380809,-10140.821405,-666.185348,383.047749
3732.381138,-9548.656652,-296.082377,612.876398
3732.381468,-9474.636058,-370.102971,459.657299
3732.381798,-10510.924376,0.000000,-766.095498
3732.382128,-9622.677246,-222.061783,-1302.362347
3732.382458,-9030.512492,148.041188,-383.047749
3732.382787,-9474.636058,74.020594,612.876398
3732.383117,-10214.842000,518.144159,0.000000
3732.383447,-10436.903782,0.000000,-76.609550
3732.383777,-9696.697840,0.000000,-153.219100
3732.384107,-9992.780217,-296.082377,0.000000
3732.384436,-10807.006753,296.082377,0.000000
3732.384766,-10362.883188,0.000000,0.000000
3732.385096,-9030.512492,148.041188,-612.876398
3732.385426,-8660.409521,-148.041188,-1378.971896
3732.385756,-9252.574275,-370.102971,-612.876398
3732.386086,-9770.718434,0.000000,1532.190996
3732.386415,-9844.739029,148.041188,1302.362347
3732.386745,-9400.615463,0.000000,76.609550
3732.387075,-8660.409521,-592.164754,-306.438199
3732.387405,-9252.574275,518.144159,536.266849
3732.387735,-10066.800811,0.000000,995.924147
3732.388064,-10362.883188,-296.082377,842.705048
3732.388394,-9548.656652,-814.226536,995.924147
3732.388724,-9104.533087,0.000000,1532.190996
3732.389054,-9474.636058,0.000000,2068.457845
3732.389384,-10140.821405,0.000000,1378.971896
3732.389714,-9918.759623,0.000000,1149.143247
3732.390043,-9548.656652,296.082377,919.314598
3732.390373,-10066.800811,296.082377,1072.533697
3732.390703,-10881.027347,222.061783,995.924147
3732.391033,-10362.883188,74.020594,1455.581446
3732.391363,-9104.533087,0.000000,1072.533697
3732.391692,-9918.759623,0.000000,0.000000
3732.392022,-10140.821405,0.000000,-153.219100
3732.392352,-9770.718434,0.000000,0.000000
3732.392682,-9474.636058,222.061783,229.828649
3732.393012,-9400.615463,222.061783,-536.266849
3732.393341,-9918.759623,0.000000,0.000000
3732.393671,-9622.677246,370.102971,459.657299
3732.394001,-10140.821405,296.082377,766.095498
3732.394331,-10584.944971,592.164754,-536.266849
3732.394661,-10658.965565,-74.020594,-1072.533697
3732.394991,-9770.718434,148.041188,-76.609550
3732.395320,-9474.636058,-74.020594,0.000000
3732.395650,-9400.615463,0.000000,76.609550
3732.395980,-8734.430116,74.020594,0.000000
3732.396310,-9030.512492,148.041188,0.000000
3732.396640,-9696.697840,740.205942,-383.047749
3732.396969,-10436.903782,222.061783,-766.095498
3732.397299,-9992.780217,444.123565,-995.924147
3732.397629,-9770.718434,592.164754,-689.485948
3732.397959,-9548.656652,296.082377,-766.095498
3732.398289,-10362.883188,222.061783,919.314598
3732.398619,-9474.636058,222.061783,842.705048
3732.398948,-9474.636058,74.020594,536.266849
3732.399278,-9252.574275,888.247130,-536.266849
3732.399608,-9178.553681,296.082377,306.438199
3732.399938,-9696.697840,888.247130,1685.410096
3732.400268,-10066.800811,222.061783,1072.533697
3732.400597,-10140.821405,666.185348,766.095498
3732.400927,-9474.636058,74.020594,1149.143247
3732.401257,-9696.697840,222.061783,995.924147
3732.401587,-10214.842000,370.102971,1225.752797
3732.401917,-9474.636058,74.020594,766.095498
3732.402247,-9178.553681,296.082377,689.485948
3732.402576,-9844.739029,-148.041188,1225.752797
3732.402906,-11029.068536,518.144159,1072.533697
3732.403236,-11103.089130,814.226536,1149.143247
3732.403566,-9696.697840,592.164754,76.609550
3732.403896,-9030.512492,-962.267725,-459.657299
3732.404225,-9548.656652,0.000000,229.828649
3732.404555,-9474.636058,-222.061783,1225.752797
3732.404885,-9548.656652,0.000000,306.438199
3732.405215,-9474.636058,0.000000,-842.705048
3732.405545,-9918.759623,-666.185348,-919.314598
3732.405874,-10732.986159,0.000000,-689.485948
3732.406204,-10436.903782,-518.144159,306.438199
3732.406534,-9622.677246,-518.144159,306.438199
3732.406864,-8956.491898,-666.185348,-383.047749
3732.407194,-8808.450710,-518.144159,229.828649
3732.407524,-9548.656652,-962.267725,153.219100
3732.407853,-9770.718434,0.000000,-306.438199
3732.408183,-10140.821405,-444.123565,0.000000
3732.408513,-10140.821405,-222.061783,-153.219100
3732.408843,-10140.821405,-666.185348,383.047749
3732.409173,-9992.780217,-370.102971,612.876398
3732.409502,-9474.636058,-592.164754,229.828649
3732.409832,-9548.656652,-148.041188,-919.314598
3732.410162,-9696.697840,-592.164754,-1838.629195
3732.410492,-9696.697840,-518.144159,-1225.752797
3732.410822,-9548.656652,-296.082377,306.438199
3732.411152,-9770.718434,74.020594,766.095498
3732.411481,-9548.656652,0.000000,0.000000
3732.411811,-9474.636058,0.000000,-612.876398
3732.412141,-9696.697840,-148.041188,229.828649
3732.412471,-10362.883188,148.041188,1225.752797
3732.412801,-10955.047942,222.061783,842.705048
3732.413130,-10140.821405,-518.144159,689.485948
3732.413460,-8956.491898,-592.164754,919.314598
3732.413790,-9400.615463,-148.041188,1608.800546
3732.414120,-10807.006753,0.000000,1302.362347
3732.414450,-10362.883188,0.000000,229.828649
3732.414779,-9252.574275,518.144159,0.000000
3732.415109,-9622.677246,222.061783,-612.876398
3732.415439,-10214.842000,370.102971,-536.266849
3732.415769,-10214.842000,-222.061783,383.047749
3732.416099,-8808.450710,-296.082377,229.828649
3732.416429,-8438.347739,-444.123565,0.000000
3732.416758,-9326.594869,-148.041188,153.219100
3732.417088,-9844.739029,0.000000,1455.581446
3732.417418,-10584.944971,222.061783,995.924147
3732.417748,-10436.903782,0.000000,153.219100
3732.418078,-10510.924376,-518.144159,-536.266849
3732.418407,-9474.636058,0.000000,536.266849
3732.418737,-9622.677246,-518.144159,995.924147
3732.419067,-8808.450710,-296.082377,153.219100
3732.419397,-8586.388927,-370.102971,-612.876398
3732.419727,-8734.430116,518.144159,-153.219100
3732.420057,-9548.656652,592.164754,306.438199
3732.420386,-10288.862594,740.205942,306.438199
3732.420716,-10955.047942,518.144159,689.485948
3732.421046,-9770.718434,666.185348,-919.314598
3732.421376,-9696.697840,74.020594,-612.876398
3732.421706,-10140.821405,74.020594,0.000000
3732.422035,-9918.759623,518.144159,383.047749
3732.422365,-9844.739029,518.144159,0.000000
3732.422695,-9104.533087,666.185348,-842.705048
3732.423025,-9992.780217,888.247130,-612.876398
3732.423355,-10436.903782,1110.308913,612.876398
3732.423684,-10584.944971,888.247130,306.438199
3732.424014,-10955.047942,814.226536,0.000000
3732.424344,-9252.574275,74.020594,0.000000
3732.424674,-9252.574275,518.144159,536.266849
3732.425004,-9474.636058,444.123565,1455.581446
3732.425334,-9622.677246,518.144159,459.657299
3732.425663,-10066.800811,0.000000,612.876398
3732.425993,-9030.512492,518.144159,1072.533697
3732.426323,-9770.718434,222.061783,1378.971896
3732.426653,-9770.718434,222.061783,1608.800546
3732.426983,-8882.471304,296.082377,1302.362347
3732.427312,-9030.512492,148.041188,842.705048
3732.427642,-9474.636058,444.123565,0.000000
3732.427972,-9992.780217,74.020594,0.000000
3732.428302,-10140.821405,666.185348,1532.190996
3732.428632,-10362.883188,444.123565,1532.190996
3732.428962,-10436.903782,518.144159,536.266849
3732.429291,-9770.718434,0.000000,229.828649
3732.429621,-8882.471304,222.061783,-612.876398
3732.429951,-9992.780217,370.102971,-229.828649
3732.430281,-9992.780217,74.020594,-459.657299
3732.430611,-10214.842000,0.000000,153.219100
3732.430940,-9474.636058,518.144159,689.485948
3732.431270,-9844.739029,-74.020594,306.438199
3732.431600,-9918.759623,-518.144159,0.000000
3732.431930,-9548.656652,-444.123565,-229.828649
3732.432260,-9918.759623,0.000000,0.000000
3732.432590,-9844.739029,148.041188,153.219100
3732.432919,-10288.862594,-370.102971,-76.609550
3732.433249,-9844.739029,74.020594,76.609550
3732.433579,-9548.656652,-370.102971,-229.828649
3732.433909,-10066.800811,222.061783,-1225.752797
3732.434239,-10140.821405,-296.082377,76.609550
3732.434568,-9474.636058,-222.061783,306.438199
3732.434898,-9178.553681,0.000000,-76.609550
3732.435228,-9400.615463,370.102971,-612.876398
3732.435558,-10066.800811,-518.144159,-766.095498
3732.435888,-9400.615463,74.020594,-842.705048
3732.436217,-9918.759623,-222.061783,-842.705048
3732.436547,-9696.697840,0.000000,-459.657299
3732.436877,-8956.491898,-740.205942,459.657299
3732.437207,-9252.574275,-444.123565,1608.800546
3732.437537,-9770.718434,-444.123565,1072.533697
3732.437867,-10658.965565,-444.123565,612.876398
3732.438196,-9770.718434,0.000000,536.266849
3732.438526,-9326.594869,-592.164754,1378.971896
3732.438856,-9474.636058,74.020594,1225.752797
3732.439186,-9844.739029,-148.041188,1378.971896
3732.439516,-9474.636058,444.123565,1455.581446
3732.439845,-9844.739029,148.041188,459.657299
3732.440175,-9844.739029,592.164754,-536.266849
3732.440505,-10214.842000,0.000000,-383.047749
3732.440835,-9696.697840,296.082377,0.000000
3732.441165,-10066.800811,148.041188,306.438199
3732.441495,-9918.759623,0.000000,-306.438199
3732.441824,-9992.780217,0.000000,-229.828649
3732.442154,-9770.718434,-148.041188,-536.266849
3732.442484,-9770.718434,296.082377,0.000000
3732.442814,-10955.047942,74.020594,995.924147
3732.443144,-10510.924376,74.020594,1838.629195
3732.443473,-9474.636058,-518.144159,1532.190996
3732.443803,-9622.677246,148.041188,229.828649
3732.444133,-10140.821405,-370.102971,-306.438199
3732.444463,-9770.718434,-222.061783,-459.657299
3732.444793,-8734.430116,0.000000,0.000000
3732.445122,-8734.430116,962.267725,612.876398
3732.445452,-9844.739029,222.061783,536.266849
3732.445782,-9770.718434,148.041188,-459.657299
3732.446112,-9918.759623,0.000000,-1072.533697
3732.446442,-9844.739029,296.082377,-612.876398
3732.446772,-9474.636058,222.061783,0.000000
3732.447101,-8956.491898,74.020594,76.609550
3732.447431,-8808.450710,296.082377,-153.219100
3732.447761,-9696.697840,222.061783,-229.828649
3732.448091,-9992.780217,740.205942,-689.485948
3732.448421,-10436.903782,518.144159,383.047749
3732.448750,-10214.842000,666.185348,0.000000
3732.449080,-9252.574275,0.000000,-459.657299
3732.449410,-8882.471304,592.164754,612.876398
3732.449740,-10066.800811,222.061783,1225.752797
3732.450070,-10288.862594,296.082377,0.000000
3732.450400,-9474.636058,-444.123565,-306.438199
3732.450729,-9104.533087,0.000000,76.609550
3732.451059,-9918.759623,444.123565,1608.800546
3732.451389,-10436.903782,444.123565,1455.581446
3732.451719,-9770.718434,-148.041188,1149.143247
3732.452049,-9474.636058,74.020594,766.095498
3732.452378,-9992.780217,74.020594,0.000000
3732.452708,-10436.903782,-296.082377,306.438199
3732.453038,-10214.842000,-148.041188,1149.143247
3732.453368,-9474.636058,0.000000,919.314598
3732.453698,-9474.636058,0.000000,229.828649
3732.454027,-9918.759623,-370.102971,-612.876398
3732.454357,-10140.821405,-444.123565,-153.219100
3732.454687,-10288.862594,-296.082377,766.095498
3732.455017,-10140.821405,0.000000,536.266849
3732.455347,-9992.780217,-740.205942,76.609550
3732.455677,-9696.697840,-296.082377,306.438199
3732.456006,-10066.800811,-370.102971,76.609550
3732.456336,-10140.821405,0.000000,0.000000
3732.456666,-9178.553681,-444.123565,-306.438199
3732.456996,-9178.553681,-74.020594,383.047749
3732.457326,-9622.677246,-444.123565,995.924147
3732.457655,-10436.903782,0.000000,842.705048
3732.457985,-9918.759623,-370.102971,0.000000
3732.458315,-9474.636058,-592.164754,-995.924147
3732.458645,-9178.553681,-148.041188,-995.924147
3732.458975,-9770.718434,-370.102971,229.828649
3732.459305,-9992.780217,-148.041188,1685.410096
3732.459634,-9474.636058,-296.082377,766.095498
3732.459964,-9474.636058,0.000000,-383.047749
3732.460294,-9252.574275,0.000000,-459.657299
3732.460624,-10066.800811,1110.308913,0.000000
3732.460954,-10362.883188,666.185348,0.000000
3732.461283,-9992.780217,888.247130,-842.705048
3732.461613,-8956.491898,74.020594,-536.266849
3732.461943,-9400.615463,740.205942,-153.219100
3732.462273,-10288.862594,444.123565,-153.219100
3732.462603,-10510.924376,518.144159,0.000000
3732.462932,-9252.574275,0.000000,76.609550
3732.463262,-8882.471304,370.102971,689.485948
3732.463592,-9622.677246,592.164754,1149.143247
3732.463922,-10658.965565,444.123565,1608.800546
3732.464252,-10066.800811,74.020594,1378.971896
3732.464581,-9400.615463,148.041188,1225.752797
3732.464911,-9400.615463,444.123565,229.828649
3732.465241,-10140.821405,0.000000,689.485948
3732.465571,-9918.759623,148.041188,1608.800546
3732.465901,-10066.800811,148.041188,919.314598
3732.466230,-10214.842000,518.144159,-1149.143247
3732.466560,-9474.636058,0.000000,-1532.190996
3732.466890,-8882.471304,74.020594,-383.047749
3732.467220,-8882.471304,0.000000,536.266849
3732.467550,-9844.739029,444.123565,689.485948
3732.467879,-9696.697840,148.041188,0.000000
3732.468209,-9844.739029,222.061783,0.000000
3732.468539,-9770.718434,222.061783,0.000000
3732.468869,-9918.759623,222.061783,306.438199
3732.469199,-9696.697840,518.144159,995.924147
3732.469528,-9474.636058,-148.041188,1455.581446
3732.469858,-9696.697840,74.020594,1302.362347
3732.470188,-10288.862594,-370.102971,689.485948
3732.470518,-9918.759623,518.144159,-306.438199
3732.470848,-9474.636058,0.000000,-612.876398
3732.471177,-9178.553681,666.185348,-612.876398
3732.471507,-9548.656652,592.164754,459.657299
3732.471837,-10140.821405,740.205942,-153.219100
3732.472167,-10066.800811,592.164754,0.000000
3732.472497,-10362.883188,296.082377,-1072.533697
3732.472826,-10362.883188,370.102971,0.000000
3732.473156,-9992.780217,370.102971,-459.657299
3732.473486,-9918.759623,74.020594,-76.609550
3732.473816,-9622.677246,0.000000,-383.047749
3732.474146,-9252.574275,-296.082377,229.828649
3732.474475,-9474.636058,0.000000,1072.533697
3732.474805,-10214.842000,222.061783,842.705048
3732.475135,-10288.862594,0.000000,1072.533697
3732.475465,-9474.636058,74.020594,1149.143247
3732.475795,-9992.780217,-74.020594,1149.143247
3732.476124,-10510.924376,148.041188,842.705048
3732.476454,-9844.739029,-444.123565,229.828649
3732.476784,-9474.636058,0.000000,536.266849
3732.477114,-9474.636058,-148.041188,536.266849
3732.477444,-9770.718434,0.000000,0.000000
3732.477773,-9918.759623,296.082377,306.438199
3732.478103,-9844.739029,-296.082377,306.438199
3732.478433,-10510.924376,0.000000,-383.047749
3732.478763,-9992.780217,-444.123565,-919.314598
3732.479093,-8882.471304,-592.164754,-766.095498
3732.479422,-8808.450710,-148.041188,-459.657299
3732.479752,-9474.636058,-222.061783,-306.438199
3732.480082,-10288.862594,-814.226536,-153.219100
3732.480412,-9992.780217,-518.144159,306.438199
3732.480741,-8882.471304,-666.185348,229.828649
3732.481071,-9548.656652,-74.020594,0.000000
3732.481401,-9622.677246,-888.247130,383.047749
3732.481731,-9844.739029,-518.144159,919.314598
3732.482061,-9918.759623,-518.144159,1225.752797
3732.482390,-10066.800811,-222.061783,842.705048
3732.482720,-10066.800811,-444.123565,383.047749
3732.483050,-9474.636058,-222.061783,0.000000
3732.483380,-9844.739029,0.000000,-229.828649
3732.483710,-9696.697840,0.000000,-306.438199
3732.484039,-9474.636058,-518.144159,-689.485948
3732.484369,-8882.471304,740.205942,383.047749
3732.484699,-10658.965565,0.000000,0.000000
3732.485029,-10658.965565,74.020594,-536.266849
3732.485359,-9844.739029,444.123565,306.438199
3732.485688,-10362.883188,148.041188,689.485948
3732.486018,-10807.006753,74.020594,-383.047749
3732.486348,-10362.883188,-296.082377,-459.657299
3732.486678,-9030.512492,-518.144159,842.705048
3732.487008,-8586.388927,-370.102971,1762.019645
3732.487337,-8882.471304,148.041188,1838.629195
3732.487667,-9474.636058,148.041188,1072.533697
3732.487997,-9474.636058,592.164754,689.485948
3732.488327,-9696.697840,962.267725,459.657299
3732.488657,-11103.089130,888.247130,306.438199
3732.488986,-11251.130318,592.164754,842.705048
3732.489316,-10214.842000,-518.144159,229.828649
3732.489646,-9326.594869,-148.041188,0.000000
3732.489976,-9178.553681,-74.020594,-76.609550
3732.490306,-9326.594869,222.061783,995.924147
3732.490635,-8808.450710,74.020594,612.876398
3732.490965,-9622.677246,814.226536,536.266849
3732.491295,-10955.047942,370.102971,766.095498
3732.491625,-10807.006753,518.144159,842.705048
3732.491955,-10288.862594,222.061783,-612.876398
3732.492284,-9030.512492,0.000000,-919.314598
3732.492614,-8734.430116,-444.123565,-383.047749
3732.492944,-9400.615463,74.020594,459.657299
3732.493274,-10214.842000,666.185348,383.047749
3732.493604,-10214.842000,740.205942,-383.047749
3732.493933,-9030.512492,-296.082377,-842.705048
3732.494263,-9400.615463,296.082377,-383.047749
3732.494593,-9992.780217,296.082377,0.000000
3732.494923,-10510.924376,592.164754,459.657299
3732.495253,-9918.759623,296.082377,689.485948
3732.495582,-9474.636058,74.020594,383.047749
3732.495912,-9770.718434,444.123565,-536.266849
3732.496242,-10436.903782,592.164754,459.657299
3732.496572,-10510.924376,518.144159,1149.143247
3732.496902,-9770.718434,444.123565,766.095498
3732.497231,-9696.697840,444.123565,76.609550
3732.497561,-9918.759623,0.000000,0.000000
3732.497891,-9844.739029,592.164754,306.438199
3732.498221,-10214.842000,370.102971,536.266849
3732.498551,-10140.821405,444.123565,-383.047749
3732.498880,-9252.574275,0.000000,-1455.581446
3732.499210,-8808.450710,148.041188,-306.438199
3732.499540,-9770.718434,592.164754,153.219100
3732.499870,-10584.944971,222.061783,612.876398
3732.500200,-9622.677246,0.000000,919.314598
3732.500529,-9030.512492,222.061783,689.485948
3732.500859,-9474.636058,0.000000,1378.971896
3732.501189,-10362.883188,-74.020594,459.657299
3732.501519,-9400.615463,-444.123565,459.657299
3732.501849,-9252.574275,0.000000,766.095498
3732.502178,-9918.759623,0.000000,459.657299
3732.502508,-10214.842000,0.000000,919.314598
3732.502838,-9548.656652,148.041188,229.828649
3732.503168,-9400.615463,148.041188,-995.924147
3732.503498,-9844.739029,148.041188,-1685.410096
3732.503827,-10288.862594,-296.082377,-1072.533697
3732.504157,-10658.965565,-222.061783,-306.438199
3732.504487,-9992.780217,-296.082377,229.828649
3732.504817,-9104.533087,-444.123565,-306.438199
3732.505146,-9104.533087,-888.247130,383.047749
3732.505476,-9844.739029,-296.082377,766.095498
3732.505806,-11399.171507,-148.041188,536.266849
3732.506136,-10732.986159,0.000000,229.828649
3732.506466,-9474.636058,-518.144159,-153.219100
3732.506795,-9474.636058,-888.247130,76.609550
3732.507125,-9696.697840,-888.247130,766.095498
3732.507455,-9918.759623,-1332.370696,1072.533697
3732.507785,-9622.677246,-518.144159,1072.533697
3732.508115,-9696.697840,-888.247130,306.438199
3732.508444,-10140.821405,0.000000,0.000000
3732.508774,-9992.780217,-74.020594,842.705048
3732.509104,-10436.903782,-296.082377,766.095498
3732.509434,-10510.924376,0.000000,-612.876398
3732.509764,-9992.780217,-592.164754,-1532.190996
3732.510093,-9252.574275,-740.205942,-536.266849
3732.510423,-8586.388927,74.020594,-612.876398
3732.510753,-9178.553681,0.000000,306.438199
3732.511083,-9918.759623,-370.102971,0.000000
3732.511413,-9844.739029,-370.102971,0.000000
3732.511742,-10436.903782,-370.102971,842.705048
3732.512072,-10436.903782,-518.144159,842.705048
3732.512402,-9178.553681,-1332.370696,1378.971896
3732.512732,-8586.388927,-444.123565,1991.848295
3732.513062,-8290.306550,-666.185348,1225.752797
3732.513391,-9326.594869,0.000000,153.219100
3732.513721,-10140.821405,148.041188,229.828649
3732.514051,-10584.944971,518.144159,-153.219100
3732.514381,-10288.862594,444.123565,0.000000
3732.514711,-9548.656652,296.082377,306.438199
3732.515040,-9400.615463,444.123565,459.657299
3732.515370,-9326.594869,0.000000,153.219100
3732.515700,-9992.780217,296.082377,-842.705048
3732.516030,-10584.944971,888.247130,-306.438199
3732.516360,-10066.800811,740.205942,229.828649
3732.516689,-10140.821405,888.247130,919.314598
3732.517019,-10214.842000,666.185348,306.438199
3732.517349,-9548.656652,0.000000,229.828649
3732.517679,-9696.697840,222.061783,459.657299
3732.518009,-10510.924376,592.164754,1149.143247
3732.518338,-11325.150913,592.164754,1225.752797
3732.518668,-10510.924376,518.144159,229.828649
3732.518998,-9252.574275,296.082377,-766.095498
3732.519328,-9548.656652,518.144159,-459.657299
3732.519658,-10066.800811,296.082377,0.000000
3732.519987,-9622.677246,296.082377,842.705048
3732.520317,-8808.450710,1036.288319,1072.533697
3732.520647,-9474.636058,740.205942,229.828649
3732.520977,-10584.944971,962.267725,0.000000
3732.521307,-9918.759623,962.267725,0.000000
3732.521636,-9474.636058,518.144159,153.219100
3732.521966,-9474.636058,1184.329507,-459.657299
3732.522296,-9696.697840,222.061783,612.876398
3732.522626,-9844.739029,1258.350101,1149.143247
3732.522956,-9770.718434,1036.288319,1302.362347
3732.523285,-10436.903782,1480.411884,-459.657299
3732.523615,-9992.780217,666.185348,-1225.752797
3732.523945,-9326.594869,1332.370696,-536.266849
3732.524275,-9474.636058,592.164754,0.000000
3732.524605,-9992.780217,962.267725,459.657299
3732.524934,-9474.636058,74.020594,612.876398
3732.525264,-8882.471304,0.000000,766.095498
3732.525594,-9474.636058,296.082377,766.095498
3732.525924,-10140.821405,296.082377,1455.581446
3732.526254,-10140.821405,148.041188,1608.800546
3732.526583,-10658.965565,148.041188,1225.752797
3732.526913,-10288.862594,592.164754,689.485948
3732.527243,-10066.800811,-296.082377,459.657299
3732.527573,-9622.677246,-222.061783,842.705048
3732.527902,-9178.553681,-74.020594,536.266849
3732.528232,-9622.677246,518.144159,-536.266849
3732.528562,-9326.594869,0.000000,-689.485948
3732.528892,-9844.739029,666.185348,0.000000
3732.529222,-10140.821405,0.000000,-383.047749
3732.529551,-9918.759623,0.000000,-1225.752797
3732.529881,-9326.594869,-962.267725,-612.876398
3732.530211,-9252.574275,-296.082377,459.657299
3732.530541,-10140.821405,-296.082377,842.705048
3732.530871,-10362.883188,-518.144159,0.000000
3732.531200,-9400.615463,-1110.308913,0.000000
3732.531530,-9326.594869,-962.267725,383.047749
3732.531860,-9474.636058,0.000000,766.095498
3732.532190,-10066.800811,-1110.308913,536.266849
3732.532520,-10362.883188,0.000000,383.047749
3732.532849,-9030.512492,-962.267725,-842.705048
3732.533179,-9326.594869,-148.041188,-1302.362347
3732.533509,-9252.574275,-518.144159,-229.828649
3732.533839,-11325.150913,0.000000,536.266849
3732.534169,-10658.965565,0.000000,-306.438199
3732.534498,-9770.718434,0.000000,-1685.410096
3732.534828,-10066.800811,-592.164754,-612.876398
3732.535158,-9918.759623,-444.123565,1149.143247
3732.535488,-10732.986159,0.000000,1762.019645
3732.535818,-10214.842000,-1110.308913,612.876398
3732.536147,-8956.491898,-962.267725,-76.609550
3732.536477,-9178.553681,-740.205942,766.095498
3732.536807,-10510.924376,-296.082377,766.095498
3732.537137,-10288.862594,-1110.308913,1149.143247
3732.537467,-8882.471304,-592.164754,1302.362347
3732.537796,-9178.553681,-222.061783,1149.143247
3732.538126,-10362.883188,0.000000,306.438199
3732.538456,-10584.944971,-296.082377,383.047749
3732.538786,-10214.842000,-444.123565,536.266849
3732.539116,-10066.800811,0.000000,-153.219100
3732.539445,-9474.636058,-222.061783,-383.047749
3732.539775,-9622.677246,-592.164754,76.609550
3732.540105,-7920.203579,-592.164754,0.000000
3732.540435,-8364.327145,-148.041188,-459.657299
3732.540765,-9622.677246,0.000000,-766.095498
3732.541094,-10436.903782,74.020594,0.000000
3732.541424,-9992.780217,74.020594,459.657299
3732.541754,-9696.697840,370.102971,-383.047749
3732.542084,-9918.759623,-370.102971,-919.314598
3732.542414,-9104.533087,-444.123565,-306.438199
3732.542743,-9252.574275,-370.102971,0.000000
3732.543073,-9474.636058,0.000000,-383.047749
3732.543403,-9622.677246,-222.061783,-459.657299
3732.543733,-8660.409521,74.020594,-842.705048
3732.544063,-8808.450710,444.123565,-612.876398
3732.544392,-10066.800811,1036.288319,306.438199
3732.544722,-10732.986159,666.185348,459.657299
3732.545052,-10436.903782,814.226536,0.000000
3732.545382,-9992.780217,740.205942,-229.828649
3732.545712,-10584.944971,888.247130,0.000000
3732.546041,-10362.883188,444.123565,689.485948
3732.546371,-10066.800811,592.164754,842.705048
3732.546701,-9178.553681,962.267725,0.000000
3732.547031,-9548.656652,592.164754,-383.047749
3732.547361,-10140.821405,1036.288319,229.828649
3732.547690,-10066.800811,1036.288319,459.657299
3732.548020,-10362.883188,1258.350101,76.609550
3732.548350,-9844.739029,962.267725,0.000000
3732.548680,-9992.780217,592.164754,842.705048
3732.549010,-10140.821405,370.102971,1225.752797
3732.549339,-10436.903782,888.247130,1455.581446
3732.549669,-10436.903782,814.226536,1302.362347
3732.549999,-9474.636058,814.226536,919.314598
3732.550329,-9622.677246,592.164754,1225.752797
3732.550658,-9918.759623,444.123565,1225.752797
3732.550988,-9474.636058,0.000000,1685.410096
3732.551318,-9326.594869,74.020594,995.924147
3732.551648,-9474.636058,444.123565,459.657299
3732.551978,-9104.533087,0.000000,-153.219100
3732.552307,-9548.656652,0.000000,612.876398
3732.552637,-9918.759623,296.082377,459.657299
3732.552967,-10362.883188,592.164754,536.266849
3732.553297,-10066.800811,296.082377,-306.438199
3732.553627,-9030.512492,-222.061783,0.000000
3732.553956,-9548.656652,0.000000,76.609550
3732.554286,-10214.842000,-74.020594,-153.219100
3732.554616,-10732.986159,-666.185348,306.438199
3732.554946,-9844.739029,-148.041188,766.095498
3732.555276,-9548.656652,-296.082377,306.438199
3732.555605,-10066.800811,-296.082377,-383.047749
3732.555935,-9252.574275,-444.123565,-229.828649
3732.556265,-8956.491898,-740.205942,-76.609550
3732.556595,-9622.677246,666.185348,229.828649
3732.556925,-10436.903782,222.061783,306.438199
3732.557254,-10658.965565,-74.020594,76.609550
3732.557584,-9696.697840,-296.082377,-153.219100
3732.557914,-10584.944971,0.000000,-536.266849
3732.558244,-11103.089130,-148.041188,-383.047749
3732.558574,-9474.636058,-444.123565,612.876398
3732.558903,-8808.450710,0.000000,995.924147
3732.559233,-9252.574275,666.185348,-76.609550
3732.559563,-10066.800811,296.082377,0.000000
3732.559893,-10584.944971,888.247130,-383.047749
3732.560223,-9992.780217,370.102971,-919.314598
3732.560552,-10214.842000,0.000000,-1149.143247
3732.560882,-9992.780217,-444.123565,1072.533697
3732.561216,-9918.759623,-296.082377,2221.676944
3732.561545,-9252.574275,0.000000,1762.019645
3732.561875,-8808.450710,-370.102971,306.438199
3732.562205,-9252.574275,-444.123565,766.095498
3732.562535,-9622.677246,370.102971,1072.533697
3732.562865,-10658.965565,888.247130,1838.629195
3732.563195,-10955.047942,444.123565,1838.629195
3732.563524,-10362.883188,74.020594,995.924147
3732.563854,-9992.780217,-148.041188,153.219100
3732.564184,-9400.615463,-74.020594,-1302.362347
3732.564514,-9696.697840,-296.082377,-1149.143247
3732.564844,-9474.636058,0.000000,229.828649
3732.565174,-9918.759623,-74.020594,383.047749
3732.565503,-9548.656652,0.000000,-689.485948
3732.565833,-9548.656652,-888.247130,-306.438199
3732.566163,-9548.656652,-666.185348,306.438199
3732.566493,-8882.471304,-1480.411884,842.705048
3732.566823,-8586.388927,-1184.329507,76.609550
3732.567153,-8586.388927,-1110.308913,536.266849
3732.567482,-9622.677246,-370.102971,842.705048
3732.567812,-10140.821405,0.000000,-153.219100
3732.568142,-9918.759623,-296.082377,-1072.533697
3732.568472,-9844.739029,-296.082377,689.485948
3732.568802,-10658.965565,444.123565,689.485948
3732.569132,-10584.944971,444.123565,229.828649
3732.569461,-9918.759623,-222.061783,-766.095498
3732.569791,-8808.450710,296.082377,-1455.581446
3732.570121,-9400.615463,148.041188,-1072.533697
3732.570451,-10807.006753,1258.350101,-766.095498
3732.570781,-10881.027347,518.144159,-383.047749
3732.571110,-9178.553681,370.102971,0.000000
3732.571440,-9844.739029,740.205942,-306.438199
3732.571770,-10658.965565,222.061783,-306.438199
3732.572100,-10584.944971,0.000000,229.828649
3732.572430,-9474.636058,148.041188,919.314598
3732.572760,-9400.615463,740.205942,459.657299
3732.573089,-9474.636058,222.061783,229.828649
3732.573419,-10066.800811,444.123565,995.924147
3732.573749,-10510.924376,0.000000,1149.143247
3732.574079,-10214.842000,222.061783,612.876398
3732.574409,-9770.718434,0.000000,76.609550
3732.574739,-8956.491898,592.164754,536.266849
3732.575068,-8512.368333,222.061783,919.314598
3732.575398,-10140.821405,1110.308913,689.485948
3732.575728,-10510.924376,0.000000,536.266849
3732.576058,-9844.739029,0.000000,842.705048
3732.576388,-9474.636058,-74.020594,689.485948
3732.576718,-9622.677246,0.000000,766.095498
3732.577047,-9696.697840,-222.061783,1149.143247
3732.577377,-9178.553681,74.020594,842.705048
3732.577707,-9252.574275,0.000000,-306.438199
3732.578037,-9622.677246,0.000000,0.000000
3732.578367,-9992.780217,0.000000,1378.971896
3732.578696,-10510.924376,222.061783,1378.971896
3732.579026,-10066.800811,74.020594,766.095498
3732.579356,-9252.574275,0.000000,76.609550
3732.579686,-9400.615463,444.123565,153.219100
3732.580016,-9844.739029,444.123565,-383.047749
3732.580346,-10584.944971,370.102971,-1378.971896
3732.580675,-10214.842000,0.000000,0.000000
3732.581005,-9844.739029,-148.041188,1149.143247
3732.581335,-10066.800811,444.123565,1608.800546
3732.581665,-10214.842000,0.000000,0.000000
3732.581995,-9474.636058,-222.061783,-612.876398
3732.582325,-9030.512492,370.102971,-459.657299
3732.582654,-10066.800811,666.185348,76.609550
3732.582984,-10807.006753,518.144159,536.266849
3732.583314,-10140.821405,518.144159,0.000000
3732.583644,-9326.594869,296.082377,-919.314598
3732.583974,-9696.697840,74.020594,-1532.190996
3732.584304,-9696.697840,-370.102971,-919.314598
3732.584633,-9474.636058,518.144159,612.876398
3732.584963,-9030.512492,74.020594,766.095498
3732.585293,-9548.656652,296.082377,0.000000
3732.585623,-10066.800811,74.020594,153.219100
3732.585953,-10584.944971,74.020594,1225.752797
3732.586283,-10807.006753,-370.102971,1149.143247
3732.586612,-9696.697840,-370.102971,766.095498
3732.586942,-9030.512492,-370.102971,995.924147
3732.587272,-8956.491898,-74.020594,1149.143247
3732.587602,-9992.780217,0.000000,459.657299
3732.587932,-10881.027347,0.000000,229.828649
3732.588261,-10436.903782,-296.082377,306.438199
3732.588591,-10214.842000,-518.144159,459.657299
3732.588921,-9844.739029,-444.123565,612.876398
3732.589251,-10510.924376,-370.102971,1072.533697
3732.589581,-9474.636058,-148.041188,1225.752797
3732.589911,-9474.636058,-592.164754,-306.438199
3732.590240,-10066.800811,0.000000,-1378.971896
3732.590570,-9474.636058,-888.247130,-153.219100
3732.590900,-9252.574275,-518.144159,919.314598
3732.591230,-9622.677246,-370.102971,919.314598
3732.591560,-10140.821405,-1110.308913,0.000000
3732.591890,-10066.800811,-666.185348,0.000000
3732.592219,-9474.636058,-296.082377,-76.609550
3732.592549,-10066.800811,-518.144159,-766.095498
3732.592879,-9844.739029,-296.082377,-383.047749
3732.593209,-8734.430116,-148.041188,153.219100
3732.593539,-8808.450710,-370.102971,383.047749
3732.593869,-9770.718434,444.123565,153.219100
3732.594198,-10658.965565,74.020594,0.000000
3732.594528,-10288.862594,740.205942,-612.876398
3732.594858,-9252.574275,444.123565,-1225.752797
3732.595188,-9844.739029,962.267725,-689.485948
3732.595518,-10288.862594,666.185348,-459.657299
3732.595847,-9030.512492,444.123565,-229.828649
3732.596177,-8956.491898,0.000000,-919.314598
3732.596507,-9400.615463,666.185348,-1149.143247
3732.596837,-10066.800811,444.123565,229.828649
3732.597167,-9548.656652,1036.288319,995.924147
3732.597497,-9992.780217,1036.288319,842.705048
3732.597826,-10732.986159,962.267725,153.219100
3732.598156,-9844.739029,370.102971,306.438199
3732.598486,-9844.739029,518.144159,1378.971896
3732.598816,-9992.780217,592.164754,1838.629195
3732.599146,-10436.903782,0.000000,1838.629195
3732.599476,-10066.800811,148.041188,1838.629195
3732.599805,-9326.594869,370.102971,766.095498
3732.600135,-9622.677246,518.144159,-383.047749
3732.600465,-9696.697840,296.082377,-612.876398
3732.600795,-9474.636058,148.041188,-459.657299
3732.601125,-9474.636058,370.102971,612.876398
3732.601455,-9844.739029,888.247130,153.219100
3732.601784,-10288.862594,148.041188,306.438199
3732.602114,-9844.739029,74.020594,229.828649
3732.602444,-9474.636058,-148.041188,0.000000
3732.602774,-9844.739029,-222.061783,76.609550
3732.603104,-10214.842000,-296.082377,1455.581446
3732.603434,-10362.883188,-296.082377,2298.286494
3732.603763,-9992.780217,-814.226536,766.095498
3732.604093,-8956.491898,-1036.288319,76.609550
3732.604423,-8956.491898,-666.185348,76.609550
3732.604753,-9030.512492,0.000000,306.438199
3732.605083,-9474.636058,0.000000,-1378.971896
3732.605412,-9844.739029,-296.082377,-1455.581446
3732.605742,-9918.759623,-666.185348,0.000000
3732.606072,-10140.821405,-444.123565,-153.219100
3732.606402,-10362.883188,-592.164754,-689.485948
3732.606732,-9918.759623,-1110.308913,-459.657299
3732.607062,-8660.409521,-1110.308913,-842.705048
3732.607391,-8290.306550,-814.226536,-306.438199
3732.607721,-9844.739029,-148.041188,0.000000
3732.608051,-10732.986159,0.000000,306.438199
3732.608381,-10732.986159,0.000000,76.609550
3732.608711,-10066.800811,0.000000,0.000000
3732.609041,-10510.924376,0.000000,0.000000
3732.609370,-10066.800811,-370.102971,995.924147
3732.609700,-9696.697840,-148.041188,0.000000
3732.610030,-8882.471304,-444.123565,-1378.971896
3732.610360,-9252.574275,0.000000,-1072.533697
3732.610690,-10362.883188,74.020594,-153.219100
3732.611020,-10881.027347,74.020594,689.485948
3732.611349,-10066.800811,222.061783,383.047749
3732.611679,-9696.697840,-370.102971,1072.533697
3732.612009,-9992.780217,74.020594,1915.238745
3732.612339,-10658.965565,74.020594,1608.800546
3732.612669,-10288.862594,592.164754,689.485948
3732.612999,-9844.739029,666.185348,0.000000
3732.613328,-10140.821405,370.102971,153.219100
3732.613658,-11473.192101,148.041188,689.485948
3732.613988,-10807.006753,-444.123565,1302.362347
3732.614318,-9030.512492,-814.226536,1225.752797
3732.614648,-8216.285956,-740.205942,1838.629195
3732.614977,-9548.656652,0.000000,919.314598
3732.615307,-10362.883188,222.061783,612.876398
3732.615637,-9400.615463,296.082377,-153.219100
3732.615967,-9252.574275,296.082377,306.438199
3732.616297,-9844.739029,222.061783,-153.219100
3732.616627,-10881.027347,0.000000,459.657299
3732.616956,-8734.430116,222.061783,995.924147
3732.617286,-8438.347739,0.000000,0.000000
3732.617616,-9030.512492,148.041188,-995.924147
3732.617946,-9400.615463,-222.061783,-919.314598
3732.618276,-8956.491898,444.123565,459.657299
3732.618606,-9474.636058,444.123565,612.876398
3732.618935,-9992.780217,370.102971,919.314598
3732.619265,-9622.677246,444.123565,229.828649
3732.619595,-9030.512492,0.000000,-383.047749
3732.619925,-9770.718434,814.226536,-1762.019645
3732.620255,-10807.006753,962.267725,-919.314598
3732.620585,-10510.924376,814.226536,-536.266849
3732.620914,-9326.594869,370.102971,-1072.533697
3732.621244,-8882.471304,962.267725,-919.314598
3732.621574,-9622.677246,444.123565,-459.657299
3732.621904,-9918.759623,666.185348,76.609550
3732.622234,-9474.636058,444.123565,0.000000
3732.622563,-10140.821405,666.185348,0.000000
3732.622893,-10288.862594,814.226536,1302.362347
3732.623223,-11251.130318,740.205942,1532.190996
3732.623553,-10584.944971,592.164754,76.609550
3732.623883,-9844.739029,0.000000,-766.095498
3732.624213,-9548.656652,518.144159,0.000000
3732.624542,-9178.553681,296.082377,1685.410096
3732.624872,-10066.800811,814.226536,1225.752797
3732.625202,-10436.903782,740.205942,306.438199
3732.625532,-10288.862594,666.185348,-229.828649
3732.625862,-10658.965565,-370.102971,-229.828649
3732.626192,-10140.821405,-74.020594,842.705048
3732.626521,-9548.656652,-1184.329507,2451.505594
3732.626851,-8734.430116,74.020594,2757.943793
3732.627181,-8956.491898,-148.041188,1608.800546
3732.627511,-10436.903782,444.123565,-383.047749
3732.627841,-10881.027347,0.000000,-536.266849
3732.628171,-11103.089130,-222.061783,-229.828649
3732.628500,-9992.780217,-592.164754,459.657299
3732.628830,-8660.409521,-740.205942,1072.533697
3732.629160,-8660.409521,-740.205942,1149.143247
3732.629490,-8882.471304,-666.185348,459.657299
3732.629820,-9696.697840,0.000000,-612.876398
3732.630150,-10140.821405,-222.061783,-842.705048
3732.630479,-10066.800811,518.144159,-995.924147
3732.630809,-10658.965565,148.041188,459.657299
3732.631139,-10436.903782,-148.041188,0.000000
3732.631469,-9622.677246,-740.205942,-229.828649
3732.631799,-8734.430116,-444.123565,-766.095498
3732.632128,-9178.553681,-518.144159,-689.485948
3732.632458,-9400.615463,74.020594,-229.828649
3732.632788,-9326.594869,296.082377,76.609550
3732.633118,-10288.862594,740.205942,-306.438199
3732.633448,-9918.759623,148.041188,-612.876398
3732.633778,-9844.739029,0.000000,-1072.533697
3732.634107,-9844.739029,-296.082377,306.438199
3732.634437,-8808.450710,74.020594,1838.629195
3732.634767,-9104.533087,222.061783,153.219100
3732.635097,-9770.718434,814.226536,-383.047749
3732.635427,-10140.821405,888.247130,0.000000
3732.635757,-10881.027347,666.185348,306.438199
3732.636086,-10584.944971,222.061783,0.000000
3732.636416,-9548.656652,-592.164754,459.657299
3732.636746,-9030.512492,0.000000,1762.019645
3732.637076,-9326.594869,0.000000,2298.286494
3732.637406,-10066.800811,0.000000,1302.362347
3732.637736,-9400.615463,0.000000,689.485948
3732.638065,-9474.636058,0.000000,612.876398
3732.638395,-10436.903782,592.164754,1302.362347
3732.638725,-10658.965565,148.041188,1838.629195
3732.639055,-10584.944971,-592.164754,1378.971896
3732.639385,-9474.636058,-370.102971,612.876398
3732.639714,-10288.862594,-148.041188,0.000000
3732.640044,-9918.759623,0.000000,-229.828649
3732.640374,-8956.491898,-370.102971,-306.438199
3732.640704,-8512.368333,-296.082377,-229.828649
3732.641034,-9252.574275,-74.020594,-612.876398
3732.641364,-10214.842000,-1036.288319,-229.828649
3732.641693,-9918.759623,-222.061783,76.609550
3732.642023,-9178.553681,-592.164754,306.438199
3732.642353,-10066.800811,-74.020594,153.219100
3732.642683,-9844.739029,-592.164754,76.609550
3732.643013,-9622.677246,0.000000,-153.219100
3732.643343,-9696.697840,-222.061783,-766.095498
3732.643672,-10362.883188,0.000000,-1685.410096
3732.644002,-9918.759623,-444.123565,-1072.533697
3732.644332,-8882.471304,-148.041188,0.000000
3732.644662,-9104.533087,148.041188,-383.047749
3732.644992,-9474.636058,0.000000,-1302.362347
3732.645322,-9400.615463,222.061783,-1762.019645
3732.645651,-9770.718434,0.000000,-1455.581446
3732.645981,-10362.883188,74.020594,-689.485948
3732.646311,-10362.883188,-444.123565,612.876398
3732.646641,-9696.697840,-370.102971,1072.533697
3732.646971,-9326.594869,-518.144159,919.314598
3732.647301,-9474.636058,74.020594,459.657299
3732.647630,-10288.862594,-148.041188,1149.143247
3732.647960,-10288.862594,592.164754,1455.581446
3732.648290,-10288.862594,592.164754,689.485948
3732.648620,-9844.739029,444.123565,459.657299
3732.648950,-10214.842000,74.020594,1149.143247
3732.649279,-9696.697840,148.041188,1225.752797
3732.649609,-9548.656652,370.102971,612.876398
3732.649939,-9178.553681,296.082377,-1149.143247
3732.650269,-9252.574275,444.123565,0.000000
3732.650599,-10214.842000,1036.288319,1149.143247
3732.650929,-11251.130318,962.267725,1378.971896
3732.651258,-11103.089130,518.144159,1149.143247
3732.651588,-9844.739029,148.041188,1149.143247
3732.651918,-9918.759623,-148.041188,1608.800546
3732.652248,-10510.924376,0.000000,1838.629195
3732.652578,-9548.656652,-518.144159,1608.800546
3732.652908,-7920.203579,-296.082377,1302.362347
3732.653237,-8660.409521,148.041188,153.219100
3732.653567,-9918.759623,518.144159,-919.314598
3732.653897,-10362.883188,296.082377,-383.047749
3732.654227,-8882.471304,222.061783,-459.657299
3732.654557,-8512.368333,296.082377,-459.657299
3732.654887,-9104.533087,148.041188,-1302.362347
3732.655216,-9400.615463,-222.061783,-1378.971896
3732.655546,-9252.574275,0.000000,-383.047749
3732.655876,-9474.636058,222.061783,-612.876398
3732.656206,-9622.677246,74.020594,0.000000
3732.656536,-9770.718434,74.020594,689.485948
3732.656865,-9474.636058,148.041188,1455.581446
3732.657195,-9770.718434,592.164754,383.047749
3732.657525,-9918.759623,666.185348,-689.485948
3732.657855,-9400.615463,666.185348,-1225.752797
3732.658185,-9696.697840,814.226536,-459.657299
3732.658515,-11103.089130,962.267725,-229.828649
3732.658844,-11251.130318,370.102971,766.095498
3732.659174,-9696.697840,74.020594,229.828649
3732.659504,-8586.388927,-296.082377,-536.266849
3732.659834,-9474.636058,0.000000,0.000000
3732.660164,-9918.759623,0.000000,1455.581446
3732.660494,-10658.965565,148.041188,1838.629195
3732.660823,-9918.759623,74.020594,1225.752797
3732.661153,-9770.718434,0.000000,1225.752797
3732.661483,-10732.986159,148.041188,2221.676944
3732.661813,-11399.171507,0.000000,2757.943793
3732.662143,-11029.068536,0.000000,1991.848295
3732.662473,-9252.574275,-370.102971,1378.971896
3732.662802,-8290.306550,0.000000,536.266849
3732.663132,-9844.739029,0.000000,1072.533697
3732.663462,-11029.068536,370.102971,0.000000
3732.663792,-10436.903782,0.000000,-306.438199
3732.664122,-9178.553681,148.041188,-536.266849
3732.664452,-9252.574275,-222.061783,-536.266849
3732.664781,-9770.718434,-592.164754,0.000000
3732.665111,-9696.697840,-222.061783,536.266849
3732.665441,-9178.553681,0.000000,0.000000
3732.665771,-9400.615463,222.061783,-1225.752797
3732.666101,-10510.924376,-222.061783,-1378.971896
3732.666431,-10732.986159,-296.082377,306.438199
3732.666761,-9400.615463,-296.082377,842.705048
3732.667090,-8512.368333,-148.041188,-306.438199
3732.667420,-8956.491898,-444.123565,229.828649
3732.667750,-9104.533087,0.000000,612.876398
3732.668080,-9400.615463,296.082377,306.438199
3732.668410,-10066.800811,740.205942,-842.705048
3732.668740,-9992.780217,666.185348,-1149.143247
3732.669069,-8808.450710,814.226536,-766.095498
3732.669399,-9474.636058,740.205942,-229.828649
3732.669729,-10658.965565,962.267725,-766.095498
3732.670059,-10658.965565,1110.308913,-995.924147
3732.670389,-9770.718434,888.247130,-995.924147
3732.670719,-9918.759623,888.247130,-995.924147
3732.671048,-10288.862594,592.164754,0.000000
3732.671378,-9696.697840,148.041188,1225.752797
3732.671708,-9178.553681,666.185348,1149.143247
3732.672038,-10066.800811,296.082377,919.314598
3732.672368,-10807.006753,296.082377,1455.581446
3732.672698,-10288.862594,592.164754,2298.286494
3732.673028,-9918.759623,74.020594,842.705048
3732.673357,-9178.553681,444.123565,229.828649
3732.673687,-9918.759623,0.000000,1455.581446
3732.674017,-10066.800811,148.041188,2145.067394
3732.674347,-10066.800811,74.020594,1838.629195
3732.674677,-10140.821405,148.041188,689.485948
3732.675007,-9474.636058,-370.102971,76.609550
3732.675336,-9400.615463,0.000000,383.047749
3732.675666,-10510.924376,74.020594,919.314598
3732.675996,-10436.903782,-296.082377,153.219100
3732.676326,-9104.533087,-518.144159,-229.828649
3732.676656,-8364.327145,-444.123565,-689.485948
3732.676986,-9252.574275,-370.102971,76.609550
3732.677316,-10214.842000,-814.226536,536.266849
3732.677645,-9622.677246,-740.205942,383.047749
3732.677975,-9474.636058,-888.247130,-383.047749
3732.678305,-9400.615463,-962.267725,-842.705048
3732.678635,-10362.883188,-1258.350101,-766.095498
3732.678965,-10066.800811,-1110.308913,76.609550
3732.679295,-8882.471304,-1702.473667,229.828649
3732.679624,-9104.533087,-814.226536,-76.609550
3732.679954,-9474.636058,-962.267725,-306.438199
3732.680284,-9548.656652,-148.041188,-306.438199
3732.680614,-9548.656652,-592.164754,-1225.752797
3732.680944,-9696.697840,-444.123565,-2451.505594
3732.681274,-9918.759623,-666.185348,-1302.362347
3732.681604,-9844.739029,-592.164754,459.657299
3732.681933,-10436.903782,0.000000,612.876398
3732.682263,-10066.800811,-148.041188,0.000000
3732.682593,-10288.862594,370.102971,-1149.143247
3732.682923,-10658.965565,222.061783,-612.876398
3732.683253,-11177.109724,666.185348,76.609550
3732.683583,-10955.047942,370.102971,689.485948
3732.683912,-9918.759623,592.164754,919.314598
3732.684242,-9770.718434,-148.041188,76.609550
3732.684572,-10140.821405,0.000000,76.609550
3732.684902,-9400.615463,-592.164754,306.438199
3732.685232,-9252.574275,0.000000,995.924147
3732.685562,-9178.553681,0.000000,459.657299
3732.685892,-9104.533087,-370.102971,1685.410096
3732.686221,-10066.800811,148.041188,2834.553343
3732.686551,-10955.047942,444.123565,2911.162892
3732.686881,-11103.089130,296.082377,1072.533697
3732.687211,-10214.842000,-296.082377,459.657299
3732.687541,-8956.491898,-148.041188,1149.143247
3732.687871,-8586.388927,0.000000,2068.457845
3732.688200,-9178.553681,592.164754,536.266849
3732.688530,-10066.800811,518.144159,-306.438199
3732.688860,-9622.677246,666.185348,-1608.800546
3732.689190,-9918.759623,592.164754,-1378.971896
3732.689520,-10362.883188,444.123565,-536.266849
3732.689850,-9178.553681,444.123565,306.438199
3732.690180,-8216.285956,0.000000,1072.533697
3732.690509,-8660.409521,222.061783,383.047749
3732.690839,-9992.780217,222.061783,-536.266849
3732.691169,-10436.903782,444.123565,-459.657299
3732.691499,-9326.594869,296.082377,-459.657299
3732.691829,-9104.533087,592.164754,-153.219100
3732.692159,-9326.594869,592.164754,0.000000
3732.692488,-9104.533087,666.185348,383.047749
3732.692818,-9400.615463,740.205942,-459.657299
3732.693148,-9622.677246,1110.308913,-1378.971896
3732.693478,-10066.800811,962.267725,-1302.362347
3732.693808,-10066.800811,1036.288319,-459.657299
3732.694138,-10362.883188,814.226536,842.705048
3732.694468,-10362.883188,962.267725,76.609550
3732.694797,-9770.718434,592.164754,-383.047749
3732.695127,-9844.739029,740.205942,-766.095498
3732.695457,-9918.759623,888.247130,766.095498
3732.695787,-10658.965565,1184.329507,919.314598
3732.696117,-10881.027347,1110.308913,1149.143247
3732.696447,-10214.842000,370.102971,229.828649
3732.696776,-9400.615463,74.020594,0.000000
3732.697106,-9696.697840,0.000000,229.828649
3732.697436,-9326.594869,-222.061783,1838.629195
3732.697766,-9178.553681,-222.061783,2221.676944
3732.698096,-8660.409521,-296.082377,1149.143247
3732.698426,-9474.636058,-74.020594,995.924147
3732.698756,-10214.842000,0.000000,1915.238745
3732.699085,-10658.965565,-222.061783,2221.676944
3732.699415,-10732.986159,-296.082377,1149.143247
3732.699745,-9178.553681,-666.185348,153.219100
3732.700075,-8808.450710,-148.041188,995.924147
3732.700405,-9474.636058,-296.082377,1072.533697
3732.700735,-10288.862594,0.000000,0.000000
3732.701064,-10214.842000,148.041188,-689.485948
3732.701394,-9770.718434,-222.061783,-689.485948
3732.701724,-10436.903782,0.000000,-459.657299
3732.702054,-10140.821405,-296.082377,-612.876398
3732.702384,-9844.739029,-370.102971,-766.095498
3732.702714,-9474.636058,-740.205942,-1072.533697
3732.703044,-9622.677246,-666.185348,-1149.143247
3732.703373,-9992.780217,-888.247130,-383.047749
3732.703703,-10140.821405,-74.020594,536.266849
3732.704033,-10140.821405,-666.185348,-383.047749
3732.704363,-10436.903782,-370.102971,-1302.362347
3732.704693,-8734.430116,-1332.370696,-919.314598
3732.705023,-8364.327145,-888.247130,306.438199
3732.705352,-8882.471304,0.000000,1072.533697
3732.705682,-10066.800811,-296.082377,0.000000
3732.706012,-10140.821405,-444.123565,-229.828649
3732.706342,-9400.615463,-518.144159,-383.047749
3732.706672,-10362.883188,-222.061783,-383.047749
3732.707002,-10510.924376,-296.082377,-1072.533697
3732.707332,-9400.615463,-592.164754,229.828649
3732.707661,-8512.368333,-222.061783,153.219100
3732.707991,-9104.533087,518.144159,383.047749
3732.708321,-10807.006753,370.102971,536.266849
3732.708651,-10807.006753,592.164754,995.924147
3732.708981,-9696.697840,74.020594,689.485948
3732.709311,-9992.780217,0.000000,612.876398
3732.709640,-9918.759623,0.000000,1149.143247
3732.709970,-9548.656652,0.000000,2528.115143
3732.710300,-8734.430116,-518.144159,995.924147
3732.710630,-8734.430116,0.000000,536.266849
3732.710960,-9844.739029,74.020594,1072.533697
3732.711290,-10436.903782,296.082377,1838.629195
3732.711619,-10066.800811,148.041188,1149.143247
3732.711949,-9696.697840,222.061783,842.705048
3732.712279,-9696.697840,0.000000,689.485948
3732.712609,-10066.800811,222.061783,536.266849
3732.712939,-10288.862594,74.020594,612.876398
3732.713269,-9622.677246,0.000000,229.828649
3732.713599,-9252.574275,592.164754,0.000000
3732.713928,-9548.656652,444.123565,-536.266849
3732.714258,-10436.903782,444.123565,-1072.533697
3732.714588,-10362.883188,74.020594,-689.485948
3732.714918,-9548.656652,0.000000,0.000000
3732.715248,-10066.800811,74.020594,153.219100
3732.715578,-9548.656652,-148.041188,-536.266849
3732.715907,-9178.553681,74.020594,0.000000
3732.716237,-9104.533087,296.082377,-306.438199
3732.716567,-9548.656652,222.061783,-1149.143247
3732.716897,-10510.924376,444.123565,-1302.362347
3732.717227,-10510.924376,370.102971,-1149.143247
3732.717557,-9696.697840,592.164754,76.609550
3732.717887,-9104.533087,518.144159,0.000000
3732.718216,-9844.739029,592.164754,-689.485948
3732.718546,-9770.718434,444.123565,306.438199
3732.718876,-9918.759623,666.185348,76.609550
3732.719206,-10732.986159,1258.350101,-76.609550
3732.719536,-10436.903782,814.226536,-459.657299
3732.719866,-10140.821405,740.205942,459.657299
3732.720195,-9622.677246,74.020594,536.266849
3732.720525,-9992.780217,740.205942,1225.752797
3732.720855,-10881.027347,148.041188,1685.410096
3732.721185,-10362.883188,962.267725,1302.362347
3732.721515,-9252.574275,296.082377,995.924147
3732.721845,-9252.574275,444.123565,919.314598
3732.722175,-9622.677246,148.041188,1149.143247
3732.722504,-9992.780217,222.061783,1762.019645
3732.722834,-9770.718434,148.041188,1762.019645
3732.723164,-9844.739029,-370.102971,919.314598
3732.723494,-10066.800811,0.000000,1608.800546
3732.723824,-10140.821405,-296.082377,842.705048
3732.724154,-9992.780217,296.082377,229.828649
3732.724483,-9178.553681,-296.082377,0.000000
3732.724813,-8882.471304,0.000000,842.705048
3732.725143,-9548.656652,-222.061783,1532.190996
3732.725473,-9770.718434,74.020594,919.314598
3732.725803,-9548.656652,-592.164754,0.000000
3732.726133,-9400.615463,0.000000,0.000000
3732.726463,-10214.842000,0.000000,-229.828649
3732.726792,-10362.883188,-148.041188,-536.266849
3732.727122,-9252.574275,-666.185348,-306.438199
3732.727452,-8586.388927,-444.123565,-536.266849
3732.727782,-9030.512492,-296.082377,-1072.533697
3732.728112,-9844.739029,-814.226536,-919.314598
3732.728442,-10140.821405,-592.164754,383.047749
3732.728771,-10066.800811,-222.061783,153.219100
3732.729101,-9992.780217,-74.020594,-612.876398
3732.729431,-9474.636058,-518.144159,-1225.752797
3732.729761,-9400.615463,222.061783,-76.609550
3732.730091,-9622.677246,148.041188,-919.314598
3732.730421,-9844.739029,222.061783,-1762.019645
3732.730751,-10288.862594,0.000000,-995.924147
3732.731080,-10140.821405,0.000000,383.047749
3732.731410,-9770.718434,370.102971,766.095498
3732.731740,-10140.821405,222.061783,0.000000
3732.732070,-9844.739029,0.000000,-306.438199
3732.732400,-9696.697840,0.000000,-229.828649
3732.732730,-10881.027347,444.123565,689.485948
3732.733059,-11399.171507,370.102971,1685.410096
3732.733389,-11177.109724,444.123565,1608.800546
3732.733719,-9326.594869,-444.123565,766.095498
3732.734049,-9844.739029,222.061783,612.876398
3732.734379,-11029.068536,0.000000,766.095498
3732.734709,-10066.800811,-444.123565,1915.238745
3732.735039,-9030.512492,-740.205942,2145.067394
3732.735368,-8956.491898,0.000000,1532.190996
3732.735698,-9474.636058,-518.144159,2068.457845
3732.736028,-10140.821405,74.020594,2298.286494
3732.736358,-10214.842000,-370.102971,1378.971896
3732.736688,-10436.903782,-296.082377,459.657299
3732.737018,-9400.615463,-592.164754,612.876398
3732.737347,-9474.636058,-370.102971,1149.143247
3732.737677,-9770.718434,-74.020594,1608.800546
3732.738007,-9252.574275,0.000000,766.095498
3732.738337,-8734.430116,0.000000,612.876398
3732.738667,-8956.491898,222.061783,-459.657299
3732.738997,-10140.821405,740.205942,-842.705048
3732.739327,-10214.842000,370.102971,-612.876398
3732.739656,-9474.636058,814.226536,0.000000
3732.739986,-9474.636058,-148.041188,-1302.362347
3732.740316,-9622.677246,0.000000,-1378.971896
3732.740646,-9770.718434,-592.164754,0.000000
3732.740976,-9030.512492,148.041188,1149.143247
3732.741306,-8808.450710,74.020594,536.266849
3732.741635,-10140.821405,666.185348,-842.705048
3732.741965,-10140.821405,888.247130,-766.095498
3732.742295,-9844.739029,888.247130,-229.828649
3732.742625,-9696.697840,1110.308913,-459.657299
3732.742955,-10658.965565,888.247130,-1072.533697
3732.743285,-10362.883188,814.226536,-612.876398
3732.743615,-9548.656652,666.185348,-76.609550
3732.743944,-10510.924376,1110.308913,383.047749
3732.744274,-10955.047942,1258.350101,-842.705048
3732.744604,-9992.780217,962.267725,-383.047749
3732.744934,-9400.615463,666.185348,153.219100
3732.745264,-9918.759623,592.164754,459.657299
3732.745594,-10510.924376,296.082377,1685.410096
3732.745923,-10732.986159,222.061783,1378.971896
3732.746253,-9696.697840,0.000000,612.876398
3732.746583,-9104.533087,222.061783,689.485948
3732.746913,-8882.471304,0.000000,1915.238745
3732.747243,-10362.883188,740.205942,1685.410096
3732.747573,-10214.842000,-148.041188,919.314598
3732.747903,-9474.636058,-666.185348,306.438199
3732.748232,-9030.512492,-592.164754,1915.238745
3732.748562,-9622.677246,0.000000,2451.505594
3732.748892,-10214.842000,0.000000,1838.629195
3732.749222,-9548.656652,-666.185348,-383.047749
3732.749552,-8290.306550,-740.205942,-689.485948
3732.749882,-9474.636058,-444.123565,-459.657299
3732.750211,-11029.068536,74.020594,76.609550
3732.750541,-10140.821405,-814.226536,766.095498
3732.750871,-8290.306550,-444.123565,383.047749
3732.751201,-9030.512492,-888.247130,-459.657299
3732.751531,-10140.821405,-592.164754,-1225.752797
3732.751861,-10140.821405,-740.205942,-689.485948
3732.752190,-9104.533087,-962.267725,-153.219100
3732.752520,-9400.615463,-666.185348,-306.438199
3732.752850,-9622.677246,-962.267725,-766.095498
3732.753180,-9992.780217,-444.123565,306.438199
3732.753510,-9844.739029,-296.082377,0.000000
3732.753840,-9992.780217,-296.082377,-612.876398
3732.754170,-10436.903782,-296.082377,-1455.581446
3732.754499,-9178.553681,0.000000,-229.828649
3732.754829,-9622.677246,0.000000,919.314598
3732.755159,-10362.883188,592.164754,76.609550
3732.755489,-10584.944971,-518.144159,-1685.410096
3732.755819,-9992.780217,-74.020594,-995.924147
3732.756149,-9622.677246,148.041188,-153.219100
3732.756478,-10807.006753,296.082377,919.314598
3732.756808,-10214.842000,222.061783,842.705048
3732.757138,-8882.471304,0.000000,153.219100
3732.757468,-8956.491898,0.000000,-383.047749
3732.757798,-10807.006753,222.061783,76.609550
3732.758128,-11917.315666,-296.082377,2068.457845
3732.758458,-10584.944971,0.000000,1915.238745
3732.758787,-8956.491898,74.020594,1149.143247
3732.759117,-9252.574275,0.000000,766.095498
3732.759447,-9992.780217,148.041188,1608.800546
3732.759777,-10140.821405,-222.061783,1762.019645
3732.760107,-10066.800811,222.061783,689.485948
3732.760437,-9252.574275,-296.082377,689.485948
3732.760766,-9252.574275,0.000000,1915.238745
3732.761096,-9326.594869,148.041188,2221.676944
3732.761426,-9918.759623,444.123565,1149.143247
3732.761756,-9400.615463,148.041188,-153.219100
3732.762086,-9400.615463,148.041188,-229.828649
3732.762416,-10288.862594,888.247130,1225.752797
3732.762746,-10510.924376,74.020594,995.924147
3732.763075,-10066.800811,148.041188,1378.971896
3732.763405,-9252.574275,222.061783,459.657299
3732.763735,-9104.533087,222.061783,0.000000
3732.764065,-9622.677246,148.041188,-1149.143247
3732.764395,-9770.718434,518.144159,-383.047749
3732.764725,-9622.677246,518.144159,-612.876398
3732.765054,-9178.553681,666.185348,-1072.533697
3732.765384,-9474.636058,444.123565,-1225.752797
3732.765714,-9474.636058,518.144159,0.000000
3732.766044,-9992.780217,518.144159,0.000000
3732.766374,-10584.944971,814.226536,-1072.533697
3732.766704,-9696.697840,888.247130,-1608.800546
3732.767034,-8882.471304,592.164754,76.609550
3732.767364,-10214.842000,666.185348,1072.533697
3732.767693,-10584.944971,814.226536,153.219100
3732.768023,-10214.842000,74.020594,0.000000
3732.768353,-9474.636058,1110.308913,-689.485948
3732.768683,-9696.697840,740.205942,-76.609550
3732.769013,-10436.903782,1332.370696,0.000000
3732.769343,-9548.656652,1036.288319,76.609550
3732.769673,-9548.656652,1184.329507,0.000000
3732.770003,-9770.718434,1184.329507,153.219100
3732.770332,-10658.965565,592.164754,459.657299
3732.770662,-10807.006753,740.205942,1072.533697
3732.770992,-9770.718434,296.082377,1149.143247
3732.771322,-10066.800811,444.123565,229.828649
3732.771652,-9844.739029,74.020594,689.485948
3732.771982,-9474.636058,222.061783,1762.019645
3732.772312,-9844.739029,222.061783,2374.896044
3732.772641,-9844.739029,148.041188,842.705048
3732.772971,-9548.656652,-148.041188,766.095498
3732.773301,-9770.718434,0.000000,1072.533697
3732.773631,-10140.821405,-222.061783,1838.629195
3732.773961,-10436.903782,-296.082377,1532.190996
3732.774291,-9548.656652,-370.102971,1378.971896
3732.774621,-9252.574275,-592.164754,766.095498
3732.774951,-9400.615463,-518.144159,-153.219100
3732.775280,-9844.739029,-962.267725,-459.657299
3732.775610,-9918.759623,148.041188,766.095498
3732.775940,-9474.636058,-814.226536,229.828649
3732.776270,-9696.697840,-222.061783,0.000000
3732.776600,-10140.821405,-666.185348,153.219100
3732.776930,-9622.677246,-222.061783,459.657299
3732.777260,-9622.677246,-666.185348,0.000000
3732.777590,-10510.924376,-1036.288319,-1149.143247
3732.777919,-9770.718434,-1184.329507,612.876398
3732.778249,-9030.512492,-814.226536,995.924147
3732.778579,-8586.388927,-444.123565,153.219100
3732.778909,-9770.718434,-666.185348,-1532.190996
3732.779239,-10066.800811,0.000000,-1225.752797
3732.779569,-9844.739029,-296.082377,-689.485948
3732.779899,-9992.780217,148.041188,-1225.752797
3732.780228,-9474.636058,-740.205942,-1302.362347
3732.780558,-9696.697840,-518.144159,-229.828649
3732.780888,-9474.636058,-962.267725,0.000000
3732.781218,-9474.636058,-444.123565,-612.876398
3732.781548,-10214.842000,-296.082377,-306.438199
3732.781878,-10436.903782,148.041188,-153.219100
3732.782208,-10584.944971,0.000000,306.438199
3732.782538,-10584.944971,296.082377,-383.047749
3732.782867,-10807.006753,-222.061783,383.047749
3732.783197,-9844.739029,-74.020594,842.705048
3732.783527,-9400.615463,-518.144159,0.000000
3732.783857,-9030.512492,-814.226536,-306.438199
3732.784187,-9030.512492,-888.247130,842.705048
3732.784517,-9178.553681,-222.061783,1762.019645
3732.784847,-9400.615463,-518.144159,1455.581446
3732.785177,-10584.944971,0.000000,919.314598
3732.785506,-9992.780217,0.000000,1838.629195
3732.785836,-10288.862594,-370.102971,1685.410096
3732.786166,-9918.759623,0.000000,1532.190996
3732.786496,-9474.636058,0.000000,689.485948
3732.786826,-9696.697840,148.041188,1149.143247
3732.787156,-9474.636058,296.082377,153.219100
3732.787486,-9400.615463,740.205942,-612.876398
3732.787816,-9918.759623,296.082377,-306.438199
3732.788145,-9844.739029,888.247130,-459.657299
3732.788475,-10066.800811,74.020594,0.000000
3732.788805,-9622.677246,0.000000,76.609550
3732.789135,-9104.533087,0.000000,459.657299
3732.789465,-9474.636058,222.061783,536.266849
3732.789795,-10288.862594,0.000000,76.609550
3732.790125,-10066.800811,-148.041188,-612.876398
3732.790454,-9326.594869,370.102971,1225.752797
3732.790784,-9844.739029,148.041188,1762.019645
3732.791114,-10214.842000,444.123565,995.924147
3732.791444,-9400.615463,148.041188,-76.609550
3732.791774,-8734.430116,1110.308913,-842.705048
3732.792104,-9918.759623,1258.350101,-612.876398
3732.792434,-10955.047942,1406.391290,-1302.362347
3732.792764,-10362.883188,814.226536,-1532.190996
3732.793093,-8586.388927,1258.350101,-1149.143247
3732.793423,-9252.574275,1480.411884,-383.047749
3732.793753,-11325.150913,1628.453072,0.000000
3732.794083,-10658.965565,1332.370696,-76.609550
3732.794413,-9252.574275,888.247130,-383.047749
3732.794743,-9400.615463,888.247130,-153.219100
3732.795073,-10732.986159,1406.391290,383.047749
3732.795403,-11325.150913,888.247130,1838.629195
3732.795732,-9696.697840,740.205942,1532.190996
3732.796062,-9252.574275,296.082377,536.266849
3732.796392,-10362.883188,518.144159,229.828649
3732.796722,-10510.924376,370.102971,1685.410096
3732.797052,-9696.697840,0.000000,1838.629195
3732.797382,-9030.512492,222.061783,1302.362347
3732.797712,-8364.327145,-444.123565,995.924147
3732.798042,-9252.574275,0.000000,1608.800546
3732.798371,-10288.862594,0.000000,1072.533697
3732.798701,-10955.047942,74.020594,1225.752797
3732.799031,-9844.739029,-592.164754,1608.800546
3732.799361,-9474.636058,0.000000,1378.971896
3732.799691,-9622.677246,-296.082377,1149.143247
3732.800021,-9770.718434,-444.123565,383.047749
3732.800351,-9474.636058,-74.020594,612.876398
3732.800680,-8808.450710,-296.082377,0.000000
3732.801010,-9474.636058,-296.082377,-842.705048
3732.801340,-9696.697840,-592.164754,-459.657299
3732.801670,-9474.636058,-518.144159,919.314598
3732.802000,-9252.574275,-888.247130,306.438199
3732.802330,-9474.636058,-518.144159,-995.924147
3732.802660,-9918.759623,-888.247130,-766.095498
3732.802990,-9696.697840,-592.164754,229.828649
3732.803319,-9326.594869,-518.144159,153.219100
3732.803649,-9474.636058,-518.144159,0.000000
3732.803979,-9622.677246,-370.102971,-383.047749
3732.804309,-9326.594869,-296.082377,459.657299
3732.804639,-10140.821405,0.000000,-76.609550
3732.804969,-10140.821405,-296.082377,-1532.190996
3732.805299,-9770.718434,-296.082377,-1378.971896
3732.805629,-9326.594869,0.000000,-536.266849
3732.805958,-9844.739029,222.061783,0.000000
3732.806288,-10510.924376,444.123565,-1149.143247
3732.806618,-9992.780217,148.041188,-689.485948
3732.806948,-10066.800811,296.082377,-612.876398
3732.807278,-10807.006753,666.185348,0.000000
3732.807608,-11177.109724,0.000000,383.047749
3732.807938,-11029.068536,518.144159,919.314598
3732.808268,-9696.697840,0.000000,536.266849
3732.808597,-9770.718434,-148.041188,0.000000
3732.808927,-9400.615463,-518.144159,0.000000
3732.809257,-8956.491898,0.000000,842.705048
3732.809587,-9770.718434,-370.102971,1225.752797
3732.809917,-9474.636058,0.000000,1225.752797
3732.810247,-9474.636058,-666.185348,1225.752797
3732.810577,-9696.697840,-222.061783,1532.190996
3732.810906,-10362.883188,-370.102971,1838.629195
3732.811236,-9918.759623,-740.205942,1149.143247
3732.811566,-8586.388927,-444.123565,383.047749
3732.811896,-8808.450710,-296.082377,612.876398
3732.812226,-9548.656652,0.000000,612.876398
3732.812556,-10436.903782,-74.020594,0.000000
3732.812886,-9770.718434,0.000000,0.000000
3732.813216,-8808.450710,0.000000,-459.657299
3732.813545,-9252.574275,0.000000,-1072.533697
3732.813875,-9178.553681,-666.185348,0.000000
3732.814205,-9030.512492,-296.082377,306.438199
3732.814535,-9400.615463,0.000000,0.000000
3732.814865,-9770.718434,518.144159,-1455.581446
3732.815195,-10955.047942,222.061783,229.828649
3732.815525,-10066.800811,296.082377,842.705048
3732.815855,-9844.739029,444.123565,229.828649
3732.816184,-9622.677246,740.205942,-536.266849
3732.816514,-9326.594869,444.123565,-306.438199
3732.816844,-9548.656652,666.185348,-306.438199
3732.817174,-9918.759623,1036.288319,-919.314598
3732.817504,-10362.883188,814.226536,-1225.752797
3732.817834,-10214.842000,1110.308913,-459.657299
3732.818164,-9992.780217,962.267725,536.266849
3732.818494,-10807.006753,1258.350101,76.609550
3732.818823,-10362.883188,1036.288319,-536.266849
3732.819153,-9252.574275,592.164754,0.000000
3732.819483,-10362.883188,1332.370696,536.266849
3732.819813,-10140.821405,666.185348,995.924147
3732.820143,-10362.883188,814.226536,1072.533697
3732.820473,-9844.739029,962.267725,-383.047749
3732.820803,-9992.780217,222.061783,0.000000
3732.821132,-10140.821405,296.082377,0.000000
3732.821462,-9474.636058,74.020594,1302.362347
3732.821792,-9474.636058,0.000000,2451.505594
3732.822122,-8586.388927,0.000000,1225.752797
3732.822452,-9326.594869,0.000000,0.000000
3732.822782,-9548.656652,-222.061783,0.000000
3732.823112,-9474.636058,-370.102971,612.876398
3732.823442,-9992.780217,296.082377,1455.581446
3732.823771,-9696.697840,-592.164754,766.095498
3732.824101,-9400.615463,0.000000,842.705048
3732.824431,-9178.553681,-592.164754,306.438199
3732.824761,-9474.636058,-74.020594,153.219100
3732.825091,-9844.739029,-666.185348,-229.828649
3732.825421,-9548.656652,0.000000,229.828649
3732.825751,-9548.656652,-592.164754,-76.609550
3732.826081,-10510.924376,-740.205942,0.000000
3732.826410,-10140.821405,-1184.329507,306.438199
3732.826740,-9844.739029,-1406.391290,0.000000
3732.827070,-8882.471304,-1258.350101,0.000000
3732.827400,-9474.636058,-1406.391290,0.000000
3732.827730,-9770.718434,-296.082377,459.657299
3732.828060,-9474.636058,-370.102971,-536.266849
3732.828390,-9622.677246,-444.123565,-2145.067394
3732.828720,-9918.759623,-370.102971,-2451.505594
3732.829049,-9622.677246,-148.041188,-1302.362347
3732.829379,-9622.677246,0.000000,-306.438199
3732.829709,-9030.512492,0.000000,-842.705048
3732.830039,-9326.594869,-370.102971,-383.047749
3732.830369,-10214.842000,148.041188,383.047749
3732.830699,-11621.233289,518.144159,229.828649
3732.831029,-11843.295072,444.123565,-459.657299
3732.831358,-10436.903782,148.041188,153.219100
3732.831688,-9178.553681,0.000000,766.095498
3732.832018,-9696.697840,0.000000,1072.533697
3732.832348,-9696.697840,0.000000,536.266849
3732.832678,-9400.615463,296.082377,459.657299
3732.833008,-9474.636058,74.020594,0.000000
3732.833338,-10807.006753,592.164754,0.000000
3732.833668,-11029.068536,-74.020594,459.657299
3732.833997,-9844.739029,0.000000,2068.457845
3732.834327,-9178.553681,-666.185348,2068.457845
3732.834657,-9252.574275,-444.123565,2145.067394
3732.834987,-8956.491898,-888.247130,1378.971896
3732.835317,-8808.450710,0.000000,1915.238745
3732.835647,-8956.491898,222.061783,1838.629195
3732.835977,-10362.883188,962.267725,995.924147
3732.836307,-10807.006753,444.123565,1225.752797
3732.836636,-9918.759623,148.041188,1302.362347
3732.836966,-9770.718434,222.061783,842.705048
3732.837296,-9548.656652,0.000000,383.047749
3732.837626,-9400.615463,74.020594,383.047749
3732.837956,-8956.491898,222.061783,76.609550
3732.838286,-9918.759623,888.247130,-383.047749
3732.838616,-9992.780217,370.102971,-459.657299
3732.838945,-10066.800811,222.061783,153.219100
3732.839275,-9400.615463,-296.082377,-612.876398
3732.839605,-8734.430116,0.000000,-383.047749
3732.839935,-8956.491898,-222.061783,0.000000
3732.840265,-8734.430116,666.185348,153.219100
3732.840595,-8882.471304,1036.288319,-689.485948
3732.840925,-9548.656652,1036.288319,-1302.362347
3732.841255,-10807.006753,1110.308913,-383.047749
3732.841584,-11177.109724,814.226536,383.047749
3732.841914,-10510.924376,444.123565,0.000000
3732.842244,-9844.739029,370.102971,-1225.752797
3732.842574,-8956.491898,666.185348,-383.047749
3732.842904,-9474.636058,1036.288319,0.000000
3732.843234,-10288.862594,2072.576638,0.000000
3732.843564,-11103.089130,1258.350101,-536.266849
3732.843894,-10584.944971,888.247130,-383.047749
3732.844223,-10214.842000,814.226536,383.047749
3732.844553,-10510.924376,888.247130,1072.533697
3732.844883,-10362.883188,370.102971,689.485948
3732.845213,-9474.636058,222.061783,229.828649
3732.845543,-8660.409521,0.000000,-153.219100
3732.845873,-9696.697840,740.205942,0.000000
3732.846203,-10807.006753,518.144159,842.705048
3732.846533,-9918.759623,0.000000,1378.971896
3732.846862,-8882.471304,74.020594,919.314598
3732.847192,-8882.471304,-222.061783,536.266849
3732.847522,-10066.800811,-296.082377,1838.629195
3732.847852,-10140.821405,74.020594,1608.800546
3732.848182,-9770.718434,0.000000,995.924147
3732.848512,-9474.636058,-148.041188,0.000000
3732.848842,-9622.677246,0.000000,1149.143247
3732.849171,-10288.862594,-296.082377,689.485948
3732.849501,-9548.656652,-296.082377,0.000000
3732.849831,-8956.491898,-222.061783,-766.095498
3732.850161,-9252.574275,0.000000,0.000000
3732.850491,-10066.800811,0.000000,0.000000
3732.850821,-10510.924376,74.020594,-306.438199
3732.851151,-9622.677246,-444.123565,-1072.533697
3732.851481,-9030.512492,-666.185348,-1149.143247
3732.851810,-9252.574275,-1184.329507,-842.705048
3732.852140,-9030.512492,-1480.411884,153.219100
3732.852470,-9400.615463,-1036.288319,1608.800546
3732.852800,-9030.512492,-592.164754,995.924147
3732.853130,-9992.780217,0.000000,-459.657299
3732.853460,-10214.842000,-148.041188,-1225.752797
3732.853790,-10066.800811,-370.102971,0.000000
3732.854120,-10807.006753,-296.082377,919.314598
3732.854449,-10362.883188,-666.185348,459.657299
3732.854779,-9622.677246,-1036.288319,-383.047749
3732.855109,-8734.430116,-518.144159,459.657299
3732.855439,-8882.471304,0.000000,612.876398
3732.855769,-11177.109724,518.144159,76.609550
3732.856099,-11399.171507,666.185348,-1149.143247
3732.856429,-10140.821405,0.000000,-229.828649
3732.856759,-10288.862594,148.041188,612.876398
3732.857088,-11399.171507,-148.041188,1225.752797
3732.857418,-10807.006753,-1036.288319,1685.410096
3732.857748,-8290.306550,-666.185348,1225.752797
3732.858078,-7846.182985,-222.061783,689.485948
3732.858408,-9844.739029,444.123565,919.314598
3732.858738,-11029.068536,740.205942,1302.362347
3732.859068,-10214.842000,0.000000,766.095498
3732.859397,-9474.636058,222.061783,689.485948
3732.859727,-9918.759623,-222.061783,919.314598
3732.860057,-10288.862594,-370.102971,2298.286494
3732.860387,-9622.677246,-444.123565,919.314598
3732.860717,-9030.512492,-370.102971,459.657299
3732.861047,-8660.409521,-444.123565,-306.438199
3732.861377,-9918.759623,222.061783,383.047749
3732.861707,-10362.883188,0.000000,1149.143247
3732.862036,-9548.656652,0.000000,306.438199
3732.862366,-9326.594869,-592.164754,0.000000
3732.862696,-9252.574275,-444.123565,-459.657299
3732.863026,-9474.636058,-740.205942,-383.047749
3732.863356,-9326.594869,0.000000,-766.095498
3732.863686,-8438.347739,0.000000,-459.657299
3732.864016,-8956.491898,296.082377,-306.438199
3732.864346,-10362.883188,518.144159,0.000000
3732.864675,-10658.965565,444.123565,536.266849
3732.865005,-10436.903782,592.164754,1302.362347
3732.865335,-9844.739029,740.205942,-153.219100
3732.865665,-10955.047942,740.205942,-1608.800546
3732.865994,-10584.944971,592.164754,-1225.752797
3732.866324,-9548.656652,962.267725,-229.828649
3732.866654,-9474.636058,962.267725,-1072.533697
3732.866984,-9992.780217,1036.288319,-1762.019645
3732.867314,-9474.636058,0.000000,-1072.533697
3732.867643,-9844.739029,1184.329507,536.266849
3732.867973,-10510.924376,1036.288319,612.876398
3732.868303,-10732.986159,1036.288319,0.000000
3732.868633,-9326.594869,518.144159,-383.047749
3732.868963,-9326.594869,444.123565,842.705048
3732.869292,-10214.842000,740.205942,1685.410096
3732.869622,-10807.006753,370.102971,1991.848295
3732.869952,-10510.924376,666.185348,1915.238745
3732.870282,-8808.450710,518.144159,689.485948
3732.870611,-9400.615463,1110.308913,306.438199
3732.870941,-10140.821405,888.247130,536.266849
3732.871271,-9474.636058,370.102971,76.609550
3732.871601,-9474.636058,370.102971,-76.609550
3732.871931,-9696.697840,666.185348,-459.657299
3732.872260,-9622.677246,296.082377,229.828649
3732.872590,-9474.636058,222.061783,842.705048
3732.872920,-9548.656652,444.123565,536.266849
3732.873250,-10140.821405,0.000000,-383.047749
3732.873580,-9548.656652,-444.123565,-536.266849
3732.873909,-8586.388927,-962.267725,229.828649
3732.874239,-9178.553681,-370.102971,459.657299
3732.874569,-9474.636058,-962.267725,536.266849
3732.874899,-9474.636058,-814.226536,842.705048
3732.875228,-9474.636058,-962.267725,153.219100
3732.875558,-10214.842000,-370.102971,-383.047749
3732.875888,-10214.842000,-1110.308913,-919.314598
3732.876218,-9400.615463,-1184.329507,-919.314598
3732.876548,-8956.491898,-1184.329507,-383.047749
3732.876877,-9326.594869,-1184.329507,0.000000
3732.877207,-9770.718434,-518.144159,459.657299
3732.877537,-10066.800811,-740.205942,612.876398
3732.877867,-9474.636058,-296.082377,-766.095498
3732.878197,-10584.944971,-444.123565,-1072.533697
3732.878526,-10584.944971,0.000000,-153.219100
3732.878856,-10436.903782,-518.144159,689.485948
3732.879186,-10140.821405,-740.205942,0.000000
3732.879516,-9622.677246,-1036.288319,-306.438199
3732.879845,-10436.903782,-296.082377,612.876398
3732.880175,-10140.821405,0.000000,612.876398
3732.880505,-10510.924376,-592.164754,306.438199
3732.880835,-9474.636058,-592.164754,0.000000
3732.881165,-9548.656652,-296.082377,919.314598
3732.881494,-9770.718434,0.000000,842.705048
3732.881824,-9548.656652,-444.123565,612.876398
3732.882154,-9326.594869,-592.164754,766.095498
3732.882484,-9548.656652,0.000000,1455.581446
3732.882814,-9918.759623,0.000000,306.438199
3732.883143,-10807.006753,0.000000,153.219100
3732.883473,-10214.842000,-296.082377,306.438199
3732.883803,-9696.697840,-296.082377,766.095498
3732.884133,-9104.533087,-296.082377,383.047749
3732.884462,-9326.594869,-592.164754,689.485948
3732.884792,-9104.533087,-296.082377,1532.190996
3732.885122,-9400.615463,74.020594,1838.629195
3732.885452,-10658.965565,370.102971,536.266849
3732.885782,-9696.697840,0.000000,306.438199
3732.886111,-9178.553681,296.082377,229.828649
3732.886441,-9918.759623,444.123565,76.609550
3732.886771,-9992.780217,222.061783,-612.876398
3732.887101,-9622.677246,0.000000,0.000000
3732.887430,-8808.450710,518.144159,306.438199
3732.887760,-9400.615463,592.164754,766.095498
3732.888090,-10066.800811,1258.350101,229.828649
3732.888420,-9918.759623,592.164754,0.000000
3732.888750,-9474.636058,740.205942,-306.438199
3732.889079,-9918.759623,666.185348,-306.438199
3732.889409,-10510.924376,518.144159,0.000000
3732.889739,-10140.821405,444.123565,306.438199
3732.890069,-8734.430116,518.144159,-306.438199
3732.890399,-9030.512492,222.061783,-919.314598
3732.890728,-9548.656652,1406.391290,-612.876398
3732.891058,-10214.842000,1332.370696,-153.219100
3732.891388,-9918.759623,740.205942,-306.438199
3732.891718,-9992.780217,740.205942,-919.314598
3732.892047,-9474.636058,888.247130,76.609550
3732.892377,-10288.862594,1036.288319,1149.143247
3732.892707,-9770.718434,814.226536,0.000000
3732.893037,-9030.512492,962.267725,-766.095498
3732.893367,-9326.594869,1258.350101,-459.657299
3732.893696,-10362.883188,1332.370696,0.000000
3732.894026,-11399.171507,1776.494261,153.219100
3732.894356,-10066.800811,962.267725,153.219100
3732.894686,-8882.471304,444.123565,0.000000
3732.895016,-8956.491898,814.226536,306.438199
3732.895345,-10436.903782,518.144159,383.047749
3732.895675,-10066.800811,592.164754,383.047749
3732.896005,-8882.471304,296.082377,1149.143247
3732.896335,-9622.677246,666.185348,919.314598
3732.896664,-10807.006753,444.123565,612.876398
3732.896994,-10584.944971,148.041188,1762.019645
3732.897324,-10436.903782,0.000000,1838.629195
3732.897654,-9992.780217,148.041188,995.924147
3732.897984,-10140.821405,0.000000,0.000000
3732.898313,-9622.677246,0.000000,153.219100
3732.898643,-9104.533087,-74.020594,689.485948
3732.898973,-9474.636058,222.061783,229.828649
3732.899303,-10140.821405,-370.102971,-919.314598
3732.899633,-9844.739029,-592.164754,-383.047749
3732.899962,-9252.574275,-740.205942,689.485948
3732.900292,-9474.636058,-814.226536,919.314598
3732.900622,-9622.677246,-814.226536,689.485948
3732.900952,-9326.594869,-1406.391290,536.266849
3732.901281,-9474.636058,-1184.329507,459.657299
3732.901611,-9918.759623,-1110.308913,-153.219100
3732.901941,-10732.986159,-1554.432478,919.314598
3732.902271,-10584.944971,-888.247130,1532.190996
3732.902601,-9178.553681,-1258.350101,383.047749
3732.902930,-9104.533087,-518.144159,0.000000
3732.903260,-9474.636058,-666.185348,0.000000
3732.903590,-9992.780217,0.000000,0.000000
3732.903920,-10214.842000,0.000000,-1225.752797
3732.904250,-10288.862594,-370.102971,-2374.896044
3732.904579,-10362.883188,-370.102971,-766.095498
3732.904909,-10214.842000,-666.185348,229.828649
3732.905239,-9770.718434,-592.164754,459.657299
3732.905569,-9992.780217,-518.144159,153.219100
3732.905898,-9474.636058,-370.102971,0.000000
3732.906228,-9622.677246,-518.144159,459.657299
3732.906558,-9770.718434,444.123565,459.657299
3732.906888,-10510.924376,370.102971,919.314598
3732.907218,-10362.883188,222.061783,995.924147
3732.907547,-9770.718434,74.020594,842.705048
3732.907877,-10214.842000,-444.123565,459.657299
3732.908207,-10288.862594,-370.102971,612.876398
3732.908537,-9844.739029,-518.144159,459.657299
3732.908867,-9252.574275,-296.082377,76.609550
3732.909196,-8808.450710,0.000000,0.000000
3732.909526,-9548.656652,-148.041188,1072.533697
3732.909856,-9844.739029,444.123565,1532.190996
3732.910186,-9696.697840,-296.082377,1149.143247
3732.910515,-9400.615463,-666.185348,0.000000
3732.910845,-9030.512492,-518.144159,1225.752797
3732.911175,-9326.594869,0.000000,1762.019645
3732.911505,-8956.491898,0.000000,383.047749
3732.911835,-8660.409521,74.020594,-76.609550
3732.912164,-9548.656652,592.164754,153.219100
3732.912494,-9992.780217,592.164754,0.000000
3732.912824,-10658.965565,814.226536,-536.266849
3732.913154,-10658.965565,370.102971,-383.047749
3732.913484,-10362.883188,592.164754,-459.657299
3732.913813,-9918.759623,148.041188,-1072.533697
3732.914143,-9548.656652,148.041188,-1532.190996
3732.914473,-9474.636058,0.000000,-383.047749
3732.914803,-9622.677246,444.123565,229.828649
3732.915132,-9844.739029,0.000000,76.609550
3732.915462,-10214.842000,666.185348,-1149.143247
3732.915792,-9474.636058,370.102971,-459.657299
3732.916122,-10510.924376,296.082377,306.438199
3732.916452,-10288.862594,296.082377,-306.438199
3732.916781,-9030.512492,-222.061783,-842.705048
3732.917111,-8586.388927,370.102971,306.438199
3732.917441,-9104.533087,296.082377,689.485948
3732.917771,-10807.006753,666.185348,306.438199
3732.918100,-10732.986159,814.226536,153.219100
3732.918430,-10658.965565,370.102971,153.219100
3732.918760,-9844.739029,592.164754,-536.266849
3732.919090,-9178.553681,370.102971,-536.266849
3732.919420,-9178.553681,444.123565,306.438199
3732.919749,-9252.574275,1258.350101,689.485948
3732.920079,-10066.800811,1036.288319,153.219100
3732.920409,-10732.986159,1036.288319,0.000000
3732.920739,-10288.862594,814.226536,842.705048
3732.921069,-10510.924376,592.164754,1072.533697
3732.921398,-10214.842000,666.185348,766.095498
3732.921728,-9918.759623,0.000000,766.095498
3732.922058,-9622.677246,222.061783,2068.457845
3732.922388,-9548.656652,0.000000,2298.286494
3732.922717,-10288.862594,592.164754,1072.533697
3732.923047,-9474.636058,0.000000,153.219100
3732.923377,-9770.718434,666.185348,1149.143247
3732.923707,-10140.821405,444.123565,1532.190996
3732.924037,-9770.718434,74.020594,842.705048
3732.924366,-9548.656652,-222.061783,459.657299
3732.924696,-9770.718434,-444.123565,383.047749
3732.925026,-10288.862594,-444.123565,766.095498
3732.925356,-10584.944971,-1258.350101,919.314598
3732.925686,-9474.636058,-888.247130,1072.533697
3732.926015,-9326.594869,-592.164754,1302.362347
3732.926345,-9400.615463,-518.144159,459.657299
3732.926675,-9548.656652,-888.247130,-766.095498
3732.927005,-9622.677246,-666.185348,0.000000
3732.927334,-9252.574275,-740.205942,383.047749
3732.927664,-9474.636058,-740.205942,0.000000
3732.927994,-9622.677246,-592.164754,-536.266849
3732.928324,-9770.718434,-888.247130,-153.219100
3732.928654,-9918.759623,-740.205942,-153.219100
3732.928983,-9252.574275,-814.226536,-1991.848295
3732.929313,-8808.450710,-1258.350101,-1838.629195
3732.929643,-9252.574275,0.000000,-919.314598
3732.929973,-8882.471304,74.020594,-766.095498
3732.930303,-10066.800811,74.020594,-612.876398
3732.930632,-10066.800811,296.082377,-689.485948
3732.930962,-9992.780217,0.000000,-153.219100
3732.931292,-10658.965565,370.102971,-459.657299
3732.931622,-11029.068536,-296.082377,-536.266849
3732.931951,-10214.842000,-222.061783,0.000000
3732.932281,-9104.533087,-370.102971,153.219100
3732.932611,-9918.759623,0.000000,-306.438199
3732.932941,-10732.986159,0.000000,306.438199
