#time,accel_x,accel_y,accel_z
3611.537406,-9770.718434,-370.102971,-2068.457845
3611.537736,-10288.862594,74.020594,-1149.143247
3611.538066,-10955.047942,0.000000,-306.438199
3611.538396,-9992.780217,0.000000,-612.876398
3611.538726,-9104.533087,-370.102971,-1915.238745
3611.539056,-9178.553681,592.164754,-2374.896044
3611.539386,-9474.636058,296.082377,-2757.943793
3611.539716,-10362.883188,814.226536,-1915.238745
3611.540046,-9474.636058,666.185348,-1302.362347
3611.540376,-9178.553681,962.267725,-459.657299
3611.540706,-9844.739029,888.247130,-612.876398
3611.541036,-10214.842000,888.247130,-1225.752797
3611.541365,-10066.800811,962.267725,-1378.971896
3611.541695,-8808.450710,1110.308913,-1608.800546
3611.542025,-9474.636058,740.205942,-1762.019645
3611.542355,-9770.718434,666.185348,-1455.581446
3611.542685,-9844.739029,444.123565,-995.924147
3611.543015,-9770.718434,518.144159,-1532.190996
3611.543345,-9252.574275,0.000000,-2145.067394
3611.543675,-9400.615463,74.020594,-1838.629195
3611.544005,-9622.677246,222.061783,-1685.410096
3611.544335,-9622.677246,148.041188,-1225.752797
3611.544665,-9326.594869,0.000000,-919.314598
3611.544995,-9178.553681,0.000000,-1762.019645
3611.545325,-9474.636058,0.000000,-2451.505594
3611.545655,-9844.739029,-74.020594,-3140.991542
3611.545985,-10510.924376,0.000000,-3447.429741
3611.546315,-9030.512492,-222.061783,-2987.772442
3611.546645,-9992.780217,-1628.453072,-383.047749
3611.546975,-11917.315666,-814.226536,689.485948
3611.547305,-9178.553681,-1110.308913,842.705048
3611.547634,-9400.615463,-1332.370696,383.047749
3611.547964,-10510.924376,-1184.329507,-1149.143247
3611.548294,-10658.965565,-962.267725,-3524.039291
3611.548624,-10066.800811,-1702.473667,-3600.648841
3611.548954,-10362.883188,-814.226536,-2298.286494
3611.549284,-10140.821405,-1554.432478,-1685.410096
3611.549614,-9696.697840,-2368.659014,-1455.581446
3611.549944,-8808.450710,-3108.864956,-1378.971896
3611.550274,-8734.430116,-2886.803174,-612.876398
3611.550604,-9548.656652,-2368.659014,-536.266849
3611.550934,-10214.842000,-2072.576638,-766.095498
3611.551264,-10288.862594,-1554.432478,-1532.190996
3611.551594,-10584.944971,-1628.453072,-1455.581446
3611.551924,-10732.986159,-1776.494261,-1608.800546
3611.552254,-11473.192101,-2294.638420,-1378.971896
3611.552584,-10658.965565,-2442.679609,-1225.752797
3611.552914,-9770.718434,-2738.761985,-1762.019645
3611.553244,-9622.677246,-2220.617826,-2987.772442
3611.553574,-9474.636058,-2368.659014,-3294.210641
3611.553904,-9548.656652,-2442.679609,-3140.991542
3611.554233,-8734.430116,-2516.700203,-2221.676944
3611.554563,-9104.533087,-2664.741391,-766.095498
3611.554893,-9622.677246,-2812.782580,383.047749
3611.555223,-9696.697840,-2368.659014,1225.752797
3611.555553,-9844.739029,-2516.700203,995.924147
3611.555883,-9770.718434,-2368.659014,76.609550
3611.556213,-10510.924376,-2368.659014,612.876398
3611.556543,-10362.883188,-2220.617826,1532.190996
3611.556873,-10362.883188,-1924.535449,1762.019645
3611.557203,-10510.924376,-1702.473667,1302.362347
3611.557533,-9992.780217,-1924.535449,-383.047749
3611.557863,-9474.636058,-2442.679609,-2145.067394
3611.558193,-9030.512492,-2516.700203,-2145.067394
3611.558523,-8290.306550,-2738.761985,0.000000
3611.558853,-8142.265362,-1998.556043,1378.971896
3611.559183,-7994.224174,-1924.535449,1762.019645
3611.559513,-8290.306550,-1554.432478,995.924147
3611.559843,-8882.471304,-1554.432478,229.828649
3611.560173,-10066.800811,-1702.473667,1455.581446
3611.560503,-11251.130318,-1776.494261,3064.381992
3611.560833,-11769.274478,-1406.391290,3907.087040
3611.561162,-11103.089130,-1702.473667,2681.334243
3611.561492,-9770.718434,-1850.514855,306.438199
3611.561822,-9326.594869,-2368.659014,-3370.820191
3611.562152,-8586.388927,-2368.659014,-4290.134789
3611.562482,-8438.347739,-2294.638420,-1762.019645
3611.562812,-7698.141797,-1702.473667,383.047749
3611.563142,-7772.162391,-1036.288319,2145.067394
3611.563472,-7994.224174,-814.226536,2068.457845
3611.563802,-9326.594869,-444.123565,995.924147
3611.564132,-11177.109724,-888.247130,1149.143247
3611.564462,-11769.274478,0.000000,2068.457845
3611.564792,-12509.480420,-518.144159,2681.334243
3611.565122,-11843.295072,-296.082377,2145.067394
3611.565452,-11547.212695,-814.226536,0.000000
3611.565782,-10362.883188,-1036.288319,-1915.238745
3611.566112,-9696.697840,-1036.288319,-2528.115143
3611.566442,-8660.409521,-370.102971,-1072.533697
3611.566772,-7328.038826,444.123565,689.485948
3611.567102,-7105.977043,740.205942,2068.457845
3611.567432,-7624.121203,1480.411884,1685.410096
3611.567762,-9992.780217,1776.494261,1455.581446
3611.568092,-12953.603985,2294.638420,1532.190996
3611.568422,-13989.892304,2146.597232,1225.752797
3611.568751,-12879.583391,2146.597232,689.485948
3611.569081,-12139.377449,1184.329507,76.609550
3611.569411,-11695.253884,592.164754,-1302.362347
3611.569741,-10140.821405,444.123565,-1378.971896
3611.570071,-8142.265362,962.267725,-1378.971896
3611.570401,-7254.018232,1628.453072,-229.828649
3611.570731,-6513.812290,2294.638420,1378.971896
3611.571061,-6809.894666,2590.720797,1149.143247
3611.571391,-7772.162391,3256.906145,383.047749
3611.571721,-10140.821405,3627.009116,153.219100
3611.572051,-12583.501014,3997.112087,-306.438199
3611.572381,-13249.686362,3478.967927,-689.485948
3611.572711,-12583.501014,2812.782580,-1149.143247
3611.573041,-11399.171507,1628.453072,-1991.848295
3611.573371,-10066.800811,370.102971,-2374.896044
3611.573701,-8142.265362,148.041188,-1378.971896
3611.574031,-6365.771101,666.185348,0.000000
3611.574361,-4811.338623,1406.391290,1532.190996
3611.574691,-5995.668130,2738.761985,2374.896044
3611.575021,-7254.018232,3849.070898,2068.457845
3611.575351,-9844.739029,4663.297435,459.657299
3611.575681,-12213.398043,5181.441594,-1072.533697
3611.576010,-13767.830521,5329.482782,-1302.362347
3611.576340,-14656.077652,4367.215058,-2681.334243
3611.576670,-13471.748144,2072.576638,-4443.353888
3611.577000,-10955.047942,0.000000,-4903.011187
3611.577330,-8882.471304,-1110.308913,-3064.381992
3611.577660,-6809.894666,-1924.535449,-153.219100
3611.577990,-5181.441594,-1184.329507,2911.162892
3611.578320,-4219.173869,-444.123565,4519.963438
3611.578650,-5847.626942,814.226536,4749.792088
3611.578980,-8586.388927,2368.659014,2834.553343
3611.579310,-12065.356855,2886.803174,1762.019645
3611.579640,-13989.892304,2368.659014,1225.752797
3611.579970,-14063.912898,592.164754,766.095498
3611.580300,-13989.892304,-1036.288319,-229.828649
3611.580630,-12657.521608,-3182.885551,-689.485948
3611.580960,-9918.759623,-4293.194464,-689.485948
3611.581290,-7698.141797,-4737.318029,-766.095498
3611.581620,-5773.606348,-3701.029710,383.047749
3611.581950,-3923.091493,-2812.782580,2221.676944
3611.582280,-4441.235652,-740.205942,3370.820191
3611.582610,-7698.141797,740.205942,3140.991542
3611.582940,-11621.233289,814.226536,2068.457845
3611.583270,-13471.748144,666.185348,306.438199
3611.583599,-14508.036463,-296.082377,0.000000
3611.583929,-14730.098246,-1480.411884,153.219100
3611.584259,-15322.262999,-2960.823768,0.000000
3611.584589,-12583.501014,-5773.606348,-1149.143247
3611.584919,-8290.306550,-5625.565159,-3064.381992
3611.585249,-5921.647536,-5033.400406,-1455.581446
3611.585579,-4367.215058,-4515.256246,1991.848295
3611.585909,-4811.338623,-2738.761985,3447.429741
3611.586239,-5625.565159,-962.267725,2528.115143
3611.586569,-7772.162391,444.123565,919.314598
3611.586899,-11843.295072,370.102971,-689.485948
3611.587229,-14656.077652,0.000000,-919.314598
3611.587559,-15174.221811,-1554.432478,306.438199
3611.587889,-15618.345376,-2442.679609,612.876398
3611.588219,-13841.851115,-4145.153275,153.219100
3611.588549,-10362.883188,-4219.173869,-1072.533697
3611.588879,-7031.956449,-3627.009116,-1532.190996
3611.589209,-4885.359217,-2590.720797,-919.314598
3611.589539,-4811.338623,-518.144159,306.438199
3611.589869,-4737.318029,1406.391290,1149.143247
3611.590199,-6809.894666,2516.700203,766.095498
3611.590529,-10066.800811,3478.967927,-383.047749
3611.590859,-12657.521608,2960.823768,-2221.676944
3611.591188,-14359.995275,1776.494261,-3064.381992
3611.591518,-15544.324782,296.082377,-2911.162892
3611.591848,-14508.036463,-1110.308913,-1149.143247
3611.592178,-11843.295072,-2590.720797,76.609550
3611.592508,-8364.327145,-2886.803174,612.876398
3611.592838,-4367.215058,-2368.659014,-306.438199
3611.593168,-3849.070898,-962.267725,1378.971896
3611.593498,-4959.379811,1258.350101,3524.039291
3611.593828,-5699.585753,3330.926739,3370.820191
3611.594158,-6883.915261,3775.050304,1532.190996
3611.594488,-9844.739029,4737.318029,-153.219100
3611.594818,-13471.748144,4145.153275,-1685.410096
3611.595148,-16432.571912,3552.988522,-1915.238745
3611.595478,-16432.571912,222.061783,-2681.334243
3611.595808,-11473.192101,-1776.494261,-2911.162892
3611.596138,-8142.265362,-1628.453072,-1225.752797
3611.596468,-6217.729913,-2368.659014,2298.286494
3611.596798,-5033.400406,-666.185348,3524.039291
3611.597128,-3997.112087,1480.411884,4673.182538
3611.597458,-5551.544565,4219.173869,4366.744339
3611.597788,-8586.388927,5551.544565,3447.429741
3611.598118,-12287.418637,7698.141797,2451.505594
3611.598448,-15988.448347,7402.059420,-153.219100
3611.598777,-15914.427753,4959.379811,-2834.553343
3611.599107,-16432.571912,2738.761985,-5898.935335
3611.599437,-12287.418637,2738.761985,-6358.592633
3611.599767,-10732.986159,370.102971,-4596.572988
3611.600097,-7328.038826,-2516.700203,-1225.752797
3611.600427,-3997.112087,-1406.391290,2145.067394
3611.600757,-3330.926739,-518.144159,5975.544884
3611.601087,-5033.400406,1850.514855,6665.030833
3611.601417,-7179.997637,3701.029710,6205.373534
3611.601747,-10732.986159,5107.421000,3983.696590
3611.602077,-12509.480420,5329.482782,1072.533697
3611.602407,-15470.304188,4515.256246,-1302.362347
3611.602737,-16432.571912,1110.308913,-2374.896044
3611.603067,-14730.098246,0.000000,-2604.724693
3611.603397,-13989.892304,-2072.576638,-3140.991542
3611.603727,-9770.718434,-2960.823768,-2987.772442
3611.604057,-4959.379811,-1554.432478,-919.314598
3611.604387,-1110.308913,518.144159,3447.429741
3611.604717,-3552.988522,0.000000,5209.449386
3611.605047,-7920.203579,2146.597232,3600.648841
3611.605377,-11547.212695,5329.482782,2757.943793
3611.605707,-13027.624579,3923.091493,842.705048
3611.606037,-13101.645173,2664.741391,0.000000
3611.606366,-16876.695478,370.102971,-919.314598
3611.606696,-16802.674883,-666.185348,-2068.457845
3611.607026,-18209.066173,-7698.141797,-2604.724693
3611.607356,-8512.368333,-5403.503377,-2987.772442
3611.607686,-3108.864956,-6513.812290,0.000000
3611.608016,-2294.638420,-3775.050304,1991.848295
3611.608346,-2960.823768,-4219.173869,3830.477490
3611.608676,-8512.368333,0.000000,2757.943793
3611.609006,-6661.853478,2516.700203,2911.162892
3611.609336,-10140.821405,1998.556043,229.828649
3611.609666,-12953.603985,1332.370696,-1378.971896
3611.609996,-15692.365970,370.102971,-1608.800546
3611.610326,-16284.530724,-888.247130,-1532.190996
3611.610656,-16580.613101,-7994.224174,-1302.362347
3611.610986,-9326.594869,-7402.059420,-995.924147
3611.611316,-6661.853478,-9326.594869,1532.190996
3611.611646,-4441.235652,-5699.585753,1762.019645
3611.611976,-3552.988522,-4145.153275,1685.410096
3611.612306,-6291.750507,74.020594,1685.410096
3611.612636,-5107.421000,2442.679609,2145.067394
3611.612966,-10288.862594,2590.720797,536.266849
3611.613296,-11843.295072,2590.720797,-1072.533697
3611.613626,-13915.871710,1036.288319,-2451.505594
3611.613955,-15470.304188,148.041188,-3830.477490
3611.614285,-15100.201217,-2590.720797,-4673.182538
3611.614615,-17098.757260,-7254.018232,-2068.457845
3611.614945,-8216.285956,-5625.565159,-1149.143247
3611.615275,-4663.297435,-7105.977043,1378.971896
3611.615605,-1924.535449,-2960.823768,2757.943793
3611.615935,-3404.947333,-2368.659014,4443.353888
3611.616265,-7476.080014,740.205942,2451.505594
3611.616595,-7179.997637,3404.947333,1762.019645
3611.616925,-11843.295072,2738.761985,-1302.362347
3611.617255,-13175.665768,1702.473667,0.000000
3611.617585,-16802.674883,518.144159,-689.485948
3611.617915,-15470.304188,0.000000,-2145.067394
3611.618245,-13915.871710,-2220.617826,-2451.505594
3611.618575,-10436.903782,-3034.844362,-459.657299
3611.618905,-8956.491898,-2146.597232,2145.067394
3611.619235,-4145.153275,-962.267725,4826.401637
3611.619565,-4959.379811,888.247130,2757.943793
3611.619895,-4663.297435,2960.823768,3370.820191
3611.620225,-8068.244768,4959.379811,1302.362347
3611.620555,-12435.459826,5403.503377,0.000000
3611.620885,-13397.727550,5181.441594,-1149.143247
3611.621215,-15396.283594,2886.803174,-1915.238745
3611.621544,-15914.427753,2072.576638,-2834.553343
3611.621874,-13471.748144,888.247130,-4443.353888
3611.622204,-12657.521608,-592.164754,-3753.867940
3611.622534,-5773.606348,-2442.679609,-919.314598
3611.622864,-4811.338623,-814.226536,842.705048
3611.623194,-5551.544565,-592.164754,4596.572988
3611.623524,-6069.688724,2294.638420,5822.325785
3611.623854,-6587.832884,3478.967927,5439.278036
3611.624184,-9474.636058,4441.235652,1838.629195
3611.624514,-11325.150913,5847.626942,-1149.143247
3611.624844,-14211.954086,4219.173869,-2145.067394
3611.625174,-15618.345376,1924.535449,-2528.115143
3611.625504,-13249.686362,-444.123565,-1991.848295
3611.625834,-8660.409521,-222.061783,-1608.800546
3611.626164,-8882.471304,-1554.432478,-1685.410096
3611.626494,-5107.421000,-2812.782580,153.219100
3611.626824,-4589.276840,-888.247130,1915.238745
3611.627154,-7698.141797,370.102971,4136.915689
3611.627484,-5921.647536,3404.947333,4443.353888
3611.627814,-10140.821405,4663.297435,4060.306139
3611.628144,-12213.398043,4293.194464,689.485948
3611.628474,-12361.439231,4811.338623,-1685.410096
3611.628804,-14285.974681,2220.617826,-4749.792088
3611.629133,-14952.160028,962.267725,-5669.106685
3611.629463,-12731.542202,-2220.617826,-3447.429741
3611.629793,-13915.871710,-5995.668130,-536.266849
3611.630123,-4589.276840,-3923.091493,0.000000
3611.630453,-3701.029710,-3552.988522,2987.772442
3611.630783,-1850.514855,296.082377,5669.106685
3611.631113,-6143.709319,0.000000,5975.544884
3611.631443,-10955.047942,2960.823768,2834.553343
3611.631773,-10881.027347,5033.400406,995.924147
3611.632103,-13545.768739,2368.659014,-536.266849
3611.632433,-14063.912898,962.267725,-153.219100
3611.632763,-15470.304188,-1776.494261,-2298.286494
3611.633093,-12065.356855,-1110.308913,-1915.238745
3611.633423,-10140.821405,-1924.535449,-1685.410096
3611.633753,-9770.718434,-3404.947333,0.000000
3611.634083,-4737.318029,0.000000,459.657299
3611.634413,-2368.659014,666.185348,3983.696590
3611.634743,-4811.338623,1406.391290,4060.306139
3611.635073,-10362.883188,3478.967927,3600.648841
3611.635403,-13249.686362,5255.462188,2374.896044
3611.635733,-13027.624579,3701.029710,0.000000
3611.636063,-13619.789333,2368.659014,-2911.162892
3611.636393,-16062.468941,-740.205942,-3983.696590
3611.636722,-15692.365970,-1480.411884,-3600.648841
3611.637052,-13989.892304,-8142.265362,-1608.800546
3611.637382,-5403.503377,-5625.565159,-1762.019645
3611.637712,-2072.576638,-5921.647536,1532.190996
3611.638042,-5403.503377,-3923.091493,3447.429741
3611.638372,-6365.771101,-814.226536,3600.648841
3611.638702,-7994.224174,1480.411884,2987.772442
3611.639032,-8734.430116,2590.720797,1838.629195
3611.639362,-13693.809927,1776.494261,306.438199
3611.639692,-14359.995275,1406.391290,306.438199
3611.640022,-14137.933492,-296.082377,-612.876398
3611.640352,-13989.892304,-666.185348,-1762.019645
3611.640682,-13767.830521,-2072.576638,-1072.533697
3611.641012,-10066.800811,-3997.112087,-153.219100
3611.641342,-4959.379811,-962.267725,689.485948
3611.641672,-2590.720797,740.205942,3600.648841
3611.642002,-4219.173869,74.020594,4290.134789
3611.642332,-7624.121203,2886.803174,2451.505594
3611.642662,-10362.883188,4811.338623,612.876398
3611.642992,-11843.295072,3627.009116,-612.876398
3611.643322,-13397.727550,3256.906145,-1532.190996
3611.643652,-15248.242405,444.123565,-1762.019645
3611.643982,-15248.242405,0.000000,-2911.162892
3611.644311,-16136.489536,-5477.523971,-3677.258390
3611.644641,-8586.388927,-4219.173869,-3370.820191
3611.644971,-4515.256246,-6069.688724,1072.533697
3611.645301,-2220.617826,-2738.761985,2221.676944
3611.645631,-3923.091493,-2516.700203,3217.601092
3611.645961,-7624.121203,222.061783,1991.848295
3611.646291,-6513.812290,3478.967927,1455.581446
3611.646621,-11399.171507,2664.741391,-612.876398
3611.646951,-12509.480420,2368.659014,-919.314598
3611.647281,-15766.386565,1184.329507,-1455.581446
3611.647611,-14878.139434,1184.329507,-1762.019645
3611.647941,-13841.851115,-2294.638420,-2374.896044
3611.648271,-10510.924376,-2886.803174,-1991.848295
3611.648601,-8290.306550,-2590.720797,383.047749
3611.648931,-4959.379811,-1110.308913,3217.601092
3611.649261,-5181.441594,888.247130,3140.991542
3611.649591,-5699.585753,2220.617826,4060.306139
3611.649921,-8216.285956,4293.194464,2451.505594
3611.650251,-11473.192101,4663.297435,995.924147
3611.650581,-13471.748144,4959.379811,-1302.362347
3611.650911,-14285.974681,2072.576638,-1302.362347
3611.651241,-15248.242405,1628.453072,-2298.286494
3611.651571,-15396.283594,-1480.411884,-3524.039291
3611.651900,-15766.386565,-5625.565159,-1838.629195
3611.652230,-6735.874072,-4515.256246,-1608.800546
3611.652560,-2368.659014,-3330.926739,919.314598
3611.652890,-3701.029710,-740.205942,4213.525239
3611.653220,-5181.441594,0.000000,4903.011187
3611.653550,-8068.244768,2812.782580,3217.601092
3611.653880,-8956.491898,4811.338623,1762.019645
3611.654210,-13323.706956,3923.091493,-1072.533697
3611.654540,-14656.077652,2738.761985,-995.924147
3611.654870,-15618.345376,1110.308913,-919.314598
3611.655200,-14285.974681,-592.164754,-2221.676944
3611.655530,-14285.974681,-7031.956449,-2068.457845
3611.655860,-7846.182985,-5995.668130,-1838.629195
3611.656190,-3182.885551,-5181.441594,1072.533697
3611.656520,-6809.894666,-5255.462188,2604.724693
3611.656850,-4589.276840,-888.247130,2451.505594
3611.657180,-6587.832884,2294.638420,2987.772442
3611.657510,-7179.997637,3849.070898,3294.210641
3611.657840,-13027.624579,2812.782580,153.219100
3611.658170,-15100.201217,3108.864956,-1455.581446
3611.658500,-14211.954086,1998.556043,-1915.238745
3611.658829,-15322.262999,-814.226536,-4290.134789
3611.659159,-12213.398043,-1628.453072,-3294.210641
3611.659489,-12139.377449,-2368.659014,-612.876398
3611.659819,-8882.471304,-3701.029710,766.095498
3611.660149,-3923.091493,-1258.350101,2221.676944
3611.660479,-2368.659014,-148.041188,4903.011187
3611.660809,-6143.709319,1110.308913,4596.572988
3611.661139,-7031.956449,3182.885551,2451.505594
3611.661469,-10066.800811,4515.256246,229.828649
3611.661799,-13323.706956,3997.112087,-1685.410096
3611.662129,-14952.160028,1998.556043,-1455.581446
3611.662459,-16802.674883,-888.247130,-1991.848295
3611.662789,-13323.706956,-962.267725,-1149.143247
3611.663118,-12213.398043,-2368.659014,-536.266849
3611.663448,-10510.924376,-3330.926739,153.219100
3611.663778,-5255.462188,-1406.391290,1685.410096
3611.664108,-3034.844362,-1924.535449,4673.182538
3611.664438,-4663.297435,0.000000,3600.648841
3611.664768,-7476.080014,2072.576638,2911.162892
3611.665098,-11103.089130,4367.215058,1225.752797
3611.665428,-13249.686362,3330.926739,-1532.190996
3611.665758,-14878.139434,3034.844362,-2374.896044
3611.666088,-16136.489536,148.041188,-1915.238745
3611.666418,-16136.489536,-1924.535449,-2757.943793
3611.666748,-10436.903782,-4737.318029,-3064.381992
3611.667078,-9030.512492,-4959.379811,-2298.286494
3611.667407,-518.144159,-5181.441594,1532.190996
3611.667737,-4811.338623,-4441.235652,2451.505594
3611.668067,-8586.388927,-1258.350101,3447.429741
3611.668397,-6217.729913,1480.411884,3370.820191
3611.668727,-7698.141797,3256.906145,2757.943793
3611.669057,-11621.233289,2368.659014,-229.828649
3611.669387,-15174.221811,2664.741391,-1991.848295
3611.669717,-14211.954086,74.020594,-2451.505594
3611.670047,-13841.851115,-1554.432478,-2604.724693
3611.670377,-14952.160028,-9400.615463,-306.438199
3611.670707,-6513.812290,-6217.729913,-689.485948
3611.671037,-3923.091493,-5995.668130,536.266849
3611.671366,-6661.853478,-4885.359217,2604.724693
3611.671696,-3108.864956,-666.185348,2451.505594
3611.672026,-5995.668130,1702.473667,3064.381992
3611.672356,-8290.306550,3701.029710,2145.067394
3611.672686,-12879.583391,2590.720797,0.000000
3611.673016,-13693.809927,3478.967927,-1762.019645
3611.673346,-14063.912898,2368.659014,-1915.238745
3611.673676,-16062.468941,-370.102971,-3753.867940
3611.674006,-11621.233289,1036.288319,-3294.210641
3611.674336,-11103.089130,0.000000,-1762.019645
3611.674666,-9178.553681,-2664.741391,383.047749
3611.674996,-3701.029710,74.020594,1608.800546
3611.675326,-3923.091493,-370.102971,5975.544884
3611.675655,-5995.668130,1702.473667,5515.887586
3611.675985,-7698.141797,3701.029710,3753.867940
3611.676315,-8808.450710,4663.297435,842.705048
3611.676645,-12065.356855,5033.400406,-1532.190996
3611.676975,-15248.242405,2886.803174,-2451.505594
3611.677305,-15618.345376,740.205942,-1455.581446
3611.677635,-13989.892304,-1036.288319,-1072.533697
3611.677965,-14656.077652,-5033.400406,-919.314598
3611.678295,-7846.182985,-3108.864956,-842.705048
3611.678625,-5107.421000,-3997.112087,1302.362347
3611.678955,-888.247130,1406.391290,4136.915689
3611.679285,-4515.256246,1628.453072,4826.401637
3611.679615,-9474.636058,3478.967927,2987.772442
3611.679944,-9992.780217,6513.812290,919.314598
3611.680274,-13767.830521,3997.112087,-995.924147
3611.680604,-13989.892304,3849.070898,-1685.410096
3611.680934,-17172.777854,1776.494261,-2451.505594
3611.681264,-15766.386565,0.000000,-3677.258390
3611.681594,-11547.212695,0.000000,-4979.620737
3611.681924,-9252.574275,0.000000,-2221.676944
3611.682254,-7179.997637,-3478.967927,0.000000
3611.682584,-4737.318029,518.144159,3294.210641
3611.682914,-1480.411884,2368.659014,5515.887586
3611.683244,-7624.121203,2516.700203,4060.306139
3611.683574,-7994.224174,4145.153275,2528.115143
3611.683903,-12879.583391,4959.379811,-153.219100
3611.684233,-13989.892304,3256.906145,-2145.067394
3611.684563,-14656.077652,1628.453072,-1685.410096
3611.684893,-16580.613101,-1628.453072,-2374.896044
3611.685223,-11251.130318,-4959.379811,-766.095498
3611.685553,-9030.512492,-5403.503377,-3370.820191
3611.685883,-2886.803174,-4515.256246,612.876398
3611.686213,-7254.018232,-4737.318029,1455.581446
3611.686543,-7624.121203,-222.061783,3370.820191
3611.686873,-5625.565159,2294.638420,3447.429741
3611.687203,-7624.121203,3849.070898,3983.696590
3611.687533,-11621.233289,3701.029710,1608.800546
3611.687863,-15322.262999,4367.215058,-383.047749
3611.688192,-14211.954086,2590.720797,-2451.505594
3611.688522,-14656.077652,74.020594,-3830.477490
3611.688852,-13175.665768,-370.102971,-3064.381992
3611.689182,-13101.645173,-2294.638420,-1072.533697
3611.689512,-8956.491898,-4663.297435,76.609550
3611.689842,-5181.441594,-2812.782580,1302.362347
3611.690172,-1406.391290,-370.102971,4903.011187
3611.690502,-3997.112087,0.000000,5822.325785
3611.690832,-7624.121203,1258.350101,2987.772442
3611.691162,-10066.800811,3404.947333,153.219100
3611.691492,-11843.295072,3478.967927,-1838.629195
3611.691822,-14730.098246,2146.597232,-1072.533697
3611.692152,-15470.304188,-1702.473667,-1762.019645
3611.692481,-14063.912898,-2368.659014,-1302.362347
3611.692811,-13915.871710,-6143.709319,-842.705048
3611.693141,-8142.265362,-4071.132681,-612.876398
3611.693471,-3849.070898,-3182.885551,1378.971896
3611.693801,-2664.741391,592.164754,3140.991542
3611.694131,-4737.318029,-74.020594,3600.648841
3611.694461,-8290.306550,2960.823768,2068.457845
3611.694791,-9252.574275,5551.544565,1302.362347
3611.695121,-12879.583391,3849.070898,-1225.752797
3611.695451,-13397.727550,3108.864956,-2221.676944
3611.695781,-16284.530724,888.247130,-2987.772442
3611.696111,-15322.262999,-370.102971,-3677.258390
3611.696440,-10881.027347,-3330.926739,-3830.477490
3611.696770,-10214.842000,-4589.276840,-2911.162892
3611.697100,-2072.576638,-5329.482782,1608.800546
3611.697430,-5551.544565,-5181.441594,2221.676944
3611.697760,-6513.812290,-740.205942,2451.505594
3611.698090,-4589.276840,1406.391290,3600.648841
3611.698420,-8290.306550,3108.864956,2528.115143
3611.698750,-10510.924376,3256.906145,0.000000
3611.699080,-14952.160028,4589.276840,-2987.772442
3611.699410,-13471.748144,1850.514855,-2451.505594
3611.699740,-14730.098246,-370.102971,-3677.258390
3611.700070,-14508.036463,-7624.121203,-1455.581446
3611.700400,-8586.388927,-6291.750507,-2068.457845
3611.700729,-3552.988522,-5699.585753,919.314598
3611.701059,-7698.141797,-5847.626942,1915.238745
3611.701389,-4811.338623,-1110.308913,3600.648841
3611.701719,-5699.585753,1924.535449,4443.353888
3611.702049,-6291.750507,4663.297435,4213.525239
3611.702379,-10732.986159,3775.050304,1225.752797
3611.702709,-13545.768739,4367.215058,-612.876398
3611.703039,-14285.974681,3552.988522,-2298.286494
3611.703369,-16062.468941,962.267725,-4136.915689
3611.703699,-14137.933492,-1406.391290,-4060.306139
3611.704029,-15840.407159,-7105.977043,-1455.581446
3611.704359,-7402.059420,-4959.379811,-1378.971896
3611.704689,-2516.700203,-3923.091493,612.876398
3611.705018,-1258.350101,-296.082377,4903.011187
3611.705348,-4367.215058,370.102971,6358.592633
3611.705678,-8586.388927,4071.132681,4366.744339
3611.706008,-8586.388927,5255.462188,2068.457845
3611.706338,-14211.954086,3701.029710,-1378.971896
3611.706668,-14582.057057,2590.720797,-1302.362347
3611.706998,-16950.716072,666.185348,-2145.067394
3611.707328,-13841.851115,-1776.494261,-2145.067394
3611.707658,-7105.977043,-296.082377,-1685.410096
3611.707988,-9030.512492,-666.185348,-459.657299
3611.708318,-5921.647536,-3627.009116,1991.848295
3611.708648,-4589.276840,370.102971,1608.800546
3611.708977,-5181.441594,1924.535449,4519.963438
3611.709307,-7105.977043,3849.070898,4673.182538
3611.709637,-10584.944971,5033.400406,3983.696590
3611.709967,-12583.501014,4145.153275,995.924147
3611.710297,-13471.748144,5033.400406,-1762.019645
3611.710627,-14730.098246,3256.906145,-3524.039291
3611.710957,-15544.324782,222.061783,-4290.134789
3611.711287,-11621.233289,1554.432478,-2834.553343
3611.711617,-9696.697840,814.226536,-2221.676944
3611.711947,-7105.977043,-2516.700203,153.219100
3611.712277,-4441.235652,-222.061783,1608.800546
3611.712607,-4515.256246,74.020594,5669.106685
3611.712937,-5625.565159,962.267725,4749.792088
3611.713266,-8808.450710,3552.988522,3217.601092
3611.713596,-11103.089130,4367.215058,1762.019645
3611.713926,-12953.603985,4441.235652,-383.047749
3611.714256,-15470.304188,2442.679609,-1532.190996
3611.714586,-15396.283594,-1258.350101,-2068.457845
3611.714916,-9992.780217,1332.370696,-2681.334243
3611.715246,-9844.739029,148.041188,-2145.067394
3611.715576,-8660.409521,-3849.070898,229.828649
3611.715906,-5255.462188,-370.102971,306.438199
3611.716236,-4589.276840,814.226536,4290.134789
3611.716566,-5403.503377,1702.473667,3983.696590
3611.716896,-9400.615463,3849.070898,2911.162892
3611.717226,-9844.739029,4811.338623,1762.019645
3611.717555,-12065.356855,4737.318029,-1149.143247
3611.717885,-14359.995275,2664.741391,-2834.553343
3611.718215,-15618.345376,296.082377,-2987.772442
3611.718545,-13841.851115,-1036.288319,-2451.505594
3611.718875,-15914.427753,-5033.400406,-1915.238745
3611.719205,-7994.224174,-3552.988522,-2221.676944
3611.719535,-4959.379811,-4811.338623,-153.219100
3611.719865,-1998.556043,-2368.659014,4060.306139
3611.720195,-3775.050304,-1184.329507,4596.572988
3611.720525,-7476.080014,1184.329507,2221.676944
3611.720855,-8512.368333,4219.173869,689.485948
3611.721185,-13619.789333,2960.823768,-1915.238745
3611.721515,-14952.160028,2368.659014,-1991.848295
3611.721844,-16580.613101,444.123565,-1991.848295
3611.722174,-15174.221811,-2294.638420,-1685.410096
3611.722504,-15618.345376,-8290.306550,-1608.800546
3611.722834,-7105.977043,-5551.544565,-1302.362347
3611.723164,-5033.400406,-5329.482782,1455.581446
3611.723494,-4737.318029,-3849.070898,4596.572988
3611.723824,-3108.864956,-592.164754,3524.039291
3611.724154,-8364.327145,2368.659014,3140.991542
3611.724484,-7846.182985,5107.421000,2451.505594
3611.724814,-13471.748144,3034.844362,-459.657299
3611.725144,-15248.242405,3330.926739,-2068.457845
3611.725474,-14952.160028,2072.576638,-1685.410096
3611.725803,-15766.386565,-962.267725,-3524.039291
3611.726133,-12879.583391,-2590.720797,-3447.429741
3611.726463,-14285.974681,-5847.626942,-842.705048
3611.726793,-6365.771101,-4145.153275,1532.190996
3611.727123,-3849.070898,-3256.906145,2911.162892
3611.727453,-1850.514855,592.164754,5592.497135
3611.727783,-6069.688724,518.144159,5592.497135
3611.728113,-8512.368333,3256.906145,2451.505594
3611.728443,-10066.800811,4515.256246,-383.047749
3611.728773,-14285.974681,3108.864956,-1915.238745
3611.729103,-14582.057057,1998.556043,-1532.190996
3611.729433,-16580.613101,-444.123565,-1149.143247
3611.729763,-13989.892304,-2294.638420,-1608.800546
3611.730092,-14285.974681,-5551.544565,-1378.971896
3611.730422,-7846.182985,-3701.029710,0.000000
3611.730752,-5329.482782,-3330.926739,2298.286494
3611.731082,-2886.803174,-1776.494261,4979.620737
3611.731412,-3997.112087,0.000000,2911.162892
3611.731742,-7994.224174,2812.782580,2681.334243
3611.732072,-10584.944971,5181.441594,1378.971896
3611.732402,-15174.221811,2960.823768,-1455.581446
3611.732732,-14804.118840,2294.638420,-2604.724693
3611.733062,-16210.510130,518.144159,-2451.505594
3611.733392,-16432.571912,-1184.329507,-3140.991542
3611.733722,-15248.242405,-9030.512492,-2374.896044
3611.734052,-7402.059420,-6883.915261,-2451.505594
3611.734381,-592.164754,-6217.729913,76.609550
3611.734711,-3256.906145,-3923.091493,2757.943793
3611.735041,-5625.565159,518.144159,3677.258390
3611.735371,-9104.533087,2368.659014,3140.991542
3611.735701,-7772.162391,4959.379811,1762.019645
3611.736031,-12213.398043,3404.947333,-459.657299
3611.736361,-16506.592507,2368.659014,-1455.581446
3611.736691,-14804.118840,814.226536,-1378.971896
3611.737021,-15174.221811,-1776.494261,-2068.457845
3611.737351,-8586.388927,-4441.235652,-689.485948
3611.737681,-9548.656652,-5477.523971,-689.485948
3611.738011,-3404.947333,-5477.523971,1915.238745
3611.738340,-6587.832884,-4441.235652,1838.629195
3611.738670,-8438.347739,-1036.288319,2757.943793
3611.739000,-3552.988522,2960.823768,2834.553343
3611.739330,-8512.368333,3701.029710,3370.820191
3611.739660,-10881.027347,2960.823768,766.095498
3611.739990,-13841.851115,4219.173869,-2528.115143
3611.740320,-14878.139434,1776.494261,-4136.915689
3611.740650,-13619.789333,-592.164754,-5209.449386
3611.740980,-12879.583391,-2812.782580,-2757.943793
3611.741310,-13619.789333,-3775.050304,536.266849
3611.741640,-7772.162391,-3404.947333,1455.581446
3611.741970,-4219.173869,-2220.617826,1532.190996
3611.742300,370.102971,1628.453072,4290.134789
3611.742629,-5699.585753,1628.453072,4596.572988
3611.742959,-9548.656652,3404.947333,3064.381992
3611.743289,-11769.274478,5921.647536,-229.828649
3611.743619,-13545.768739,3849.070898,-2298.286494
3611.743949,-14359.995275,2294.638420,-2681.334243
3611.744279,-15840.407159,-888.247130,-2528.115143
3611.744609,-13249.686362,-1406.391290,-2374.896044
3611.744939,-13397.727550,-4145.153275,-1838.629195
3611.745269,-7846.182985,-3108.864956,306.438199
3611.745599,-5403.503377,-2590.720797,2145.067394
3611.745929,-814.226536,518.144159,5286.058936
3611.746259,-5329.482782,1258.350101,3753.867940
3611.746589,-8808.450710,2960.823768,3370.820191
3611.746918,-10732.986159,5181.441594,1225.752797
3611.747248,-14582.057057,3108.864956,-612.876398
3611.747578,-12509.480420,2220.617826,-1685.410096
3611.747908,-16358.551318,666.185348,-1762.019645
3611.748238,-15692.365970,-814.226536,-2757.943793
3611.748568,-10584.944971,-2516.700203,-3600.648841
3611.748898,-9548.656652,-3627.009116,-2451.505594
3611.749228,-1628.453072,-4737.318029,2221.676944
3611.749558,-4293.194464,-4219.173869,3447.429741
3611.749888,-8882.471304,-740.205942,4136.915689
3611.750218,-6069.688724,1850.514855,3447.429741
3611.750548,-8068.244768,3404.947333,2911.162892
3611.750877,-11103.089130,3034.844362,842.705048
3611.751207,-15322.262999,3775.050304,-1915.238745
3611.751537,-14285.974681,1332.370696,-1915.238745
3611.751867,-13101.645173,-814.226536,-2298.286494
3611.752197,-8068.244768,-1036.288319,-1762.019645
3611.752527,-10436.903782,-1924.535449,-1762.019645
3611.752857,-5625.565159,-4293.194464,1302.362347
3611.753187,-5181.441594,-1554.432478,1225.752797
3611.753517,-6957.935855,-296.082377,3064.381992
3611.753847,-4515.256246,1628.453072,3830.477490
3611.754177,-9474.636058,3404.947333,3217.601092
3611.754507,-10955.047942,3701.029710,995.924147
3611.754837,-12657.521608,4737.318029,-1762.019645
3611.755166,-14804.118840,2072.576638,-2987.772442
3611.755496,-14063.912898,0.000000,-3677.258390
3611.755826,-13323.706956,-1850.514855,-3064.381992
3611.756156,-12583.501014,-2590.720797,-1378.971896
3611.756486,-8512.368333,-3256.906145,-766.095498
3611.756816,-5477.523971,-2220.617826,766.095498
3611.757146,-2368.659014,-518.144159,4366.744339
3611.757476,-4589.276840,-148.041188,4519.963438
3611.757806,-7328.038826,1924.535449,2757.943793
3611.758136,-10732.986159,3775.050304,306.438199
3611.758466,-13249.686362,3478.967927,-2298.286494
3611.758796,-15396.283594,2738.761985,-2221.676944
3611.759126,-15026.180623,-518.144159,-1608.800546
3611.759455,-11843.295072,740.205942,-1991.848295
3611.759785,-10807.006753,0.000000,-2528.115143
3611.760115,-9844.739029,-3478.967927,-229.828649
3611.760445,-5107.421000,0.000000,842.705048
3611.760775,-4219.173869,444.123565,3294.210641
3611.761105,-3997.112087,1332.370696,3983.696590
3611.761435,-8364.327145,2442.679609,3294.210641
3611.761764,-11103.089130,4441.235652,2221.676944
3611.762094,-11843.295072,4885.359217,-536.266849
3611.762424,-13767.830521,3330.926739,-1838.629195
3611.762754,-15248.242405,740.205942,-2451.505594
3611.763084,-14434.015869,0.000000,-1991.848295
3611.763413,-9400.615463,0.000000,-2451.505594
3611.763743,-10584.944971,-1628.453072,-2987.772442
3611.764073,-4663.297435,-4145.153275,612.876398
3611.764403,-3775.050304,-1406.391290,1991.848295
3611.764733,-6661.853478,370.102971,3830.477490
3611.765062,-6143.709319,1776.494261,3830.477490
3611.765392,-8364.327145,3552.988522,2604.724693
3611.765722,-10955.047942,3849.070898,995.924147
3611.766052,-14211.954086,4441.235652,-1685.410096
3611.766382,-14804.118840,1702.473667,-1915.238745
3611.766712,-14359.995275,-740.205942,-1838.629195
3611.767041,-10288.862594,444.123565,-919.314598
3611.767371,-10214.842000,962.267725,-1302.362347
3611.767701,-10584.944971,-2960.823768,0.000000
3611.768031,-5995.668130,0.000000,1225.752797
3611.768361,-3552.988522,-148.041188,4903.011187
3611.768690,-5255.462188,1110.308913,3600.648841
3611.769020,-7031.956449,2664.741391,3524.039291
3611.769350,-10881.027347,4145.153275,1762.019645
3611.769680,-12213.398043,4293.194464,-1378.971896
3611.770010,-14285.974681,3404.947333,-3064.381992
3611.770339,-14878.139434,-444.123565,-2834.553343
3611.770669,-14582.057057,-1776.494261,-2528.115143
3611.770999,-16580.613101,-7254.018232,-1762.019645
3611.771329,-6365.771101,-4293.194464,-1378.971896
3611.771659,-3330.926739,-5329.482782,689.485948
3611.771988,-1702.473667,-592.164754,3753.867940
3611.772318,-4663.297435,148.041188,3600.648841
3611.772648,-9474.636058,2072.576638,2298.286494
3611.772978,-8216.285956,4589.276840,842.705048
3611.773308,-13693.809927,2368.659014,-612.876398
3611.773638,-14137.933492,2072.576638,-1302.362347
3611.773967,-15914.427753,518.144159,-1149.143247
3611.774297,-14434.015869,-2146.597232,-1838.629195
3611.774627,-16432.571912,-8068.244768,-1608.800546
3611.774957,-6809.894666,-5995.668130,-1532.190996
3611.775287,-4589.276840,-5551.544565,1302.362347
3611.775616,-3701.029710,-3256.906145,3524.039291
3611.775946,-3701.029710,-518.144159,2834.553343
3611.776276,-7031.956449,2146.597232,2374.896044
3611.776606,-8512.368333,4071.132681,1608.800546
3611.776936,-14285.974681,2590.720797,-612.876398
3611.777265,-13989.892304,2368.659014,-1762.019645
3611.777595,-14878.139434,962.267725,-1685.410096
3611.777925,-14952.160028,-888.247130,-3370.820191
3611.778255,-11029.068536,814.226536,-3600.648841
3611.778585,-9992.780217,-222.061783,-842.705048
3611.778915,-8364.327145,-3552.988522,1302.362347
3611.779244,-3552.988522,-296.082377,2528.115143
3611.779574,-4515.256246,-1110.308913,5515.887586
3611.779904,-5403.503377,1258.350101,4519.963438
3611.780234,-7105.977043,3256.906145,2604.724693
3611.780564,-11473.192101,4219.173869,153.219100
3611.780893,-12509.480420,4737.318029,-2374.896044
3611.781223,-14508.036463,2146.597232,-2911.162892
3611.781553,-14508.036463,-666.185348,-2757.943793
3611.781883,-13323.706956,-1332.370696,-1532.190996
3611.782213,-14137.933492,-3997.112087,-459.657299
3611.782542,-8364.327145,-2220.617826,-306.438199
3611.782872,-5551.544565,-2516.700203,1302.362347
3611.783202,-1702.473667,2220.617826,4596.572988
3611.783532,-5699.585753,1258.350101,4903.011187
3611.783862,-10288.862594,2664.741391,3447.429741
3611.784191,-11103.089130,5921.647536,1838.629195
3611.784521,-13101.645173,3404.947333,-459.657299
3611.784851,-14211.954086,2664.741391,-1149.143247
3611.785181,-17098.757260,888.247130,-1608.800546
3611.785511,-16136.489536,-148.041188,-2221.676944
3611.785841,-11917.315666,-4885.359217,-3140.991542
3611.786170,-8660.409521,-4737.318029,-2374.896044
3611.786500,-888.247130,-4811.338623,1378.971896
3611.786830,-5625.565159,-4589.276840,3370.820191
3611.787160,-8438.347739,-592.164754,4213.525239
3611.787490,-7550.100608,2442.679609,4060.306139
3611.787819,-7624.121203,3404.947333,2911.162892
3611.788149,-11695.253884,2738.761985,0.000000
3611.788479,-15026.180623,2146.597232,-1685.410096
3611.788809,-14434.015869,592.164754,-1072.533697
3611.789139,-13693.809927,-888.247130,-2374.896044
3611.789468,-11325.150913,-6513.812290,-1608.800546
3611.789798,-8586.388927,-5921.647536,-1532.190996
3611.790128,-3256.906145,-5477.523971,842.705048
3611.790458,-4811.338623,-3775.050304,1149.143247
3611.790788,-5625.565159,592.164754,1915.238745
3611.791118,-4737.318029,1702.473667,3217.601092
3611.791447,-8808.450710,3849.070898,2451.505594
3611.791777,-11917.315666,3627.009116,459.657299
3611.792107,-14359.995275,4071.132681,-2068.457845
3611.792437,-14063.912898,1924.535449,-2374.896044
3611.792767,-14285.974681,-222.061783,-4136.915689
3611.793096,-10955.047942,518.144159,-3600.648841
3611.793426,-10732.986159,-370.102971,-1838.629195
3611.793756,-9844.739029,-3478.967927,76.609550
3611.794086,-4441.235652,296.082377,1378.971896
3611.794416,-2886.803174,1480.411884,5209.449386
3611.794745,-5551.544565,1554.432478,5362.668486
3611.795075,-7550.100608,3923.091493,2451.505594
3611.795405,-9548.656652,4441.235652,689.485948
3611.795735,-12361.439231,4367.215058,-1532.190996
3611.796065,-15544.324782,2294.638420,-1991.848295
3611.796395,-16284.530724,-148.041188,-2451.505594
3611.796724,-10658.965565,1332.370696,-2068.457845
3611.797054,-10881.027347,-148.041188,-3064.381992
3611.797384,-9622.677246,-3478.967927,-1072.533697
3611.797714,-7254.018232,-3182.885551,536.266849
3611.798044,-3997.112087,-518.144159,2911.162892
3611.798373,-3701.029710,518.144159,3907.087040
3611.798703,-8808.450710,1850.514855,3370.820191
3611.799033,-10436.903782,3849.070898,1915.238745
3611.799363,-12731.542202,5625.565159,-689.485948
3611.799693,-13397.727550,3330.926739,-2374.896044
3611.800022,-14211.954086,444.123565,-2987.772442
3611.800352,-14211.954086,-740.205942,-2145.067394
3611.800682,-12361.439231,-5107.421000,-2068.457845
3611.801012,-8586.388927,-5107.421000,-2681.334243
3611.801342,-1850.514855,-4737.318029,689.485948
3611.801671,-6143.709319,-3627.009116,3600.648841
3611.802001,-6365.771101,-1036.288319,4443.353888
3611.802331,-7254.018232,2146.597232,3524.039291
3611.802661,-7254.018232,4219.173869,3600.648841
3611.802991,-10807.006753,3701.029710,306.438199
3611.803321,-14804.118840,3627.009116,-1838.629195
3611.803650,-14285.974681,1480.411884,-2374.896044
3611.803980,-13693.809927,-222.061783,-3447.429741
3611.804310,-8660.409521,-370.102971,-2374.896044
3611.804640,-10584.944971,-592.164754,-1685.410096
3611.804970,-8734.430116,-3849.070898,1378.971896
3611.805299,-4663.297435,370.102971,1302.362347
3611.805629,-4515.256246,2072.576638,3830.477490
3611.805959,-5181.441594,1924.535449,4136.915689
3611.806289,-8512.368333,3701.029710,3294.210641
3611.806619,-11103.089130,3552.988522,2145.067394
3611.806948,-12657.521608,4737.318029,-612.876398
3611.807278,-14211.954086,2516.700203,-2987.772442
3611.807608,-14508.036463,0.000000,-3753.867940
3611.807938,-13841.851115,-1036.288319,-3370.820191
3611.808268,-15840.407159,-6291.750507,-1532.190996
3611.808598,-7105.977043,-3849.070898,-842.705048
3611.808927,-3997.112087,-4737.318029,1685.410096
3611.809257,-3034.844362,-2220.617826,4519.963438
3611.809587,-3849.070898,-1036.288319,3600.648841
3611.809917,-8586.388927,1776.494261,2451.505594
3611.810247,-9326.594869,4293.194464,995.924147
3611.810576,-13619.789333,3034.844362,-1532.190996
3611.810906,-14211.954086,2516.700203,-1762.019645
3611.811236,-15322.262999,296.082377,-1685.410096
3611.811566,-14804.118840,-2072.576638,-2834.553343
3611.811896,-16136.489536,-8808.450710,-2604.724693
3611.812225,-7031.956449,-5995.668130,-2374.896044
3611.812555,-3997.112087,-5921.647536,612.876398
3611.812885,-4515.256246,-4959.379811,3830.477490
3611.813215,-2886.803174,-1702.473667,3524.039291
3611.813545,-7105.977043,1480.411884,2834.553343
3611.813874,-8216.285956,2960.823768,2068.457845
3611.814204,-13323.706956,2220.617826,-1072.533697
3611.814534,-14952.160028,3108.864956,-1302.362347
3611.814864,-14359.995275,1258.350101,-1915.238745
3611.815194,-14952.160028,-1776.494261,-3600.648841
3611.815524,-9918.759623,0.000000,-3830.477490
3611.815853,-9770.718434,-888.247130,-1608.800546
3611.816183,-8512.368333,-3701.029710,1762.019645
3611.816513,-4219.173869,-370.102971,1915.238745
3611.816843,-5033.400406,-962.267725,4903.011187
3611.817173,-5403.503377,1110.308913,5209.449386
3611.817502,-8438.347739,3404.947333,3370.820191
3611.817832,-11843.295072,4071.132681,1072.533697
3611.818162,-13323.706956,4885.359217,-1915.238745
3611.818492,-15248.242405,2368.659014,-3140.991542
3611.818822,-14434.015869,-814.226536,-2451.505594
3611.819151,-13027.624579,-1036.288319,-1149.143247
3611.819481,-12731.542202,-1628.453072,306.438199
3611.819811,-9104.533087,-2294.638420,842.705048
3611.820141,-5995.668130,-1036.288319,1915.238745
3611.820471,-296.082377,2072.576638,5056.230287
3611.820801,-5551.544565,1702.473667,4979.620737
3611.821130,-9474.636058,3034.844362,3447.429741
3611.821460,-10881.027347,5551.544565,1302.362347
3611.821790,-12213.398043,3552.988522,-612.876398
3611.822120,-13397.727550,2886.803174,-1532.190996
3611.822450,-16580.613101,296.082377,-2221.676944
3611.822779,-15174.221811,-962.267725,-2145.067394
3611.823109,-13027.624579,-7031.956449,-2528.115143
3611.823439,-7624.121203,-5107.421000,-2987.772442
3611.823769,-740.205942,-5329.482782,689.485948
3611.824099,-4959.379811,-4219.173869,3677.258390
3611.824428,-6809.894666,0.000000,4060.306139
3611.824758,-7254.018232,2442.679609,3064.381992
3611.825088,-8068.244768,3923.091493,1991.848295
3611.825418,-12731.542202,3478.967927,-842.705048
3611.825748,-14878.139434,2368.659014,-1915.238745
3611.826078,-14952.160028,888.247130,-1915.238745
3611.826407,-13989.892304,-222.061783,-2911.162892
3611.826737,-7179.997637,-296.082377,-2145.067394
3611.827067,-9548.656652,-1110.308913,-1685.410096
3611.827397,-7254.018232,-3701.029710,842.705048
3611.827727,-5921.647536,-592.164754,842.705048
3611.828056,-6069.688724,-370.102971,3677.258390
3611.828386,-4515.256246,1554.432478,4290.134789
3611.828716,-8512.368333,4071.132681,3830.477490
3611.829046,-11843.295072,2960.823768,1378.971896
3611.829376,-13027.624579,4589.276840,-2451.505594
3611.829705,-13989.892304,1702.473667,-3677.258390
3611.830035,-15396.283594,-370.102971,-3140.991542
3611.830365,-11769.274478,296.082377,-1838.629195
3611.830695,-11325.150913,222.061783,-919.314598
3611.831025,-9474.636058,-3034.844362,153.219100
3611.831354,-5625.565159,-518.144159,766.095498
3611.831684,-2812.782580,-888.247130,5209.449386
3611.832014,-5403.503377,518.144159,4903.011187
3611.832344,-7550.100608,2442.679609,3140.991542
3611.832674,-10955.047942,4293.194464,612.876398
3611.833004,-11399.171507,4219.173869,-1608.800546
3611.833333,-14804.118840,2812.782580,-3140.991542
3611.833663,-15840.407159,-444.123565,-2681.334243
3611.833993,-14582.057057,-1036.288319,-1991.848295
3611.834323,-13101.645173,-2886.803174,-1149.143247
3611.834653,-9030.512492,-3034.844362,-689.485948
3611.834982,-6587.832884,-2516.700203,1149.143247
3611.835312,-1850.514855,-1110.308913,4519.963438
3611.835642,-4367.215058,-962.267725,3983.696590
3611.835972,-7179.997637,1406.391290,2451.505594
3611.836302,-9992.780217,3404.947333,842.705048
3611.836631,-13101.645173,2886.803174,-995.924147
3611.836961,-13841.851115,3182.885551,-1762.019645
3611.837291,-15988.448347,740.205942,-2221.676944
3611.837621,-15766.386565,-1184.329507,-2604.724693
3611.837951,-9992.780217,1036.288319,-3600.648841
3611.838281,-9252.574275,592.164754,-1225.752797
3611.838610,-7772.162391,-3256.906145,1838.629195
3611.838940,-4885.359217,0.000000,2987.772442
3611.839270,-4145.153275,666.185348,5209.449386
3611.839600,-7254.018232,2072.576638,4749.792088
3611.839930,-7772.162391,4071.132681,3524.039291
3611.840259,-11547.212695,4071.132681,0.000000
3611.840589,-12805.562797,4515.256246,-1915.238745
3611.840919,-14508.036463,2072.576638,-2834.553343
3611.841249,-15396.283594,-1110.308913,-2221.676944
3611.841579,-11399.171507,814.226536,-1838.629195
3611.841908,-10214.842000,296.082377,-1072.533697
3611.842238,-8586.388927,-3034.844362,383.047749
3611.842568,-5773.606348,-592.164754,1149.143247
3611.842898,-3404.947333,0.000000,5209.449386
3611.843228,-5625.565159,740.205942,4519.963438
3611.843557,-7920.203579,2812.782580,3294.210641
3611.843887,-10584.944971,4219.173869,1762.019645
3611.844217,-12509.480420,4441.235652,-1455.581446
3611.844547,-14508.036463,2442.679609,-3217.601092
3611.844877,-15544.324782,-296.082377,-3753.867940
3611.845207,-14582.057057,-962.267725,-2604.724693
3611.845536,-14285.974681,-3478.967927,-1378.971896
3611.845866,-8364.327145,-3404.947333,-842.705048
3611.846196,-5255.462188,-3256.906145,1608.800546
3611.846526,-3108.864956,-1480.411884,5132.839837
3611.846856,-4737.318029,-444.123565,4290.134789
3611.847185,-8142.265362,1776.494261,2757.943793
3611.847515,-9918.759623,3849.070898,689.485948
3611.847845,-13915.871710,3034.844362,-2298.286494
3611.848175,-14730.098246,2738.761985,-2451.505594
3611.848505,-16358.551318,370.102971,-1991.848295
3611.848834,-15100.201217,-1998.556043,-1838.629195
3611.849164,-16802.674883,-7698.141797,-1455.581446
3611.849494,-6809.894666,-4441.235652,-1302.362347
3611.849824,-4145.153275,-5033.400406,1915.238745
3611.850154,-3256.906145,-3182.885551,3294.210641
3611.850484,-4441.235652,-1184.329507,3370.820191
3611.850813,-7550.100608,1776.494261,3064.381992
3611.851143,-9326.594869,3849.070898,1915.238745
3611.851473,-14211.954086,2442.679609,-919.314598
3611.851803,-13693.809927,2664.741391,-2681.334243
3611.852133,-14804.118840,1184.329507,-3447.429741
3611.852462,-14211.954086,-1110.308913,-4060.306139
3611.852792,-8586.388927,296.082377,-3600.648841
3611.853122,-9252.574275,-740.205942,-1225.752797
3611.853452,-6883.915261,-3701.029710,1915.238745
3611.853782,-4145.153275,-962.267725,2374.896044
3611.854111,-4589.276840,148.041188,4979.620737
3611.854441,-6439.791695,2072.576638,4443.353888
3611.854771,-7550.100608,4737.318029,3217.601092
3611.855101,-12065.356855,4145.153275,536.266849
3611.855431,-14285.974681,5551.544565,-2757.943793
3611.855761,-14582.057057,2368.659014,-3447.429741
3611.856090,-14211.954086,-814.226536,-3447.429741
3611.856420,-11917.315666,-2886.803174,-1915.238745
3611.856750,-14952.160028,-9770.718434,536.266849
3611.857080,-4367.215058,-5477.523971,0.000000
3611.857410,-1110.308913,-4959.379811,1378.971896
3611.857739,-4515.256246,-1850.514855,3753.867940
3611.858069,-5995.668130,740.205942,4290.134789
3611.858399,-11991.336260,4367.215058,2451.505594
3611.858729,-10436.903782,4885.359217,2145.067394
3611.859059,-14063.912898,2812.782580,-1302.362347
3611.859389,-15692.365970,2294.638420,-1225.752797
3611.859718,-15174.221811,814.226536,-2604.724693
3611.860048,-14656.077652,-1480.411884,-4213.525239
3611.860378,-10955.047942,-6587.832884,-3294.210641
3611.860708,-6735.874072,-6143.709319,-1225.752797
3611.861038,-1702.473667,-4811.338623,2221.676944
3611.861368,-5255.462188,-3849.070898,4366.744339
3611.861698,-5477.523971,666.185348,4366.744339
3611.862028,-7031.956449,3404.947333,3907.087040
3611.862358,-9400.615463,4145.153275,1762.019645
3611.862688,-12953.603985,2812.782580,-995.924147
3611.863018,-15914.427753,2368.659014,-1838.629195
3611.863348,-14285.974681,0.000000,-1302.362347
3611.863678,-14137.933492,-2294.638420,-2298.286494
3611.864008,-13249.686362,-8734.430116,-995.924147
3611.864338,-6587.832884,-6883.915261,-1072.533697
3611.864667,-2738.761985,-5329.482782,1072.533697
3611.864997,-5033.400406,-4367.215058,1608.800546
3611.865327,-4515.256246,-296.082377,1915.238745
3611.865657,-5921.647536,2220.617826,2681.334243
3611.865987,-9326.594869,3627.009116,2145.067394
3611.866317,-14211.954086,2812.782580,0.000000
3611.866647,-14878.139434,2516.700203,-2145.067394
3611.866977,-14434.015869,666.185348,-2834.553343
3611.867307,-14878.139434,-1850.514855,-3677.258390
3611.867637,-15766.386565,-8882.471304,-2068.457845
3611.867967,-8438.347739,-7328.038826,-1072.533697
3611.868297,-2590.720797,-6069.688724,919.314598
3611.868627,-5625.565159,-7476.080014,2374.896044
3611.868957,-3404.947333,-1998.556043,2681.334243
3611.869286,-5181.441594,1110.308913,3064.381992
3611.869616,-7920.203579,2812.782580,3524.039291
3611.869946,-12287.418637,2516.700203,-536.266849
3611.870276,-15914.427753,3034.844362,-1915.238745
3611.870606,-14730.098246,1406.391290,-2298.286494
3611.870936,-15100.201217,-1184.329507,-4213.525239
3611.871266,-14952.160028,-8216.285956,-2528.115143
3611.871596,-7772.162391,-6957.935855,-1838.629195
3611.871926,-3701.029710,-5181.441594,459.657299
3611.872256,-4441.235652,-3034.844362,2068.457845
3611.872586,-3701.029710,-1036.288319,2911.162892
3611.872916,-6513.812290,3034.844362,3524.039291
3611.873246,-7105.977043,4663.297435,2604.724693
3611.873576,-11843.295072,3108.864956,536.266849
3611.873906,-13915.871710,3552.988522,0.000000
3611.874235,-14878.139434,1924.535449,-995.924147
3611.874565,-15692.365970,518.144159,-3294.210641
3611.874895,-12879.583391,-1998.556043,-4366.744339
3611.875225,-15988.448347,-8364.327145,-1838.629195
3611.875555,-6883.915261,-5107.421000,-766.095498
3611.875885,-2516.700203,-4589.276840,1302.362347
3611.876215,-3404.947333,-1776.494261,4213.525239
3611.876545,-4663.297435,444.123565,4826.401637
3611.876875,-7698.141797,3701.029710,3140.991542
3611.877205,-8734.430116,4515.256246,1915.238745
3611.877535,-14804.118840,3182.885551,-995.924147
3611.877865,-15840.407159,1850.514855,-919.314598
3611.878195,-15544.324782,740.205942,-1302.362347
3611.878525,-14952.160028,-1776.494261,-1838.629195
3611.878855,-11843.295072,-6143.709319,-1838.629195
3611.879184,-8734.430116,-6217.729913,-1149.143247
3611.879514,-1554.432478,-5329.482782,1685.410096
3611.879844,-5181.441594,-4367.215058,1838.629195
3611.880174,-6587.832884,-296.082377,3064.381992
3611.880504,-5699.585753,2886.803174,3524.039291
3611.880834,-8808.450710,3997.112087,3217.601092
3611.881164,-11991.336260,3330.926739,306.438199
3611.881494,-16580.613101,3923.091493,-2451.505594
3611.881824,-14359.995275,1628.453072,-2911.162892
3611.882154,-14508.036463,-592.164754,-4213.525239
3611.882484,-10214.842000,0.000000,-2374.896044
3611.882814,-9400.615463,222.061783,0.000000
3611.883144,-9770.718434,-3404.947333,1915.238745
3611.883474,-4959.379811,962.267725,2145.067394
3611.883803,-814.226536,1406.391290,4979.620737
3611.884133,-6143.709319,2812.782580,4979.620737
3611.884463,-8882.471304,4219.173869,3600.648841
3611.884793,-11843.295072,4959.379811,229.828649
3611.885123,-12065.356855,5033.400406,-2528.115143
3611.885453,-15544.324782,3108.864956,-2911.162892
3611.885783,-16432.571912,-1184.329507,-2604.724693
3611.886113,-13249.686362,-1184.329507,-1225.752797
3611.886443,-12509.480420,-2960.823768,-229.828649
3611.886773,-8586.388927,-2886.803174,153.219100
3611.887103,-5181.441594,-2146.597232,1455.581446
3611.887433,-592.164754,296.082377,5132.839837
3611.887763,-4959.379811,666.185348,3677.258390
3611.888093,-8438.347739,3478.967927,3294.210641
3611.888423,-11843.295072,5403.503377,995.924147
3611.888752,-14359.995275,4071.132681,-2068.457845
3611.889082,-14434.015869,3182.885551,-2911.162892
3611.889412,-16876.695478,-148.041188,-2604.724693
3611.889742,-15174.221811,-1998.556043,-2834.553343
3611.890072,-9992.780217,-5699.585753,-2451.505594
3611.890402,-7846.182985,-5921.647536,-2374.896044
3611.890732,518.144159,-5921.647536,1991.848295
3611.891062,-4663.297435,-4737.318029,3600.648841
3611.891392,-6735.874072,814.226536,3677.258390
3611.891722,-6809.894666,3182.885551,3140.991542
3611.892052,-9548.656652,4589.276840,2451.505594
3611.892382,-12509.480420,4145.153275,-153.219100
3611.892712,-17098.757260,3997.112087,-2145.067394
3611.893042,-14582.057057,814.226536,-2451.505594
3611.893371,-13471.748144,-1554.432478,-2681.334243
3611.893701,-8142.265362,-444.123565,-842.705048
3611.894031,-8512.368333,0.000000,229.828649
3611.894361,-8882.471304,-3552.988522,1608.800546
3611.894691,-4811.338623,1110.308913,1915.238745
3611.895021,-1702.473667,1776.494261,4903.011187
3611.895351,-6587.832884,2886.803174,4673.182538
3611.895681,-9474.636058,4589.276840,2911.162892
3611.896011,-12657.521608,4515.256246,995.924147
3611.896341,-12953.603985,4737.318029,-2451.505594
3611.896671,-14952.160028,1998.556043,-3677.258390
3611.897001,-16210.510130,-1776.494261,-2451.505594
3611.897331,-11843.295072,1036.288319,-1072.533697
3611.897661,-9770.718434,0.000000,-1762.019645
3611.897991,-7772.162391,-2664.741391,-229.828649
3611.898320,-4589.276840,-444.123565,536.266849
3611.898650,-3627.009116,666.185348,5592.497135
3611.898980,-5773.606348,1184.329507,5515.887586
3611.899310,-8956.491898,3182.885551,3830.477490
3611.899640,-10288.862594,5107.421000,1608.800546
3611.899970,-13841.851115,4293.194464,-1225.752797
3611.900300,-15100.201217,2442.679609,-2604.724693
3611.900630,-16210.510130,-814.226536,-2604.724693
3611.900960,-13693.809927,-222.061783,-919.314598
3611.901290,-12583.501014,-1258.350101,0.000000
3611.901620,-9474.636058,-2664.741391,0.000000
3611.901950,-5477.523971,-1332.370696,1378.971896
3611.902280,-740.205942,2442.679609,4673.182538
3611.902610,-5773.606348,2146.597232,4290.134789
3611.902940,-8734.430116,2664.741391,2834.553343
3611.903269,-10658.965565,5625.565159,766.095498
3611.903599,-11621.233289,3552.988522,-995.924147
3611.903929,-14063.912898,2664.741391,-2834.553343
3611.904259,-16876.695478,0.000000,-3064.381992
3611.904589,-15692.365970,-592.164754,-2374.896044
3611.904919,-16876.695478,-8734.430116,-2451.505594
3611.905249,-6365.771101,-5477.523971,-2987.772442
3611.905579,-2294.638420,-6439.791695,306.438199
3611.905909,-2886.803174,-2664.741391,3907.087040
3611.906239,-4663.297435,222.061783,3907.087040
3611.906569,-8290.306550,2516.700203,2451.505594
3611.906899,-7254.018232,4145.153275,766.095498
3611.907229,-13693.809927,3404.947333,-1762.019645
3611.907559,-15396.283594,2368.659014,-2528.115143
3611.907888,-15322.262999,1776.494261,-1762.019645
3611.908218,-15026.180623,-1332.370696,-3140.991542
3611.908548,-15100.201217,-8660.409521,-2145.067394
3611.908878,-7402.059420,-7179.997637,-1991.848295
3611.909208,-3034.844362,-6439.791695,766.095498
3611.909538,-4959.379811,-5403.503377,2681.334243
3611.909868,-3256.906145,-740.205942,2451.505594
3611.910198,-5403.503377,2738.761985,3064.381992
3611.910528,-8290.306550,3775.050304,1762.019645
3611.910858,-13027.624579,3182.885551,-153.219100
3611.911188,-14656.077652,3552.988522,-2221.676944
3611.911518,-14359.995275,1258.350101,-2604.724693
3611.911848,-15248.242405,-814.226536,-4366.744339
3611.912178,-12509.480420,-2146.597232,-2451.505594
3611.912508,-13471.748144,-3849.070898,-229.828649
3611.912837,-8290.306550,-3552.988522,536.266849
3611.913167,-3627.009116,-2590.720797,2451.505594
3611.913497,222.061783,740.205942,5975.544884
3611.913827,-5403.503377,1110.308913,6358.592633
3611.914157,-8734.430116,3182.885551,3140.991542
3611.914487,-10584.944971,4959.379811,306.438199
3611.914817,-13545.768739,3701.029710,-1685.410096
3611.915147,-15174.221811,1776.494261,-1455.581446
3611.915477,-17542.880825,-814.226536,-1915.238745
3611.915807,-14582.057057,-2368.659014,-1608.800546
3611.916137,-12879.583391,-8586.388927,-2068.457845
3611.916467,-6883.915261,-6217.729913,-1455.581446
3611.916797,-1036.288319,-5181.441594,1608.800546
3611.917127,-5107.421000,-4441.235652,3907.087040
3611.917456,-5699.585753,222.061783,3907.087040
3611.917786,-8068.244768,2886.803174,3064.381992
3611.918116,-9326.594869,3923.091493,2451.505594
3611.918446,-13693.809927,2516.700203,-612.876398
3611.918776,-15914.427753,2516.700203,-2451.505594
3611.919106,-14582.057057,740.205942,-3217.601092
3611.919436,-15174.221811,-1110.308913,-3983.696590
3611.919766,-15470.304188,-8512.368333,-1685.410096
3611.920096,-7624.121203,-6291.750507,-1378.971896
3611.920426,-3256.906145,-5699.585753,1378.971896
3611.920756,-5551.544565,-3923.091493,2757.943793
3611.921086,-3108.864956,-518.144159,2528.115143
3611.921416,-6661.853478,2590.720797,2451.505594
3611.921746,-7179.997637,4441.235652,2604.724693
3611.922076,-12879.583391,3034.844362,0.000000
3611.922405,-15396.283594,3108.864956,-2068.457845
3611.922735,-16580.613101,1628.453072,-2911.162892
3611.923065,-15544.324782,-1332.370696,-2834.553343
3611.923395,-16580.613101,-6587.832884,-1685.410096
3611.923725,-8586.388927,-5921.647536,-383.047749
3611.924055,-4145.153275,-4071.132681,1838.629195
3611.924385,-2590.720797,-1332.370696,2528.115143
3611.924715,-3108.864956,-518.144159,4826.401637
3611.925045,-5995.668130,2516.700203,3370.820191
3611.925375,-8586.388927,5329.482782,2374.896044
3611.925705,-12731.542202,3552.988522,-153.219100
3611.926035,-14359.995275,3034.844362,-995.924147
3611.926365,-15026.180623,1480.411884,-2528.115143
3611.926695,-14804.118840,-296.082377,-4290.134789
3611.927025,-12583.501014,-4589.276840,-4903.011187
3611.927354,-10732.986159,-5403.503377,-2451.505594
3611.927684,-1998.556043,-3775.050304,1762.019645
3611.928014,-5329.482782,-3923.091493,1915.238745
3611.928344,-5625.565159,-1036.288319,3600.648841
3611.928674,-5477.523971,2368.659014,4060.306139
3611.929004,-6883.915261,4219.173869,4596.572988
3611.929334,-10807.006753,3923.091493,1532.190996
3611.929664,-14804.118840,4663.297435,-1991.848295
3611.929994,-14063.912898,2812.782580,-2374.896044
3611.930324,-14804.118840,1406.391290,-3677.258390
3611.930654,-13027.624579,-1628.453072,-2681.334243
3611.930984,-14285.974681,-7846.182985,-612.876398
3611.931314,-8068.244768,-5403.503377,0.000000
3611.931644,-1554.432478,-4737.318029,1532.190996
3611.931973,-3849.070898,-2220.617826,2298.286494
3611.932303,-5107.421000,666.185348,3907.087040
3611.932633,-8512.368333,3256.906145,3753.867940
3611.932963,-9400.615463,4441.235652,3370.820191
3611.933293,-12879.583391,3478.967927,76.609550
3611.933623,-15470.304188,2220.617826,-995.924147
3611.933953,-14582.057057,962.267725,-2145.067394
3611.934283,-15692.365970,-444.123565,-3983.696590
3611.934613,-9104.533087,518.144159,-3370.820191
3611.934943,-8734.430116,814.226536,-842.705048
3611.935273,-8586.388927,-3849.070898,2221.676944
3611.935603,-4441.235652,444.123565,3217.601092
3611.935933,-2294.638420,1332.370696,5132.839837
3611.936263,-6291.750507,3108.864956,4673.182538
3611.936593,-8808.450710,4367.215058,3600.648841
3611.936922,-12139.377449,4219.173869,536.266849
3611.937252,-12805.562797,4737.318029,-2681.334243
3611.937582,-14804.118840,2220.617826,-3217.601092
3611.937912,-16062.468941,-666.185348,-2911.162892
3611.938242,-10214.842000,740.205942,-1608.800546
3611.938572,-9918.759623,370.102971,-2145.067394
3611.938902,-8068.244768,-2590.720797,536.266849
3611.939232,-4071.132681,666.185348,842.705048
3611.939562,-4367.215058,1628.453072,4366.744339
3611.939892,-5477.523971,1702.473667,4519.963438
3611.940222,-9252.574275,4441.235652,3217.601092
3611.940552,-11399.171507,4811.338623,1072.533697
3611.940882,-12657.521608,4885.359217,-1378.971896
3611.941212,-14211.954086,3108.864956,-3140.991542
3611.941541,-15618.345376,370.102971,-3983.696590
3611.941871,-13767.830521,-1036.288319,-3830.477490
3611.942201,-16728.654289,-7550.100608,-1991.848295
3611.942531,-6439.791695,-4811.338623,-2604.724693
3611.942861,-3478.967927,-5847.626942,995.924147
3611.943191,-888.247130,-518.144159,4673.182538
3611.943521,-3627.009116,518.144159,4903.011187
3611.943851,-9696.697840,2886.803174,2451.505594
3611.944181,-8068.244768,4737.318029,612.876398
3611.944511,-14063.912898,2738.761985,-1915.238745
3611.944841,-15248.242405,2294.638420,-1378.971896
3611.945171,-17246.798449,296.082377,-2145.067394
3611.945501,-13989.892304,-2146.597232,-1915.238745
3611.945831,-15840.407159,-10288.862594,-1991.848295
3611.946161,-5329.482782,-6809.894666,-1685.410096
3611.946490,-2886.803174,-6735.874072,842.705048
3611.946820,-2368.659014,-3330.926739,4060.306139
3611.947150,-3182.885551,-518.144159,2987.772442
3611.947480,-7846.182985,2368.659014,2681.334243
3611.947810,-8512.368333,3923.091493,2298.286494
3611.948140,-15322.262999,2886.803174,229.828649
3611.948470,-14508.036463,2294.638420,-766.095498
3611.948800,-14656.077652,592.164754,-2298.286494
3611.949130,-14952.160028,-1776.494261,-3753.867940
3611.949460,-9104.533087,518.144159,-3677.258390
3611.949790,-9770.718434,-518.144159,-1762.019645
3611.950120,-7698.141797,-3775.050304,1532.190996
3611.950450,-3775.050304,-1110.308913,2298.286494
3611.950780,-4219.173869,-888.247130,4673.182538
3611.951110,-5033.400406,1554.432478,4443.353888
3611.951439,-6809.894666,3182.885551,3677.258390
3611.951769,-11473.192101,2812.782580,612.876398
3611.952099,-13767.830521,4737.318029,-2681.334243
3611.952429,-15248.242405,1850.514855,-3064.381992
3611.952759,-15174.221811,-1036.288319,-2145.067394
3611.953089,-12731.542202,-1924.535449,-919.314598
3611.953419,-13841.851115,-2516.700203,306.438199
3611.953749,-8734.430116,-2442.679609,459.657299
3611.954079,-5551.544565,-1776.494261,1225.752797
3611.954409,-962.267725,1480.411884,4443.353888
3611.954739,-5181.441594,1258.350101,4903.011187
3611.955069,-9474.636058,2664.741391,2757.943793
3611.955399,-11325.150913,5551.544565,1608.800546
3611.955729,-12509.480420,3404.947333,-842.705048
3611.956058,-13175.665768,2738.761985,-2298.286494
3611.956388,-17468.860231,74.020594,-3524.039291
3611.956718,-15248.242405,-666.185348,-2834.553343
3611.957048,-15914.427753,-4515.256246,-2068.457845
3611.957378,-7402.059420,-3034.844362,-766.095498
3611.957708,-5625.565159,-4071.132681,1685.410096
3611.958038,-2960.823768,-2072.576638,5822.325785
3611.958368,-3552.988522,-814.226536,4136.915689
3611.958698,-7105.977043,1406.391290,2451.505594
3611.959028,-8364.327145,4441.235652,1762.019645
3611.959358,-13323.706956,3034.844362,-1072.533697
3611.959688,-14063.912898,3182.885551,-2221.676944
3611.960018,-14878.139434,1332.370696,-2451.505594
3611.960348,-15100.201217,148.041188,-3217.601092
3611.960678,-14730.098246,-2220.617826,-2221.676944
3611.961007,-10584.944971,-2960.823768,-766.095498
3611.961337,-4811.338623,-888.247130,2068.457845
3611.961667,-3552.988522,814.226536,4596.572988
3611.961997,-5921.647536,0.000000,4519.963438
3611.962327,-7105.977043,2368.659014,3294.210641
3611.962657,-7846.182985,4515.256246,2221.676944
3611.962987,-11917.315666,3701.029710,0.000000
3611.963317,-13989.892304,3849.070898,-1838.629195
3611.963647,-15248.242405,1554.432478,-2911.162892
3611.963977,-15174.221811,444.123565,-3370.820191
3611.964307,-11843.295072,888.247130,-4596.572988
3611.964637,-11843.295072,-444.123565,-2068.457845
3611.964967,-8586.388927,-2960.823768,919.314598
3611.965297,-3923.091493,-1110.308913,2298.286494
3611.965627,-2664.741391,74.020594,4443.353888
3611.965957,-6069.688724,666.185348,5362.668486
3611.966286,-8216.285956,3330.926739,3600.648841
3611.966616,-11547.212695,4293.194464,766.095498
3611.966946,-12805.562797,4145.153275,-2451.505594
3611.967276,-14063.912898,2664.741391,-1762.019645
3611.967606,-15766.386565,296.082377,-1838.629195
3611.967936,-13471.748144,296.082377,-1225.752797
3611.968266,-12287.418637,-888.247130,-995.924147
3611.968596,-9474.636058,-2146.597232,0.000000
3611.968926,-5403.503377,74.020594,2451.505594
3611.969256,-3330.926739,1480.411884,4826.401637
3611.969586,-6587.832884,592.164754,4903.011187
3611.969916,-8142.265362,3182.885551,3753.867940
3611.970246,-9770.718434,5551.544565,2451.505594
3611.970576,-12509.480420,3701.029710,-536.266849
3611.970906,-13915.871710,3182.885551,-1915.238745
3611.971236,-15470.304188,592.164754,-2757.943793
3611.971566,-14434.015869,-740.205942,-3294.210641
3611.971895,-13619.789333,-6217.729913,-3140.991542
3611.972225,-8364.327145,-5699.585753,-1915.238745
3611.972555,-2146.597232,-5477.523971,2068.457845
3611.972885,-4515.256246,-4367.215058,3294.210641
3611.973215,-5921.647536,-518.144159,2145.067394
3611.973545,-7105.977043,1406.391290,3064.381992
3611.973875,-7698.141797,3478.967927,2604.724693
3611.974205,-12139.377449,2664.741391,459.657299
3611.974535,-15026.180623,3182.885551,-1302.362347
3611.974865,-13619.789333,1332.370696,-2604.724693
3611.975195,-14211.954086,-592.164754,-3830.477490
3611.975525,-10658.965565,-3034.844362,-2987.772442
3611.975855,-10288.862594,-4219.173869,-2221.676944
3611.976185,-3923.091493,-4663.297435,536.266849
3611.976515,-4959.379811,-3108.864956,1532.190996
3611.976845,-5551.544565,518.144159,2604.724693
3611.977175,-4219.173869,1850.514855,4136.915689
3611.977504,-9104.533087,3849.070898,2987.772442
3611.977834,-11695.253884,3256.906145,1072.533697
3611.978164,-14137.933492,4663.297435,-1455.581446
3611.978494,-13915.871710,1998.556043,-2528.115143
3611.978824,-13841.851115,444.123565,-4060.306139
3611.979154,-11843.295072,1110.308913,-3983.696590
3611.979484,-11547.212695,296.082377,-2068.457845
3611.979814,-10214.842000,-3478.967927,-153.219100
3611.980144,-4515.256246,222.061783,1149.143247
3611.980474,-1628.453072,1110.308913,4826.401637
3611.980804,-5255.462188,592.164754,5362.668486
3611.981134,-7772.162391,3478.967927,2757.943793
3611.981464,-9622.677246,4515.256246,1149.143247
3611.981794,-11029.068536,4441.235652,-842.705048
3611.982124,-14878.139434,2960.823768,-1762.019645
3611.982454,-16432.571912,370.102971,-2298.286494
3611.982784,-13249.686362,1258.350101,-1991.848295
3611.983113,-11325.150913,148.041188,-2068.457845
3611.983443,-12139.377449,-3034.844362,153.219100
3611.983773,-6143.709319,-1258.350101,1455.581446
3611.984103,-2146.597232,-148.041188,3140.991542
3611.984433,-2738.761985,222.061783,4290.134789
3611.984763,-8216.285956,1924.535449,2604.724693
3611.985093,-11325.150913,4441.235652,1915.238745
3611.985423,-11843.295072,4811.338623,76.609550
3611.985753,-13693.809927,3330.926739,-1915.238745
3611.986083,-14582.057057,1036.288319,-2911.162892
3611.986413,-15914.427753,0.000000,-3677.258390
3611.986743,-10436.903782,666.185348,-3983.696590
3611.987073,-10066.800811,-444.123565,-2451.505594
3611.987403,-7179.997637,-4071.132681,842.705048
3611.987733,-3627.009116,296.082377,3370.820191
3611.988063,-4145.153275,370.102971,5898.935335
3611.988393,-7254.018232,740.205942,5056.230287
3611.988722,-7772.162391,3775.050304,3370.820191
3611.989052,-10584.944971,3701.029710,1072.533697
3611.989382,-13027.624579,4145.153275,-2068.457845
3611.989712,-14804.118840,2294.638420,-2451.505594
3611.990042,-14508.036463,-740.205942,-1608.800546
3611.990372,-12287.418637,0.000000,-1072.533697
3611.990702,-11251.130318,74.020594,-1225.752797
3611.991032,-10140.821405,-2812.782580,0.000000
3611.991362,-6365.771101,-148.041188,2145.067394
3611.991692,-1036.288319,962.267725,5362.668486
3611.992022,-6291.750507,962.267725,3064.381992
3611.992352,-7031.956449,2664.741391,2911.162892
3611.992682,-11177.109724,4145.153275,1685.410096
3611.993012,-13323.706956,3923.091493,-766.095498
3611.993342,-13619.789333,3108.864956,-3140.991542
3611.993672,-15914.427753,370.102971,-3524.039291
3611.994002,-15322.262999,-1036.288319,-2987.772442
3611.994331,-17246.798449,-6809.894666,-2068.457845
3611.994661,-6365.771101,-4589.276840,-2145.067394
3611.994991,-3330.926739,-5329.482782,995.924147
3611.995321,-1998.556043,-1628.453072,4136.915689
3611.995651,-3997.112087,-592.164754,3677.258390
3611.995981,-9178.553681,1628.453072,3064.381992
3611.996311,-7624.121203,3775.050304,1149.143247
3611.996641,-13767.830521,2368.659014,-1225.752797
3611.996971,-14211.954086,2368.659014,-1762.019645
3611.997301,-15618.345376,1332.370696,-1302.362347
3611.997631,-15544.324782,-962.267725,-3140.991542
3611.997961,-15988.448347,-4811.338623,-2298.286494
3611.998291,-7994.224174,-5181.441594,-1532.190996
3611.998621,-5773.606348,-3775.050304,1762.019645
3611.998951,-4145.153275,-2146.597232,4366.744339
3611.999281,-3849.070898,-148.041188,4290.134789
3611.999611,-6957.935855,2146.597232,3294.210641
3611.999940,-7031.956449,4811.338623,2298.286494
3612.000270,-13545.768739,2812.782580,0.000000
3612.000600,-14285.974681,3182.885551,-1762.019645
3612.000930,-16284.530724,2146.597232,-2681.334243
3612.001260,-15692.365970,-296.082377,-3830.477490
3612.001590,-11103.089130,74.020594,-4136.915689
3612.001920,-11843.295072,-1332.370696,-1302.362347
3612.002250,-8438.347739,-3330.926739,2374.896044
3612.002580,-3627.009116,0.000000,2757.943793
3612.002910,-2516.700203,1036.288319,5439.278036
3612.003240,-6513.812290,814.226536,5286.058936
3612.003570,-7772.162391,3701.029710,3294.210641
3612.003900,-11695.253884,4367.215058,1225.752797
3612.004230,-13175.665768,3701.029710,-1072.533697
3612.004560,-14211.954086,2294.638420,-2145.067394
3612.004890,-15692.365970,148.041188,-2451.505594
3612.005220,-13915.871710,-888.247130,-2145.067394
3612.005549,-13989.892304,-2590.720797,-1378.971896
3612.005879,-8660.409521,-2146.597232,0.000000
3612.006209,-5255.462188,-2368.659014,2757.943793
3612.006539,-1036.288319,1480.411884,5362.668486
3612.006869,-5255.462188,1184.329507,4749.792088
3612.007199,-9474.636058,2812.782580,4136.915689
3612.007529,-10362.883188,5181.441594,1838.629195
3612.007859,-13767.830521,3330.926739,-766.095498
3612.008189,-14137.933492,2812.782580,-1838.629195
3612.008519,-16284.530724,1332.370696,-1378.971896
3612.008849,-15692.365970,-296.082377,-2757.943793
3612.009179,-14063.912898,-6069.688724,-3677.258390
3612.009509,-7846.182985,-5403.503377,-2834.553343
3612.009839,-1776.494261,-5033.400406,1149.143247
3612.010169,-5107.421000,-4071.132681,4136.915689
3612.010499,-5995.668130,74.020594,4596.572988
3612.010829,-7920.203579,1776.494261,3677.258390
3612.011158,-7698.141797,3849.070898,2987.772442
3612.011488,-11251.130318,3034.844362,612.876398
3612.011818,-15248.242405,2664.741391,-1685.410096
3612.012148,-14211.954086,1332.370696,-2451.505594
3612.012478,-15470.304188,0.000000,-3294.210641
3612.012808,-10658.965565,-5181.441594,-1915.238745
3612.013138,-9696.697840,-5255.462188,-1532.190996
3612.013468,-3330.926739,-4811.338623,1225.752797
3612.013798,-4737.318029,-3330.926739,1608.800546
3612.014128,-5551.544565,1184.329507,2374.896044
3612.014458,-5033.400406,2442.679609,4136.915689
3612.014788,-8216.285956,4663.297435,2987.772442
3612.015118,-11621.233289,3701.029710,1225.752797
3612.015448,-14434.015869,4737.318029,-1378.971896
3612.015778,-14434.015869,2146.597232,-2757.943793
3612.016108,-14508.036463,444.123565,-4903.011187
3612.016438,-10288.862594,0.000000,-4290.134789
3612.016767,-11621.233289,-1406.391290,-2911.162892
3612.017097,-6809.894666,-3775.050304,536.266849
3612.017427,-4663.297435,-3404.947333,536.266849
3612.017757,-4219.173869,-1184.329507,3294.210641
3612.018087,-2960.823768,592.164754,4903.011187
3612.018417,-8882.471304,2664.741391,3524.039291
3612.018747,-10510.924376,3404.947333,1302.362347
3612.019077,-12287.418637,5255.462188,-1685.410096
3612.019407,-14508.036463,1998.556043,-2145.067394
3612.019737,-14804.118840,-814.226536,-2987.772442
3612.020067,-13249.686362,-1036.288319,-1915.238745
3612.020397,-12435.459826,-2664.741391,-383.047749
3612.020727,-9400.615463,-3775.050304,-689.485948
3612.021057,-3997.112087,-2442.679609,1149.143247
3612.021387,-592.164754,0.000000,5056.230287
3612.021717,-3404.947333,0.000000,5209.449386
3612.022047,-8882.471304,3108.864956,2451.505594
3612.022376,-12213.398043,5773.606348,1149.143247
3612.022706,-12805.562797,4367.215058,-919.314598
3612.023036,-14063.912898,3404.947333,-1991.848295
3612.023366,-16580.613101,370.102971,-2528.115143
3612.023696,-16136.489536,-444.123565,-3140.991542
3612.024026,-14804.118840,-7624.121203,-3524.039291
3612.024356,-7328.038826,-6069.688724,-3524.039291
3612.024686,-1406.391290,-5921.647536,153.219100
3612.025016,-5033.400406,-5255.462188,3524.039291
3612.025346,-4589.276840,-1554.432478,4136.915689
3612.025676,-7105.977043,1776.494261,3600.648841
3612.026006,-6069.688724,3478.967927,3370.820191
3612.026336,-12213.398043,2442.679609,153.219100
3612.026666,-15840.407159,2072.576638,-1532.190996
3612.026996,-14211.954086,666.185348,-1685.410096
3612.027326,-15544.324782,-1184.329507,-2145.067394
3612.027656,-16284.530724,-7698.141797,-383.047749
3612.027985,-8660.409521,-6365.771101,0.000000
3612.028315,-4515.256246,-4885.359217,1532.190996
3612.028645,-3997.112087,-2368.659014,2145.067394
3612.028975,-3034.844362,-814.226536,2681.334243
3612.029305,-6883.915261,2516.700203,2451.505594
3612.029635,-8142.265362,4959.379811,2451.505594
3612.029965,-12139.377449,3034.844362,229.828649
3612.030295,-14582.057057,3478.967927,-1072.533697
3612.030625,-15026.180623,1924.535449,-1915.238745
3612.030955,-15766.386565,222.061783,-3907.087040
3612.031285,-12879.583391,-1110.308913,-4903.011187
3612.031615,-12213.398043,-1850.514855,-1302.362347
3612.031945,-9770.718434,-3552.988522,1685.410096
3612.032275,-4219.173869,-1776.494261,2604.724693
3612.032605,-1036.288319,0.000000,4290.134789
3612.032935,-4589.276840,740.205942,4903.011187
3612.033265,-7105.977043,2960.823768,2528.115143
3612.033594,-10955.047942,4367.215058,536.266849
3612.033924,-12731.542202,4367.215058,-1991.848295
3612.034254,-14804.118840,3552.988522,-2068.457845
3612.034584,-15914.427753,0.000000,-2451.505594
3612.034914,-13323.706956,1554.432478,-2528.115143
3612.035244,-12287.418637,296.082377,-2298.286494
3612.035574,-9844.739029,-2664.741391,0.000000
3612.035904,-5329.482782,-1924.535449,1225.752797
3612.036234,-2368.659014,-296.082377,4136.915689
3612.036564,-3034.844362,222.061783,4749.792088
3612.036894,-7105.977043,2664.741391,3370.820191
3612.037224,-10658.965565,5625.565159,1991.848295
3612.037554,-12435.459826,5551.544565,-459.657299
3612.037884,-14063.912898,4293.194464,-2451.505594
3612.038214,-15914.427753,888.247130,-3064.381992
3612.038544,-15766.386565,148.041188,-3524.039291
3612.038874,-12805.562797,-4515.256246,-2528.115143
3612.039203,-9696.697840,-4737.318029,-3447.429741
3612.039533,-1332.370696,-5403.503377,383.047749
3612.039863,-6661.853478,-5625.565159,2374.896044
3612.040193,-5477.523971,-962.267725,2681.334243
3612.040523,-5551.544565,1628.453072,3217.601092
3612.040853,-7254.018232,4145.153275,3983.696590
3612.041183,-11473.192101,3775.050304,2374.896044
3612.041513,-15914.427753,4515.256246,-1072.533697
3612.041843,-14211.954086,1702.473667,-2068.457845
3612.042173,-14952.160028,-962.267725,-3064.381992
3612.042503,-12361.439231,-2886.803174,-689.485948
3612.042833,-13101.645173,-4663.297435,1378.971896
3612.043163,-7772.162391,-3701.029710,1532.190996
3612.043493,-4737.318029,-2146.597232,2451.505594
3612.043823,296.082377,1702.473667,4596.572988
3612.044153,-4663.297435,1998.556043,4519.963438
3612.044483,-9770.718434,3404.947333,2681.334243
3612.044812,-11991.336260,5625.565159,1302.362347
3612.045142,-14285.974681,3627.009116,-766.095498
3612.045472,-14878.139434,2590.720797,-1915.238745
3612.045802,-16728.654289,-518.144159,-2757.943793
3612.046132,-15396.283594,-2294.638420,-3064.381992
3612.046462,-17024.736666,-8142.265362,-2451.505594
3612.046792,-6069.688724,-4367.215058,-919.314598
3612.047122,-2812.782580,-5403.503377,2068.457845
3612.047452,-2220.617826,-1258.350101,4749.792088
3612.047782,-3849.070898,888.247130,4213.525239
3612.048112,-9696.697840,2516.700203,2451.505594
3612.048442,-8290.306550,4589.276840,766.095498
3612.048772,-13619.789333,2294.638420,-1302.362347
3612.049102,-14656.077652,1480.411884,-1302.362347
3612.049432,-15692.365970,74.020594,-1455.581446
3612.049762,-15322.262999,-1332.370696,-1838.629195
3612.050092,-16876.695478,-8734.430116,-2221.676944
3612.050421,-6439.791695,-5329.482782,-1532.190996
3612.050751,-4293.194464,-5625.565159,2068.457845
3612.051081,-1702.473667,-1924.535449,4749.792088
3612.051411,-2960.823768,148.041188,2911.162892
3612.051741,-7476.080014,2664.741391,2604.724693
3612.052071,-8882.471304,4663.297435,1455.581446
3612.052401,-15396.283594,2960.823768,-919.314598
3612.052731,-14582.057057,2812.782580,-2221.676944
3612.053061,-15544.324782,1258.350101,-2451.505594
3612.053391,-15914.427753,-370.102971,-3677.258390
3612.053721,-9474.636058,-296.082377,-4443.353888
3612.054051,-10436.903782,-2368.659014,-3524.039291
3612.054381,-5625.565159,-4367.215058,536.266849
3612.054711,-2886.803174,-2072.576638,1225.752797
3612.055041,-5329.482782,222.061783,4903.011187
3612.055371,-4959.379811,1628.453072,5515.887586
3612.055701,-8438.347739,4441.235652,3830.477490
3612.056030,-9252.574275,3552.988522,689.485948
3612.056360,-14063.912898,4811.338623,-2757.943793
3612.056690,-15470.304188,1184.329507,-2604.724693
3612.057020,-15470.304188,-296.082377,-2451.505594
3612.057350,-11325.150913,-814.226536,-1072.533697
3612.057680,-11547.212695,-888.247130,383.047749
3612.058010,-10362.883188,-3775.050304,536.266849
3612.058340,-5921.647536,-592.164754,1225.752797
3612.058670,814.226536,1406.391290,4366.744339
3612.059000,-5033.400406,1850.514855,3447.429741
3612.059330,-7476.080014,3182.885551,2451.505594
3612.059660,-11843.295072,5625.565159,76.609550
3612.059990,-13545.768739,4145.153275,-1762.019645
3612.060320,-14508.036463,3330.926739,-2528.115143
3612.060650,-17468.860231,148.041188,-2604.724693
3612.060979,-15914.427753,-1480.411884,-2451.505594
3612.061309,-9030.512492,-1998.556043,-2911.162892
3612.061639,-9326.594869,-3034.844362,-3140.991542
3612.061969,-1332.370696,-4367.215058,919.314598
3612.062299,-4219.173869,-3256.906145,2757.943793
3612.062628,-7624.121203,962.267725,4366.744339
3612.062958,-6365.771101,2368.659014,4136.915689
3612.063288,-9252.574275,4441.235652,3140.991542
3612.063618,-11473.192101,2812.782580,0.000000
3612.063948,-15618.345376,3997.112087,-2451.505594
3612.064278,-14582.057057,814.226536,-3064.381992
3612.064607,-14656.077652,-1036.288319,-2834.553343
3612.064937,-9030.512492,-4145.153275,-306.438199
3612.065267,-9992.780217,-3923.091493,-459.657299
3612.065597,-3701.029710,-4811.338623,1991.848295
3612.065927,-5921.647536,-2516.700203,1991.848295
3612.066257,-5329.482782,2072.576638,3140.991542
3612.066586,-4737.318029,1998.556043,3830.477490
3612.066916,-9770.718434,4441.235652,2834.553343
3612.067246,-11695.253884,3701.029710,1838.629195
3612.067576,-14285.974681,4515.256246,-995.924147
3612.067906,-14211.954086,2072.576638,-3294.210641
3612.068235,-14804.118840,-222.061783,-4903.011187
3612.068565,-12879.583391,-1998.556043,-3677.258390
3612.068895,-13841.851115,-4293.194464,-306.438199
3612.069225,-7994.224174,-3034.844362,536.266849
3612.069555,-4589.276840,-1628.453072,1991.848295
3612.069885,740.205942,1036.288319,4826.401637
3612.070214,-3627.009116,814.226536,4366.744339
3612.070544,-9178.553681,2886.803174,2221.676944
3612.070874,-10881.027347,5255.462188,0.000000
3612.071204,-14211.954086,3108.864956,-1762.019645
3612.071534,-14582.057057,1850.514855,-1608.800546
3612.071864,-16728.654289,-1036.288319,-2374.896044
3612.072193,-13249.686362,-2146.597232,-1991.848295
3612.072523,-13101.645173,-4145.153275,-1225.752797
3612.072853,-9030.512492,-3256.906145,-229.828649
3612.073183,-4737.318029,-1554.432478,1685.410096
3612.073513,-1776.494261,962.267725,4979.620737
3612.073843,-4737.318029,1332.370696,4290.134789
3612.074172,-7624.121203,3256.906145,1762.019645
3612.074502,-9918.759623,5921.647536,842.705048
3612.074832,-14952.160028,3849.070898,-842.705048
3612.075162,-15396.283594,3478.967927,-1532.190996
3612.075492,-17172.777854,1036.288319,-2298.286494
3612.075821,-14730.098246,-1184.329507,-2451.505594
3612.076151,-13249.686362,-6661.853478,-2987.772442
3612.076481,-9474.636058,-6439.791695,-2221.676944
3612.076811,296.082377,-5403.503377,1532.190996
3612.077141,-3849.070898,-4071.132681,2451.505594
3612.077471,-6587.832884,1110.308913,2987.772442
3612.077800,-7550.100608,2294.638420,3677.258390
3612.078130,-8956.491898,4885.359217,3447.429741
3612.078460,-11917.315666,3256.906145,689.485948
3612.078790,-16654.633695,2812.782580,-1685.410096
3612.079120,-14211.954086,444.123565,-1762.019645
3612.079450,-14063.912898,-1110.308913,-2834.553343
3612.079779,-9696.697840,-1184.329507,-766.095498
3612.080109,-9844.739029,-518.144159,1378.971896
3612.080439,-10362.883188,-3330.926739,2528.115143
3612.080769,-5551.544565,1110.308913,2987.772442
3612.081099,0.000000,2072.576638,4979.620737
3612.081428,-5773.606348,2738.761985,5209.449386
3612.081758,-9252.574275,3997.112087,3294.210641
3612.082088,-12879.583391,5033.400406,842.705048
3612.082418,-13619.789333,4367.215058,-2451.505594
3612.082748,-15174.221811,2442.679609,-2911.162892
3612.083078,-16062.468941,-1036.288319,-3064.381992
3612.083407,-13915.871710,370.102971,-2451.505594
3612.083737,-11695.253884,518.144159,-1608.800546
3612.084067,-9030.512492,-1998.556043,383.047749
3612.084397,-4885.359217,-222.061783,1302.362347
3612.084727,-2590.720797,148.041188,5056.230287
3612.085057,-5033.400406,666.185348,4673.182538
3612.085386,-8216.285956,2368.659014,3217.601092
3612.085716,-10955.047942,4737.318029,2374.896044
3612.086046,-13767.830521,3923.091493,-1149.143247
3612.086376,-14952.160028,2738.761985,-2451.505594
3612.086706,-15470.304188,-74.020594,-2221.676944
3612.087036,-14211.954086,296.082377,-2068.457845
3612.087365,-12953.603985,-814.226536,-1378.971896
3612.087695,-10362.883188,-2146.597232,-689.485948
3612.088025,-5625.565159,-1258.350101,1838.629195
3612.088355,-1332.370696,222.061783,5132.839837
3612.088685,-5033.400406,444.123565,3983.696590
3612.089014,-6069.688724,1850.514855,2911.162892
3612.089344,-10807.006753,4737.318029,1302.362347
3612.089674,-13249.686362,4071.132681,-1378.971896
3612.090004,-13841.851115,3627.009116,-2757.943793
3612.090334,-16210.510130,740.205942,-2911.162892
3612.090664,-14508.036463,-1036.288319,-2987.772442
3612.090993,-9400.615463,-1776.494261,-4290.134789
3612.091323,-10288.862594,-3182.885551,-3907.087040
3612.091653,-2072.576638,-4515.256246,0.000000
3612.091983,-4071.132681,-3478.967927,2145.067394
3612.092313,-7920.203579,-444.123565,4673.182538
3612.092643,-5403.503377,1480.411884,3983.696590
3612.092972,-8512.368333,3478.967927,2834.553343
3612.093302,-10066.800811,3404.947333,-459.657299
3612.093632,-15100.201217,4145.153275,-2221.676944
3612.093962,-15174.221811,2220.617826,-2834.553343
3612.094292,-14804.118840,296.082377,-3677.258390
3612.094622,-7994.224174,0.000000,-2068.457845
3612.094951,-10362.883188,-2146.597232,-1378.971896
3612.095281,-6661.853478,-4515.256246,1072.533697
3612.095611,-5625.565159,-2072.576638,536.266849
3612.095941,-5921.647536,370.102971,3677.258390
3612.096271,-4737.318029,2072.576638,4749.792088
3612.096600,-9178.553681,4219.173869,4136.915689
3612.096930,-10214.842000,4293.194464,2145.067394
3612.097260,-13989.892304,5181.441594,-1608.800546
3612.097590,-15322.262999,2368.659014,-3294.210641
3612.097920,-14730.098246,666.185348,-3447.429741
3612.098250,-13989.892304,-2886.803174,-2451.505594
3612.098579,-8586.388927,-4737.318029,-1302.362347
3612.098909,-8956.491898,-4959.379811,-1532.190996
3612.099239,-518.144159,-4737.318029,1378.971896
3612.099569,-3627.009116,-3552.988522,2221.676944
3612.099899,-6957.935855,370.102971,4136.915689
3612.100229,-6439.791695,2664.741391,4366.744339
3612.100558,-10140.821405,3627.009116,2834.553343
3612.100888,-12435.459826,2812.782580,-76.609550
3612.101218,-15988.448347,2590.720797,-2068.457845
3612.101548,-15248.242405,-148.041188,-2221.676944
3612.101878,-14211.954086,-1554.432478,-2681.334243
3612.102207,-13841.851115,-8290.306550,0.000000
3612.102537,-6735.874072,-4663.297435,-306.438199
3612.102867,-6217.729913,-4959.379811,1149.143247
3612.103197,-4589.276840,-2812.782580,3677.258390
3612.103527,-1110.308913,-518.144159,3907.087040
3612.103857,-5625.565159,1776.494261,3217.601092
3612.104186,-8290.306550,3627.009116,1685.410096
3612.104516,-14508.036463,2738.761985,-689.485948
3612.104846,-14211.954086,2886.803174,-2221.676944
3612.105176,-15544.324782,1554.432478,-3217.601092
3612.105506,-15692.365970,-1258.350101,-3753.867940
3612.105836,-14804.118840,-6957.935855,-2987.772442
3612.106165,-9548.656652,-7105.977043,-1991.848295
3612.106495,-1850.514855,-5403.503377,919.314598
3612.106825,-4293.194464,-5921.647536,1455.581446
3612.107155,-4811.338623,-1258.350101,2987.772442
3612.107485,-4219.173869,1480.411884,3983.696590
3612.107815,-7179.997637,2886.803174,2987.772442
3612.108144,-12583.501014,3182.885551,-153.219100
3612.108474,-16580.613101,3701.029710,-2068.457845
3612.108804,-13915.871710,1702.473667,-2604.724693
3612.109134,-14211.954086,-666.185348,-4060.306139
3612.109464,-17024.736666,-7179.997637,-2451.505594
3612.109793,-8734.430116,-5403.503377,-689.485948
3612.110123,-4663.297435,-4515.256246,1149.143247
3612.110453,-3775.050304,-1924.535449,2834.553343
3612.110783,-2812.782580,-962.267725,3447.429741
3612.111113,-6217.729913,2812.782580,3294.210641
3612.111443,-6957.935855,4959.379811,3370.820191
3612.111772,-12139.377449,3478.967927,689.485948
3612.112102,-13989.892304,4293.194464,-1149.143247
3612.112432,-16062.468941,2516.700203,-2374.896044
3612.112762,-15322.262999,444.123565,-4443.353888
3612.113092,-13027.624579,-1850.514855,-5515.887586
3612.113422,-15988.448347,-7994.224174,-2298.286494
3612.113751,-6809.894666,-4811.338623,459.657299
3612.114081,-2294.638420,-4737.318029,2068.457845
3612.114411,-3034.844362,-2664.741391,4136.915689
3612.114741,-3701.029710,0.000000,4749.792088
3612.115071,-7550.100608,2664.741391,3600.648841
3612.115400,-9252.574275,3775.050304,2221.676944
3612.115730,-15026.180623,3034.844362,-842.705048
3612.116060,-15100.201217,2294.638420,-1225.752797
3612.116390,-15026.180623,1184.329507,-2221.676944
3612.116720,-14359.995275,-1332.370696,-2834.553343
3612.117050,-9992.780217,-4737.318029,-2451.505594
3612.117379,-9844.739029,-4663.297435,-1302.362347
3612.117709,-2368.659014,-4219.173869,1455.581446
3612.118039,-4811.338623,-3923.091493,2145.067394
3612.118369,-6217.729913,518.144159,3294.210641
3612.118699,-5551.544565,2812.782580,4903.011187
3612.119029,-9474.636058,3923.091493,4673.182538
3612.119358,-12361.439231,3256.906145,1072.533697
3612.119688,-15322.262999,3775.050304,-1991.848295
3612.120018,-13693.809927,1628.453072,-2374.896044
3612.120348,-15100.201217,-222.061783,-3983.696590
3612.120678,-9400.615463,-962.267725,-3140.991542
3612.121008,-10510.924376,-1924.535449,-1302.362347
3612.121337,-6661.853478,-4219.173869,1608.800546
3612.121667,-3923.091493,-1258.350101,1991.848295
3612.121997,-4293.194464,814.226536,3753.867940
3612.122327,-4071.132681,1110.308913,4903.011187
3612.122657,-8586.388927,3478.967927,3753.867940
3612.122986,-11325.150913,3034.844362,1302.362347
3612.123316,-13027.624579,4663.297435,-1838.629195
3612.123646,-15100.201217,1850.514855,-2451.505594
3612.123976,-14582.057057,-666.185348,-2987.772442
3612.124306,-11843.295072,-2960.823768,-2451.505594
3612.124636,-11251.130318,-4663.297435,-2528.115143
3612.124965,-4811.338623,-4811.338623,0.000000
3612.125295,-7698.141797,-6587.832884,689.485948
3612.125625,-5181.441594,-1332.370696,2681.334243
3612.125955,-2886.803174,0.000000,4060.306139
3612.126285,-7105.977043,2072.576638,4290.134789
3612.126615,-10510.924376,2664.741391,1532.190996
3612.126944,-14582.057057,4293.194464,-1685.410096
3612.127274,-13027.624579,2516.700203,-3600.648841
3612.127604,-14137.933492,222.061783,-4903.011187
3612.127934,-15618.345376,-4293.194464,-3370.820191
3612.128264,-12435.459826,-4367.215058,-2757.943793
3612.128593,-9104.533087,-7254.018232,-1378.971896
3612.128923,-4737.318029,-4737.318029,-459.657299
3612.129253,-1924.535449,-3034.844362,3447.429741
3612.129583,-4071.132681,0.000000,5056.230287
3612.129913,-5995.668130,2220.617826,4213.525239
3612.130243,-9474.636058,2886.803174,1378.971896
3612.130572,-11843.295072,4737.318029,-766.095498
3612.130902,-15026.180623,2368.659014,-2298.286494
3612.131232,-15618.345376,814.226536,-3447.429741
3612.131562,-13175.665768,666.185348,-3447.429741
3612.131892,-13027.624579,-1554.432478,-2221.676944
3612.132222,-10214.842000,-3108.864956,-1378.971896
3612.132551,-7179.997637,-1628.453072,842.705048
3612.132881,-2442.679609,-1110.308913,3600.648841
3612.133211,-3552.988522,1628.453072,4366.744339
3612.133541,-4663.297435,2886.803174,4673.182538
3612.133871,-9622.677246,3923.091493,2987.772442
3612.134201,-12361.439231,4811.338623,306.438199
3612.134530,-14434.015869,3849.070898,-1685.410096
3612.134860,-15470.304188,1850.514855,-2987.772442
3612.135190,-14656.077652,370.102971,-3064.381992
3612.135520,-14952.160028,-4145.153275,-3524.039291
3612.135850,-10436.903782,-3923.091493,-2068.457845
3612.136179,-3478.967927,-4293.194464,-536.266849
3612.136509,-5181.441594,-3404.947333,1532.190996
3612.136839,-4145.153275,-1332.370696,3907.087040
3612.137169,-5773.606348,962.267725,4290.134789
3612.137499,-7105.977043,3182.885551,4290.134789
3612.137829,-10140.821405,3256.906145,1762.019645
3612.138158,-14063.912898,3923.091493,-995.924147
3612.138488,-14434.015869,2738.761985,-2528.115143
3612.138818,-15174.221811,1184.329507,-3447.429741
3612.139148,-12583.501014,-1702.473667,-2374.896044
3612.139478,-14359.995275,-3552.988522,0.000000
3612.139808,-8586.388927,-3775.050304,1149.143247
3612.140137,-5033.400406,-1850.514855,2068.457845
3612.140467,-1628.453072,222.061783,3983.696590
3612.140797,-5033.400406,1036.288319,4903.011187
3612.141127,-7772.162391,3478.967927,3370.820191
3612.141457,-10214.842000,4663.297435,2528.115143
3612.141786,-13693.809927,3404.947333,-919.314598
3612.142116,-14211.954086,3034.844362,-2221.676944
3612.142446,-16358.551318,1332.370696,-3753.867940
3612.142776,-15174.221811,-1258.350101,-4443.353888
3612.143106,-15544.324782,-7550.100608,-2834.553343
3612.143436,-8290.306550,-5921.647536,-1072.533697
3612.143765,-3552.988522,-5551.544565,1991.848295
3612.144095,-5477.523971,-5921.647536,3753.867940
3612.144425,-2738.761985,-2368.659014,2757.943793
3612.144755,-6513.812290,1110.308913,3600.648841
3612.145085,-7920.203579,2960.823768,2987.772442
3612.145415,-14137.933492,2368.659014,0.000000
3612.145744,-15544.324782,2516.700203,-2374.896044
3612.146074,-13101.645173,1258.350101,-2451.505594
3612.146404,-14878.139434,-1184.329507,-4673.182538
3612.146734,-15322.262999,-7476.080014,-2834.553343
3612.147064,-8734.430116,-6513.812290,-2068.457845
3612.147394,-3404.947333,-5551.544565,459.657299
3612.147723,-5921.647536,-5107.421000,2451.505594
3612.148053,-3997.112087,-1924.535449,2451.505594
3612.148383,-5699.585753,1850.514855,2911.162892
3612.148713,-6735.874072,3552.988522,3677.258390
3612.149043,-11843.295072,2590.720797,229.828649
3612.149372,-15026.180623,3404.947333,-1608.800546
3612.149702,-13545.768739,1850.514855,-2374.896044
3612.150032,-14730.098246,0.000000,-4060.306139
3612.150362,-14952.160028,-5181.441594,-3524.039291
3612.150692,-11399.171507,-5995.668130,-2451.505594
3612.151022,-5551.544565,-5921.647536,0.000000
3612.151351,-4515.256246,-4515.256246,689.485948
3612.151681,-2146.597232,-2738.761985,3294.210641
3612.152011,-5551.544565,0.000000,4596.572988
3612.152341,-7179.997637,2738.761985,3294.210641
3612.152671,-10955.047942,2072.576638,689.485948
3612.153001,-13767.830521,3478.967927,-919.314598
3612.153330,-13767.830521,1776.494261,-1302.362347
3612.153660,-14730.098246,222.061783,-2221.676944
3612.153990,-13249.686362,-2146.597232,-2451.505594
3612.154320,-14952.160028,-5403.503377,-229.828649
3612.154650,-8734.430116,-4367.215058,459.657299
3612.154980,-5107.421000,-4145.153275,1608.800546
3612.155309,-1924.535449,-1036.288319,3370.820191
3612.155639,-2960.823768,-296.082377,5515.887586
3612.155969,-7624.121203,2294.638420,3830.477490
3612.156299,-10214.842000,3997.112087,2451.505594
3612.156629,-12879.583391,3330.926739,-1225.752797
3612.156958,-13471.748144,2442.679609,-1685.410096
3612.157288,-15470.304188,1554.432478,-3140.991542
3612.157618,-15692.365970,0.000000,-2911.162892
3612.157948,-10658.965565,-2368.659014,-3217.601092
3612.158278,-10214.842000,-3034.844362,-2374.896044
3612.158608,-4071.132681,-3923.091493,919.314598
3612.158937,-5403.503377,-4071.132681,2298.286494
3612.159267,-5625.565159,-962.267725,3064.381992
3612.159597,-4663.297435,962.267725,4903.011187
3612.159927,-8364.327145,2812.782580,4136.915689
3612.160257,-11843.295072,3404.947333,1378.971896
3612.160587,-14582.057057,4145.153275,-1915.238745
3612.160916,-13471.748144,2146.597232,-2451.505594
3612.161246,-14285.974681,74.020594,-3753.867940
3612.161576,-12805.562797,-3478.967927,-1838.629195
3612.161906,-10732.986159,-3478.967927,-1608.800546
3612.162236,-5329.482782,-3923.091493,612.876398
3612.162565,-7179.997637,-4737.318029,1378.971896
3612.162895,-4663.297435,-962.267725,2451.505594
3612.163225,-4293.194464,1036.288319,3294.210641
3612.163555,-7328.038826,3478.967927,3753.867940
3612.163885,-10288.862594,3256.906145,1225.752797
3612.164215,-13841.851115,4663.297435,-1072.533697
3612.164544,-12657.521608,2368.659014,-3064.381992
3612.164874,-14804.118840,740.205942,-4673.182538
3612.165204,-11695.253884,1628.453072,-4136.915689
3612.165534,-12509.480420,-370.102971,-2298.286494
3612.165864,-9918.759623,-2368.659014,153.219100
3612.166194,-6957.935855,-1258.350101,459.657299
3612.166524,-2294.638420,-518.144159,4826.401637
3612.166853,-3923.091493,1332.370696,5515.887586
3612.167183,-6513.812290,3256.906145,4903.011187
3612.167513,-10436.903782,3849.070898,1455.581446
3612.167843,-12361.439231,5255.462188,-1608.800546
3612.168173,-13471.748144,3997.112087,-2757.943793
3612.168503,-14878.139434,518.144159,-3370.820191
3612.168832,-13027.624579,1628.453072,-2911.162892
3612.169162,-12879.583391,-1184.329507,-2145.067394
3612.169492,-9844.739029,-2220.617826,-919.314598
3612.169822,-7179.997637,-962.267725,-76.609550
3612.170152,-2886.803174,-444.123565,3294.210641
3612.170482,-4589.276840,814.226536,4749.792088
3612.170811,-6291.750507,1924.535449,5132.839837
3612.171141,-10436.903782,3256.906145,3524.039291
3612.171471,-12953.603985,4071.132681,306.438199
3612.171801,-12879.583391,3849.070898,-1762.019645
3612.172131,-14508.036463,1258.350101,-3217.601092
3612.172461,-14434.015869,0.000000,-3294.210641
3612.172790,-11843.295072,74.020594,-3447.429741
3612.173120,-10807.006753,-1036.288319,-1532.190996
3612.173450,-7772.162391,-3775.050304,0.000000
3612.173780,-5477.523971,-2368.659014,2145.067394
3612.174110,-2294.638420,-1184.329507,4596.572988
3612.174440,-5773.606348,0.000000,5515.887586
3612.174769,-8216.285956,2072.576638,4673.182538
3612.175099,-11769.274478,2886.803174,1608.800546
3612.175429,-13323.706956,3701.029710,-1302.362347
3612.175759,-14582.057057,2590.720797,-2681.334243
3612.176089,-16358.551318,-370.102971,-2528.115143
3612.176419,-13027.624579,-3108.864956,-1608.800546
3612.176748,-10955.047942,-4145.153275,-2757.943793
3612.177078,-6661.853478,-5033.400406,-536.266849
3612.177408,-5477.523971,-4367.215058,0.000000
3612.177738,-4367.215058,-2886.803174,3064.381992
3612.178068,-4737.318029,-814.226536,3140.991542
3612.178398,-7476.080014,1554.432478,3830.477490
3612.178727,-9474.636058,2590.720797,2298.286494
3612.179057,-13619.789333,3627.009116,0.000000
3612.179387,-13027.624579,2146.597232,-2145.067394
3612.179717,-14211.954086,296.082377,-3447.429741
3612.180047,-14211.954086,-2442.679609,-3370.820191
3612.180377,-12731.542202,-3923.091493,-2298.286494
3612.180706,-7550.100608,-6587.832884,-153.219100
3612.181036,-6069.688724,-4885.359217,229.828649
3612.181366,-4071.132681,-2960.823768,2681.334243
3612.181696,-3775.050304,-518.144159,3370.820191
3612.182026,-6217.729913,2442.679609,2451.505594
3612.182356,-8586.388927,3701.029710,842.705048
3612.182685,-12139.377449,4737.318029,-995.924147
3612.183015,-13693.809927,3330.926739,-2911.162892
3612.183345,-14359.995275,2072.576638,-4136.915689
3612.183675,-13841.851115,-592.164754,-3753.867940
3612.184005,-13397.727550,-5033.400406,-2681.334243
3612.184335,-10140.821405,-4885.359217,-1608.800546
3612.184664,-3034.844362,-3849.070898,459.657299
3612.184994,-4885.359217,-2516.700203,1302.362347
3612.185324,-4737.318029,-370.102971,3677.258390
3612.185654,-5921.647536,2442.679609,3983.696590
3612.185984,-8438.347739,3997.112087,4519.963438
3612.186314,-11325.150913,3627.009116,919.314598
3612.186643,-14508.036463,3627.009116,-766.095498
3612.186973,-13693.809927,2738.761985,-2298.286494
3612.187303,-14508.036463,666.185348,-3983.696590
3612.187633,-13619.789333,-5107.421000,-3677.258390
3612.187963,-10066.800811,-5033.400406,-2298.286494
3612.188293,-5625.565159,-6661.853478,689.485948
3612.188622,-4589.276840,-4737.318029,2221.676944
3612.188952,-2516.700203,-2442.679609,4290.134789
3612.189282,-5625.565159,962.267725,4136.915689
3612.189612,-7624.121203,3404.947333,3677.258390
3612.189942,-11325.150913,3330.926739,1532.190996
3612.190272,-13767.830521,3775.050304,-766.095498
3612.190601,-14211.954086,2516.700203,-1532.190996
3612.190931,-15174.221811,1110.308913,-2298.286494
3612.191261,-13545.768739,-1406.391290,-2604.724693
3612.191591,-14878.139434,-6513.812290,-1915.238745
3612.191921,-7476.080014,-4663.297435,-1455.581446
3612.192251,-3256.906145,-3923.091493,459.657299
3612.192580,-4737.318029,-1924.535449,3600.648841
3612.192910,-3701.029710,0.000000,4903.011187
3612.193240,-7402.059420,3034.844362,4366.744339
3612.193570,-8882.471304,4071.132681,3753.867940
3612.193900,-13915.871710,3478.967927,229.828649
3612.194230,-14952.160028,2516.700203,-1072.533697
3612.194559,-15174.221811,1258.350101,-1915.238745
3612.194889,-14878.139434,-740.205942,-2757.943793
3612.195219,-10140.821405,222.061783,-2604.724693
3612.195549,-10436.903782,-740.205942,-689.485948
3612.195879,-8290.306550,-3552.988522,1455.581446
3612.196209,-4071.132681,-148.041188,1378.971896
3612.196538,-3552.988522,-74.020594,3830.477490
3612.196868,-5773.606348,1332.370696,4673.182538
3612.197198,-8956.491898,3330.926739,3907.087040
3612.197528,-11547.212695,3627.009116,1302.362347
3612.197858,-14063.912898,4071.132681,-1685.410096
3612.198188,-14730.098246,1850.514855,-3140.991542
3612.198518,-14434.015869,-1036.288319,-3217.601092
3612.198847,-9918.759623,-962.267725,-2145.067394
3612.199177,-11177.109724,-2294.638420,-2451.505594
3612.199507,-6735.874072,-3775.050304,536.266849
3612.199837,-4367.215058,-3256.906145,0.000000
3612.200167,-6069.688724,0.000000,1532.190996
3612.200497,-2960.823768,370.102971,3983.696590
3612.200826,-8660.409521,2220.617826,3294.210641
3612.201156,-10732.986159,2812.782580,1455.581446
3612.201486,-12287.418637,4811.338623,-1608.800546
3612.201816,-13767.830521,2664.741391,-3294.210641
3612.202146,-14359.995275,74.020594,-4519.963438
3612.202476,-14508.036463,-3108.864956,-3140.991542
3612.202805,-11621.233289,-4367.215058,-2987.772442
3612.203135,-4219.173869,-4515.256246,-1455.581446
3612.203465,-5995.668130,-4589.276840,0.000000
3612.203795,-3923.091493,-1924.535449,3907.087040
3612.204125,-4515.256246,962.267725,3907.087040
3612.204455,-7402.059420,3330.926739,3524.039291
3612.204784,-8956.491898,2812.782580,995.924147
3612.205114,-12731.542202,4367.215058,-842.705048
3612.205444,-13323.706956,2516.700203,-2221.676944
3612.205774,-15174.221811,740.205942,-3830.477490
3612.206104,-12805.562797,-1850.514855,-3447.429741
3612.206434,-14211.954086,-7994.224174,-1532.190996
3612.206763,-8956.491898,-6069.688724,-1072.533697
3612.207093,-3182.885551,-4737.318029,1225.752797
3612.207423,-5033.400406,-3923.091493,2911.162892
3612.207753,-4441.235652,-592.164754,3677.258390
3612.208083,-6365.771101,2516.700203,2834.553343
3612.208413,-7328.038826,3627.009116,3677.258390
3612.208742,-12879.583391,2886.803174,1149.143247
3612.209072,-15470.304188,3256.906145,0.000000
3612.209402,-14137.933492,1924.535449,-2068.457845
3612.209732,-14211.954086,-222.061783,-4136.915689
3612.210062,-9918.759623,-518.144159,-3294.210641
3612.210392,-12213.398043,-1924.535449,-1532.190996
3612.210721,-7105.977043,-4071.132681,1225.752797
3612.211051,-4293.194464,-2960.823768,1608.800546
3612.211381,-2812.782580,-518.144159,3217.601092
3612.211711,-2664.741391,740.205942,5822.325785
3612.212041,-8364.327145,3034.844362,3983.696590
3612.212371,-11843.295072,3330.926739,612.876398
3612.212700,-13619.789333,5329.482782,-2374.896044
3612.213030,-13915.871710,2516.700203,-2221.676944
3612.213360,-14656.077652,0.000000,-2834.553343
3612.213690,-13989.892304,-1406.391290,-2068.457845
3612.214020,-14582.057057,-4219.173869,-842.705048
3612.214350,-8290.306550,-2738.761985,-1149.143247
3612.214679,-4293.194464,-3034.844362,306.438199
3612.215009,-2368.659014,-1406.391290,4443.353888
3612.215339,-3478.967927,-962.267725,4903.011187
3612.215669,-7698.141797,1998.556043,3677.258390
3612.215999,-10214.842000,3997.112087,1532.190996
3612.216329,-13915.871710,2960.823768,-1302.362347
3612.216658,-14434.015869,2960.823768,-2451.505594
3612.216988,-15618.345376,888.247130,-2451.505594
3612.217318,-15100.201217,-1332.370696,-3907.087040
3612.217648,-16876.695478,-7994.224174,-2911.162892
3612.217978,-7698.141797,-4959.379811,-1608.800546
3612.218308,-3849.070898,-5255.462188,2068.457845
3612.218637,-4441.235652,-4737.318029,4290.134789
3612.218967,-2812.782580,-1776.494261,3600.648841
3612.219297,-7105.977043,1110.308913,3140.991542
3612.219627,-8290.306550,3404.947333,2987.772442
3612.219957,-13619.789333,2590.720797,-536.266849
3612.220287,-14952.160028,2886.803174,-2451.505594
3612.220616,-14508.036463,1184.329507,-2834.553343
3612.220946,-15322.262999,-1406.391290,-4060.306139
3612.221276,-14508.036463,-7476.080014,-2834.553343
3612.221606,-8808.450710,-6735.874072,-1149.143247
3612.221936,-2812.782580,-6217.729913,1685.410096
3612.222266,-5995.668130,-6587.832884,2757.943793
3612.222595,-3404.947333,-1480.411884,2528.115143
3612.222925,-5477.523971,1184.329507,3677.258390
3612.223255,-7920.203579,3182.885551,3447.429741
3612.223585,-12805.562797,2738.761985,0.000000
3612.223915,-15026.180623,3849.070898,-2298.286494
3612.224245,-13249.686362,1924.535449,-2757.943793
3612.224574,-14804.118840,-666.185348,-5362.668486
3612.224904,-11917.315666,-4145.153275,-3983.696590
3612.225234,-11917.315666,-5477.523971,-2604.724693
3612.225564,-4367.215058,-4441.235652,689.485948
3612.225894,-5847.626942,-4885.359217,2298.286494
3612.226224,-5329.482782,-1776.494261,4366.744339
3612.226553,-4071.132681,1406.391290,5975.544884
3612.226883,-6291.750507,3701.029710,4903.011187
3612.227213,-10362.883188,3182.885551,1302.362347
3612.227543,-14508.036463,4663.297435,-1915.238745
3612.227873,-14508.036463,2664.741391,-2528.115143
3612.228203,-14359.995275,370.102971,-4213.525239
3612.228532,-12657.521608,-2294.638420,-2604.724693
3612.228862,-15766.386565,-6883.915261,-536.266849
3612.229192,-8438.347739,-3923.091493,-1072.533697
3612.229522,-2960.823768,-3182.885551,-536.266849
3612.229852,-1554.432478,148.041188,2834.553343
3612.230182,-3478.967927,222.061783,4903.011187
3612.230512,-8808.450710,3478.967927,4060.306139
3612.230841,-10214.842000,4737.318029,2374.896044
3612.231171,-13619.789333,3256.906145,-919.314598
3612.231501,-14359.995275,2516.700203,-1378.971896
3612.231831,-15544.324782,666.185348,-2604.724693
3612.232161,-16284.530724,-666.185348,-3447.429741
3612.232491,-12065.356855,-4959.379811,-3064.381992
3612.232820,-9622.677246,-4885.359217,-1991.848295
3612.233150,-2368.659014,-4737.318029,1455.581446
3612.233480,-3330.926739,-3627.009116,2757.943793
3612.233810,-4959.379811,1110.308913,4596.572988
3612.234140,-6735.874072,2220.617826,5362.668486
3612.234470,-9030.512492,4441.235652,3907.087040
3612.234799,-12287.418637,2960.823768,995.924147
3612.235129,-16136.489536,3330.926739,-1991.848295
3612.235459,-13619.789333,1628.453072,-1991.848295
3612.235789,-15396.283594,222.061783,-3447.429741
3612.236119,-10584.944971,370.102971,-1532.190996
3612.236449,-10288.862594,222.061783,153.219100
3612.236778,-9474.636058,-2738.761985,842.705048
3612.237108,-4737.318029,518.144159,2298.286494
3612.237438,-888.247130,1776.494261,4903.011187
3612.237768,-5921.647536,2146.597232,5056.230287
3612.238098,-8734.430116,4367.215058,2604.724693
3612.238428,-12435.459826,4959.379811,995.924147
3612.238757,-12953.603985,4959.379811,-2451.505594
3612.239087,-13693.809927,3108.864956,-4060.306139
3612.239417,-15988.448347,0.000000,-4903.011187
3612.239747,-11843.295072,1850.514855,-4060.306139
3612.240077,-11325.150913,296.082377,-3524.039291
3612.240407,-8142.265362,-2960.823768,-766.095498
3612.240736,-5921.647536,-3627.009116,536.266849
3612.241066,-2294.638420,-740.205942,3753.867940
3612.241396,-2812.782580,-370.102971,5132.839837
3612.241726,-7994.224174,2146.597232,4596.572988
3612.242056,-10436.903782,3478.967927,2145.067394
3612.242386,-13619.789333,5477.523971,-2528.115143
3612.242715,-14211.954086,3478.967927,-3294.210641
3612.243045,-15840.407159,0.000000,-4290.134789
3612.243375,-12361.439231,666.185348,-2374.896044
3612.243705,-12065.356855,-740.205942,-2145.067394
3612.244035,-8882.471304,-2738.761985,-1915.238745
3612.244365,-5921.647536,-2220.617826,-76.609550
3612.244694,-2294.638420,0.000000,3830.477490
3612.245024,-3923.091493,666.185348,4136.915689
3612.245354,-6735.874072,2368.659014,3830.477490
3612.245684,-10658.965565,4071.132681,2068.457845
3612.246014,-12805.562797,4589.276840,153.219100
3612.246344,-14804.118840,3923.091493,-1762.019645
3612.246673,-15100.201217,370.102971,-3217.601092
3612.247003,-15100.201217,-592.164754,-2528.115143
3612.247333,-16580.613101,-6957.935855,-2528.115143
3612.247663,-8660.409521,-5033.400406,-2681.334243
3612.247993,-3256.906145,-5329.482782,-383.047749
3612.248323,-4145.153275,-3108.864956,2987.772442
3612.248652,-2368.659014,-2368.659014,5209.449386
3612.248982,-7031.956449,666.185348,3907.087040
3612.249312,-7402.059420,2664.741391,3753.867940
3612.249642,-12583.501014,2664.741391,1225.752797
3612.249972,-15470.304188,2812.782580,76.609550
3612.250302,-16136.489536,1480.411884,-995.924147
3612.250631,-16432.571912,-148.041188,-1991.848295
3612.250961,-11103.089130,-518.144159,-2528.115143
3612.251291,-10955.047942,-1110.308913,-383.047749
3612.251621,-9326.594869,-3627.009116,1455.581446
3612.251951,-4589.276840,74.020594,1915.238745
3612.252281,-1406.391290,1480.411884,3830.477490
3612.252610,-4589.276840,1332.370696,4290.134789
3612.252940,-7105.977043,3404.947333,3064.381992
3612.253270,-11621.233289,4071.132681,1608.800546
3612.253600,-13323.706956,4441.235652,-2145.067394
3612.253930,-14285.974681,2812.782580,-3370.820191
3612.254260,-15322.262999,222.061783,-4290.134789
3612.254589,-14730.098246,-518.144159,-3217.601092
3612.254919,-15470.304188,-2812.782580,-1762.019645
3612.255249,-8512.368333,-2368.659014,-766.095498
3612.255579,-4293.194464,-3108.864956,1225.752797
3612.255909,-444.123565,-1036.288319,4596.572988
3612.256239,-4219.173869,-592.164754,4136.915689
3612.256568,-7105.977043,2220.617826,3983.696590
3612.256898,-9770.718434,4737.318029,1455.581446
3612.257228,-14063.912898,4071.132681,-1685.410096
3612.257558,-13619.789333,3404.947333,-3294.210641
3612.257888,-16284.530724,1184.329507,-3447.429741
3612.258218,-15396.283594,74.020594,-3830.477490
3612.258547,-15396.283594,-2664.741391,-2911.162892
3612.258877,-9992.780217,-3627.009116,-1455.581446
3612.259207,-5107.421000,-1776.494261,1532.190996
3612.259537,-1776.494261,-148.041188,4903.011187
3612.259867,-4219.173869,-222.061783,4903.011187
3612.260197,-7624.121203,2368.659014,3370.820191
3612.260526,-7994.224174,5329.482782,3370.820191
3612.260856,-13249.686362,3552.988522,76.609550
3612.261186,-14359.995275,3552.988522,-1685.410096
3612.261516,-15766.386565,1924.535449,-3217.601092
3612.261846,-15544.324782,-370.102971,-4443.353888
3612.262176,-10658.965565,74.020594,-5209.449386
3612.262506,-11251.130318,-1258.350101,-1455.581446
3612.262836,-9474.636058,-3182.885551,1455.581446
3612.263166,-3478.967927,-74.020594,2681.334243
3612.263495,-1850.514855,-296.082377,5515.887586
3612.263825,-5921.647536,592.164754,4979.620737
3612.264155,-7550.100608,3256.906145,3907.087040
3612.264485,-12065.356855,4293.194464,1685.410096
3612.264815,-13989.892304,4071.132681,-1532.190996
3612.265145,-14211.954086,2294.638420,-2834.553343
3612.265475,-16284.530724,-296.082377,-2911.162892
3612.265805,-14730.098246,-2368.659014,-1302.362347
3612.266135,-16432.571912,-9474.636058,-612.876398
3612.266465,-4885.359217,-4737.318029,-1378.971896
3612.266795,-1702.473667,-5329.482782,1532.190996
3612.267125,-3108.864956,-2146.597232,3753.867940
3612.267454,-4145.153275,-518.144159,4290.134789
3612.267784,-10807.006753,2886.803174,2911.162892
3612.268114,-10066.800811,4589.276840,2604.724693
3612.268444,-15396.283594,2664.741391,-1532.190996
3612.268774,-15248.242405,1850.514855,-1762.019645
3612.269104,-15026.180623,814.226536,-2221.676944
3612.269434,-15248.242405,-222.061783,-3294.210641
3612.269764,-14359.995275,-2590.720797,-2221.676944
3612.270094,-9178.553681,-3701.029710,0.000000
3612.270424,-5033.400406,-1628.453072,1915.238745
3612.270754,-1924.535449,370.102971,5286.058936
3612.271083,-3923.091493,518.144159,5669.106685
3612.271413,-7920.203579,3034.844362,5056.230287
3612.271743,-9400.615463,4589.276840,2451.505594
3612.272073,-12805.562797,3478.967927,-995.924147
3612.272403,-13545.768739,3108.864956,-2528.115143
3612.272733,-16062.468941,740.205942,-2451.505594
3612.273063,-14804.118840,444.123565,-2451.505594
3612.273393,-14285.974681,-2220.617826,-1225.752797
3612.273723,-10732.986159,-2812.782580,-919.314598
3612.274053,-4737.318029,-1258.350101,1838.629195
3612.274383,-1850.514855,370.102971,2987.772442
3612.274712,-4219.173869,518.144159,4290.134789
3612.275042,-6513.812290,1850.514855,3294.210641
3612.275372,-9548.656652,4737.318029,3064.381992
3612.275702,-12435.459826,3775.050304,0.000000
3612.276032,-13323.706956,3627.009116,-2834.553343
3612.276362,-14878.139434,1850.514855,-4826.401637
3612.276692,-15100.201217,1110.308913,-4290.134789
3612.277022,-16358.551318,-3330.926739,-3753.867940
3612.277352,-10510.924376,-3849.070898,-2757.943793
3612.277682,-7105.977043,-5995.668130,0.000000
3612.278012,-1998.556043,-2960.823768,2681.334243
3612.278342,-2886.803174,-2442.679609,4519.963438
3612.278671,-7105.977043,0.000000,4213.525239
3612.279001,-7624.121203,3034.844362,2987.772442
3612.279331,-11917.315666,3404.947333,919.314598
3612.279661,-13545.768739,3775.050304,-1608.800546
3612.279991,-15470.304188,1480.411884,-2528.115143
3612.280321,-15396.283594,518.144159,-3447.429741
3612.280651,-12509.480420,-3404.947333,-3140.991542
3612.280981,-11251.130318,-4515.256246,-3217.601092
3612.281311,-4589.276840,-4959.379811,-306.438199
3612.281641,-5329.482782,-4293.194464,689.485948
3612.281971,-4293.194464,-2146.597232,3294.210641
3612.282300,-5181.441594,444.123565,3677.258390
3612.282630,-7698.141797,3108.864956,4366.744339
3612.282960,-11029.068536,3404.947333,2068.457845
3612.283290,-14285.974681,4071.132681,-1302.362347
3612.283620,-13767.830521,2368.659014,-1991.848295
3612.283950,-15544.324782,1036.288319,-2911.162892
3612.284280,-14063.912898,-1998.556043,-2911.162892
3612.284610,-16284.530724,-6365.771101,-2451.505594
3612.284940,-7920.203579,-4737.318029,-1532.190996
3612.285270,-3256.906145,-4441.235652,1455.581446
3612.285600,-2368.659014,-1998.556043,4290.134789
3612.285929,-2738.761985,-1258.350101,5669.106685
3612.286259,-7624.121203,1850.514855,3677.258390
3612.286589,-8956.491898,3182.885551,3140.991542
3612.286919,-12657.521608,2960.823768,-612.876398
3612.287249,-14137.933492,2146.597232,-995.924147
3612.287579,-15396.283594,962.267725,-1455.581446
3612.287909,-15766.386565,-592.164754,-1991.848295
3612.288239,-15026.180623,-6661.853478,-2068.457845
3612.288569,-8586.388927,-5329.482782,-2068.457845
3612.288899,-3701.029710,-4293.194464,459.657299
3612.289229,-4441.235652,-3182.885551,2604.724693
3612.289559,-3478.967927,-962.267725,3447.429741
3612.289888,-6661.853478,2072.576638,3600.648841
3612.290218,-7179.997637,3552.988522,3217.601092
3612.290548,-12657.521608,3256.906145,-76.609550
3612.290878,-14434.015869,2960.823768,-2298.286494
3612.291208,-14211.954086,1776.494261,-3370.820191
3612.291538,-15248.242405,444.123565,-4519.963438
3612.291868,-14656.077652,-5107.421000,-3447.429741
3612.292198,-10881.027347,-5477.523971,-2145.067394
3612.292528,-3849.070898,-5181.441594,995.924147
3612.292858,-4589.276840,-4293.194464,1225.752797
3612.293188,-3849.070898,-2294.638420,3140.991542
3612.293517,-5921.647536,370.102971,3294.210641
3612.293847,-7698.141797,2886.803174,3907.087040
3612.294177,-10436.903782,2886.803174,995.924147
3612.294507,-13693.809927,3849.070898,-1838.629195
3612.294837,-12953.603985,2220.617826,-3217.601092
3612.295167,-15470.304188,962.267725,-4213.525239
3612.295497,-13693.809927,-3849.070898,-3217.601092
3612.295827,-11177.109724,-4515.256246,-2374.896044
3612.296157,-7698.141797,-5255.462188,612.876398
3612.296487,-5773.606348,-4145.153275,1149.143247
3612.296817,-3330.926739,-3256.906145,3600.648841
3612.297146,-4885.359217,-444.123565,3677.258390
3612.297476,-6661.853478,2738.761985,3677.258390
3612.297806,-10584.944971,3330.926739,1302.362347
3612.298136,-13323.706956,4589.276840,-612.876398
3612.298466,-14063.912898,2812.782580,-2374.896044
3612.298796,-14063.912898,1850.514855,-3907.087040
3612.299126,-13989.892304,-1110.308913,-4903.011187
3612.299456,-15100.201217,-6513.812290,-2834.553343
3612.299786,-8216.285956,-5625.565159,-1762.019645
3612.300116,-1776.494261,-4515.256246,995.924147
3612.300446,-3478.967927,-3034.844362,3217.601092
3612.300776,-4071.132681,-888.247130,4903.011187
3612.301105,-7105.977043,2886.803174,3983.696590
3612.301435,-8438.347739,3923.091493,4290.134789
3612.301765,-12953.603985,3775.050304,229.828649
3612.302095,-15840.407159,2886.803174,-1455.581446
3612.302425,-14137.933492,1702.473667,-2221.676944
3612.302755,-14582.057057,-296.082377,-3294.210641
3612.303085,-13989.892304,-6439.791695,-1762.019645
3612.303415,-8956.491898,-5551.544565,-1378.971896
3612.303745,-3256.906145,-4515.256246,536.266849
3612.304075,-4071.132681,-2294.638420,1685.410096
3612.304405,-2664.741391,-296.082377,3140.991542
3612.304734,-6883.915261,2368.659014,4136.915689
3612.305064,-9030.512492,4441.235652,4290.134789
3612.305394,-12805.562797,3256.906145,1072.533697
3612.305724,-14211.954086,3627.009116,-1072.533697
3612.306054,-14730.098246,1850.514855,-2374.896044
3612.306384,-15248.242405,222.061783,-3064.381992
3612.306714,-11029.068536,296.082377,-2604.724693
3612.307044,-11251.130318,-1110.308913,-1915.238745
3612.307374,-9252.574275,-3256.906145,1072.533697
3612.307704,-4515.256246,-2590.720797,2145.067394
3612.308034,-1924.535449,-962.267725,4443.353888
3612.308363,-3775.050304,0.000000,5592.497135
3612.308693,-7920.203579,2368.659014,4596.572988
3612.309023,-11103.089130,2368.659014,2681.334243
3612.309353,-13249.686362,4293.194464,-1302.362347
3612.309683,-14211.954086,2590.720797,-2451.505594
3612.310013,-15692.365970,-444.123565,-2298.286494
3612.310343,-14137.933492,-592.164754,-1455.581446
3612.310673,-13397.727550,-1850.514855,-766.095498
3612.311003,-9622.677246,-2516.700203,-766.095498
3612.311333,-4589.276840,-1258.350101,689.485948
3612.311663,-1776.494261,888.247130,4136.915689
3612.311993,-4737.318029,0.000000,4826.401637
3612.312322,-8364.327145,2294.638420,3140.991542
3612.312652,-10066.800811,4589.276840,1072.533697
3612.312982,-11695.253884,3330.926739,-1608.800546
3612.313312,-13249.686362,3256.906145,-2834.553343
3612.313642,-15544.324782,518.144159,-3983.696590
3612.313972,-13471.748144,2442.679609,-3983.696590
3612.314302,-13471.748144,222.061783,-3907.087040
3612.314632,-9030.512492,-1998.556043,-2451.505594
3612.314962,-6661.853478,-1702.473667,-919.314598
3612.315292,-4515.256246,-2146.597232,3600.648841
3612.315622,-4145.153275,518.144159,4749.792088
3612.315951,-6143.709319,1628.453072,5515.887586
3612.316281,-7994.224174,3034.844362,2451.505594
3612.316611,-11399.171507,4737.318029,-842.705048
3612.316941,-14285.974681,4145.153275,-2298.286494
3612.317271,-14434.015869,2738.761985,-2298.286494
3612.317601,-15914.427753,370.102971,-1225.752797
3612.317931,-13915.871710,-2072.576638,-1762.019645
3612.318261,-10807.006753,-2516.700203,-1762.019645
3612.318591,-7550.100608,-3404.947333,0.000000
3612.318921,-4515.256246,-1554.432478,1302.362347
3612.319251,-4145.153275,-666.185348,4136.915689
3612.319580,-5847.626942,1702.473667,3600.648841
3612.319910,-8586.388927,3108.864956,3217.601092
3612.320240,-11103.089130,4071.132681,995.924147
3612.320570,-14063.912898,4367.215058,-1072.533697
3612.320900,-15100.201217,2442.679609,-2298.286494
3612.321230,-15026.180623,888.247130,-2987.772442
3612.321560,-14063.912898,-962.267725,-3064.381992
3612.321890,-13471.748144,-2368.659014,-1685.410096
3612.322220,-7920.203579,-3923.091493,-383.047749
3612.322550,-5551.544565,-3775.050304,2221.676944
3612.322880,-814.226536,-1406.391290,4213.525239
3612.323210,-3552.988522,-1036.288319,4903.011187
3612.323539,-6365.771101,1184.329507,4903.011187
3612.323869,-9622.677246,3256.906145,1762.019645
3612.324199,-12583.501014,2960.823768,-1225.752797
3612.324529,-13175.665768,2886.803174,-1915.238745
3612.324859,-15988.448347,296.082377,-2298.286494
3612.325189,-14804.118840,-148.041188,-1685.410096
3612.325519,-14434.015869,-2812.782580,-1608.800546
3612.325849,-9918.759623,-2738.761985,-995.924147
3612.326179,-6883.915261,-3478.967927,383.047749
3612.326509,-2516.700203,-962.267725,3217.601092
3612.326839,-3849.070898,-592.164754,3064.381992
3612.327168,-7328.038826,1480.411884,2834.553343
3612.327498,-8956.491898,4071.132681,1838.629195
3612.327828,-13841.851115,3997.112087,536.266849
3612.328158,-14211.954086,3627.009116,-995.924147
3612.328488,-16654.633695,962.267725,-2221.676944
3612.328818,-15618.345376,-296.082377,-3064.381992
3612.329148,-17246.798449,-5107.421000,-1915.238745
3612.329478,-9918.759623,-4441.235652,-2221.676944
3612.329808,-6957.935855,-7105.977043,1608.800546
3612.330138,-2442.679609,-3404.947333,3370.820191
3612.330468,-3034.844362,-2516.700203,3677.258390
