#time,accel_x,accel_y,accel_z
3807.526496,-9622.677246,0.000000,76.609550
3807.526826,-9918.759623,74.020594,0.000000
3807.527155,-9622.677246,0.000000,153.219100
3807.527485,-9696.697840,0.000000,153.219100
3807.527815,-9474.636058,370.102971,229.828649
3807.528145,-10066.800811,148.041188,153.219100
3807.528475,-9844.739029,74.020594,-306.438199
3807.528805,-9696.697840,0.000000,0.000000
3807.529135,-9252.574275,0.000000,766.095498
3807.529465,-9844.739029,222.061783,689.485948
3807.529795,-10436.903782,222.061783,536.266849
3807.530125,-9992.780217,0.000000,0.000000
3807.530455,-9696.697840,0.000000,-842.705048
3807.530785,-9474.636058,74.020594,-689.485948
3807.531115,-9622.677246,0.000000,-459.657299
3807.531445,-10288.862594,0.000000,0.000000
3807.531775,-9844.739029,0.000000,76.609550
3807.532105,-9548.656652,-444.123565,306.438199
3807.532435,-9844.739029,-740.205942,76.609550
3807.532765,-9474.636058,-814.226536,-689.485948
3807.533095,-9474.636058,-444.123565,-842.705048
3807.533424,-9400.615463,-666.185348,-995.924147
3807.533754,-9918.759623,-444.123565,-536.266849
3807.534084,-9992.780217,-370.102971,76.609550
3807.534414,-10214.842000,-518.144159,0.000000
3807.534744,-10140.821405,-444.123565,-306.438199
3807.535074,-9696.697840,-592.164754,-919.314598
3807.535404,-9844.739029,-666.185348,-1532.190996
3807.535734,-9696.697840,-1110.308913,-1532.190996
3807.536064,-9474.636058,-1184.329507,-1378.971896
3807.536394,-9400.615463,-1110.308913,-1225.752797
3807.536724,-9178.553681,-1036.288319,-383.047749
3807.537054,-9400.615463,-1258.350101,0.000000
3807.537384,-9548.656652,-888.247130,-153.219100
3807.537714,-9770.718434,-592.164754,-459.657299
3807.538044,-10436.903782,-592.164754,-919.314598
3807.538374,-9844.739029,-592.164754,-1455.581446
3807.538704,-10066.800811,-1036.288319,-1532.190996
3807.539034,-9918.759623,-518.144159,-1608.800546
3807.539363,-10288.862594,-814.226536,-1915.238745
3807.539693,-10288.862594,-1184.329507,-2757.943793
3807.540023,-9844.739029,-1554.432478,-2528.115143
3807.540353,-9918.759623,-1406.391290,-2604.724693
3807.540683,-9474.636058,-1628.453072,-1991.848295
3807.541013,-8956.491898,-1776.494261,-2221.676944
3807.541343,-8290.306550,-1850.514855,-1608.800546
3807.541673,-8734.430116,-1332.370696,-459.657299
3807.542003,-9400.615463,-1110.308913,536.266849
3807.542333,-10732.986159,-888.247130,306.438199
3807.542663,-11325.150913,-888.247130,-76.609550
3807.542993,-11843.295072,-814.226536,-689.485948
3807.543323,-11621.233289,-1776.494261,-2528.115143
3807.543653,-11103.089130,-2516.700203,-3907.087040
3807.543983,-9696.697840,-3108.864956,-4519.963438
3807.544313,-8068.244768,-3256.906145,-4519.963438
3807.544643,-7402.059420,-3034.844362,-2528.115143
3807.544973,-8142.265362,-1850.514855,-1149.143247
3807.545303,-9178.553681,-1332.370696,-919.314598
3807.545632,-10362.883188,-1036.288319,-2221.676944
3807.545962,-10955.047942,-1554.432478,-4060.306139
3807.546292,-11103.089130,-2516.700203,-4826.401637
3807.546622,-11399.171507,-3997.112087,-3524.039291
3807.546952,-10214.842000,-5033.400406,-2145.067394
3807.547282,-8216.285956,-5477.523971,-1532.190996
3807.547612,-6513.812290,-5255.462188,-1838.629195
3807.547942,-7105.977043,-4737.318029,-2451.505594
3807.548272,-8660.409521,-3330.926739,-2221.676944
3807.548602,-9918.759623,-2368.659014,-1532.190996
3807.548932,-11251.130318,-1480.411884,-1532.190996
3807.549262,-11695.253884,-1702.473667,-2221.676944
3807.549592,-11177.109724,-2886.803174,-4366.744339
3807.549922,-9992.780217,-4515.256246,-5132.839837
3807.550252,-9252.574275,-5255.462188,-4826.401637
3807.550582,-8734.430116,-5699.585753,-3294.210641
3807.550912,-8808.450710,-5181.441594,-1378.971896
3807.551242,-7920.203579,-4737.318029,0.000000
3807.551572,-7772.162391,-3627.009116,689.485948
3807.551901,-9474.636058,-2368.659014,459.657299
3807.552231,-12287.418637,-2294.638420,-1149.143247
3807.552561,-12583.501014,-1924.535449,-2528.115143
3807.552891,-11399.171507,-2960.823768,-3064.381992
3807.553221,-9400.615463,-3849.070898,-2451.505594
3807.553551,-9474.636058,-4811.338623,-1762.019645
3807.553881,-9104.533087,-5033.400406,-1302.362347
3807.554211,-8438.347739,-4219.173869,-306.438199
3807.554541,-7772.162391,-2368.659014,-1608.800546
3807.554871,-8364.327145,-2294.638420,-1685.410096
3807.555201,-11251.130318,-2368.659014,153.219100
3807.555531,-12731.542202,-1406.391290,1685.410096
3807.555861,-11547.212695,-1332.370696,842.705048
3807.556191,-10732.986159,-2516.700203,-306.438199
3807.556521,-10362.883188,-2812.782580,-1838.629195
3807.556851,-10288.862594,-2590.720797,-2298.286494
3807.557181,-10214.842000,-2664.741391,-1685.410096
3807.557511,-10066.800811,-2294.638420,-1762.019645
3807.557840,-9770.718434,-2442.679609,-2145.067394
3807.558170,-9030.512492,-2368.659014,-1685.410096
3807.558500,-9030.512492,-1702.473667,-383.047749
3807.558830,-10066.800811,-1258.350101,-383.047749
3807.559160,-9474.636058,-1110.308913,-2221.676944
3807.559490,-8512.368333,-1628.453072,-2757.943793
3807.559820,-8808.450710,-1184.329507,-2451.505594
3807.560150,-9844.739029,-1332.370696,-995.924147
3807.560480,-10510.924376,-444.123565,153.219100
3807.560810,-10955.047942,-370.102971,-842.705048
3807.561140,-10881.027347,-222.061783,-2834.553343
3807.561470,-11103.089130,-1036.288319,-4673.182538
3807.561800,-9918.759623,-888.247130,-4673.182538
3807.562130,-9770.718434,-740.205942,-2145.067394
3807.562460,-9696.697840,-888.247130,-1302.362347
3807.562790,-8512.368333,-518.144159,-2451.505594
3807.563120,-6735.874072,-1184.329507,-4443.353888
3807.563450,-6883.915261,-1258.350101,-5286.058936
3807.563780,-8438.347739,-370.102971,-2451.505594
3807.564109,-11325.150913,-222.061783,-306.438199
3807.564439,-11621.233289,370.102971,306.438199
3807.564769,-10140.821405,-444.123565,-1225.752797
3807.565099,-10436.903782,-592.164754,-2834.553343
3807.565429,-11621.233289,-666.185348,-3524.039291
3807.565759,-11695.253884,-1554.432478,-3217.601092
3807.566089,-10288.862594,-814.226536,-3064.381992
3807.566419,-8142.265362,-1554.432478,-1685.410096
3807.566749,-7031.956449,-1332.370696,-1072.533697
3807.567079,-7846.182985,-740.205942,-1225.752797
3807.567409,-9992.780217,0.000000,-2374.896044
3807.567739,-10066.800811,-518.144159,-2987.772442
3807.568069,-9474.636058,-592.164754,-1685.410096
3807.568399,-10214.842000,-888.247130,0.000000
3807.568729,-11695.253884,-1702.473667,459.657299
3807.569059,-12139.377449,-1850.514855,0.000000
3807.569389,-10732.986159,-3182.885551,-1685.410096
3807.569719,-9178.553681,-2960.823768,-1225.752797
3807.570049,-9844.739029,-2368.659014,76.609550
3807.570378,-10214.842000,-1776.494261,689.485948
3807.570708,-9030.512492,-1850.514855,-459.657299
3807.571038,-8142.265362,-2368.659014,-2451.505594
3807.571368,-9252.574275,-1554.432478,-3830.477490
3807.571698,-11103.089130,-1554.432478,-3677.258390
3807.572028,-10436.903782,-2442.679609,-2604.724693
3807.572358,-8734.430116,-3256.906145,-1991.848295
3807.572688,-9030.512492,-3108.864956,-1378.971896
3807.573018,-10955.047942,-3330.926739,-1838.629195
3807.573348,-11695.253884,-4071.132681,-1378.971896
3807.573678,-10140.821405,-4145.153275,-1225.752797
3807.574008,-9548.656652,-3330.926739,-1608.800546
3807.574338,-10066.800811,-3552.988522,-1608.800546
3807.574668,-10140.821405,-3627.009116,-1302.362347
3807.574998,-10066.800811,-2886.803174,-1608.800546
3807.575328,-9326.594869,-3256.906145,-4596.572988
3807.575658,-8364.327145,-3478.967927,-5822.325785
3807.575988,-8956.491898,-3627.009116,-4596.572988
3807.576318,-10510.924376,-3108.864956,-2911.162892
3807.576647,-10140.821405,-3552.988522,-1302.362347
3807.576977,-9400.615463,-3997.112087,-1302.362347
3807.577307,-9030.512492,-4367.215058,-2145.067394
3807.577637,-9770.718434,-4145.153275,-1915.238745
3807.577967,-10362.883188,-3108.864956,-383.047749
3807.578297,-11399.171507,-3108.864956,-612.876398
3807.578627,-9400.615463,-3404.947333,-2681.334243
3807.578957,-7994.224174,-2960.823768,-2528.115143
3807.579287,-9178.553681,-2442.679609,-1685.410096
3807.579617,-10955.047942,-2072.576638,-1685.410096
3807.579947,-10807.006753,-2072.576638,-1762.019645
3807.580277,-9696.697840,-1924.535449,-2451.505594
3807.580607,-9326.594869,-2590.720797,-3064.381992
3807.580935,-9696.697840,-2516.700203,-1915.238745
3807.581265,-10584.944971,-2960.823768,0.000000
3807.581595,-10066.800811,-2590.720797,0.000000
3807.581924,-9474.636058,-2442.679609,-383.047749
3807.582254,-9104.533087,-2368.659014,-1455.581446
3807.582584,-9178.553681,-2220.617826,-1302.362347
3807.582914,-9992.780217,-1258.350101,-306.438199
3807.583244,-10362.883188,-1036.288319,-153.219100
3807.583573,-9918.759623,-1258.350101,-689.485948
3807.583903,-9696.697840,-962.267725,-2451.505594
3807.584233,-10436.903782,-1184.329507,-2834.553343
3807.584563,-10807.006753,-1776.494261,-3524.039291
3807.584892,-9844.739029,-1924.535449,-2834.553343
3807.585222,-8438.347739,-2442.679609,-1608.800546
3807.585552,-8142.265362,-2220.617826,-459.657299
3807.585882,-8438.347739,-1480.411884,766.095498
3807.586211,-9104.533087,-1184.329507,-842.705048
3807.586541,-8956.491898,-962.267725,-2604.724693
3807.586871,-9030.512492,148.041188,-1838.629195
3807.587201,-10807.006753,666.185348,0.000000
3807.587530,-11103.089130,0.000000,1149.143247
3807.587860,-10510.924376,-518.144159,1302.362347
3807.588190,-10807.006753,0.000000,-1149.143247
3807.588520,-10362.883188,296.082377,-2681.334243
3807.588849,-9474.636058,-592.164754,-3064.381992
3807.589179,-8734.430116,-370.102971,-3064.381992
3807.589509,-8290.306550,888.247130,-1072.533697
3807.589839,-9844.739029,1036.288319,306.438199
3807.590169,-9918.759623,1332.370696,0.000000
3807.590498,-9770.718434,1406.391290,-842.705048
3807.590828,-11547.212695,1406.391290,-1378.971896
3807.591158,-11547.212695,962.267725,-2145.067394
3807.591488,-10807.006753,296.082377,-842.705048
3807.591817,-9548.656652,222.061783,1149.143247
3807.592147,-9548.656652,0.000000,1838.629195
3807.592477,-10066.800811,0.000000,689.485948
3807.592807,-9474.636058,-444.123565,-689.485948
3807.593136,-10288.862594,0.000000,-306.438199
3807.593466,-11029.068536,370.102971,306.438199
3807.593796,-11325.150913,518.144159,536.266849
3807.594126,-9992.780217,-666.185348,153.219100
3807.594455,-8586.388927,296.082377,-459.657299
3807.594785,-8808.450710,-148.041188,-459.657299
3807.595115,-9844.739029,-888.247130,459.657299
3807.595445,-9252.574275,-518.144159,536.266849
3807.595774,-8438.347739,-814.226536,1608.800546
3807.596104,-9252.574275,-592.164754,1762.019645
3807.596434,-9474.636058,-148.041188,1608.800546
3807.596764,-10140.821405,-888.247130,919.314598
3807.597094,-9696.697840,-740.205942,-612.876398
3807.597423,-9474.636058,444.123565,-842.705048
3807.597753,-10362.883188,-222.061783,0.000000
3807.598083,-9252.574275,-518.144159,-153.219100
3807.598413,-8290.306550,-814.226536,689.485948
3807.598742,-8734.430116,-518.144159,459.657299
3807.599072,-8586.388927,222.061783,-153.219100
3807.599402,-9474.636058,-666.185348,0.000000
3807.599732,-9548.656652,-222.061783,0.000000
3807.600061,-9770.718434,0.000000,1378.971896
3807.600391,-11325.150913,-370.102971,612.876398
3807.600721,-10807.006753,74.020594,-306.438199
3807.601051,-10807.006753,-296.082377,-153.219100
3807.601380,-9474.636058,0.000000,76.609550
3807.601710,-10436.903782,518.144159,1225.752797
3807.602040,-11547.212695,-370.102971,995.924147
3807.602370,-10362.883188,0.000000,306.438199
3807.602699,-9474.636058,0.000000,153.219100
3807.603029,-9474.636058,-1184.329507,0.000000
3807.603359,-9178.553681,-444.123565,-229.828649
3807.603689,-10214.842000,-592.164754,1302.362347
3807.604019,-10584.944971,-222.061783,383.047749
3807.604348,-10140.821405,0.000000,229.828649
3807.604678,-10362.883188,-518.144159,76.609550
3807.605008,-9918.759623,0.000000,0.000000
3807.605338,-9622.677246,-444.123565,1378.971896
3807.605667,-10066.800811,-962.267725,1455.581446
3807.605997,-9400.615463,-666.185348,1991.848295
3807.606327,-9400.615463,-888.247130,1532.190996
3807.606657,-8734.430116,74.020594,-689.485948
3807.606986,-9474.636058,0.000000,-766.095498
3807.607316,-9622.677246,-222.061783,-1378.971896
3807.607646,-8734.430116,296.082377,-842.705048
3807.607976,-9622.677246,222.061783,459.657299
3807.608305,-9992.780217,148.041188,0.000000
3807.608635,-9326.594869,148.041188,76.609550
3807.608965,-10807.006753,0.000000,0.000000
3807.609295,-10732.986159,222.061783,-689.485948
3807.609624,-10584.944971,0.000000,-229.828649
3807.609954,-8882.471304,148.041188,-995.924147
3807.610284,-9178.553681,222.061783,-1608.800546
3807.610614,-9178.553681,0.000000,-612.876398
3807.610944,-8956.491898,518.144159,-536.266849
3807.611273,-9918.759623,1036.288319,536.266849
3807.611603,-10066.800811,296.082377,306.438199
3807.611933,-10066.800811,962.267725,306.438199
3807.612263,-10955.047942,0.000000,995.924147
3807.612592,-10066.800811,0.000000,1149.143247
3807.612922,-10140.821405,0.000000,2374.896044
3807.613252,-9992.780217,0.000000,1838.629195
3807.613582,-8586.388927,888.247130,1455.581446
3807.613911,-9252.574275,666.185348,1378.971896
3807.614241,-9548.656652,1480.411884,0.000000
3807.614571,-10807.006753,1776.494261,-229.828649
3807.614901,-11251.130318,1406.391290,-383.047749
3807.615230,-8660.409521,1184.329507,-995.924147
3807.615560,-9030.512492,1924.535449,0.000000
3807.615890,-9474.636058,1702.473667,0.000000
3807.616220,-10214.842000,1480.411884,-612.876398
3807.616549,-9770.718434,740.205942,-766.095498
3807.616879,-9400.615463,592.164754,-229.828649
3807.617209,-9992.780217,592.164754,1608.800546
3807.617539,-10214.842000,370.102971,2298.286494
3807.617869,-9252.574275,148.041188,1915.238745
3807.618198,-9178.553681,-666.185348,1225.752797
3807.618528,-8956.491898,74.020594,-76.609550
3807.618858,-9844.739029,74.020594,76.609550
3807.619188,-10732.986159,74.020594,0.000000
3807.619517,-9844.739029,296.082377,1302.362347
3807.619847,-10510.924376,-370.102971,1838.629195
3807.620177,-10362.883188,74.020594,-306.438199
3807.620507,-9104.533087,-518.144159,-766.095498
3807.620836,-9104.533087,-518.144159,0.000000
3807.621166,-8956.491898,-148.041188,459.657299
3807.621496,-10510.924376,148.041188,2911.162892
3807.621826,-11103.089130,666.185348,2757.943793
3807.622155,-10510.924376,1110.308913,1455.581446
3807.622485,-11695.253884,592.164754,536.266849
3807.622815,-10584.944971,222.061783,-1532.190996
3807.623145,-10584.944971,296.082377,-153.219100
3807.623474,-9252.574275,370.102971,76.609550
3807.623804,-8216.285956,0.000000,153.219100
3807.624134,-9030.512492,-666.185348,0.000000
3807.624464,-9474.636058,74.020594,-1072.533697
3807.624794,-10066.800811,518.144159,-919.314598
3807.625123,-10288.862594,74.020594,-536.266849
3807.625453,-9252.574275,-444.123565,-766.095498
3807.625783,-9622.677246,-592.164754,689.485948
3807.626113,-9178.553681,-444.123565,459.657299
3807.626442,-10214.842000,-222.061783,306.438199
3807.626772,-10436.903782,-592.164754,-612.876398
3807.627102,-9252.574275,-370.102971,-2068.457845
3807.627432,-8660.409521,-444.123565,-1532.190996
3807.627761,-9474.636058,-444.123565,0.000000
3807.628091,-9844.739029,-444.123565,306.438199
3807.628421,-9696.697840,-1332.370696,1072.533697
3807.628751,-8586.388927,-1110.308913,-383.047749
3807.629080,-8956.491898,0.000000,-153.219100
3807.629410,-10807.006753,-444.123565,459.657299
3807.629740,-10436.903782,74.020594,1072.533697
3807.630070,-10807.006753,-814.226536,1762.019645
3807.630399,-9844.739029,-1258.350101,229.828649
3807.630729,-9474.636058,-740.205942,0.000000
3807.631059,-9770.718434,-1036.288319,-306.438199
3807.631389,-8734.430116,-1628.453072,-995.924147
3807.631719,-8734.430116,-444.123565,383.047749
3807.632048,-9104.533087,-518.144159,536.266849
3807.632378,-9030.512492,518.144159,689.485948
3807.632708,-9992.780217,370.102971,766.095498
3807.633038,-9696.697840,370.102971,-306.438199
3807.633367,-10288.862594,370.102971,612.876398
3807.633697,-11399.171507,666.185348,995.924147
3807.634027,-10955.047942,740.205942,-76.609550
3807.634357,-11177.109724,-74.020594,0.000000
3807.634686,-9178.553681,-370.102971,-612.876398
3807.635016,-8290.306550,-518.144159,0.000000
3807.635346,-9474.636058,-74.020594,919.314598
3807.635676,-8956.491898,0.000000,459.657299
3807.636005,-9992.780217,0.000000,842.705048
3807.636335,-9696.697840,148.041188,-153.219100
3807.636665,-9770.718434,222.061783,306.438199
3807.636995,-11473.192101,-740.205942,919.314598
3807.637324,-9844.739029,-592.164754,612.876398
3807.637654,-9104.533087,-518.144159,1685.410096
3807.637984,-8660.409521,-1036.288319,459.657299
3807.638314,-8882.471304,-740.205942,0.000000
3807.638643,-10066.800811,0.000000,1685.410096
3807.638973,-9992.780217,74.020594,1302.362347
3807.639303,-10066.800811,740.205942,612.876398
3807.639633,-9252.574275,296.082377,153.219100
3807.639963,-9104.533087,888.247130,-76.609550
3807.640292,-10066.800811,444.123565,1225.752797
3807.640622,-10510.924376,592.164754,306.438199
3807.640952,-10436.903782,1258.350101,229.828649
3807.641282,-10881.027347,814.226536,0.000000
3807.641611,-9844.739029,666.185348,-766.095498
3807.641941,-10288.862594,222.061783,-153.219100
3807.642271,-10658.965565,296.082377,-842.705048
3807.642601,-9030.512492,1036.288319,-1149.143247
3807.642930,-8734.430116,0.000000,153.219100
3807.643260,-7402.059420,0.000000,919.314598
3807.643590,-8808.450710,592.164754,1762.019645
3807.643920,-10362.883188,1332.370696,1378.971896
3807.644249,-11177.109724,888.247130,-459.657299
3807.644579,-11473.192101,740.205942,-689.485948
3807.644909,-10288.862594,0.000000,-383.047749
3807.645239,-10510.924376,0.000000,689.485948
3807.645568,-9844.739029,-296.082377,1149.143247
3807.645898,-8586.388927,-592.164754,919.314598
3807.646228,-8290.306550,-296.082377,842.705048
3807.646558,-8734.430116,74.020594,-306.438199
3807.646888,-9252.574275,296.082377,-459.657299
3807.647217,-9992.780217,814.226536,612.876398
3807.647547,-9474.636058,444.123565,612.876398
3807.647877,-10066.800811,1036.288319,1072.533697
3807.648207,-11103.089130,1110.308913,0.000000
3807.648536,-10510.924376,444.123565,-1378.971896
3807.648866,-10362.883188,296.082377,-1149.143247
3807.649196,-9770.718434,370.102971,-153.219100
3807.649526,-10436.903782,518.144159,919.314598
3807.649855,-10140.821405,370.102971,1072.533697
3807.650185,-8808.450710,148.041188,0.000000
3807.650515,-8882.471304,-74.020594,-459.657299
3807.650845,-9104.533087,444.123565,-842.705048
3807.651174,-9770.718434,1036.288319,1149.143247
3807.651504,-10436.903782,518.144159,1838.629195
3807.651834,-9252.574275,148.041188,306.438199
3807.652164,-10658.965565,666.185348,0.000000
3807.652493,-11251.130318,0.000000,-766.095498
3807.652823,-10955.047942,0.000000,-612.876398
3807.653153,-10436.903782,0.000000,536.266849
3807.653483,-8734.430116,-1110.308913,-306.438199
3807.653813,-9178.553681,74.020594,536.266849
3807.654142,-9918.759623,-444.123565,995.924147
3807.654472,-9770.718434,-962.267725,0.000000
3807.654802,-8956.491898,-518.144159,153.219100
3807.655132,-8364.327145,-740.205942,-612.876398
3807.655461,-9474.636058,0.000000,306.438199
3807.655791,-10510.924376,-814.226536,2145.067394
3807.656121,-10436.903782,-296.082377,1838.629195
3807.656451,-10807.006753,-370.102971,689.485948
3807.656780,-10066.800811,-592.164754,-919.314598
3807.657110,-9992.780217,-740.205942,-536.266849
3807.657440,-9622.677246,-518.144159,459.657299
3807.657770,-9030.512492,-1110.308913,842.705048
3807.658099,-9252.574275,-296.082377,1532.190996
3807.658429,-8882.471304,-74.020594,612.876398
3807.658759,-8068.244768,222.061783,0.000000
3807.659089,-9104.533087,888.247130,383.047749
3807.659418,-10807.006753,666.185348,0.000000
3807.659748,-11769.274478,814.226536,0.000000
3807.660078,-11103.089130,222.061783,-536.266849
3807.660408,-9992.780217,0.000000,-689.485948
3807.660738,-10658.965565,-592.164754,0.000000
3807.661067,-10658.965565,74.020594,-229.828649
3807.661397,-10214.842000,-296.082377,0.000000
3807.661727,-9474.636058,-296.082377,-229.828649
3807.662057,-8438.347739,-296.082377,-459.657299
3807.662386,-9696.697840,0.000000,919.314598
3807.662716,-9622.677246,-444.123565,1225.752797
3807.663046,-9474.636058,444.123565,1378.971896
3807.663376,-10140.821405,296.082377,1072.533697
3807.663705,-9696.697840,222.061783,-383.047749
3807.664035,-10881.027347,370.102971,229.828649
3807.664365,-10732.986159,-518.144159,229.828649
3807.664695,-10140.821405,74.020594,612.876398
3807.665024,-9918.759623,-814.226536,1072.533697
3807.665354,-7846.182985,-148.041188,-76.609550
3807.665684,-7550.100608,148.041188,-766.095498
3807.666014,-8734.430116,74.020594,-766.095498
3807.666343,-8586.388927,518.144159,-383.047749
3807.666673,-9474.636058,1110.308913,1149.143247
3807.667003,-9844.739029,1332.370696,612.876398
3807.667333,-10214.842000,1184.329507,306.438199
3807.667663,-10658.965565,0.000000,-536.266849
3807.667992,-9696.697840,0.000000,-689.485948
3807.668322,-10658.965565,444.123565,842.705048
3807.668652,-11029.068536,0.000000,0.000000
3807.668982,-9326.594869,0.000000,-229.828649
3807.669311,-8808.450710,74.020594,612.876398
3807.669641,-8586.388927,148.041188,766.095498
3807.669971,-10288.862594,962.267725,766.095498
3807.670301,-10658.965565,666.185348,-153.219100
3807.670630,-9474.636058,740.205942,-1072.533697
3807.670960,-9844.739029,740.205942,-1762.019645
3807.671290,-10362.883188,-370.102971,-612.876398
3807.671620,-11251.130318,148.041188,1225.752797
3807.671949,-10436.903782,-148.041188,1838.629195
3807.672279,-9474.636058,-148.041188,229.828649
3807.672609,-9178.553681,-592.164754,459.657299
3807.672939,-9548.656652,-888.247130,1149.143247
3807.673268,-9178.553681,0.000000,1532.190996
3807.673598,-10066.800811,74.020594,1838.629195
3807.673928,-9770.718434,740.205942,76.609550
3807.674258,-9696.697840,296.082377,0.000000
3807.674588,-9548.656652,444.123565,-995.924147
3807.674917,-9474.636058,222.061783,-919.314598
3807.675247,-10510.924376,148.041188,766.095498
3807.675577,-10584.944971,444.123565,153.219100
3807.675907,-9622.677246,592.164754,-612.876398
3807.676236,-8734.430116,74.020594,-1072.533697
3807.676566,-8364.327145,-444.123565,-612.876398
3807.676896,-10288.862594,0.000000,1302.362347
3807.677226,-10658.965565,0.000000,2374.896044
3807.677555,-9770.718434,148.041188,2374.896044
3807.677885,-9104.533087,-666.185348,2068.457845
3807.678215,-9474.636058,444.123565,306.438199
3807.678545,-10288.862594,0.000000,-229.828649
3807.678874,-10955.047942,-222.061783,0.000000
3807.679204,-10362.883188,444.123565,306.438199
3807.679534,-10214.842000,-518.144159,766.095498
3807.679864,-9844.739029,-740.205942,0.000000
3807.680194,-9548.656652,-444.123565,-306.438199
3807.680523,-9992.780217,0.000000,0.000000
3807.680853,-8142.265362,-370.102971,-842.705048
3807.681183,-7846.182985,814.226536,2298.286494
3807.681513,-10214.842000,-814.226536,1991.848295
3807.681843,-9844.739029,296.082377,1455.581446
3807.682173,-10066.800811,888.247130,2528.115143
3807.682502,-11325.150913,1036.288319,306.438199
3807.682832,-11695.253884,296.082377,-536.266849
3807.683162,-10584.944971,0.000000,-612.876398
3807.683492,-9844.739029,740.205942,76.609550
3807.683822,-10214.842000,740.205942,0.000000
3807.684152,-9474.636058,222.061783,-1378.971896
3807.684482,-8660.409521,296.082377,-1378.971896
3807.684811,-8956.491898,-148.041188,-2221.676944
3807.685141,-8956.491898,370.102971,-1378.971896
3807.685471,-9400.615463,-296.082377,306.438199
3807.685801,-9770.718434,74.020594,459.657299
3807.686131,-9474.636058,0.000000,689.485948
3807.686461,-9400.615463,-444.123565,153.219100
3807.686790,-9844.739029,0.000000,-612.876398
3807.687120,-11399.171507,-148.041188,459.657299
3807.687450,-10732.986159,-962.267725,766.095498
3807.687780,-9844.739029,-666.185348,1378.971896
3807.688110,-9326.594869,-666.185348,1378.971896
3807.688440,-9030.512492,-592.164754,-229.828649
3807.688769,-9104.533087,74.020594,-612.876398
3807.689099,-8956.491898,0.000000,-229.828649
3807.689429,-9548.656652,370.102971,536.266849
3807.689759,-10658.965565,888.247130,612.876398
3807.690089,-10066.800811,666.185348,0.000000
3807.690419,-10584.944971,0.000000,-229.828649
3807.690748,-10955.047942,296.082377,0.000000
3807.691078,-10510.924376,-296.082377,229.828649
3807.691408,-11399.171507,0.000000,995.924147
3807.691738,-9104.533087,-666.185348,536.266849
3807.692068,-9030.512492,0.000000,1302.362347
3807.692398,-9844.739029,-74.020594,842.705048
3807.692727,-9622.677246,74.020594,383.047749
3807.693057,-9844.739029,370.102971,153.219100
3807.693387,-8882.471304,222.061783,-689.485948
3807.693717,-9400.615463,296.082377,-459.657299
3807.694047,-10362.883188,-296.082377,306.438199
3807.694377,-10584.944971,-222.061783,459.657299
3807.694706,-10214.842000,-296.082377,766.095498
3807.695036,-9844.739029,-74.020594,689.485948
3807.695366,-8956.491898,-592.164754,0.000000
3807.695696,-9696.697840,-592.164754,1072.533697
3807.696026,-9548.656652,-148.041188,1149.143247
3807.696356,-9548.656652,222.061783,1838.629195
3807.696685,-9992.780217,222.061783,1072.533697
3807.697015,-9326.594869,148.041188,459.657299
3807.697345,-9918.759623,518.144159,153.219100
3807.697675,-9918.759623,444.123565,0.000000
3807.698005,-10436.903782,1406.391290,-229.828649
3807.698335,-10955.047942,740.205942,-995.924147
3807.698665,-9918.759623,74.020594,-1072.533697
3807.698994,-9622.677246,444.123565,-459.657299
3807.699324,-10066.800811,0.000000,153.219100
3807.699654,-9400.615463,74.020594,383.047749
3807.699984,-9770.718434,74.020594,1149.143247
3807.700314,-9178.553681,148.041188,995.924147
3807.700644,-8808.450710,1036.288319,1838.629195
3807.700973,-10214.842000,296.082377,1149.143247
3807.701303,-10658.965565,1036.288319,459.657299
3807.701633,-10584.944971,1036.288319,229.828649
3807.701963,-10066.800811,74.020594,-1149.143247
3807.702293,-9104.533087,-148.041188,-1149.143247
3807.702623,-9252.574275,-666.185348,0.000000
3807.702952,-9178.553681,-222.061783,153.219100
3807.703282,-9178.553681,-592.164754,-153.219100
3807.703612,-9104.533087,0.000000,-689.485948
3807.703942,-7920.203579,222.061783,-383.047749
3807.704272,-9474.636058,74.020594,612.876398
3807.704602,-10955.047942,148.041188,1149.143247
3807.704931,-11769.274478,444.123565,1838.629195
3807.705261,-11695.253884,-592.164754,383.047749
3807.705591,-9400.615463,-518.144159,-306.438199
3807.705921,-9326.594869,-1554.432478,842.705048
3807.706251,-8956.491898,-962.267725,1302.362347
3807.706581,-9474.636058,74.020594,995.924147
3807.706910,-9844.739029,-296.082377,153.219100
3807.707240,-8660.409521,0.000000,-842.705048
3807.707570,-9548.656652,296.082377,-306.438199
3807.707900,-11177.109724,0.000000,-383.047749
3807.708230,-10807.006753,222.061783,-306.438199
3807.708560,-10288.862594,-592.164754,153.219100
3807.708889,-8216.285956,-962.267725,-76.609550
3807.709219,-8882.471304,-666.185348,383.047749
3807.709549,-9770.718434,-370.102971,766.095498
3807.709879,-9696.697840,148.041188,459.657299
3807.710209,-10658.965565,518.144159,153.219100
3807.710539,-9770.718434,148.041188,-766.095498
3807.710868,-10510.924376,370.102971,306.438199
3807.711198,-11177.109724,-148.041188,919.314598
3807.711528,-9326.594869,148.041188,0.000000
3807.711858,-9474.636058,-222.061783,-229.828649
3807.712188,-8512.368333,-296.082377,-919.314598
3807.712518,-9474.636058,0.000000,-612.876398
3807.712847,-10214.842000,0.000000,76.609550
3807.713177,-9918.759623,0.000000,0.000000
3807.713507,-10362.883188,296.082377,1302.362347
3807.713837,-10436.903782,-444.123565,306.438199
3807.714167,-9770.718434,0.000000,0.000000
3807.714497,-10066.800811,-444.123565,689.485948
3807.714827,-9844.739029,-148.041188,459.657299
3807.715156,-10066.800811,296.082377,1762.019645
3807.715486,-9992.780217,0.000000,1455.581446
3807.715816,-8956.491898,666.185348,0.000000
3807.716146,-9474.636058,444.123565,-766.095498
3807.716476,-9622.677246,370.102971,-2068.457845
3807.716806,-10214.842000,74.020594,-1149.143247
3807.717135,-10140.821405,0.000000,0.000000
3807.717465,-8660.409521,0.000000,306.438199
3807.717795,-8142.265362,-74.020594,383.047749
3807.718125,-8068.244768,-74.020594,-612.876398
3807.718455,-8734.430116,148.041188,-612.876398
3807.718785,-10658.965565,222.061783,1072.533697
3807.719114,-10066.800811,74.020594,689.485948
3807.719444,-9918.759623,222.061783,229.828649
3807.719774,-9326.594869,0.000000,0.000000
3807.720104,-8808.450710,370.102971,-229.828649
3807.720434,-9770.718434,0.000000,-306.438199
3807.720764,-9548.656652,74.020594,-459.657299
3807.721093,-10214.842000,518.144159,-306.438199
3807.721423,-10288.862594,-222.061783,153.219100
3807.721753,-9326.594869,0.000000,612.876398
3807.722083,-10214.842000,222.061783,1225.752797
3807.722413,-9770.718434,74.020594,459.657299
3807.722743,-9474.636058,74.020594,0.000000
3807.723072,-9474.636058,-740.205942,1302.362347
3807.723402,-9622.677246,-74.020594,1915.238745
3807.723732,-10584.944971,814.226536,2681.334243
3807.724062,-10658.965565,444.123565,1072.533697
3807.724392,-10140.821405,444.123565,-306.438199
3807.724722,-10881.027347,-740.205942,153.219100
3807.725051,-9696.697840,-888.247130,919.314598
3807.725381,-9918.759623,-296.082377,2145.067394
3807.725711,-9696.697840,0.000000,2451.505594
3807.726041,-8142.265362,-370.102971,919.314598
3807.726371,-8734.430116,444.123565,-1149.143247
3807.726701,-9474.636058,-370.102971,-2221.676944
3807.727030,-10510.924376,666.185348,-689.485948
3807.727360,-10881.027347,-518.144159,306.438199
3807.727690,-9918.759623,-1332.370696,1149.143247
3807.728020,-8882.471304,-1406.391290,1225.752797
3807.728350,-7402.059420,-1110.308913,306.438199
3807.728680,-8660.409521,-296.082377,229.828649
3807.729010,-10584.944971,-370.102971,383.047749
3807.729339,-9622.677246,-222.061783,-536.266849
3807.729669,-9474.636058,0.000000,-459.657299
3807.729999,-10140.821405,370.102971,-383.047749
3807.730329,-9474.636058,296.082377,-536.266849
3807.730659,-11325.150913,0.000000,-459.657299
3807.730989,-10732.986159,-148.041188,-1532.190996
3807.731318,-9252.574275,-148.041188,-919.314598
3807.731648,-9770.718434,0.000000,0.000000
3807.731978,-8956.491898,740.205942,0.000000
3807.732308,-10362.883188,74.020594,1532.190996
3807.732638,-10881.027347,592.164754,842.705048
3807.732968,-10807.006753,740.205942,536.266849
3807.733297,-11769.274478,296.082377,76.609550
3807.733627,-9178.553681,148.041188,-383.047749
3807.733957,-8512.368333,-222.061783,1225.752797
3807.734287,-9104.533087,740.205942,1608.800546
3807.734617,-9030.512492,962.267725,612.876398
3807.734947,-10807.006753,592.164754,0.000000
3807.735276,-10214.842000,962.267725,-1838.629195
3807.735606,-10140.821405,962.267725,-995.924147
3807.735936,-10288.862594,370.102971,612.876398
3807.736266,-9326.594869,148.041188,2068.457845
3807.736596,-8956.491898,0.000000,2221.676944
3807.736926,-7994.224174,444.123565,229.828649
3807.737255,-8808.450710,740.205942,-459.657299
3807.737585,-10362.883188,1258.350101,459.657299
3807.737915,-10066.800811,1702.473667,306.438199
3807.738245,-10955.047942,1258.350101,2145.067394
3807.738575,-10807.006753,518.144159,1149.143247
3807.738905,-9918.759623,1184.329507,536.266849
3807.739234,-10362.883188,222.061783,0.000000
3807.739564,-9474.636058,444.123565,-995.924147
3807.739894,-8438.347739,222.061783,-766.095498
3807.740224,-8808.450710,74.020594,306.438199
3807.740554,-8142.265362,962.267725,1225.752797
3807.740884,-9918.759623,666.185348,2451.505594
3807.741213,-10510.924376,444.123565,1838.629195
3807.741543,-10288.862594,962.267725,689.485948
3807.741873,-10807.006753,666.185348,689.485948
3807.742203,-10362.883188,888.247130,612.876398
3807.742533,-11399.171507,148.041188,1608.800546
3807.742863,-10066.800811,74.020594,689.485948
3807.743192,-9252.574275,370.102971,0.000000
3807.743522,-9326.594869,0.000000,-1072.533697
3807.743852,-8364.327145,0.000000,-2145.067394
3807.744182,-8438.347739,0.000000,-1072.533697
3807.744512,-9474.636058,370.102971,0.000000
3807.744842,-9844.739029,740.205942,153.219100
3807.745172,-11325.150913,296.082377,612.876398
3807.745501,-10584.944971,0.000000,-612.876398
3807.745831,-10658.965565,-370.102971,-229.828649
3807.746161,-10732.986159,-740.205942,-306.438199
3807.746491,-9474.636058,-666.185348,0.000000
3807.746821,-9474.636058,-444.123565,1378.971896
3807.747151,-9622.677246,-444.123565,612.876398
3807.747480,-10066.800811,148.041188,0.000000
3807.747810,-11177.109724,-370.102971,-459.657299
3807.748140,-9474.636058,-666.185348,-1532.190996
3807.748470,-9548.656652,-592.164754,-536.266849
3807.748800,-9474.636058,-962.267725,0.000000
3807.749130,-8660.409521,-888.247130,459.657299
3807.749459,-9326.594869,-1332.370696,1378.971896
3807.749789,-9474.636058,-370.102971,1072.533697
3807.750119,-11547.212695,-592.164754,1455.581446
3807.750449,-11177.109724,-888.247130,1072.533697
3807.750779,-8956.491898,-1036.288319,459.657299
3807.751109,-8882.471304,-1258.350101,1378.971896
3807.751438,-9548.656652,-518.144159,1072.533697
3807.751768,-10436.903782,-296.082377,459.657299
3807.752098,-9622.677246,-370.102971,-1455.581446
3807.752428,-7920.203579,-814.226536,-2221.676944
3807.752758,-9696.697840,0.000000,-689.485948
3807.753088,-10288.862594,-148.041188,612.876398
3807.753417,-9770.718434,-222.061783,76.609550
3807.753747,-9696.697840,-296.082377,-842.705048
3807.754077,-8882.471304,-814.226536,-1838.629195
3807.754407,-10066.800811,-814.226536,-536.266849
3807.754737,-10362.883188,-666.185348,689.485948
3807.755067,-9992.780217,-74.020594,1532.190996
3807.755396,-9992.780217,-592.164754,1149.143247
3807.755726,-9252.574275,-444.123565,-1225.752797
3807.756056,-9770.718434,-740.205942,-1225.752797
3807.756386,-10362.883188,-518.144159,-536.266849
3807.756716,-9326.594869,-148.041188,842.705048
3807.757046,-9400.615463,-74.020594,1762.019645
3807.757375,-9400.615463,-370.102971,995.924147
3807.757705,-9326.594869,-518.144159,612.876398
3807.758035,-9696.697840,-444.123565,689.485948
3807.758365,-9178.553681,-222.061783,0.000000
3807.758695,-10140.821405,74.020594,459.657299
3807.759025,-10066.800811,370.102971,612.876398
3807.759355,-9622.677246,814.226536,1991.848295
3807.759684,-10584.944971,666.185348,1532.190996
3807.760014,-10362.883188,740.205942,0.000000
3807.760344,-10955.047942,666.185348,306.438199
3807.760674,-10362.883188,740.205942,0.000000
3807.761004,-8068.244768,814.226536,0.000000
3807.761334,-8290.306550,888.247130,536.266849
3807.761663,-9030.512492,1332.370696,383.047749
3807.761993,-11029.068536,2294.638420,536.266849
3807.762323,-11991.336260,1776.494261,-459.657299
3807.762653,-10584.944971,296.082377,-919.314598
3807.762983,-9918.759623,1332.370696,1838.629195
3807.763313,-10362.883188,1036.288319,1762.019645
3807.763642,-10955.047942,962.267725,1149.143247
3807.763972,-10288.862594,518.144159,383.047749
3807.764302,-8290.306550,666.185348,-536.266849
3807.764632,-9474.636058,1258.350101,0.000000
3807.764962,-10436.903782,888.247130,1149.143247
3807.765292,-10066.800811,1406.391290,2298.286494
3807.765621,-9474.636058,1110.308913,1532.190996
3807.765951,-9326.594869,1110.308913,0.000000
3807.766281,-10288.862594,740.205942,-536.266849
3807.766611,-9844.739029,444.123565,-459.657299
3807.766941,-9326.594869,592.164754,0.000000
3807.767271,-10510.924376,0.000000,1608.800546
3807.767600,-11029.068536,518.144159,536.266849
3807.767930,-8956.491898,0.000000,-612.876398
3807.768260,-8438.347739,-74.020594,-842.705048
3807.768590,-8882.471304,370.102971,229.828649
3807.768920,-10362.883188,740.205942,1991.848295
3807.769250,-9400.615463,518.144159,383.047749
3807.769579,-8290.306550,518.144159,-995.924147
3807.769909,-9474.636058,222.061783,-1225.752797
3807.770239,-10584.944971,0.000000,-1762.019645
3807.770569,-10881.027347,148.041188,-842.705048
3807.770899,-10362.883188,0.000000,383.047749
3807.771229,-8734.430116,-296.082377,0.000000
3807.771558,-8956.491898,-814.226536,-306.438199
3807.771888,-8438.347739,-592.164754,-1762.019645
3807.772218,-9178.553681,74.020594,-842.705048
3807.772548,-11029.068536,-148.041188,76.609550
3807.772878,-11177.109724,74.020594,383.047749
3807.773208,-10140.821405,-1184.329507,995.924147
3807.773537,-8660.409521,-1110.308913,0.000000
3807.773867,-9178.553681,-1036.288319,76.609550
3807.774197,-10214.842000,-666.185348,1378.971896
3807.774527,-9770.718434,-1258.350101,1072.533697
3807.774857,-9326.594869,-666.185348,1072.533697
3807.775187,-10066.800811,-1184.329507,689.485948
3807.775517,-10510.924376,-666.185348,536.266849
3807.775846,-10066.800811,-1332.370696,919.314598
3807.776176,-9844.739029,-1036.288319,-229.828649
3807.776506,-9474.636058,-1036.288319,306.438199
3807.776836,-10436.903782,-1554.432478,689.485948
3807.777166,-9178.553681,-740.205942,766.095498
3807.777496,-9178.553681,-740.205942,612.876398
3807.777825,-9474.636058,-962.267725,0.000000
3807.778155,-10066.800811,-740.205942,1149.143247
3807.778485,-11177.109724,-592.164754,1149.143247
3807.778815,-9252.574275,-1110.308913,612.876398
3807.779145,-10066.800811,-740.205942,689.485948
3807.779475,-11325.150913,-444.123565,842.705048
3807.779804,-10658.965565,-296.082377,-383.047749
3807.780134,-9400.615463,-1110.308913,-1455.581446
3807.780464,-8734.430116,-1184.329507,-1991.848295
3807.780794,-9104.533087,-888.247130,-1302.362347
3807.781124,-8808.450710,-740.205942,-536.266849
3807.781454,-8364.327145,148.041188,-459.657299
3807.781783,-10214.842000,-370.102971,-459.657299
3807.782113,-10510.924376,-370.102971,-306.438199
3807.782443,-9696.697840,-444.123565,0.000000
3807.782773,-9252.574275,-1332.370696,689.485948
3807.783103,-8660.409521,-814.226536,229.828649
3807.783433,-9474.636058,-518.144159,919.314598
3807.783763,-9400.615463,0.000000,229.828649
3807.784092,-9400.615463,518.144159,-689.485948
3807.784422,-9918.759623,1036.288319,-229.828649
3807.784752,-10140.821405,1184.329507,-229.828649
3807.785082,-10658.965565,1480.411884,-612.876398
3807.785412,-10732.986159,1184.329507,-1225.752797
3807.785742,-8808.450710,962.267725,-1149.143247
3807.786072,-9474.636058,814.226536,-689.485948
3807.786401,-9696.697840,1036.288319,-383.047749
3807.786731,-9548.656652,1184.329507,0.000000
3807.787061,-8882.471304,814.226536,0.000000
3807.787391,-8734.430116,1036.288319,1225.752797
3807.787721,-10066.800811,1184.329507,2911.162892
3807.788051,-10807.006753,592.164754,2374.896044
3807.788381,-10732.986159,1628.453072,1072.533697
3807.788710,-11103.089130,1480.411884,842.705048
3807.789040,-9918.759623,962.267725,-229.828649
3807.789370,-10066.800811,814.226536,306.438199
3807.789700,-10584.944971,814.226536,1149.143247
3807.790030,-9474.636058,1850.514855,1225.752797
3807.790360,-9474.636058,814.226536,1072.533697
3807.790690,-8438.347739,814.226536,-612.876398
3807.791019,-8364.327145,1258.350101,-536.266849
3807.791349,-9474.636058,1702.473667,612.876398
3807.791679,-10658.965565,1702.473667,995.924147
3807.792009,-11621.233289,1406.391290,1991.848295
3807.792339,-10584.944971,518.144159,1608.800546
3807.792669,-9548.656652,222.061783,995.924147
3807.792999,-10881.027347,148.041188,1149.143247
3807.793328,-9844.739029,296.082377,459.657299
3807.793658,-9104.533087,0.000000,766.095498
3807.793988,-8808.450710,518.144159,383.047749
3807.794318,-8956.491898,1110.308913,536.266849
3807.794648,-10288.862594,592.164754,1149.143247
3807.794978,-9474.636058,814.226536,-689.485948
3807.795308,-9474.636058,740.205942,-995.924147
3807.795638,-10362.883188,666.185348,-459.657299
3807.795967,-9918.759623,222.061783,0.000000
3807.796297,-10362.883188,-740.205942,459.657299
3807.796627,-10066.800811,0.000000,-383.047749
3807.796957,-10881.027347,74.020594,689.485948
3807.797287,-10658.965565,-740.205942,76.609550
3807.797617,-9474.636058,-518.144159,-229.828649
3807.797947,-9770.718434,-814.226536,229.828649
3807.798276,-10066.800811,-518.144159,0.000000
3807.798606,-9844.739029,-518.144159,-306.438199
3807.798936,-9844.739029,-370.102971,-76.609550
3807.799266,-9474.636058,0.000000,-1225.752797
3807.799596,-10436.903782,-814.226536,-1302.362347
3807.799926,-9918.759623,-1554.432478,-1225.752797
3807.800256,-9178.553681,-1554.432478,0.000000
3807.800585,-9844.739029,-1628.453072,1991.848295
3807.800915,-9918.759623,-1998.556043,1838.629195
3807.801245,-9696.697840,-1776.494261,1072.533697
3807.801575,-8956.491898,-1850.514855,306.438199
3807.801905,-7920.203579,-814.226536,0.000000
3807.802235,-10510.924376,-666.185348,1072.533697
3807.802565,-9844.739029,-1184.329507,919.314598
3807.802894,-9474.636058,-148.041188,383.047749
3807.803224,-8882.471304,-148.041188,-536.266849
3807.803554,-9400.615463,-1110.308913,-1302.362347
3807.803884,-10732.986159,-666.185348,76.609550
3807.804214,-10510.924376,-592.164754,0.000000
3807.804544,-10362.883188,-814.226536,-536.266849
3807.804874,-9474.636058,-1110.308913,76.609550
3807.805203,-8586.388927,-1480.411884,1072.533697
3807.805533,-9178.553681,-444.123565,1532.190996
3807.805863,-10288.862594,-666.185348,995.924147
3807.806193,-10881.027347,0.000000,0.000000
3807.806523,-10140.821405,-222.061783,153.219100
3807.806853,-9474.636058,-296.082377,0.000000
3807.807183,-9696.697840,-222.061783,995.924147
3807.807512,-10510.924376,-592.164754,1149.143247
3807.807842,-10288.862594,74.020594,-459.657299
3807.808172,-10436.903782,-666.185348,-919.314598
3807.808502,-9770.718434,-592.164754,-1378.971896
3807.808832,-8586.388927,74.020594,-612.876398
3807.809162,-8438.347739,0.000000,842.705048
3807.809492,-8586.388927,1406.391290,842.705048
3807.809821,-9622.677246,518.144159,153.219100
3807.810151,-9992.780217,592.164754,-1532.190996
3807.810481,-10584.944971,962.267725,-2221.676944
3807.810811,-11103.089130,518.144159,-459.657299
3807.811141,-9622.677246,370.102971,-459.657299
3807.811471,-8290.306550,518.144159,536.266849
3807.811801,-9252.574275,222.061783,1149.143247
3807.812130,-9918.759623,888.247130,153.219100
3807.812460,-10658.965565,666.185348,-383.047749
3807.812790,-9770.718434,888.247130,-1378.971896
3807.813120,-9400.615463,962.267725,-612.876398
3807.813450,-9770.718434,740.205942,229.828649
3807.813780,-9030.512492,296.082377,0.000000
3807.814110,-8882.471304,1332.370696,-76.609550
3807.814439,-9104.533087,740.205942,-919.314598
3807.814769,-9770.718434,814.226536,-842.705048
3807.815099,-11399.171507,962.267725,229.828649
3807.815429,-10140.821405,666.185348,536.266849
3807.815759,-10214.842000,296.082377,1302.362347
3807.816089,-10436.903782,-518.144159,1532.190996
3807.816419,-9178.553681,0.000000,1378.971896
3807.816749,-9252.574275,-444.123565,1685.410096
3807.817078,-8512.368333,296.082377,1302.362347
3807.817408,-9104.533087,666.185348,1532.190996
3807.817738,-10140.821405,592.164754,1072.533697
3807.818068,-9844.739029,962.267725,383.047749
3807.818398,-11325.150913,740.205942,1225.752797
3807.818728,-10955.047942,370.102971,459.657299
3807.819058,-9030.512492,74.020594,612.876398
3807.819387,-9548.656652,-296.082377,842.705048
3807.819717,-10140.821405,370.102971,306.438199
3807.820047,-10288.862594,74.020594,153.219100
3807.820377,-9844.739029,444.123565,-459.657299
3807.820707,-8068.244768,148.041188,-919.314598
3807.821037,-9252.574275,148.041188,995.924147
3807.821367,-9474.636058,1036.288319,842.705048
3807.821696,-10288.862594,444.123565,1072.533697
3807.822026,-10362.883188,74.020594,0.000000
3807.822356,-9178.553681,-222.061783,-536.266849
3807.822686,-10436.903782,74.020594,383.047749
3807.823016,-10732.986159,-370.102971,612.876398
3807.823346,-10510.924376,444.123565,0.000000
3807.823676,-9474.636058,-740.205942,-459.657299
3807.824005,-7846.182985,-666.185348,-1302.362347
3807.824335,-9030.512492,-370.102971,919.314598
3807.824665,-10732.986159,222.061783,995.924147
3807.824995,-9844.739029,370.102971,383.047749
3807.825325,-8956.491898,-962.267725,459.657299
3807.825655,-8512.368333,0.000000,536.266849
3807.825985,-10436.903782,74.020594,1838.629195
3807.826314,-11991.336260,0.000000,2145.067394
3807.826644,-11251.130318,148.041188,1991.848295
3807.826974,-10214.842000,-296.082377,1532.190996
3807.827304,-8882.471304,-814.226536,306.438199
3807.827634,-9400.615463,74.020594,459.657299
3807.827964,-9622.677246,148.041188,76.609550
3807.828294,-9474.636058,740.205942,-919.314598
3807.828623,-9400.615463,222.061783,-459.657299
3807.828953,-9474.636058,222.061783,0.000000
3807.829283,-9622.677246,444.123565,383.047749
3807.829613,-11029.068536,222.061783,1149.143247
3807.829943,-10214.842000,-148.041188,-612.876398
3807.830273,-9400.615463,-370.102971,0.000000
3807.830603,-9474.636058,-666.185348,459.657299
3807.830932,-10066.800811,74.020594,1455.581446
3807.831262,-11251.130318,74.020594,1532.190996
3807.831592,-9844.739029,0.000000,76.609550
3807.831922,-8586.388927,74.020594,-459.657299
3807.832252,-9326.594869,296.082377,153.219100
3807.832582,-9992.780217,222.061783,0.000000
3807.832912,-11547.212695,0.000000,0.000000
3807.833241,-9770.718434,-444.123565,-1149.143247
3807.833571,-9252.574275,-518.144159,-612.876398
3807.833901,-9326.594869,-518.144159,153.219100
3807.834231,-9474.636058,-592.164754,689.485948
3807.834561,-9548.656652,-814.226536,612.876398
3807.834891,-8660.409521,-962.267725,536.266849
3807.835221,-8734.430116,-518.144159,612.876398
3807.835550,-9992.780217,0.000000,1225.752797
3807.835880,-10881.027347,74.020594,0.000000
3807.836210,-10140.821405,-370.102971,-995.924147
3807.836540,-10214.842000,-148.041188,-1378.971896
3807.836870,-9770.718434,-74.020594,-1302.362347
3807.837200,-9918.759623,-74.020594,76.609550
3807.837530,-8882.471304,0.000000,-995.924147
3807.837860,-8734.430116,222.061783,-1149.143247
3807.838189,-10140.821405,370.102971,-995.924147
3807.838519,-9400.615463,0.000000,-919.314598
3807.838849,-9770.718434,0.000000,76.609550
3807.839179,-9844.739029,444.123565,-153.219100
3807.839509,-9844.739029,148.041188,-689.485948
3807.839839,-10436.903782,-666.185348,-306.438199
3807.840169,-9844.739029,-444.123565,-153.219100
3807.840498,-9770.718434,0.000000,1072.533697
3807.840828,-10658.965565,-74.020594,536.266849
3807.841158,-10140.821405,-296.082377,76.609550
3807.841488,-10510.924376,-1184.329507,1455.581446
3807.841818,-9992.780217,0.000000,1608.800546
3807.842148,-10066.800811,148.041188,1149.143247
3807.842478,-9844.739029,-370.102971,0.000000
3807.842807,-9400.615463,-222.061783,-919.314598
3807.843137,-9548.656652,-518.144159,459.657299
3807.843467,-9918.759623,-74.020594,919.314598
3807.843797,-9400.615463,0.000000,1455.581446
3807.844127,-9104.533087,222.061783,2298.286494
3807.844457,-9326.594869,592.164754,536.266849
3807.844787,-10807.006753,148.041188,766.095498
3807.845116,-11991.336260,518.144159,766.095498
3807.845446,-10510.924376,592.164754,229.828649
3807.845776,-10214.842000,0.000000,1378.971896
3807.846106,-8512.368333,0.000000,995.924147
3807.846436,-7994.224174,296.082377,689.485948
3807.846766,-8290.306550,0.000000,0.000000
3807.847096,-8956.491898,1332.370696,-383.047749
3807.847425,-9696.697840,740.205942,306.438199
3807.847755,-10140.821405,888.247130,536.266849
3807.848085,-9992.780217,888.247130,689.485948
3807.848415,-10214.842000,962.267725,1302.362347
3807.848745,-10362.883188,1110.308913,536.266849
3807.849075,-11325.150913,814.226536,306.438199
3807.849405,-11029.068536,370.102971,-689.485948
3807.849734,-9622.677246,1036.288319,-306.438199
3807.850064,-9622.677246,592.164754,536.266849
3807.850394,-8660.409521,1110.308913,0.000000
3807.850724,-9030.512492,1480.411884,536.266849
3807.851054,-9918.759623,962.267725,306.438199
3807.851384,-11029.068536,1184.329507,0.000000
3807.851714,-10732.986159,592.164754,76.609550
3807.852043,-9844.739029,518.144159,-536.266849
3807.852373,-9696.697840,222.061783,1225.752797
3807.852703,-10214.842000,222.061783,2145.067394
3807.853033,-9696.697840,296.082377,842.705048
3807.853363,-9474.636058,0.000000,0.000000
3807.853693,-8660.409521,0.000000,-153.219100
3807.854023,-8734.430116,666.185348,1225.752797
3807.854352,-9696.697840,1110.308913,1532.190996
3807.854682,-9104.533087,1110.308913,76.609550
3807.855012,-9770.718434,666.185348,-995.924147
3807.855342,-10066.800811,-148.041188,-995.924147
3807.855672,-10658.965565,1036.288319,-306.438199
3807.856002,-10658.965565,-296.082377,536.266849
3807.856332,-10288.862594,-592.164754,153.219100
3807.856661,-8438.347739,-148.041188,1072.533697
3807.856991,-9030.512492,-296.082377,1149.143247
3807.857321,-9844.739029,592.164754,766.095498
3807.857651,-10955.047942,74.020594,0.000000
3807.857981,-10732.986159,666.185348,-1072.533697
3807.858311,-9770.718434,74.020594,-689.485948
3807.858641,-10214.842000,-444.123565,-612.876398
3807.858971,-10288.862594,-222.061783,306.438199
3807.859300,-10807.006753,-592.164754,842.705048
3807.859630,-9400.615463,-592.164754,383.047749
3807.859960,-8808.450710,-666.185348,-689.485948
3807.860290,-10140.821405,-888.247130,229.828649
3807.860620,-9326.594869,-1110.308913,1455.581446
3807.860950,-9030.512492,-814.226536,2145.067394
3807.861280,-10362.883188,-962.267725,766.095498
3807.861609,-10658.965565,-740.205942,0.000000
3807.861939,-10807.006753,-1184.329507,-383.047749
3807.862269,-9770.718434,-814.226536,-612.876398
3807.862599,-9030.512492,-962.267725,612.876398
3807.862929,-9844.739029,-592.164754,153.219100
3807.863259,-8956.491898,-518.144159,-383.047749
3807.863589,-8586.388927,-814.226536,-842.705048
3807.863918,-8734.430116,-740.205942,-919.314598
3807.864248,-9844.739029,-518.144159,-1072.533697
3807.864578,-10658.965565,-222.061783,-306.438199
3807.864908,-8882.471304,-444.123565,536.266849
3807.865238,-9696.697840,0.000000,1225.752797
3807.865568,-11621.233289,-222.061783,-229.828649
3807.865898,-11103.089130,-222.061783,-919.314598
3807.866227,-10658.965565,-518.144159,-842.705048
3807.866557,-9770.718434,-592.164754,-919.314598
3807.866887,-9474.636058,-444.123565,536.266849
3807.867217,-9474.636058,-888.247130,842.705048
3807.867547,-8438.347739,-592.164754,0.000000
3807.867877,-9030.512492,-962.267725,0.000000
3807.868207,-9622.677246,-296.082377,383.047749
3807.868536,-10362.883188,0.000000,1378.971896
3807.868866,-10214.842000,-444.123565,1685.410096
3807.869196,-9474.636058,0.000000,1991.848295
3807.869526,-10288.862594,-444.123565,1685.410096
3807.869856,-10881.027347,-370.102971,0.000000
3807.870186,-10214.842000,370.102971,-536.266849
3807.870516,-9918.759623,0.000000,-536.266849
3807.870845,-9252.574275,74.020594,383.047749
3807.871175,-9030.512492,-222.061783,1838.629195
3807.871505,-9548.656652,370.102971,1378.971896
3807.871835,-9104.533087,1036.288319,-153.219100
3807.872165,-9622.677246,740.205942,-1149.143247
3807.872495,-9400.615463,0.000000,-2221.676944
3807.872825,-9770.718434,296.082377,-383.047749
3807.873154,-10807.006753,518.144159,1762.019645
3807.873484,-10807.006753,814.226536,1762.019645
3807.873814,-10288.862594,148.041188,612.876398
3807.874144,-8808.450710,0.000000,-2145.067394
3807.874474,-9178.553681,296.082377,-1532.190996
3807.874804,-10584.944971,370.102971,459.657299
3807.875134,-9992.780217,444.123565,1149.143247
3807.875463,-8882.471304,666.185348,229.828649
3807.875793,-8290.306550,148.041188,-766.095498
3807.876123,-8586.388927,740.205942,-1685.410096
3807.876453,-10214.842000,666.185348,-153.219100
3807.876783,-10807.006753,740.205942,0.000000
3807.877113,-10214.842000,814.226536,383.047749
3807.877443,-9548.656652,222.061783,612.876398
3807.877772,-9326.594869,148.041188,229.828649
3807.878102,-10732.986159,0.000000,1072.533697
3807.878432,-10214.842000,0.000000,766.095498
3807.878762,-8512.368333,148.041188,766.095498
3807.879092,-9104.533087,74.020594,995.924147
3807.879422,-9030.512492,814.226536,919.314598
3807.879752,-9548.656652,666.185348,1225.752797
3807.880081,-10436.903782,888.247130,-766.095498
3807.880411,-10140.821405,1110.308913,-1149.143247
3807.880741,-10658.965565,888.247130,0.000000
3807.881071,-10140.821405,444.123565,229.828649
3807.881401,-10066.800811,814.226536,0.000000
3807.881730,-10066.800811,0.000000,0.000000
3807.882060,-9770.718434,222.061783,-306.438199
3807.882390,-10732.986159,74.020594,536.266849
3807.882719,-10288.862594,-148.041188,459.657299
3807.883049,-9252.574275,0.000000,383.047749
3807.883379,-8956.491898,-888.247130,1149.143247
3807.883708,-8956.491898,0.000000,919.314598
3807.884038,-10807.006753,222.061783,1685.410096
3807.884368,-10658.965565,0.000000,76.609550
3807.884697,-9992.780217,-148.041188,-153.219100
3807.885027,-10214.842000,-740.205942,1225.752797
3807.885357,-9992.780217,0.000000,1608.800546
3807.885686,-10214.842000,0.000000,1762.019645
3807.886016,-9474.636058,-222.061783,0.000000
3807.886346,-8438.347739,0.000000,-1072.533697
3807.886675,-9992.780217,296.082377,-612.876398
3807.887005,-10881.027347,0.000000,536.266849
3807.887335,-10584.944971,444.123565,1225.752797
3807.887664,-10214.842000,148.041188,153.219100
3807.887994,-8882.471304,0.000000,-1838.629195
3807.888324,-9474.636058,-1036.288319,-1685.410096
3807.888654,-9178.553681,-296.082377,-689.485948
3807.888983,-8586.388927,-518.144159,919.314598
3807.889313,-10140.821405,-148.041188,1685.410096
3807.889643,-9770.718434,0.000000,766.095498
3807.889972,-9548.656652,-740.205942,76.609550
3807.890302,-9622.677246,-1258.350101,-536.266849
3807.890632,-9178.553681,-444.123565,459.657299
3807.890961,-9548.656652,-592.164754,1302.362347
3807.891291,-9030.512492,-444.123565,153.219100
3807.891621,-8882.471304,-74.020594,-842.705048
3807.891950,-9030.512492,-444.123565,-1455.581446
3807.892280,-9918.759623,370.102971,-995.924147
3807.892610,-11695.253884,-370.102971,0.000000
3807.892939,-10955.047942,-444.123565,995.924147
3807.893269,-9178.553681,-814.226536,1608.800546
3807.893599,-8660.409521,-962.267725,1072.533697
3807.893928,-8438.347739,-370.102971,383.047749
3807.894258,-9548.656652,0.000000,306.438199
3807.894588,-10955.047942,592.164754,536.266849
3807.894917,-11103.089130,888.247130,612.876398
3807.895247,-10288.862594,222.061783,1302.362347
3807.895577,-10214.842000,0.000000,229.828649
3807.895906,-10584.944971,-74.020594,0.000000
3807.896236,-9992.780217,-592.164754,-229.828649
3807.896566,-8290.306550,74.020594,-1455.581446
3807.896895,-8734.430116,-370.102971,-612.876398
3807.897225,-8882.471304,74.020594,0.000000
3807.897555,-9252.574275,148.041188,1685.410096
3807.897885,-10288.862594,0.000000,1532.190996
3807.898214,-9918.759623,296.082377,-306.438199
3807.898544,-10436.903782,222.061783,-842.705048
3807.898874,-10658.965565,-296.082377,-995.924147
3807.899203,-9844.739029,296.082377,0.000000
3807.899533,-10066.800811,222.061783,1072.533697
3807.899863,-10436.903782,222.061783,995.924147
3807.900192,-9474.636058,-444.123565,0.000000
3807.900522,-8808.450710,-592.164754,-1225.752797
3807.900852,-8364.327145,370.102971,-1455.581446
3807.901181,-9400.615463,0.000000,612.876398
3807.901511,-9400.615463,74.020594,995.924147
3807.901841,-8734.430116,518.144159,919.314598
3807.902170,-9918.759623,148.041188,0.000000
3807.902500,-9844.739029,740.205942,0.000000
3807.902830,-11695.253884,740.205942,612.876398
3807.903159,-11695.253884,1036.288319,766.095498
3807.903489,-10732.986159,296.082377,842.705048
3807.903819,-10362.883188,370.102971,995.924147
3807.904148,-8808.450710,0.000000,229.828649
3807.904478,-9548.656652,518.144159,383.047749
3807.904808,-9178.553681,296.082377,0.000000
3807.905137,-8068.244768,888.247130,0.000000
3807.905467,-8808.450710,962.267725,-459.657299
3807.905797,-8734.430116,814.226536,-919.314598
3807.906126,-10362.883188,666.185348,229.828649
3807.906456,-11843.295072,592.164754,306.438199
3807.906786,-10362.883188,444.123565,-689.485948
3807.907116,-9844.739029,-296.082377,-383.047749
3807.907445,-9178.553681,-592.164754,76.609550
3807.907775,-8956.491898,-740.205942,1915.238745
3807.908105,-10510.924376,-148.041188,3830.477490
3807.908434,-9030.512492,0.000000,2145.067394
3807.908764,-9770.718434,74.020594,1072.533697
3807.909094,-9548.656652,370.102971,0.000000
3807.909423,-9474.636058,814.226536,-612.876398
3807.909753,-10807.006753,-148.041188,229.828649
3807.910083,-9622.677246,592.164754,0.000000
3807.910412,-9918.759623,74.020594,229.828649
3807.910742,-9548.656652,0.000000,-153.219100
3807.911072,-8956.491898,74.020594,-689.485948
3807.911401,-11251.130318,-74.020594,229.828649
3807.911731,-10584.944971,370.102971,229.828649
3807.912061,-9622.677246,-148.041188,919.314598
3807.912390,-9400.615463,222.061783,1455.581446
3807.912720,-8882.471304,0.000000,612.876398
3807.913050,-10066.800811,-296.082377,612.876398
3807.913379,-9622.677246,0.000000,-383.047749
3807.913709,-10140.821405,666.185348,-383.047749
3807.914039,-10807.006753,-370.102971,229.828649
3807.914368,-9548.656652,-296.082377,0.000000
3807.914698,-9548.656652,-740.205942,306.438199
3807.915028,-9696.697840,0.000000,0.000000
3807.915358,-9474.636058,-370.102971,-536.266849
3807.915687,-9844.739029,-814.226536,76.609550
3807.916017,-9178.553681,0.000000,-306.438199
3807.916347,-9622.677246,-296.082377,306.438199
3807.916676,-10510.924376,0.000000,76.609550
3807.917006,-8882.471304,74.020594,-919.314598
3807.917336,-9548.656652,-666.185348,-766.095498
3807.917665,-10066.800811,-296.082377,-229.828649
3807.917995,-9844.739029,-1332.370696,0.000000
3807.918325,-9696.697840,-1184.329507,1072.533697
3807.918654,-8438.347739,-370.102971,1762.019645
3807.918984,-9918.759623,74.020594,2604.724693
3807.919314,-10807.006753,-148.041188,1685.410096
3807.919643,-9992.780217,148.041188,-689.485948
3807.919973,-9844.739029,-814.226536,-383.047749
3807.920303,-9252.574275,0.000000,0.000000
3807.920632,-9918.759623,-148.041188,1072.533697
3807.920962,-10436.903782,0.000000,536.266849
3807.921292,-8216.285956,222.061783,-153.219100
3807.921621,-9474.636058,0.000000,229.828649
3807.921951,-9770.718434,814.226536,0.000000
3807.922281,-10140.821405,444.123565,1455.581446
3807.922610,-10658.965565,444.123565,1532.190996
3807.922940,-9252.574275,296.082377,689.485948
3807.923270,-10732.986159,148.041188,536.266849
3807.923599,-10584.944971,296.082377,229.828649
3807.923929,-9474.636058,222.061783,-383.047749
3807.924259,-9622.677246,148.041188,-229.828649
3807.924589,-8438.347739,222.061783,-766.095498
3807.924918,-9326.594869,-296.082377,612.876398
3807.925248,-9918.759623,592.164754,1685.410096
3807.925578,-8808.450710,592.164754,766.095498
3807.925907,-10140.821405,74.020594,1225.752797
3807.926237,-10140.821405,518.144159,76.609550
3807.926567,-10510.924376,518.144159,766.095498
3807.926896,-9770.718434,666.185348,1685.410096
3807.927226,-9400.615463,666.185348,1838.629195
3807.927556,-10214.842000,148.041188,1838.629195
3807.927885,-9104.533087,1332.370696,842.705048
3807.928215,-9622.677246,592.164754,0.000000
3807.928545,-11177.109724,888.247130,0.000000
3807.928874,-8956.491898,1110.308913,-459.657299
3807.929204,-9400.615463,962.267725,1149.143247
3807.929534,-9400.615463,814.226536,1225.752797
3807.929863,-9178.553681,888.247130,612.876398
3807.930193,-10362.883188,962.267725,536.266849
3807.930523,-9400.615463,1406.391290,-1072.533697
3807.930852,-10214.842000,814.226536,-995.924147
3807.931182,-10140.821405,592.164754,-536.266849
3807.931512,-9622.677246,1554.432478,459.657299
3807.931841,-10510.924376,1184.329507,919.314598
3807.932171,-9400.615463,740.205942,-1149.143247
3807.932501,-9918.759623,518.144159,-1762.019645
3807.932830,-9992.780217,888.247130,-995.924147
3807.933160,-9918.759623,1110.308913,-1838.629195
3807.933490,-9918.759623,444.123565,-1149.143247
3807.933820,-9326.594869,0.000000,-766.095498
3807.934149,-8586.388927,-222.061783,-536.266849
3807.934479,-9770.718434,-666.185348,229.828649
3807.934809,-8290.306550,-814.226536,-612.876398
3807.935138,-9622.677246,-962.267725,153.219100
3807.935468,-9770.718434,-518.144159,842.705048
3807.935798,-10955.047942,-370.102971,612.876398
3807.936127,-11251.130318,-518.144159,842.705048
3807.936457,-9326.594869,-666.185348,76.609550
3807.936787,-9252.574275,-888.247130,0.000000
3807.937116,-9474.636058,-888.247130,-689.485948
3807.937446,-8586.388927,-444.123565,-689.485948
3807.937776,-8438.347739,-296.082377,229.828649
3807.938105,-8660.409521,0.000000,-1225.752797
3807.938435,-9844.739029,0.000000,-689.485948
3807.938765,-11325.150913,-370.102971,-306.438199
3807.939094,-9844.739029,222.061783,-76.609550
3807.939424,-10584.944971,-962.267725,766.095498
3807.939754,-10436.903782,-592.164754,229.828649
3807.940083,-9770.718434,-814.226536,153.219100
3807.940413,-10140.821405,-148.041188,766.095498
3807.940743,-9326.594869,-814.226536,766.095498
3807.941072,-10362.883188,-814.226536,1225.752797
3807.941402,-10362.883188,-518.144159,612.876398
3807.941732,-9400.615463,-1036.288319,76.609550
3807.942061,-9252.574275,-1036.288319,536.266849
3807.942391,-8734.430116,-962.267725,612.876398
3807.942721,-9548.656652,-814.226536,1149.143247
3807.943051,-9992.780217,-1110.308913,1455.581446
3807.943380,-9326.594869,-444.123565,689.485948
3807.943710,-10732.986159,-370.102971,1378.971896
3807.944040,-10881.027347,0.000000,1685.410096
3807.944369,-10658.965565,-888.247130,1225.752797
3807.944699,-9622.677246,-962.267725,1532.190996
3807.945029,-8660.409521,-518.144159,1685.410096
3807.945358,-9548.656652,0.000000,1302.362347
3807.945688,-9474.636058,-518.144159,459.657299
3807.946018,-8586.388927,0.000000,-306.438199
3807.946347,-9474.636058,444.123565,153.219100
3807.946677,-10658.965565,1110.308913,612.876398
3807.947007,-10955.047942,74.020594,306.438199
3807.947336,-9696.697840,-222.061783,0.000000
3807.947666,-8216.285956,222.061783,-536.266849
3807.947996,-9844.739029,0.000000,536.266849
3807.948325,-10214.842000,518.144159,0.000000
3807.948655,-9400.615463,814.226536,-536.266849
3807.948985,-9178.553681,1110.308913,0.000000
3807.949314,-9252.574275,814.226536,-383.047749
3807.949644,-10881.027347,666.185348,0.000000
3807.949974,-10140.821405,814.226536,-306.438199
3807.950303,-9252.574275,740.205942,-1072.533697
3807.950633,-9104.533087,296.082377,-1225.752797
3807.950963,-9400.615463,814.226536,-1072.533697
3807.951292,-10955.047942,444.123565,0.000000
3807.951622,-10955.047942,666.185348,919.314598
3807.951952,-9770.718434,666.185348,536.266849
3807.952282,-10066.800811,0.000000,689.485948
3807.952611,-9252.574275,0.000000,842.705048
3807.952941,-9474.636058,222.061783,1225.752797
3807.953271,-9178.553681,740.205942,766.095498
3807.953600,-9252.574275,1332.370696,-459.657299
3807.953930,-9992.780217,518.144159,-76.609550
3807.954260,-9400.615463,740.205942,-612.876398
3807.954589,-9696.697840,888.247130,-459.657299
3807.954919,-9844.739029,296.082377,0.000000
3807.955249,-9030.512492,148.041188,-1149.143247
3807.955578,-9178.553681,222.061783,-459.657299
3807.955908,-9474.636058,370.102971,-383.047749
3807.956238,-9030.512492,592.164754,0.000000
3807.956567,-9844.739029,518.144159,919.314598
3807.956897,-9770.718434,1036.288319,689.485948
3807.957227,-9178.553681,962.267725,0.000000
3807.957556,-9696.697840,444.123565,0.000000
3807.957886,-9474.636058,444.123565,0.000000
3807.958216,-10881.027347,148.041188,995.924147
3807.958545,-11029.068536,518.144159,459.657299
3807.958875,-9474.636058,0.000000,-76.609550
3807.959205,-9474.636058,0.000000,-919.314598
3807.959534,-9178.553681,-296.082377,-1072.533697
3807.959864,-10881.027347,-518.144159,76.609550
3807.960194,-10510.924376,-296.082377,919.314598
3807.960524,-9474.636058,74.020594,1302.362347
3807.960853,-9474.636058,-74.020594,1685.410096
3807.961183,-9474.636058,0.000000,842.705048
3807.961513,-10732.986159,-518.144159,1532.190996
3807.961842,-10288.862594,-740.205942,229.828649
3807.962172,-9696.697840,-666.185348,1225.752797
3807.962502,-10955.047942,-888.247130,1915.238745
3807.962831,-9696.697840,-518.144159,1608.800546
3807.963161,-9178.553681,-740.205942,995.924147
3807.963491,-8882.471304,-444.123565,229.828649
3807.963820,-9548.656652,-74.020594,0.000000
3807.964150,-11251.130318,740.205942,0.000000
3807.964480,-10066.800811,0.000000,-1302.362347
3807.964809,-9252.574275,-518.144159,-1302.362347
3807.965139,-9696.697840,-740.205942,0.000000
3807.965469,-9696.697840,-222.061783,0.000000
3807.965798,-9252.574275,-888.247130,-536.266849
3807.966128,-8882.471304,-370.102971,-995.924147
3807.966458,-9474.636058,-148.041188,-306.438199
3807.966787,-11695.253884,0.000000,919.314598
3807.967117,-11695.253884,-148.041188,459.657299
3807.967447,-10658.965565,-888.247130,536.266849
3807.967776,-9844.739029,-888.247130,536.266849
3807.968106,-8438.347739,-1480.411884,-536.266849
3807.968436,-8290.306550,-1776.494261,0.000000
3807.968765,-8586.388927,-1332.370696,306.438199
3807.969095,-8734.430116,-592.164754,1225.752797
3807.969425,-9696.697840,-592.164754,1149.143247
3807.969755,-8956.491898,444.123565,-153.219100
3807.970084,-9918.759623,-666.185348,-306.438199
3807.970414,-10510.924376,0.000000,0.000000
3807.970744,-10881.027347,-148.041188,766.095498
3807.971073,-10955.047942,-296.082377,842.705048
3807.971403,-9474.636058,0.000000,-229.828649
3807.971733,-9474.636058,222.061783,-229.828649
3807.972062,-9474.636058,0.000000,-1149.143247
3807.972392,-9104.533087,1110.308913,-1378.971896
3807.972722,-10510.924376,518.144159,-842.705048
3807.973051,-9178.553681,814.226536,0.000000
3807.973381,-9030.512492,296.082377,689.485948
3807.973711,-10066.800811,592.164754,689.485948
3807.974040,-10584.944971,592.164754,383.047749
3807.974370,-11251.130318,148.041188,383.047749
3807.974700,-9326.594869,-222.061783,0.000000
3807.975029,-8290.306550,0.000000,919.314598
3807.975359,-9844.739029,222.061783,2068.457845
3807.975689,-9622.677246,370.102971,1149.143247
3807.976018,-9400.615463,518.144159,766.095498
3807.976348,-9400.615463,814.226536,-689.485948
3807.976678,-9622.677246,740.205942,-1072.533697
3807.977007,-10214.842000,740.205942,229.828649
3807.977337,-9622.677246,1554.432478,1149.143247
3807.977667,-9030.512492,814.226536,1378.971896
3807.977996,-10140.821405,592.164754,1225.752797
3807.978326,-10955.047942,814.226536,383.047749
3807.978656,-11251.130318,74.020594,919.314598
3807.978986,-9844.739029,666.185348,766.095498
3807.979315,-8956.491898,296.082377,995.924147
3807.979645,-9474.636058,222.061783,1762.019645
3807.979975,-9474.636058,1480.411884,1225.752797
3807.980304,-10510.924376,666.185348,383.047749
3807.980634,-9918.759623,444.123565,-459.657299
3807.980964,-9844.739029,666.185348,-383.047749
3807.981294,-10288.862594,962.267725,766.095498
3807.981623,-10436.903782,962.267725,1762.019645
3807.981953,-10436.903782,444.123565,612.876398
3807.982283,-9400.615463,148.041188,-306.438199
3807.982613,-9474.636058,740.205942,-536.266849
3807.982942,-11029.068536,888.247130,0.000000
3807.983272,-10732.986159,518.144159,0.000000
3807.983602,-9844.739029,296.082377,0.000000
3807.983932,-9178.553681,148.041188,-536.266849
3807.984261,-9400.615463,518.144159,-1302.362347
3807.984591,-10584.944971,-148.041188,-306.438199
3807.984921,-10066.800811,592.164754,76.609550
3807.985251,-9474.636058,296.082377,0.000000
3807.985580,-10066.800811,-518.144159,-229.828649
3807.985910,-10288.862594,-814.226536,0.000000
3807.986240,-10362.883188,-962.267725,536.266849
3807.986570,-9104.533087,-1702.473667,689.485948
3807.986899,-7550.100608,-592.164754,383.047749
3807.987229,-8734.430116,-666.185348,766.095498
3807.987559,-9400.615463,-370.102971,1072.533697
3807.987888,-9474.636058,-222.061783,766.095498
3807.988218,-10732.986159,148.041188,153.219100
3807.988548,-10658.965565,74.020594,-76.609550
3807.988878,-10807.006753,-296.082377,306.438199
3807.989207,-9844.739029,0.000000,0.000000
3807.989537,-10288.862594,-370.102971,-536.266849
3807.989867,-9918.759623,-592.164754,-1225.752797
3807.990197,-8586.388927,-444.123565,-1149.143247
3807.990526,-8364.327145,-666.185348,-536.266849
3807.990856,-9252.574275,296.082377,766.095498
3807.991186,-10510.924376,222.061783,766.095498
3807.991516,-10584.944971,0.000000,842.705048
3807.991845,-9474.636058,-222.061783,-153.219100
3807.992175,-10288.862594,-296.082377,153.219100
3807.992505,-10955.047942,-1110.308913,1225.752797
3807.992835,-9770.718434,-888.247130,995.924147
3807.993164,-9030.512492,-1184.329507,1225.752797
3807.993494,-10066.800811,-222.061783,229.828649
3807.993824,-10510.924376,-666.185348,-689.485948
3807.994154,-10584.944971,-962.267725,-536.266849
3807.994483,-8290.306550,-518.144159,0.000000
3807.994813,-8660.409521,-740.205942,1685.410096
3807.995143,-9326.594869,0.000000,2374.896044
3807.995473,-9474.636058,0.000000,1378.971896
3807.995802,-9622.677246,-370.102971,612.876398
3807.996132,-10140.821405,-296.082377,-766.095498
3807.996462,-11843.295072,0.000000,229.828649
3807.996792,-11621.233289,0.000000,919.314598
3807.997121,-9918.759623,148.041188,766.095498
3807.997451,-9548.656652,-518.144159,459.657299
3807.997781,-8882.471304,0.000000,-536.266849
3807.998111,-8734.430116,0.000000,-536.266849
3807.998440,-8956.491898,296.082377,459.657299
3807.998770,-9030.512492,740.205942,919.314598
3807.999100,-10214.842000,666.185348,842.705048
3807.999430,-9622.677246,370.102971,0.000000
3807.999759,-9622.677246,74.020594,0.000000
3808.000089,-11177.109724,0.000000,995.924147
3808.000419,-11695.253884,888.247130,842.705048
3808.000749,-11547.212695,0.000000,0.000000
3808.001078,-9474.636058,0.000000,-995.924147
3808.001408,-8290.306550,148.041188,-1149.143247
3808.001738,-9104.533087,222.061783,0.000000
3808.002067,-8882.471304,814.226536,-536.266849
3808.002397,-9252.574275,740.205942,0.000000
3808.002727,-8882.471304,814.226536,0.000000
3808.003057,-8808.450710,888.247130,612.876398
3808.003386,-11547.212695,1332.370696,2068.457845
3808.003716,-12213.398043,1258.350101,1072.533697
3808.004046,-11621.233289,222.061783,0.000000
3808.004376,-10732.986159,888.247130,-536.266849
3808.004705,-9178.553681,0.000000,-383.047749
3808.005035,-9326.594869,-518.144159,842.705048
3808.005365,-8364.327145,222.061783,459.657299
3808.005695,-8068.244768,444.123565,612.876398
3808.006024,-9030.512492,370.102971,229.828649
3808.006354,-8512.368333,666.185348,-766.095498
3808.006684,-9770.718434,666.185348,-766.095498
3808.007014,-11103.089130,1036.288319,306.438199
3808.007343,-10140.821405,888.247130,76.609550
3808.007673,-10732.986159,-296.082377,919.314598
3808.008003,-9252.574275,518.144159,-306.438199
3808.008333,-9696.697840,0.000000,153.219100
3808.008662,-10362.883188,296.082377,-153.219100
3808.008992,-9030.512492,0.000000,-766.095498
3808.009322,-9252.574275,-444.123565,459.657299
3808.009652,-9252.574275,888.247130,766.095498
3808.009981,-9178.553681,296.082377,-536.266849
3808.010311,-9918.759623,148.041188,-919.314598
3808.010641,-8734.430116,296.082377,-1378.971896
3808.010971,-11103.089130,-296.082377,383.047749
3808.011300,-10955.047942,-148.041188,229.828649
3808.011630,-10584.944971,-444.123565,383.047749
3808.011960,-9844.739029,-1184.329507,229.828649
3808.012290,-8364.327145,-444.123565,459.657299
3808.012619,-9918.759623,-1110.308913,1685.410096
3808.012949,-10362.883188,-74.020594,1455.581446
3808.013279,-8882.471304,0.000000,76.609550
3808.013609,-9474.636058,74.020594,459.657299
3808.013938,-9400.615463,370.102971,-306.438199
3808.014268,-10288.862594,518.144159,689.485948
3808.014598,-11325.150913,0.000000,153.219100
3808.014928,-10140.821405,296.082377,-459.657299
3808.015257,-9992.780217,0.000000,0.000000
3808.015587,-9548.656652,0.000000,383.047749
3808.015917,-10140.821405,444.123565,842.705048
3808.016246,-11029.068536,-296.082377,1072.533697
3808.016576,-9474.636058,-518.144159,-919.314598
3808.016906,-8956.491898,-814.226536,-459.657299
3808.017236,-8438.347739,-1110.308913,536.266849
3808.017565,-8734.430116,-296.082377,919.314598
3808.017895,-9918.759623,-370.102971,1378.971896
3808.018225,-9770.718434,0.000000,842.705048
3808.018555,-10066.800811,0.000000,536.266849
3808.018884,-10807.006753,-370.102971,383.047749
3808.019214,-11103.089130,0.000000,0.000000
3808.019544,-11399.171507,-666.185348,1455.581446
3808.019874,-8882.471304,-962.267725,689.485948
3808.020203,-7698.141797,-1258.350101,229.828649
3808.020533,-8438.347739,-1110.308913,229.828649
3808.020863,-8586.388927,0.000000,689.485948
3808.021193,-9400.615463,296.082377,612.876398
3808.021522,-9178.553681,1332.370696,-306.438199
3808.021852,-10510.924376,814.226536,-383.047749
3808.022182,-11695.253884,518.144159,1378.971896
3808.022512,-11399.171507,370.102971,459.657299
3808.022841,-11251.130318,0.000000,-536.266849
3808.023171,-9992.780217,-74.020594,-459.657299
3808.023501,-8956.491898,0.000000,-842.705048
3808.023831,-8660.409521,0.000000,0.000000
3808.024160,-9030.512492,592.164754,-536.266849
3808.024490,-8808.450710,592.164754,-459.657299
3808.024820,-8808.450710,0.000000,0.000000
3808.025150,-8882.471304,1036.288319,-689.485948
3808.025479,-10510.924376,222.061783,306.438199
3808.025809,-10881.027347,444.123565,383.047749
3808.026139,-9622.677246,-370.102971,229.828649
3808.026469,-10288.862594,444.123565,995.924147
3808.026798,-9992.780217,0.000000,383.047749
3808.027128,-10362.883188,-222.061783,229.828649
3808.027458,-9326.594869,-370.102971,0.000000
3808.027788,-9178.553681,518.144159,-153.219100
3808.028117,-10510.924376,74.020594,1149.143247
3808.028447,-9992.780217,1406.391290,306.438199
3808.028777,-8290.306550,296.082377,-383.047749
3808.029107,-8808.450710,148.041188,-536.266849
3808.029436,-10066.800811,1184.329507,-1532.190996
3808.029766,-11769.274478,148.041188,153.219100
3808.030096,-10732.986159,148.041188,919.314598
3808.030425,-8956.491898,0.000000,1149.143247
3808.030755,-9696.697840,-148.041188,1838.629195
3808.031085,-9844.739029,814.226536,689.485948
3808.031415,-10288.862594,0.000000,919.314598
3808.031744,-9474.636058,222.061783,766.095498
3808.032074,-8438.347739,740.205942,306.438199
3808.032404,-11029.068536,518.144159,919.314598
3808.032734,-10140.821405,888.247130,-536.266849
3808.033063,-9548.656652,0.000000,-995.924147
3808.033393,-9696.697840,0.000000,-766.095498
3808.033723,-9326.594869,74.020594,-919.314598
3808.034053,-9548.656652,444.123565,1455.581446
3808.034382,-9104.533087,518.144159,995.924147
3808.034712,-9548.656652,296.082377,459.657299
3808.035042,-11251.130318,296.082377,536.266849
3808.035372,-11103.089130,592.164754,-842.705048
3808.035701,-11325.150913,-370.102971,-612.876398
3808.036031,-9548.656652,-296.082377,383.047749
3808.036361,-8882.471304,-222.061783,1378.971896
3808.036691,-10436.903782,-370.102971,1685.410096
3808.037020,-8734.430116,296.082377,-153.219100
3808.037350,-9326.594869,-148.041188,-1608.800546
3808.037680,-9918.759623,148.041188,-919.314598
3808.038010,-9770.718434,148.041188,-612.876398
3808.038339,-10658.965565,-814.226536,1455.581446
3808.038669,-8956.491898,-888.247130,1685.410096
3808.038999,-8438.347739,-1036.288319,1072.533697
3808.039329,-9252.574275,-1184.329507,689.485948
3808.039658,-9104.533087,0.000000,-689.485948
3808.039988,-10436.903782,-74.020594,459.657299
3808.040318,-9400.615463,370.102971,766.095498
3808.040648,-9548.656652,518.144159,1225.752797
3808.040977,-11103.089130,148.041188,1532.190996
3808.041307,-10362.883188,296.082377,-612.876398
3808.041637,-10584.944971,-444.123565,-459.657299
3808.041967,-9474.636058,-148.041188,-306.438199
3808.042296,-8364.327145,-444.123565,-306.438199
3808.042626,-9770.718434,-666.185348,153.219100
3808.042956,-9104.533087,592.164754,536.266849
3808.043286,-9548.656652,370.102971,1455.581446
3808.043615,-10658.965565,-296.082377,689.485948
3808.043945,-9918.759623,370.102971,-842.705048
3808.044275,-10658.965565,-518.144159,306.438199
3808.044604,-9474.636058,444.123565,459.657299
3808.044934,-9030.512492,-1184.329507,0.000000
3808.045264,-10066.800811,-518.144159,995.924147
3808.045594,-9178.553681,-148.041188,689.485948
3808.045923,-10807.006753,-296.082377,229.828649
3808.046253,-10066.800811,0.000000,-459.657299
3808.046583,-8660.409521,148.041188,-612.876398
3808.046913,-9252.574275,-148.041188,229.828649
3808.047242,-9178.553681,148.041188,612.876398
3808.047572,-9844.739029,296.082377,919.314598
3808.047902,-10658.965565,444.123565,1072.533697
3808.048232,-9622.677246,666.185348,-153.219100
3808.048561,-10881.027347,-296.082377,-76.609550
3808.048891,-9696.697840,296.082377,-612.876398
3808.049221,-9474.636058,-370.102971,0.000000
3808.049551,-9400.615463,-296.082377,459.657299
3808.049880,-8586.388927,222.061783,0.000000
3808.050210,-9622.677246,-370.102971,1225.752797
3808.050540,-9622.677246,74.020594,689.485948
3808.050870,-10362.883188,888.247130,-229.828649
3808.051199,-10584.944971,296.082377,-229.828649
3808.051529,-9252.574275,370.102971,-459.657299
3808.051859,-10140.821405,0.000000,306.438199
3808.052189,-11029.068536,592.164754,0.000000
3808.052518,-9400.615463,888.247130,-1532.190996
3808.052848,-10140.821405,0.000000,-842.705048
3808.053178,-9474.636058,222.061783,-1302.362347
3808.053508,-9474.636058,-296.082377,76.609550
3808.053837,-9770.718434,0.000000,1991.848295
3808.054167,-9770.718434,0.000000,536.266849
3808.054497,-9992.780217,-814.226536,1072.533697
3808.054827,-8142.265362,-518.144159,383.047749
3808.055156,-8438.347739,-518.144159,-306.438199
3808.055486,-9992.780217,-296.082377,842.705048
3808.055816,-9770.718434,222.061783,766.095498
3808.056146,-9918.759623,74.020594,1838.629195
3808.056475,-9622.677246,444.123565,612.876398
3808.056805,-8734.430116,0.000000,-383.047749
3808.057135,-10510.924376,444.123565,0.000000
3808.057465,-9548.656652,740.205942,-1225.752797
3808.057794,-9548.656652,-148.041188,-383.047749
3808.058124,-9474.636058,296.082377,1302.362347
3808.058454,-8808.450710,444.123565,842.705048
3808.058783,-10584.944971,296.082377,612.876398
3808.059113,-9770.718434,1332.370696,-612.876398
3808.059443,-10066.800811,518.144159,-383.047749
3808.059773,-10288.862594,592.164754,536.266849
3808.060102,-9474.636058,740.205942,76.609550
3808.060432,-10658.965565,0.000000,1302.362347
3808.060762,-10066.800811,222.061783,536.266849
3808.061092,-9474.636058,0.000000,-383.047749
3808.061421,-10881.027347,0.000000,383.047749
3808.061751,-10214.842000,370.102971,-383.047749
3808.062081,-10066.800811,-148.041188,383.047749
3808.062411,-8956.491898,0.000000,1072.533697
3808.062740,-9474.636058,222.061783,2298.286494
3808.063070,-10658.965565,0.000000,2374.896044
3808.063400,-9548.656652,0.000000,153.219100
3808.063730,-9474.636058,370.102971,-306.438199
3808.064059,-10362.883188,370.102971,383.047749
3808.064389,-9992.780217,370.102971,1302.362347
3808.064719,-10732.986159,370.102971,2068.457845
3808.065049,-9548.656652,444.123565,1225.752797
3808.065378,-9622.677246,370.102971,-459.657299
3808.065708,-10066.800811,74.020594,-842.705048
3808.066038,-9252.574275,0.000000,-919.314598
3808.066368,-9622.677246,222.061783,1685.410096
3808.066697,-9622.677246,222.061783,1838.629195
3808.067027,-9622.677246,814.226536,-306.438199
3808.067357,-9918.759623,74.020594,-536.266849
3808.067687,-9030.512492,296.082377,-1149.143247
3808.068016,-10732.986159,0.000000,0.000000
3808.068346,-11325.150913,222.061783,689.485948
3808.068676,-9104.533087,-296.082377,0.000000
3808.069006,-8438.347739,-296.082377,0.000000
3808.069335,-8364.327145,-592.164754,-383.047749
3808.069665,-10066.800811,0.000000,-153.219100
3808.069995,-10732.986159,0.000000,153.219100
3808.070325,-9474.636058,0.000000,-919.314598
3808.070654,-10066.800811,-370.102971,0.000000
3808.070984,-10066.800811,-592.164754,1302.362347
3808.071314,-9548.656652,-740.205942,1072.533697
3808.071644,-9770.718434,-370.102971,842.705048
3808.071973,-9548.656652,222.061783,-383.047749
3808.072303,-10881.027347,814.226536,-459.657299
3808.072633,-9918.759623,222.061783,-766.095498
3808.072963,-9252.574275,0.000000,-76.609550
3808.073292,-10436.903782,-518.144159,995.924147
3808.073622,-9400.615463,0.000000,1532.190996
3808.073952,-9252.574275,-666.185348,-229.828649
3808.074281,-9548.656652,-222.061783,-1302.362347
3808.074611,-8660.409521,-296.082377,-1608.800546
3808.074941,-10066.800811,-222.061783,459.657299
3808.075271,-9548.656652,296.082377,1378.971896
3808.075600,-10288.862594,74.020594,1225.752797
3808.075930,-9622.677246,-740.205942,76.609550
3808.076260,-8364.327145,-222.061783,-1149.143247
3808.076590,-10066.800811,-740.205942,-766.095498
3808.076919,-10510.924376,74.020594,0.000000
3808.077249,-9992.780217,0.000000,383.047749
3808.077579,-9844.739029,-592.164754,1149.143247
3808.077909,-7846.182985,-296.082377,1072.533697
3808.078238,-9030.512492,-444.123565,536.266849
3808.078568,-11547.212695,0.000000,1072.533697
3808.078898,-11177.109724,0.000000,612.876398
3808.079228,-10510.924376,-518.144159,383.047749
3808.079557,-9104.533087,0.000000,536.266849
3808.079887,-9400.615463,-740.205942,306.438199
3808.080217,-10362.883188,-222.061783,919.314598
3808.080547,-8808.450710,-518.144159,459.657299
3808.080876,-9548.656652,0.000000,612.876398
3808.081206,-9326.594869,0.000000,1225.752797
3808.081536,-8808.450710,222.061783,1302.362347
3808.081866,-9548.656652,592.164754,1608.800546
3808.082195,-11177.109724,1554.432478,153.219100
3808.082525,-11177.109724,740.205942,-229.828649
3808.082855,-10362.883188,222.061783,-383.047749
3808.083184,-8586.388927,222.061783,-995.924147
3808.083514,-10658.965565,0.000000,612.876398
3808.083844,-10732.986159,1110.308913,612.876398
3808.084174,-9474.636058,0.000000,76.609550
3808.084503,-8512.368333,0.000000,0.000000
3808.084833,-7772.162391,518.144159,76.609550
3808.085163,-11103.089130,518.144159,1378.971896
3808.085492,-11103.089130,1554.432478,1149.143247
3808.085822,-9622.677246,1184.329507,-459.657299
3808.086152,-11399.171507,444.123565,-229.828649
3808.086482,-11103.089130,666.185348,-842.705048
3808.086811,-10584.944971,0.000000,-689.485948
3808.087141,-9178.553681,0.000000,-1225.752797
3808.087471,-7550.100608,74.020594,-1225.752797
3808.087801,-8660.409521,-148.041188,689.485948
3808.088130,-7920.203579,0.000000,-76.609550
3808.088460,-9252.574275,0.000000,-306.438199
3808.088790,-10658.965565,0.000000,689.485948
3808.089119,-10436.903782,518.144159,1149.143247
3808.089449,-10436.903782,-962.267725,1532.190996
3808.089779,-9326.594869,0.000000,1072.533697
3808.090109,-9622.677246,-222.061783,919.314598
3808.090438,-11695.253884,0.000000,1225.752797
3808.090768,-9696.697840,740.205942,76.609550
3808.091098,-9030.512492,0.000000,0.000000
3808.091427,-8660.409521,666.185348,-612.876398
3808.091757,-8882.471304,148.041188,-1762.019645
3808.092087,-10658.965565,370.102971,-1149.143247
3808.092417,-9030.512492,370.102971,-1838.629195
3808.092746,-9178.553681,-370.102971,-306.438199
3808.093076,-9326.594869,444.123565,612.876398
3808.093406,-8882.471304,0.000000,76.609550
3808.093735,-12435.459826,518.144159,612.876398
3808.094065,-11547.212695,148.041188,766.095498
3808.094395,-11325.150913,-296.082377,612.876398
3808.094725,-10510.924376,-370.102971,76.609550
3808.095054,-9104.533087,-444.123565,153.219100
3808.095384,-10066.800811,-1036.288319,306.438199
3808.095714,-8882.471304,-296.082377,0.000000
3808.096043,-7846.182985,-1110.308913,-842.705048
3808.096373,-9844.739029,-370.102971,229.828649
3808.096703,-9400.615463,-518.144159,-383.047749
3808.097033,-10955.047942,-1258.350101,1455.581446
3808.097362,-10436.903782,-518.144159,2145.067394
3808.097692,-9918.759623,-962.267725,1455.581446
3808.098022,-10510.924376,-1850.514855,1302.362347
3808.098351,-8882.471304,-740.205942,842.705048
3808.098681,-8586.388927,-1628.453072,1608.800546
3808.099011,-10140.821405,148.041188,3370.820191
3808.099341,-10362.883188,0.000000,1838.629195
3808.099670,-10732.986159,-444.123565,1149.143247
3808.100000,-9548.656652,296.082377,-1685.410096
3808.100330,-9992.780217,0.000000,-1685.410096
3808.100659,-10807.006753,740.205942,0.000000
3808.100989,-9844.739029,592.164754,-306.438199
3808.101319,-10140.821405,370.102971,0.000000
3808.101649,-9622.677246,592.164754,-229.828649
3808.101978,-9770.718434,444.123565,-919.314598
3808.102308,-10658.965565,-444.123565,383.047749
3808.102638,-9770.718434,74.020594,919.314598
3808.102968,-9400.615463,-370.102971,1915.238745
3808.103297,-9474.636058,296.082377,1302.362347
3808.103627,-9474.636058,74.020594,-1149.143247
3808.103957,-9622.677246,-370.102971,-1378.971896
3808.104286,-9548.656652,296.082377,-612.876398
3808.104616,-10732.986159,0.000000,-76.609550
3808.104946,-10955.047942,-296.082377,1225.752797
3808.105276,-8882.471304,0.000000,612.876398
3808.105605,-8512.368333,-222.061783,612.876398
3808.105935,-8956.491898,666.185348,0.000000
3808.106265,-9696.697840,296.082377,-306.438199
3808.106594,-10066.800811,222.061783,306.438199
3808.106924,-8734.430116,1110.308913,0.000000
3808.107254,-10362.883188,518.144159,153.219100
3808.107584,-10881.027347,592.164754,995.924147
3808.107913,-9918.759623,74.020594,383.047749
3808.108243,-9770.718434,222.061783,766.095498
3808.108573,-9252.574275,1036.288319,0.000000
3808.108902,-10066.800811,740.205942,0.000000
3808.109232,-10881.027347,962.267725,-612.876398
3808.109562,-10066.800811,1184.329507,-536.266849
3808.109892,-10807.006753,740.205942,229.828649
3808.110221,-9474.636058,592.164754,-612.876398
3808.110551,-7772.162391,74.020594,-1455.581446
3808.110881,-8364.327145,296.082377,76.609550
3808.111210,-9252.574275,740.205942,76.609550
3808.111540,-10436.903782,296.082377,919.314598
3808.111870,-10214.842000,962.267725,536.266849
3808.112200,-10362.883188,444.123565,76.609550
3808.112529,-11769.274478,370.102971,383.047749
3808.112859,-10510.924376,148.041188,0.000000
3808.113189,-9770.718434,0.000000,76.609550
3808.113518,-8512.368333,74.020594,383.047749
3808.113848,-8216.285956,-148.041188,-842.705048
3808.114178,-9400.615463,222.061783,383.047749
3808.114508,-9474.636058,740.205942,995.924147
3808.114837,-10140.821405,444.123565,995.924147
3808.115167,-10362.883188,222.061783,919.314598
3808.115497,-9844.739029,-296.082377,612.876398
3808.115826,-10658.965565,-370.102971,1608.800546
3808.116156,-9918.759623,-444.123565,2757.943793
3808.116486,-9992.780217,222.061783,2298.286494
3808.116816,-10658.965565,-444.123565,1838.629195
3808.117145,-9474.636058,74.020594,153.219100
3808.117475,-8882.471304,0.000000,0.000000
3808.117805,-9622.677246,74.020594,766.095498
3808.118135,-9770.718434,74.020594,919.314598
3808.118464,-10362.883188,296.082377,766.095498
3808.118794,-9400.615463,296.082377,-459.657299
3808.119124,-9918.759623,0.000000,-1455.581446
3808.119453,-10288.862594,0.000000,-919.314598
3808.119783,-9844.739029,-370.102971,-612.876398
3808.120113,-10658.965565,0.000000,1149.143247
3808.120443,-10140.821405,74.020594,689.485948
3808.120772,-10140.821405,-296.082377,76.609550
3808.121102,-9548.656652,-592.164754,-153.219100
3808.121432,-8142.265362,-444.123565,-1225.752797
3808.121761,-9400.615463,-592.164754,-459.657299
3808.122091,-10362.883188,0.000000,689.485948
3808.122421,-10362.883188,-518.144159,76.609550
3808.122751,-9918.759623,-1258.350101,459.657299
3808.123080,-8882.471304,-1480.411884,-383.047749
3808.123410,-9548.656652,-1924.535449,229.828649
3808.123740,-9474.636058,-74.020594,383.047749
3808.124069,-8216.285956,-740.205942,-76.609550
3808.124399,-8956.491898,-1406.391290,76.609550
3808.124729,-9474.636058,296.082377,689.485948
3808.125059,-10436.903782,296.082377,689.485948
3808.125388,-11029.068536,370.102971,0.000000
3808.125718,-9252.574275,0.000000,-1838.629195
3808.126048,-9622.677246,-1110.308913,-1378.971896
3808.126377,-9844.739029,296.082377,0.000000
3808.126707,-9622.677246,-296.082377,-842.705048
3808.127037,-10066.800811,666.185348,459.657299
3808.127367,-9474.636058,1036.288319,-459.657299
3808.127696,-10510.924376,592.164754,-689.485948
3808.128026,-10881.027347,518.144159,-383.047749
3808.128356,-9548.656652,222.061783,-1072.533697
3808.128685,-10807.006753,-740.205942,766.095498
3808.129015,-9474.636058,-148.041188,1149.143247
3808.129345,-8586.388927,-888.247130,1225.752797
3808.129675,-8290.306550,-74.020594,0.000000
3808.130004,-8660.409521,0.000000,-995.924147
3808.130334,-11991.336260,0.000000,0.000000
3808.130664,-10658.965565,148.041188,919.314598
3808.130993,-9326.594869,-518.144159,1685.410096
3808.131323,-9252.574275,-370.102971,1838.629195
3808.131653,-8956.491898,296.082377,459.657299
3808.131983,-9622.677246,-592.164754,229.828649
3808.132312,-8734.430116,-370.102971,766.095498
3808.132642,-8142.265362,-74.020594,2068.457845
3808.132972,-10436.903782,666.185348,3524.039291
3808.133301,-9252.574275,740.205942,2374.896044
3808.133631,-9770.718434,222.061783,1149.143247
3808.133961,-11103.089130,814.226536,919.314598
3808.134291,-10881.027347,592.164754,0.000000
3808.134620,-10436.903782,518.144159,76.609550
3808.134950,-7254.018232,1258.350101,229.828649
3808.135280,-8142.265362,1406.391290,1378.971896
3808.135610,-10955.047942,2146.597232,2451.505594
3808.135939,-10066.800811,1776.494261,536.266849
3808.136269,-9918.759623,1258.350101,229.828649
3808.136599,-9104.533087,1702.473667,-306.438199
3808.136928,-9844.739029,1924.535449,766.095498
3808.137258,-11843.295072,1184.329507,2145.067394
3808.137588,-10214.842000,2072.576638,1762.019645
3808.137918,-8956.491898,592.164754,2221.676944
3808.138247,-10436.903782,1998.556043,1455.581446
3808.138577,-10288.862594,1998.556043,1072.533697
3808.138907,-9844.739029,1036.288319,2298.286494
3808.139236,-8216.285956,2516.700203,2145.067394
3808.139566,-8956.491898,2220.617826,1915.238745
3808.139896,-11399.171507,2368.659014,2374.896044
3808.140226,-10881.027347,3849.070898,1149.143247
3808.140555,-9844.739029,2220.617826,1532.190996
3808.140885,-10362.883188,2960.823768,2911.162892
3808.141215,-11325.150913,2960.823768,2298.286494
3808.141544,-11473.192101,1258.350101,3830.477490
3808.141874,-10214.842000,2368.659014,2298.286494
3808.142204,-8586.388927,2072.576638,1991.848295
3808.142534,-7920.203579,592.164754,2911.162892
3808.142863,-7994.224174,2886.803174,2451.505594
3808.143193,-7846.182985,1998.556043,3830.477490
3808.143523,-8882.471304,2664.741391,4903.011187
3808.143852,-10881.027347,4737.318029,3294.210641
3808.144182,-10510.924376,2220.617826,2374.896044
3808.144512,-10732.986159,2516.700203,1225.752797
3808.144842,-11177.109724,3256.906145,0.000000
3808.145171,-10584.944971,1258.350101,1378.971896
3808.145501,-9474.636058,3182.885551,0.000000
3808.145831,-7994.224174,2072.576638,-612.876398
3808.146160,-6661.853478,1184.329507,2145.067394
3808.146490,-8068.244768,2590.720797,3217.601092
3808.146820,-10807.006753,1480.411884,3524.039291
3808.147150,-8808.450710,666.185348,4136.915689
3808.147479,-9104.533087,2442.679609,3753.867940
3808.147809,-9844.739029,1998.556043,3294.210641
3808.148139,-11843.295072,2368.659014,3830.477490
3808.148468,-13249.686362,2886.803174,1455.581446
3808.148798,-11399.171507,1628.453072,1225.752797
3808.149128,-10881.027347,3182.885551,536.266849
3808.149458,-9696.697840,2442.679609,1149.143247
3808.149787,-8142.265362,1406.391290,1915.238745
3808.150117,-8364.327145,1998.556043,2374.896044
3808.150447,-9030.512492,1702.473667,2681.334243
3808.150777,-9770.718434,1554.432478,3447.429741
3808.151106,-10288.862594,1628.453072,2374.896044
3808.151436,-9030.512492,1258.350101,2451.505594
3808.151766,-9548.656652,2146.597232,3677.258390
3808.152095,-12287.418637,3478.967927,3294.210641
3808.152425,-11991.336260,2368.659014,2604.724693
3808.152755,-11103.089130,2220.617826,1685.410096
3808.153085,-10658.965565,1406.391290,1455.581446
3808.153414,-9104.533087,2516.700203,2528.115143
3808.153744,-8290.306550,740.205942,2911.162892
3808.154074,-7402.059420,0.000000,2834.553343
3808.154403,-6439.791695,1332.370696,2604.724693
3808.154733,-8068.244768,1036.288319,1225.752797
3808.155063,-8586.388927,2220.617826,-612.876398
3808.155393,-9030.512492,3034.844362,1455.581446
3808.155722,-11325.150913,3478.967927,2681.334243
3808.156052,-12139.377449,3627.009116,4596.572988
3808.156382,-11991.336260,3478.967927,3294.210641
3808.156711,-11399.171507,2442.679609,2298.286494
3808.157041,-9770.718434,2590.720797,2298.286494
3808.157371,-9918.759623,2368.659014,3294.210641
3808.157701,-8956.491898,1776.494261,2834.553343
3808.158030,-7476.080014,2368.659014,2528.115143
3808.158360,-8586.388927,2590.720797,1532.190996
3808.158690,-10584.944971,2886.803174,995.924147
3808.159019,-10510.924376,3627.009116,1991.848295
3808.159349,-9844.739029,2664.741391,1608.800546
3808.159679,-9548.656652,2812.782580,2298.286494
3808.160009,-10955.047942,2960.823768,3983.696590
3808.160338,-12065.356855,2368.659014,3524.039291
3808.160668,-10214.842000,1332.370696,3217.601092
3808.160998,-9252.574275,1702.473667,3370.820191
3808.161327,-9548.656652,1776.494261,2911.162892
3808.161657,-10288.862594,2220.617826,2451.505594
3808.161987,-9178.553681,2738.761985,1685.410096
3808.162317,-8660.409521,2294.638420,995.924147
3808.162646,-8734.430116,2812.782580,1532.190996
3808.162976,-9770.718434,2664.741391,919.314598
3808.163306,-9696.697840,3182.885551,-153.219100
3808.163635,-8142.265362,1628.453072,0.000000
3808.163965,-9326.594869,1628.453072,1455.581446
3808.164295,-9622.677246,1406.391290,2911.162892
3808.164625,-10066.800811,370.102971,3677.258390
3808.164954,-9548.656652,1776.494261,3217.601092
3808.165284,-8660.409521,1258.350101,2374.896044
3808.165614,-8364.327145,1702.473667,2221.676944
3808.165944,-7994.224174,2590.720797,2221.676944
3808.166273,-9178.553681,3034.844362,3600.648841
3808.166603,-10658.965565,4367.215058,2681.334243
3808.166933,-10510.924376,3478.967927,766.095498
3808.167262,-10955.047942,2664.741391,153.219100
3808.167592,-11695.253884,2368.659014,536.266849
3808.167922,-11621.233289,1628.453072,2374.896044
3808.168252,-10584.944971,1332.370696,3753.867940
3808.168581,-7772.162391,2072.576638,2681.334243
3808.168911,-7179.997637,1480.411884,2681.334243
3808.169241,-10140.821405,2960.823768,3600.648841
3808.169570,-9992.780217,2960.823768,3830.477490
3808.169900,-9992.780217,2960.823768,4903.011187
3808.170230,-11399.171507,4071.132681,4519.963438
3808.170560,-11917.315666,3182.885551,4366.744339
3808.170889,-12657.521608,2368.659014,3600.648841
3808.171219,-11769.274478,2368.659014,1762.019645
3808.171549,-11029.068536,518.144159,919.314598
3808.171878,-9474.636058,814.226536,2528.115143
3808.172208,-9696.697840,814.226536,3830.477490
3808.172538,-7550.100608,888.247130,3830.477490
3808.172868,-7031.956449,2146.597232,1991.848295
3808.173197,-7994.224174,1628.453072,689.485948
3808.173527,-9030.512492,1332.370696,1378.971896
3808.173857,-9992.780217,2368.659014,2911.162892
3808.174186,-9326.594869,1850.514855,4903.011187
3808.174516,-9696.697840,1258.350101,5745.716235
3808.174846,-10288.862594,2368.659014,4060.306139
3808.175176,-11695.253884,1776.494261,1838.629195
3808.175505,-12361.439231,2368.659014,-612.876398
3808.175835,-10510.924376,2368.659014,-842.705048
3808.176165,-8068.244768,1998.556043,1302.362347
3808.176494,-7846.182985,2294.638420,2451.505594
3808.176824,-7920.203579,1924.535449,1915.238745
3808.177154,-7698.141797,1628.453072,1685.410096
3808.177484,-7698.141797,2368.659014,612.876398
3808.177813,-8364.327145,2368.659014,306.438199
3808.178143,-10066.800811,2590.720797,1991.848295
3808.178473,-11843.295072,3182.885551,2834.553343
3808.178802,-11991.336260,2072.576638,3600.648841
3808.179132,-11547.212695,2368.659014,3217.601092
3808.179462,-10881.027347,1924.535449,1685.410096
3808.179792,-10807.006753,2220.617826,1762.019645
3808.180121,-10214.842000,2516.700203,2451.505594
3808.180451,-8512.368333,2368.659014,2068.457845
3808.180781,-7772.162391,2516.700203,2451.505594
3808.181111,-8438.347739,2960.823768,2221.676944
3808.181440,-10214.842000,3182.885551,1685.410096
3808.181770,-10807.006753,3478.967927,536.266849
3808.182100,-11547.212695,2812.782580,76.609550
3808.182429,-12065.356855,2146.597232,0.000000
3808.182759,-11695.253884,1406.391290,612.876398
3808.183089,-9178.553681,1110.308913,1455.581446
3808.183419,-7698.141797,592.164754,2604.724693
3808.183748,-6735.874072,444.123565,4366.744339
3808.184078,-7624.121203,1184.329507,4443.353888
3808.184408,-7920.203579,2072.576638,3830.477490
3808.184738,-8586.388927,2368.659014,2374.896044
3808.185067,-10066.800811,2738.761985,2298.286494
3808.185397,-11621.233289,3182.885551,2911.162892
3808.185727,-12361.439231,2664.741391,3064.381992
3808.186057,-11917.315666,2368.659014,2374.896044
3808.186387,-10732.986159,1924.535449,1072.533697
3808.186716,-9770.718434,1628.453072,459.657299
3808.187046,-9474.636058,2072.576638,1455.581446
3808.187376,-9104.533087,2072.576638,3140.991542
3808.187706,-8216.285956,1850.514855,4673.182538
3808.188035,-8068.244768,2072.576638,4213.525239
3808.188365,-9252.574275,2072.576638,1991.848295
3808.188695,-10140.821405,1480.411884,1378.971896
3808.189025,-10362.883188,1702.473667,1608.800546
3808.189355,-10955.047942,1406.391290,2987.772442
3808.189684,-10584.944971,1258.350101,3753.867940
3808.190014,-10955.047942,1702.473667,3217.601092
3808.190344,-9400.615463,2368.659014,2068.457845
3808.190674,-9918.759623,2590.720797,1225.752797
3808.191004,-9474.636058,2812.782580,1685.410096
3808.191333,-9548.656652,2220.617826,1991.848295
3808.191663,-10214.842000,2368.659014,2374.896044
3808.191993,-10362.883188,2516.700203,2374.896044
3808.192323,-10288.862594,1850.514855,1608.800546
3808.192653,-9400.615463,1406.391290,383.047749
3808.192982,-9474.636058,1406.391290,0.000000
3808.193312,-10214.842000,1406.391290,459.657299
3808.193642,-10362.883188,1036.288319,2298.286494
3808.193972,-9696.697840,740.205942,3370.820191
3808.194302,-9178.553681,814.226536,3140.991542
3808.194631,-8882.471304,666.185348,1762.019645
3808.194961,-9400.615463,222.061783,1532.190996
3808.195291,-9178.553681,518.144159,1378.971896
3808.195621,-9252.574275,740.205942,1991.848295
3808.195950,-9474.636058,1036.288319,1838.629195
3808.196280,-9030.512492,740.205942,1072.533697
3808.196610,-9178.553681,1110.308913,689.485948
3808.196940,-9918.759623,1850.514855,383.047749
3808.197270,-10510.924376,1332.370696,153.219100
3808.197599,-10066.800811,1184.329507,536.266849
3808.197929,-9252.574275,740.205942,1149.143247
3808.198259,-9104.533087,666.185348,1608.800546
3808.198589,-9326.594869,518.144159,2298.286494
3808.198919,-9252.574275,0.000000,2068.457845
3808.199248,-8808.450710,0.000000,1762.019645
3808.199578,-8808.450710,444.123565,2528.115143
3808.199908,-9400.615463,1110.308913,3370.820191
3808.200238,-9770.718434,1850.514855,4290.134789
3808.200568,-9696.697840,2146.597232,4213.525239
3808.200897,-10584.944971,2664.741391,3217.601092
3808.201227,-11547.212695,2812.782580,2068.457845
3808.201557,-12213.398043,2664.741391,1225.752797
3808.201887,-11843.295072,3034.844362,1532.190996
3808.202217,-10140.821405,2072.576638,2374.896044
3808.202546,-9326.594869,2146.597232,2757.943793
3808.202876,-8808.450710,1776.494261,3294.210641
3808.203206,-8290.306550,2368.659014,4213.525239
3808.203536,-8586.388927,2886.803174,4519.963438
3808.203865,-9548.656652,3552.988522,4596.572988
3808.204195,-10807.006753,3552.988522,4290.134789
3808.204525,-11547.212695,4145.153275,4596.572988
3808.204855,-11843.295072,3330.926739,3677.258390
3808.205185,-11399.171507,3182.885551,4366.744339
3808.205514,-10288.862594,2516.700203,3677.258390
3808.205844,-8956.491898,2368.659014,3370.820191
3808.206174,-8438.347739,2738.761985,2911.162892
3808.206504,-8068.244768,2886.803174,2528.115143
3808.206834,-7920.203579,3330.926739,3064.381992
3808.207163,-8364.327145,3923.091493,3447.429741
3808.207493,-9178.553681,4441.235652,3447.429741
3808.207823,-9548.656652,4589.276840,3600.648841
3808.208153,-10658.965565,4737.318029,3524.039291
3808.208483,-10732.986159,4737.318029,2987.772442
3808.208812,-10955.047942,4737.318029,2451.505594
3808.209142,-11103.089130,4293.194464,2221.676944
3808.209472,-10066.800811,4071.132681,2298.286494
3808.209802,-8734.430116,3627.009116,2911.162892
3808.210132,-8512.368333,3849.070898,2528.115143
3808.210461,-9178.553681,3775.050304,2068.457845
3808.210791,-8660.409521,3627.009116,1225.752797
3808.211121,-7772.162391,3627.009116,1302.362347
3808.211451,-8290.306550,4293.194464,2221.676944
3808.211780,-9770.718434,4885.359217,3294.210641
3808.212110,-10140.821405,5033.400406,2681.334243
3808.212440,-11399.171507,5255.462188,1149.143247
3808.212770,-11399.171507,4515.256246,-153.219100
3808.213100,-11769.274478,3849.070898,306.438199
3808.213429,-11177.109724,3034.844362,2757.943793
3808.213759,-10288.862594,3330.926739,2834.553343
3808.214089,-8512.368333,2664.741391,1838.629195
3808.214419,-7624.121203,2664.741391,383.047749
3808.214749,-7994.224174,3034.844362,383.047749
3808.215078,-8882.471304,3478.967927,842.705048
3808.215408,-9400.615463,3552.988522,1532.190996
3808.215738,-9696.697840,3256.906145,2451.505594
3808.216068,-10362.883188,2812.782580,2911.162892
3808.216398,-11843.295072,2368.659014,2451.505594
3808.216727,-11695.253884,1702.473667,1225.752797
3808.217057,-10955.047942,1258.350101,1149.143247
3808.217387,-9548.656652,1036.288319,1838.629195
3808.217717,-8586.388927,888.247130,3064.381992
3808.218047,-8882.471304,1998.556043,3677.258390
3808.218376,-7994.224174,1554.432478,3140.991542
3808.218706,-8734.430116,2368.659014,1608.800546
3808.219036,-9992.780217,1924.535449,842.705048
3808.219366,-10881.027347,1332.370696,995.924147
3808.219695,-10510.924376,1258.350101,2451.505594
3808.220025,-10288.862594,740.205942,3447.429741
3808.220355,-9844.739029,-148.041188,3217.601092
3808.220685,-10955.047942,-962.267725,2221.676944
3808.221015,-9622.677246,-444.123565,1762.019645
3808.221344,-9622.677246,-962.267725,2911.162892
3808.221674,-9918.759623,222.061783,3140.991542
3808.222004,-9326.594869,-296.082377,2834.553343
3808.222334,-9474.636058,-296.082377,1915.238745
3808.222664,-8512.368333,-444.123565,1225.752797
3808.222993,-9252.574275,-740.205942,1378.971896
3808.223323,-10066.800811,-370.102971,536.266849
3808.223653,-9622.677246,-888.247130,689.485948
3808.223983,-9844.739029,-1184.329507,2374.896044
3808.224313,-9696.697840,-518.144159,3064.381992
3808.224642,-10140.821405,-666.185348,3370.820191
3808.224972,-9548.656652,-814.226536,3140.991542
3808.225302,-9326.594869,-222.061783,2911.162892
3808.225632,-9178.553681,222.061783,3907.087040
3808.225961,-9474.636058,666.185348,4290.134789
3808.226291,-10066.800811,1554.432478,2834.553343
3808.226621,-9844.739029,1184.329507,2068.457845
3808.226951,-10214.842000,1702.473667,919.314598
3808.227281,-10658.965565,1332.370696,1149.143247
3808.227610,-10807.006753,1480.411884,1608.800546
3808.227940,-10658.965565,1406.391290,2528.115143
3808.228270,-8956.491898,1036.288319,2911.162892
3808.228600,-7550.100608,1406.391290,2528.115143
3808.228930,-8364.327145,1850.514855,1455.581446
3808.229259,-9252.574275,2294.638420,2451.505594
3808.229589,-9252.574275,1702.473667,3907.087040
3808.229919,-9400.615463,2442.679609,4596.572988
3808.230249,-9178.553681,2664.741391,4903.011187
3808.230579,-11177.109724,3552.988522,4596.572988
3808.230908,-11103.089130,3775.050304,3370.820191
3808.231238,-10436.903782,3997.112087,2451.505594
3808.231568,-10362.883188,5181.441594,1838.629195
3808.231898,-10214.842000,4885.359217,2298.286494
3808.232228,-10510.924376,4737.318029,2221.676944
3808.232557,-9992.780217,4737.318029,2451.505594
3808.232887,-9252.574275,4737.318029,2374.896044
3808.233217,-9104.533087,4441.235652,2145.067394
3808.233547,-9918.759623,4663.297435,1685.410096
3808.233876,-9992.780217,4589.276840,2298.286494
3808.234206,-8660.409521,4293.194464,3064.381992
3808.234536,-9992.780217,4737.318029,2987.772442
3808.234866,-10732.986159,4367.215058,2528.115143
3808.235196,-11029.068536,4293.194464,1838.629195
3808.235525,-10955.047942,4293.194464,1302.362347
3808.235855,-10362.883188,3256.906145,306.438199
3808.236185,-9622.677246,2812.782580,1302.362347
3808.236515,-8734.430116,2368.659014,1378.971896
3808.236845,-7994.224174,2812.782580,1532.190996
3808.237174,-7031.956449,2738.761985,766.095498
3808.237504,-7105.977043,2886.803174,612.876398
3808.237834,-8586.388927,3923.091493,612.876398
3808.238164,-9252.574275,3849.070898,919.314598
3808.238494,-9992.780217,4071.132681,2451.505594
3808.238823,-10881.027347,3701.029710,3294.210641
3808.239153,-11769.274478,3552.988522,2757.943793
3808.239483,-11103.089130,3404.947333,2451.505594
3808.239813,-10807.006753,3108.864956,1838.629195
3808.240143,-9770.718434,3182.885551,842.705048
3808.240472,-8438.347739,3182.885551,536.266849
3808.240802,-8512.368333,2812.782580,1302.362347
3808.241132,-8512.368333,2294.638420,2145.067394
3808.241462,-8734.430116,2738.761985,3140.991542
3808.241791,-9548.656652,2368.659014,4060.306139
3808.242121,-10510.924376,1776.494261,3600.648841
3808.242451,-9844.739029,1628.453072,3064.381992
3808.242781,-10436.903782,1110.308913,2604.724693
3808.243111,-10732.986159,1332.370696,3600.648841
3808.243440,-10658.965565,1406.391290,3907.087040
3808.243770,-11843.295072,1702.473667,2528.115143
3808.244100,-11177.109724,1628.453072,2068.457845
3808.244430,-10436.903782,1110.308913,919.314598
3808.244760,-9992.780217,370.102971,-612.876398
3808.245089,-9696.697840,-740.205942,-1302.362347
3808.245419,-8734.430116,-1258.350101,-536.266849
3808.245749,-8068.244768,-1036.288319,0.000000
3808.246079,-7994.224174,-740.205942,536.266849
3808.246409,-9918.759623,-592.164754,919.314598
3808.246738,-9474.636058,-1110.308913,1762.019645
3808.247068,-9178.553681,-1480.411884,1991.848295
3808.247398,-10436.903782,-1480.411884,3677.258390
3808.247728,-11843.295072,-962.267725,4749.792088
3808.248058,-10584.944971,-2072.576638,5056.230287
3808.248387,-9252.574275,-2146.597232,3447.429741
3808.248717,-9030.512492,-2072.576638,2757.943793
3808.249047,-9252.574275,-1850.514855,2298.286494
3808.249377,-8882.471304,-814.226536,1072.533697
3808.249706,-8068.244768,-74.020594,153.219100
3808.250036,-8512.368333,222.061783,459.657299
3808.250366,-10807.006753,1258.350101,-536.266849
3808.250696,-11399.171507,962.267725,-383.047749
3808.251026,-11621.233289,518.144159,-995.924147
3808.251355,-11103.089130,370.102971,-995.924147
3808.251685,-9474.636058,-814.226536,306.438199
3808.252015,-9622.677246,-518.144159,2221.676944
3808.252345,-9622.677246,0.000000,2298.286494
3808.252675,-10955.047942,0.000000,919.314598
3808.253004,-10584.944971,814.226536,-2145.067394
3808.253334,-9770.718434,222.061783,-3677.258390
3808.253664,-10288.862594,592.164754,-3983.696590
3808.253994,-10658.965565,444.123565,-3217.601092
3808.254324,-9622.677246,-222.061783,-1991.848295
3808.254653,-8512.368333,-814.226536,-2068.457845
3808.254983,-7994.224174,-1184.329507,-2528.115143
3808.255313,-7772.162391,-2294.638420,-1149.143247
3808.255643,-8956.491898,-1628.453072,-383.047749
3808.255973,-8364.327145,-1554.432478,0.000000
3808.256302,-8956.491898,-1332.370696,1762.019645
3808.256632,-9622.677246,-222.061783,2528.115143
3808.256962,-9474.636058,-370.102971,1532.190996
3808.257292,-9252.574275,740.205942,536.266849
3808.257621,-9474.636058,962.267725,-842.705048
3808.257951,-9474.636058,740.205942,-842.705048
3808.258281,-9400.615463,740.205942,536.266849
3808.258611,-9474.636058,592.164754,1838.629195
3808.258941,-8956.491898,740.205942,2681.334243
3808.259270,-9622.677246,1554.432478,1915.238745
3808.259600,-10584.944971,1332.370696,0.000000
3808.259930,-10436.903782,2664.741391,-842.705048
3808.260260,-9770.718434,4071.132681,-76.609550
3808.260590,-12435.459826,5255.462188,-536.266849
3808.260919,-13249.686362,4959.379811,-1149.143247
3808.261249,-13471.748144,3108.864956,-1991.848295
3808.261579,-10732.986159,1776.494261,-2068.457845
3808.261909,-9918.759623,0.000000,-1072.533697
3808.262239,-9178.553681,-1406.391290,459.657299
3808.262568,-7105.977043,-740.205942,2374.896044
3808.262898,-8290.306550,592.164754,1915.238745
3808.263228,-9030.512492,0.000000,-306.438199
3808.263558,-10214.842000,-296.082377,-2911.162892
3808.263888,-8660.409521,-1332.370696,-1991.848295
3808.264217,-7772.162391,-666.185348,612.876398
3808.264547,-8512.368333,-1258.350101,4060.306139
3808.264877,-9548.656652,-1850.514855,4903.011187
3808.265207,-9252.574275,-1184.329507,2834.553343
3808.265536,-8512.368333,-1480.411884,-612.876398
3808.265866,-10214.842000,-814.226536,-2221.676944
3808.266196,-9252.574275,296.082377,536.266849
3808.266526,-9474.636058,296.082377,3217.601092
3808.266856,-9178.553681,370.102971,3217.601092
3808.267185,-8882.471304,740.205942,1915.238745
3808.267515,-10584.944971,1258.350101,-459.657299
3808.267845,-11029.068536,2294.638420,-1378.971896
3808.268175,-11325.150913,1998.556043,-995.924147
3808.268505,-11843.295072,2368.659014,766.095498
3808.268834,-10288.862594,2220.617826,1378.971896
3808.269164,-10658.965565,1258.350101,1072.533697
3808.269494,-10140.821405,296.082377,-689.485948
3808.269824,-10436.903782,-370.102971,-995.924147
3808.270154,-10362.883188,-518.144159,-383.047749
3808.270483,-9918.759623,-296.082377,689.485948
3808.270813,-9696.697840,-666.185348,919.314598
3808.271143,-9252.574275,-1110.308913,842.705048
3808.271473,-9326.594869,-814.226536,-766.095498
3808.271803,-10066.800811,-1628.453072,-689.485948
3808.272132,-8364.327145,-2368.659014,-1378.971896
3808.272462,-7550.100608,-2516.700203,766.095498
3808.272792,-8290.306550,-1998.556043,2911.162892
3808.273122,-9622.677246,-1480.411884,2834.553343
3808.273451,-11547.212695,-962.267725,842.705048
3808.273781,-10807.006753,-518.144159,-842.705048
3808.274111,-10066.800811,-518.144159,-2298.286494
3808.274441,-9770.718434,444.123565,-1302.362347
3808.274771,-9844.739029,0.000000,-306.438199
3808.275100,-9326.594869,-148.041188,1072.533697
3808.275430,-8512.368333,370.102971,0.000000
3808.275760,-9178.553681,74.020594,-1149.143247
3808.276090,-11177.109724,0.000000,-2298.286494
3808.276420,-10881.027347,518.144159,-1838.629195
3808.276749,-9696.697840,444.123565,459.657299
3808.277079,-9770.718434,-370.102971,766.095498
3808.277409,-9178.553681,370.102971,1455.581446
3808.277739,-9696.697840,814.226536,612.876398
3808.278069,-10362.883188,740.205942,-995.924147
3808.278398,-11029.068536,1036.288319,-1991.848295
3808.278728,-11029.068536,370.102971,-1685.410096
3808.279058,-10140.821405,-592.164754,-689.485948
3808.279388,-10066.800811,-740.205942,1149.143247
3808.279718,-10066.800811,-1110.308913,842.705048
3808.280047,-9770.718434,-1628.453072,-2528.115143
3808.280377,-7846.182985,-1184.329507,-3600.648841
3808.280707,-7254.018232,-1406.391290,-2374.896044
3808.281037,-8882.471304,-1036.288319,76.609550
3808.281366,-9474.636058,0.000000,2987.772442
3808.281696,-10140.821405,-888.247130,2911.162892
3808.282026,-9622.677246,-814.226536,1762.019645
3808.282356,-9548.656652,-1184.329507,689.485948
3808.282686,-9918.759623,-1776.494261,1149.143247
3808.283015,-9326.594869,-1110.308913,2221.676944
3808.283345,-8808.450710,-740.205942,2911.162892
3808.283675,-9474.636058,0.000000,2374.896044
3808.284005,-9474.636058,0.000000,1455.581446
3808.284335,-10066.800811,888.247130,766.095498
3808.284664,-10362.883188,1628.453072,-1072.533697
3808.284994,-10732.986159,1628.453072,-1378.971896
3808.285324,-9918.759623,1332.370696,-153.219100
3808.285654,-9178.553681,1406.391290,383.047749
3808.285983,-9696.697840,1258.350101,1302.362347
3808.286313,-11399.171507,1406.391290,459.657299
3808.286643,-11547.212695,1406.391290,-383.047749
3808.286973,-10881.027347,740.205942,-1225.752797
3808.287303,-9918.759623,0.000000,-459.657299
3808.287632,-11029.068536,-296.082377,1225.752797
3808.287962,-11325.150913,-740.205942,1838.629195
3808.288292,-9548.656652,-518.144159,995.924147
3808.288622,-8290.306550,-222.061783,0.000000
3808.288951,-8364.327145,-296.082377,-1149.143247
3808.289281,-8734.430116,-814.226536,-1378.971896
3808.289611,-8438.347739,-296.082377,536.266849
3808.289941,-7846.182985,148.041188,689.485948
3808.290271,-10214.842000,296.082377,2681.334243
3808.290600,-10658.965565,0.000000,2451.505594
3808.290930,-9622.677246,0.000000,2221.676944
3808.291260,-9622.677246,518.144159,1378.971896
3808.291590,-9474.636058,518.144159,612.876398
3808.291919,-10732.986159,814.226536,1302.362347
3808.292249,-9326.594869,518.144159,1532.190996
3808.292579,-8660.409521,1332.370696,383.047749
3808.292909,-9104.533087,1406.391290,-689.485948
3808.293239,-9326.594869,1776.494261,-1762.019645
3808.293568,-8808.450710,1924.535449,-1915.238745
3808.293898,-9178.553681,1850.514855,-306.438199
3808.294228,-9696.697840,3330.926739,1225.752797
3808.294558,-11843.295072,3034.844362,612.876398
3808.294887,-12287.418637,3034.844362,-2145.067394
3808.295217,-11769.274478,1702.473667,-4060.306139
3808.295547,-11695.253884,1702.473667,-3830.477490
3808.295877,-10955.047942,370.102971,-2451.505594
3808.296207,-9622.677246,-518.144159,-766.095498
3808.296536,-8660.409521,-370.102971,842.705048
3808.296866,-7994.224174,0.000000,-536.266849
3808.297196,-8216.285956,370.102971,-2374.896044
3808.297526,-8808.450710,-444.123565,-3524.039291
3808.297856,-9622.677246,-1110.308913,-2145.067394
3808.298185,-9844.739029,-1184.329507,1762.019645
3808.298515,-8734.430116,-1776.494261,4213.525239
3808.298845,-9474.636058,-2442.679609,5209.449386
3808.299175,-9178.553681,-2072.576638,4366.744339
3808.299504,-9696.697840,-2294.638420,3064.381992
3808.299834,-9696.697840,-1258.350101,1302.362347
3808.300164,-9696.697840,-1406.391290,2298.286494
3808.300494,-10362.883188,-148.041188,3370.820191
3808.300824,-9474.636058,-444.123565,3294.210641
3808.301153,-8290.306550,-370.102971,1915.238745
3808.301483,-9104.533087,592.164754,-612.876398
3808.301813,-10214.842000,1332.370696,-2451.505594
3808.302143,-10436.903782,1554.432478,-2757.943793
3808.302472,-10288.862594,1628.453072,-2451.505594
3808.302802,-10436.903782,1702.473667,0.000000
3808.303132,-12657.521608,1036.288319,1532.190996
3808.303462,-13249.686362,1110.308913,1149.143247
3808.303792,-11843.295072,0.000000,-842.705048
3808.304121,-8512.368333,-888.247130,-1915.238745
3808.304451,-9030.512492,-1258.350101,-1685.410096
3808.304781,-9474.636058,-1184.329507,459.657299
3808.305111,-9770.718434,-740.205942,689.485948
3808.305440,-9548.656652,-1258.350101,229.828649
3808.305770,-9104.533087,-2368.659014,-1455.581446
3808.306100,-7624.121203,-1628.453072,-2068.457845
3808.306430,-8660.409521,-2442.679609,-1149.143247
3808.306760,-9992.780217,-2220.617826,1225.752797
3808.307089,-10362.883188,-1406.391290,2528.115143
3808.307419,-9622.677246,-1554.432478,1455.581446
3808.307749,-8734.430116,-1554.432478,995.924147
3808.308079,-9326.594869,-1480.411884,766.095498
3808.308408,-9548.656652,-1036.288319,1608.800546
3808.308738,-9252.574275,0.000000,1149.143247
3808.309068,-9474.636058,0.000000,689.485948
3808.309398,-8734.430116,74.020594,229.828649
3808.309728,-8142.265362,1036.288319,229.828649
3808.310057,-11177.109724,1850.514855,1532.190996
3808.310387,-12213.398043,2368.659014,-689.485948
3808.310717,-12139.377449,2146.597232,-1991.848295
3808.311047,-9918.759623,1554.432478,-2068.457845
3808.311376,-8364.327145,1332.370696,-842.705048
3808.311706,-9030.512492,1628.453072,1532.190996
3808.312036,-9992.780217,1998.556043,2145.067394
3808.312366,-10214.842000,1702.473667,306.438199
3808.312696,-9622.677246,2072.576638,-2298.286494
3808.313025,-10066.800811,1258.350101,-3294.210641
3808.313355,-12583.501014,740.205942,-1072.533697
3808.313685,-12361.439231,148.041188,995.924147
3808.314015,-9104.533087,222.061783,1225.752797
3808.314344,-8068.244768,-740.205942,-229.828649
3808.314674,-7772.162391,-1036.288319,-1608.800546
3808.315004,-8956.491898,-1406.391290,-1915.238745
3808.315334,-8438.347739,-518.144159,306.438199
3808.315664,-8660.409521,-370.102971,2451.505594
3808.315993,-9400.615463,0.000000,3753.867940
3808.316323,-9030.512492,-296.082377,3064.381992
3808.316653,-9696.697840,518.144159,1762.019645
3808.316983,-10807.006753,0.000000,229.828649
3808.317312,-10658.965565,-296.082377,-153.219100
3808.317642,-10658.965565,0.000000,1455.581446
3808.317972,-8734.430116,222.061783,2911.162892
3808.318302,-8068.244768,740.205942,2145.067394
3808.318632,-9474.636058,666.185348,842.705048
3808.318961,-10066.800811,1480.411884,-1072.533697
3808.319291,-9770.718434,1924.535449,-1302.362347
3808.319621,-9030.512492,3108.864956,-995.924147
3808.319951,-10362.883188,3404.947333,0.000000
3808.320280,-13101.645173,3182.885551,0.000000
3808.320610,-12065.356855,2442.679609,-1072.533697
3808.320940,-11473.192101,740.205942,-2298.286494
3808.321270,-11177.109724,-222.061783,-2145.067394
3808.321600,-9844.739029,-1554.432478,153.219100
3808.321929,-9400.615463,-1184.329507,1838.629195
3808.322259,-8068.244768,-1702.473667,1762.019645
3808.322589,-9178.553681,-1332.370696,612.876398
3808.322919,-10140.821405,-1406.391290,229.828649
3808.323248,-7772.162391,-2368.659014,-2068.457845
3808.323578,-7105.977043,-1480.411884,-1762.019645
3808.323908,-7994.224174,-1036.288319,1072.533697
3808.324238,-9770.718434,-1110.308913,2757.943793
3808.324568,-10658.965565,-1628.453072,1991.848295
3808.324897,-10214.842000,-518.144159,-766.095498
3808.325227,-10881.027347,-1036.288319,-919.314598
3808.325557,-10658.965565,74.020594,-229.828649
3808.325887,-11029.068536,-444.123565,842.705048
3808.326217,-9622.677246,-740.205942,1991.848295
3808.326546,-7772.162391,148.041188,1455.581446
3808.326876,-9104.533087,-74.020594,0.000000
3808.327206,-10584.944971,888.247130,-383.047749
3808.327536,-9622.677246,1036.288319,-536.266849
3808.327865,-11103.089130,1628.453072,-536.266849
3808.328195,-10732.986159,1406.391290,-766.095498
3808.328525,-10658.965565,1332.370696,229.828649
3808.328855,-11251.130318,814.226536,919.314598
3808.329185,-11769.274478,962.267725,-153.219100
3808.329514,-12657.521608,592.164754,-689.485948
3808.329844,-9326.594869,0.000000,-1838.629195
3808.330174,-7550.100608,-888.247130,-2068.457845
3808.330504,-8438.347739,-888.247130,0.000000
3808.330833,-9622.677246,-740.205942,1378.971896
3808.331163,-10510.924376,-962.267725,1149.143247
3808.331493,-8438.347739,-1036.288319,-1685.410096
3808.331823,-7105.977043,-1924.535449,-1608.800546
3808.332153,-8586.388927,-1998.556043,919.314598
3808.332482,-9104.533087,-888.247130,2451.505594
3808.332812,-9844.739029,-1110.308913,2987.772442
3808.333142,-10436.903782,-962.267725,2221.676944
3808.333472,-9400.615463,-518.144159,766.095498
3808.333801,-8956.491898,-962.267725,153.219100
3808.334131,-8290.306550,0.000000,536.266849
3808.334461,-8956.491898,296.082377,1225.752797
3808.334791,-8882.471304,740.205942,1532.190996
3808.335121,-8660.409521,1258.350101,689.485948
3808.335450,-10658.965565,1480.411884,-766.095498
3808.335780,-11103.089130,1776.494261,-1378.971896
3808.336110,-11251.130318,2220.617826,-1378.971896
3808.336440,-10288.862594,2220.617826,-842.705048
3808.336769,-9252.574275,3034.844362,-306.438199
3808.337099,-10140.821405,2294.638420,536.266849
3808.337429,-11547.212695,2294.638420,0.000000
3808.337759,-11473.192101,2220.617826,0.000000
3808.338089,-11325.150913,1332.370696,-1149.143247
3808.338418,-10066.800811,666.185348,-1991.848295
3808.338748,-9770.718434,0.000000,76.609550
3808.339078,-10066.800811,296.082377,919.314598
3808.339408,-10362.883188,-814.226536,-76.609550
3808.339737,-10214.842000,-296.082377,-383.047749
3808.340067,-9844.739029,-518.144159,0.000000
3808.340397,-9770.718434,-814.226536,-306.438199
3808.340727,-8216.285956,-1850.514855,76.609550
3808.341057,-7402.059420,-2220.617826,1532.190996
3808.341386,-8586.388927,-1850.514855,3370.820191
3808.341716,-8882.471304,-1332.370696,3140.991542
3808.342046,-9178.553681,-370.102971,1915.238745
3808.342376,-8512.368333,-666.185348,612.876398
3808.342705,-8438.347739,0.000000,153.219100
3808.343035,-10807.006753,296.082377,1378.971896
3808.343365,-11621.233289,0.000000,2068.457845
3808.343695,-10584.944971,-222.061783,1685.410096
3808.344025,-9918.759623,-666.185348,153.219100
3808.344354,-9104.533087,-666.185348,-612.876398
3808.344684,-8586.388927,962.267725,-1149.143247
