#time,accel_x,accel_y,accel_z
3705.776790,-10807.006753,-1480.411884,-3370.820191
3705.777120,-10584.944971,-888.247130,-3064.381992
3705.777450,-11325.150913,-1332.370696,-1685.410096
3705.777779,-10658.965565,-1332.370696,-1302.362347
3705.778109,-9770.718434,-1998.556043,-1378.971896
3705.778439,-9178.553681,-1702.473667,-2604.724693
3705.778769,-8586.388927,-1554.432478,-2451.505594
3705.779098,-9474.636058,-1036.288319,-1991.848295
3705.779428,-9326.594869,0.000000,0.000000
3705.779758,-8808.450710,-444.123565,0.000000
3705.780088,-9252.574275,370.102971,-536.266849
3705.780417,-9844.739029,-370.102971,-1302.362347
3705.780747,-10658.965565,148.041188,-842.705048
3705.781077,-10362.883188,-444.123565,-1225.752797
3705.781407,-9696.697840,-296.082377,-1608.800546
3705.781736,-8956.491898,-1036.288319,-1685.410096
3705.782066,-9326.594869,-296.082377,-1915.238745
3705.782396,-9474.636058,-74.020594,-1378.971896
3705.782726,-9918.759623,148.041188,-1378.971896
3705.783055,-9696.697840,370.102971,-1532.190996
3705.783385,-9696.697840,740.205942,-1608.800546
3705.783715,-10066.800811,888.247130,229.828649
3705.784044,-9474.636058,296.082377,153.219100
3705.784374,-11177.109724,296.082377,-1915.238745
3705.784704,-10658.965565,-888.247130,-3217.601092
3705.785034,-9030.512492,-1258.350101,-1532.190996
3705.785363,-10362.883188,-962.267725,-766.095498
3705.785693,-10732.986159,-1036.288319,-919.314598
3705.786023,-9326.594869,-1258.350101,-1378.971896
3705.786353,-8216.285956,-1110.308913,-1991.848295
3705.786682,-9178.553681,-1258.350101,-1762.019645
3705.787012,-9548.656652,-370.102971,383.047749
3705.787342,-9918.759623,-74.020594,383.047749
3705.787672,-10288.862594,-74.020594,-1532.190996
3705.788001,-11621.233289,-814.226536,-3140.991542
3705.788331,-11547.212695,-1036.288319,-3753.867940
3705.788661,-11547.212695,-2146.597232,-3907.087040
3705.788991,-10510.924376,-3034.844362,-3447.429741
3705.789320,-8734.430116,-3627.009116,-3217.601092
3705.789650,-7994.224174,-4071.132681,-2145.067394
3705.789980,-8364.327145,-3330.926739,-1378.971896
3705.790309,-8586.388927,-2812.782580,-919.314598
3705.790639,-9326.594869,-2516.700203,-1762.019645
3705.790969,-9474.636058,-3034.844362,-2298.286494
3705.791299,-9844.739029,-3404.947333,-1762.019645
3705.791628,-10510.924376,-3404.947333,-229.828649
3705.791958,-11399.171507,-3478.967927,-1149.143247
3705.792288,-11843.295072,-3256.906145,-3370.820191
3705.792618,-11177.109724,-3923.091493,-6511.811733
3705.792947,-10658.965565,-4663.297435,-7124.688131
3705.793277,-9918.759623,-4959.379811,-5592.497135
3705.793607,-9178.553681,-5699.585753,-3983.696590
3705.793937,-8216.285956,-5847.626942,-2834.553343
3705.794266,-6069.688724,-5551.544565,-1915.238745
3705.794596,-6291.750507,-4885.359217,-229.828649
3705.794926,-8660.409521,-4071.132681,-919.314598
3705.795256,-10807.006753,-3182.885551,-1302.362347
3705.795585,-12065.356855,-2960.823768,-2221.676944
3705.795915,-13027.624579,-3775.050304,-3370.820191
3705.796245,-12509.480420,-4811.338623,-2681.334243
3705.796574,-11621.233289,-5773.606348,-2145.067394
3705.796904,-10140.821405,-6439.791695,-2298.286494
3705.797234,-8142.265362,-6809.894666,-2757.943793
3705.797564,-6365.771101,-5403.503377,-2987.772442
3705.797893,-6587.832884,-4071.132681,-2604.724693
3705.798223,-8364.327145,-2664.741391,-2834.553343
3705.798553,-9992.780217,-2738.761985,-3677.258390
3705.798883,-10510.924376,-2664.741391,-3600.648841
3705.799212,-10362.883188,-3182.885551,-2528.115143
3705.799542,-11177.109724,-4589.276840,-766.095498
3705.799872,-11695.253884,-4589.276840,229.828649
3705.800202,-10881.027347,-4737.318029,-153.219100
3705.800532,-9992.780217,-4219.173869,-1685.410096
3705.800862,-9474.636058,-4145.153275,-2451.505594
3705.801191,-10066.800811,-3256.906145,-1378.971896
3705.801521,-9474.636058,-3034.844362,-383.047749
3705.801851,-8808.450710,-2368.659014,76.609550
3705.802181,-9030.512492,-1924.535449,-383.047749
3705.802511,-9252.574275,-1110.308913,-3140.991542
3705.802840,-9474.636058,-1406.391290,-4749.792088
3705.803170,-9474.636058,-1924.535449,-4290.134789
3705.803500,-9844.739029,-2072.576638,-1838.629195
3705.803830,-10881.027347,-1776.494261,1532.190996
3705.804160,-11103.089130,-1702.473667,2604.724693
3705.804490,-11325.150913,-2146.597232,1225.752797
3705.804819,-10140.821405,-1480.411884,-2298.286494
3705.805149,-9030.512492,-2294.638420,-2834.553343
3705.805479,-7994.224174,-296.082377,919.314598
3705.805809,-9474.636058,518.144159,3370.820191
3705.806139,-9622.677246,1776.494261,1378.971896
3705.806469,-7994.224174,1110.308913,-2451.505594
3705.806798,-8512.368333,592.164754,-5286.058936
3705.807128,-11251.130318,814.226536,-4903.011187
3705.807458,-12435.459826,666.185348,-1532.190996
3705.807788,-11843.295072,1036.288319,919.314598
3705.808118,-8586.388927,444.123565,459.657299
3705.808447,-7846.182985,0.000000,-612.876398
3705.808777,-9252.574275,0.000000,-842.705048
3705.809107,-10807.006753,1110.308913,1072.533697
3705.809437,-10584.944971,1258.350101,1072.533697
3705.809767,-8882.471304,2368.659014,229.828649
3705.810097,-8364.327145,1850.514855,229.828649
3705.810426,-9548.656652,1628.453072,153.219100
3705.810756,-11251.130318,2368.659014,-306.438199
3705.811086,-13101.645173,1998.556043,-1455.581446
3705.811416,-11769.274478,2294.638420,-3370.820191
3705.811746,-8956.491898,740.205942,-3753.867940
3705.812075,-8216.285956,0.000000,-1378.971896
3705.812405,-9178.553681,592.164754,1225.752797
3705.812735,-10658.965565,666.185348,383.047749
3705.813065,-8216.285956,592.164754,-1685.410096
3705.813395,-6513.812290,518.144159,-2604.724693
3705.813725,-7550.100608,962.267725,1072.533697
3705.814054,-10955.047942,1924.535449,2987.772442
3705.814384,-13027.624579,1776.494261,1532.190996
3705.814714,-11103.089130,740.205942,-2681.334243
3705.815044,-9548.656652,296.082377,-3447.429741
3705.815374,-10436.903782,148.041188,-1302.362347
3705.815704,-10955.047942,-518.144159,766.095498
3705.816033,-10584.944971,0.000000,842.705048
3705.816363,-8660.409521,-962.267725,-766.095498
3705.816693,-7846.182985,-666.185348,-1149.143247
3705.817023,-9474.636058,-444.123565,-459.657299
3705.817353,-10955.047942,-370.102971,-612.876398
3705.817682,-10658.965565,444.123565,-1378.971896
3705.818012,-8734.430116,-962.267725,-1762.019645
3705.818342,-9030.512492,-1110.308913,-229.828649
3705.818672,-10732.986159,-1406.391290,536.266849
3705.819002,-11695.253884,-1924.535449,766.095498
3705.819332,-9696.697840,-2368.659014,0.000000
3705.819661,-9030.512492,-2590.720797,229.828649
3705.819991,-9548.656652,-2442.679609,1455.581446
3705.820321,-10658.965565,-2516.700203,2221.676944
3705.820651,-9770.718434,-1924.535449,1455.581446
3705.820981,-7254.018232,-2886.803174,-229.828649
3705.821310,-7402.059420,-1998.556043,0.000000
3705.821640,-10362.883188,-1036.288319,1838.629195
3705.821970,-12657.521608,-592.164754,2451.505594
3705.822300,-10584.944971,-1184.329507,153.219100
3705.822630,-8660.409521,-1776.494261,-1378.971896
3705.822960,-9992.780217,-1628.453072,-842.705048
3705.823289,-12731.542202,-1628.453072,1838.629195
3705.823619,-11547.212695,-1480.411884,1455.581446
3705.823949,-7402.059420,-3034.844362,-1072.533697
3705.824279,-5921.647536,-1850.514855,-919.314598
3705.824609,-9104.533087,-1332.370696,766.095498
3705.824938,-11843.295072,0.000000,3294.210641
3705.825268,-9992.780217,-222.061783,3294.210641
3705.825598,-7846.182985,-518.144159,689.485948
3705.825928,-8660.409521,-444.123565,229.828649
3705.826258,-12583.501014,-296.082377,1532.190996
3705.826588,-13323.706956,-148.041188,2757.943793
3705.826917,-10658.965565,-962.267725,1608.800546
3705.827247,-7994.224174,-666.185348,-842.705048
3705.827577,-8290.306550,-518.144159,-1455.581446
3705.827907,-10066.800811,444.123565,-229.828649
3705.828237,-9844.739029,814.226536,1455.581446
3705.828567,-8438.347739,1998.556043,1762.019645
3705.828896,-9104.533087,1702.473667,766.095498
3705.829226,-10436.903782,1702.473667,-383.047749
3705.829556,-11325.150913,1480.411884,0.000000
3705.829886,-10807.006753,1110.308913,-153.219100
3705.830216,-9992.780217,814.226536,-153.219100
3705.830545,-10362.883188,370.102971,-995.924147
3705.830875,-10140.821405,518.144159,-612.876398
3705.831205,-9474.636058,740.205942,-229.828649
3705.831535,-8586.388927,962.267725,-766.095498
3705.831865,-8364.327145,1110.308913,-1149.143247
3705.832195,-9992.780217,1702.473667,-766.095498
3705.832524,-9474.636058,1702.473667,-612.876398
3705.832854,-8438.347739,1480.411884,229.828649
3705.833184,-8290.306550,1850.514855,-1455.581446
3705.833514,-10066.800811,1702.473667,-2451.505594
3705.833844,-10510.924376,1406.391290,-1991.848295
3705.834173,-9696.697840,666.185348,-536.266849
3705.834503,-9474.636058,962.267725,-383.047749
3705.834833,-9474.636058,518.144159,-459.657299
3705.835163,-10140.821405,222.061783,0.000000
3705.835493,-9548.656652,370.102971,1225.752797
3705.835823,-8586.388927,444.123565,1225.752797
3705.836152,-8808.450710,1036.288319,1072.533697
3705.836482,-10362.883188,1332.370696,0.000000
3705.836812,-10362.883188,1480.411884,689.485948
3705.837142,-9548.656652,1406.391290,1302.362347
3705.837472,-9770.718434,1480.411884,766.095498
3705.837802,-11251.130318,1184.329507,0.000000
3705.838131,-11917.315666,1036.288319,-1149.143247
3705.838461,-9622.677246,518.144159,-459.657299
3705.838791,-8438.347739,222.061783,0.000000
3705.839121,-8882.471304,666.185348,1532.190996
3705.839451,-10584.944971,592.164754,1455.581446
3705.839780,-10362.883188,740.205942,536.266849
3705.840110,-9474.636058,370.102971,383.047749
3705.840440,-9548.656652,1258.350101,1378.971896
3705.840770,-10658.965565,962.267725,2451.505594
3705.841100,-11621.233289,740.205942,2757.943793
3705.841430,-10584.944971,296.082377,2221.676944
3705.841759,-8808.450710,-444.123565,1149.143247
3705.842089,-9474.636058,-148.041188,1149.143247
3705.842419,-11399.171507,-370.102971,1072.533697
3705.842749,-10881.027347,-592.164754,1455.581446
3705.843079,-8734.430116,-1258.350101,1072.533697
3705.843408,-8290.306550,-814.226536,2068.457845
3705.843738,-9400.615463,-1036.288319,2757.943793
3705.844068,-10881.027347,-370.102971,1991.848295
3705.844398,-9918.759623,-888.247130,229.828649
3705.844728,-8216.285956,-666.185348,306.438199
3705.845058,-9326.594869,0.000000,1225.752797
3705.845387,-11695.253884,-148.041188,919.314598
3705.845717,-12287.418637,-222.061783,-842.705048
3705.846047,-9696.697840,-888.247130,-2145.067394
3705.846377,-8586.388927,-740.205942,-1991.848295
3705.846707,-9400.615463,-814.226536,-689.485948
3705.847036,-10658.965565,148.041188,1072.533697
3705.847366,-9844.739029,-666.185348,-76.609550
3705.847696,-8660.409521,-518.144159,-536.266849
3705.848026,-8956.491898,-518.144159,-153.219100
3705.848356,-11547.212695,-222.061783,-383.047749
3705.848686,-10807.006753,-814.226536,0.000000
3705.849015,-8956.491898,-1332.370696,-229.828649
3705.849345,-8068.244768,-666.185348,-306.438199
3705.849675,-9770.718434,-888.247130,0.000000
3705.850005,-11325.150913,-370.102971,0.000000
3705.850335,-9770.718434,-1110.308913,-689.485948
3705.850665,-8364.327145,-592.164754,-1149.143247
3705.850994,-8734.430116,-370.102971,-306.438199
3705.851324,-10436.903782,222.061783,995.924147
3705.851654,-9918.759623,-222.061783,229.828649
3705.851984,-8438.347739,-444.123565,-383.047749
3705.852314,-8586.388927,-296.082377,-612.876398
3705.852643,-10510.924376,-518.144159,76.609550
3705.852973,-11251.130318,0.000000,842.705048
3705.853303,-9770.718434,-666.185348,612.876398
3705.853633,-8290.306550,-444.123565,-689.485948
3705.853963,-9252.574275,-370.102971,-612.876398
3705.854293,-11177.109724,-296.082377,0.000000
3705.854622,-10140.821405,-444.123565,383.047749
3705.854952,-8734.430116,-814.226536,536.266849
3705.855282,-8142.265362,-370.102971,459.657299
3705.855612,-9770.718434,-296.082377,995.924147
3705.855942,-10362.883188,444.123565,1378.971896
3705.856271,-9178.553681,-148.041188,995.924147
3705.856601,-8660.409521,296.082377,306.438199
3705.856931,-10584.944971,888.247130,995.924147
3705.857261,-12583.501014,888.247130,689.485948
3705.857591,-11399.171507,222.061783,459.657299
3705.857921,-9104.533087,0.000000,306.438199
3705.858250,-8142.265362,148.041188,-612.876398
3705.858580,-9992.780217,592.164754,-459.657299
3705.858910,-10510.924376,666.185348,-76.609550
3705.859240,-9030.512492,592.164754,306.438199
3705.859570,-8512.368333,814.226536,153.219100
3705.859900,-10214.842000,1036.288319,0.000000
3705.860229,-12287.418637,1258.350101,-306.438199
3705.860559,-10288.862594,592.164754,-153.219100
3705.860889,-8586.388927,0.000000,-306.438199
3705.861219,-9030.512492,740.205942,842.705048
3705.861549,-10732.986159,0.000000,383.047749
3705.861878,-11473.192101,592.164754,766.095498
3705.862208,-9400.615463,0.000000,459.657299
3705.862538,-8808.450710,740.205942,383.047749
3705.862868,-9178.553681,370.102971,0.000000
3705.863198,-10584.944971,666.185348,153.219100
3705.863528,-9252.574275,222.061783,383.047749
3705.863857,-8956.491898,518.144159,459.657299
3705.864187,-9252.574275,666.185348,689.485948
3705.864517,-11029.068536,666.185348,459.657299
3705.864847,-11029.068536,962.267725,306.438199
3705.865177,-9548.656652,0.000000,459.657299
3705.865506,-9178.553681,74.020594,1072.533697
3705.865836,-9770.718434,74.020594,1149.143247
3705.866166,-11251.130318,888.247130,1149.143247
3705.866496,-9548.656652,222.061783,1225.752797
3705.866826,-8438.347739,222.061783,842.705048
3705.867156,-8882.471304,666.185348,536.266849
3705.867485,-10881.027347,296.082377,536.266849
3705.867815,-10955.047942,296.082377,383.047749
3705.868145,-8734.430116,-370.102971,842.705048
3705.868475,-7920.203579,0.000000,1072.533697
3705.868805,-10140.821405,148.041188,919.314598
3705.869134,-11843.295072,370.102971,383.047749
3705.869464,-9918.759623,-592.164754,76.609550
3705.869794,-8290.306550,-518.144159,153.219100
3705.870124,-9104.533087,-148.041188,1455.581446
3705.870454,-11177.109724,148.041188,2068.457845
3705.870784,-9992.780217,0.000000,1378.971896
3705.871113,-7920.203579,-888.247130,0.000000
3705.871443,-8364.327145,518.144159,0.000000
3705.871773,-11621.233289,592.164754,0.000000
3705.872103,-12435.459826,444.123565,0.000000
3705.872433,-9992.780217,-370.102971,-229.828649
3705.872763,-8438.347739,-666.185348,-383.047749
3705.873092,-8660.409521,-1110.308913,-153.219100
3705.873422,-10658.965565,-222.061783,-229.828649
3705.873752,-10436.903782,222.061783,-459.657299
3705.874082,-8512.368333,-444.123565,-919.314598
3705.874412,-8290.306550,222.061783,-689.485948
3705.874741,-10732.986159,518.144159,-76.609550
3705.875071,-11843.295072,518.144159,-229.828649
3705.875401,-10214.842000,-518.144159,-1149.143247
3705.875731,-9104.533087,-296.082377,-2068.457845
3705.876061,-9252.574275,-962.267725,-1532.190996
3705.876391,-11473.192101,-296.082377,-536.266849
3705.876720,-10288.862594,-592.164754,229.828649
3705.877050,-8586.388927,-666.185348,-229.828649
3705.877380,-7920.203579,0.000000,-536.266849
3705.877710,-10584.944971,0.000000,-76.609550
3705.878040,-12139.377449,74.020594,76.609550
3705.878369,-10510.924376,-962.267725,0.000000
3705.878699,-8956.491898,-666.185348,0.000000
3705.879029,-8660.409521,-814.226536,612.876398
3705.879359,-10955.047942,148.041188,1149.143247
3705.879689,-9400.615463,-1332.370696,919.314598
3705.880019,-7698.141797,-888.247130,0.000000
3705.880348,-7994.224174,148.041188,76.609550
3705.880678,-11399.171507,0.000000,0.000000
3705.881008,-12139.377449,296.082377,0.000000
3705.881338,-9400.615463,-444.123565,842.705048
3705.881668,-7994.224174,0.000000,76.609550
3705.881998,-9400.615463,-222.061783,0.000000
3705.882327,-10510.924376,-296.082377,0.000000
3705.882657,-9030.512492,-518.144159,0.000000
3705.882987,-7772.162391,-370.102971,383.047749
3705.883317,-8512.368333,222.061783,1762.019645
3705.883647,-11251.130318,444.123565,1915.238745
3705.883976,-11325.150913,148.041188,1072.533697
3705.884306,-9844.739029,-148.041188,536.266849
3705.884636,-9104.533087,0.000000,383.047749
3705.884966,-10214.842000,-148.041188,766.095498
3705.885296,-10510.924376,0.000000,1378.971896
3705.885626,-8956.491898,0.000000,1532.190996
3705.885955,-7476.080014,74.020594,689.485948
3705.886285,-8216.285956,962.267725,459.657299
3705.886615,-11251.130318,1110.308913,-689.485948
3705.886945,-11251.130318,1258.350101,0.000000
3705.887275,-10510.924376,740.205942,919.314598
3705.887604,-10214.842000,962.267725,1072.533697
3705.887934,-11177.109724,222.061783,766.095498
3705.888264,-10807.006753,222.061783,306.438199
3705.888594,-9326.594869,-148.041188,-536.266849
3705.888924,-7994.224174,444.123565,0.000000
3705.889254,-8956.491898,592.164754,689.485948
3705.889583,-11325.150913,518.144159,459.657299
3705.889913,-11325.150913,666.185348,0.000000
3705.890243,-9622.677246,296.082377,-536.266849
3705.890573,-8660.409521,222.061783,-766.095498
3705.890903,-10214.842000,0.000000,-1225.752797
3705.891232,-10955.047942,444.123565,-459.657299
3705.891562,-9326.594869,-222.061783,0.000000
3705.891892,-8808.450710,148.041188,-842.705048
3705.892222,-9770.718434,296.082377,-689.485948
3705.892552,-11473.192101,296.082377,-1225.752797
3705.892882,-10066.800811,-222.061783,-612.876398
3705.893211,-7846.182985,-518.144159,-612.876398
3705.893541,-7624.121203,-148.041188,-153.219100
3705.893871,-9696.697840,-592.164754,-383.047749
3705.894201,-11177.109724,148.041188,153.219100
3705.894531,-9770.718434,-444.123565,0.000000
3705.894861,-8734.430116,-370.102971,229.828649
3705.895190,-9104.533087,0.000000,76.609550
3705.895520,-11103.089130,-296.082377,842.705048
3705.895850,-10436.903782,-222.061783,306.438199
3705.896180,-9104.533087,-370.102971,0.000000
3705.896510,-8882.471304,74.020594,-612.876398
3705.896839,-9992.780217,0.000000,0.000000
3705.897169,-11029.068536,370.102971,383.047749
3705.897499,-9400.615463,-296.082377,536.266849
3705.897829,-7994.224174,0.000000,842.705048
3705.898159,-8660.409521,370.102971,459.657299
3705.898488,-11547.212695,370.102971,1455.581446
3705.898818,-11547.212695,518.144159,1302.362347
3705.899148,-10510.924376,74.020594,1378.971896
3705.899477,-9622.677246,444.123565,1149.143247
3705.899807,-10510.924376,-518.144159,995.924147
3705.900137,-11029.068536,74.020594,1302.362347
3705.900467,-9104.533087,-370.102971,1302.362347
3705.900796,-8216.285956,0.000000,1455.581446
3705.901126,-9400.615463,444.123565,1149.143247
3705.901456,-11325.150913,962.267725,689.485948
3705.901785,-10362.883188,814.226536,536.266849
3705.902115,-8734.430116,444.123565,0.000000
3705.902445,-8734.430116,296.082377,-306.438199
3705.902775,-11103.089130,222.061783,76.609550
3705.903104,-11103.089130,148.041188,76.609550
3705.903434,-9252.574275,-740.205942,229.828649
3705.903764,-8216.285956,74.020594,536.266849
3705.904094,-10066.800811,518.144159,1455.581446
3705.904423,-11029.068536,370.102971,995.924147
3705.904753,-8882.471304,0.000000,0.000000
3705.905083,-7994.224174,666.185348,-1685.410096
3705.905412,-9400.615463,518.144159,-842.705048
3705.905742,-11621.233289,222.061783,-459.657299
3705.906072,-11473.192101,370.102971,-536.266849
3705.906402,-9474.636058,-222.061783,-766.095498
3705.906731,-8438.347739,0.000000,-1149.143247
3705.907061,-9622.677246,0.000000,-995.924147
3705.907391,-11103.089130,148.041188,-689.485948
3705.907720,-9474.636058,74.020594,-383.047749
3705.908050,-8438.347739,0.000000,-153.219100
3705.908380,-8808.450710,296.082377,-689.485948
3705.908710,-11325.150913,148.041188,0.000000
3705.909039,-11029.068536,74.020594,-536.266849
3705.909369,-9548.656652,-666.185348,-459.657299
3705.909699,-8290.306550,-518.144159,76.609550
3705.910028,-9474.636058,0.000000,842.705048
3705.910358,-10510.924376,296.082377,1072.533697
3705.910688,-9770.718434,222.061783,995.924147
3705.911018,-9474.636058,148.041188,-306.438199
3705.911347,-9770.718434,148.041188,-689.485948
3705.911677,-10807.006753,-444.123565,-306.438199
3705.912007,-9918.759623,-222.061783,612.876398
3705.912336,-8364.327145,-814.226536,689.485948
3705.912666,-7772.162391,0.000000,1225.752797
3705.912996,-9474.636058,0.000000,766.095498
3705.913326,-11103.089130,148.041188,459.657299
3705.913655,-10288.862594,74.020594,383.047749
3705.913985,-9400.615463,148.041188,612.876398
3705.914315,-9770.718434,148.041188,1455.581446
3705.914644,-11251.130318,0.000000,1455.581446
3705.914974,-10214.842000,-296.082377,766.095498
3705.915304,-8364.327145,-888.247130,229.828649
3705.915634,-7624.121203,0.000000,919.314598
3705.915963,-9548.656652,74.020594,842.705048
3705.916293,-11029.068536,740.205942,1378.971896
3705.916623,-9918.759623,74.020594,1072.533697
3705.916952,-9844.739029,370.102971,842.705048
3705.917282,-10214.842000,370.102971,0.000000
3705.917612,-11695.253884,296.082377,0.000000
3705.917942,-10510.924376,74.020594,153.219100
3705.918271,-8734.430116,-296.082377,842.705048
3705.918601,-7920.203579,148.041188,612.876398
3705.918931,-9844.739029,148.041188,0.000000
3705.919260,-11029.068536,814.226536,-306.438199
3705.919590,-9844.739029,444.123565,-153.219100
3705.919920,-9474.636058,1036.288319,-612.876398
3705.920250,-10140.821405,444.123565,229.828649
3705.920579,-11917.315666,444.123565,76.609550
3705.920909,-10881.027347,222.061783,-306.438199
3705.921239,-8808.450710,-296.082377,-459.657299
3705.921568,-7846.182985,74.020594,-383.047749
3705.921898,-9992.780217,0.000000,459.657299
3705.922228,-10510.924376,370.102971,383.047749
3705.922558,-9770.718434,296.082377,76.609550
3705.922887,-8808.450710,74.020594,-229.828649
3705.923217,-9770.718434,444.123565,0.000000
3705.923547,-11325.150913,444.123565,76.609550
3705.923876,-9770.718434,0.000000,0.000000
3705.924206,-8364.327145,0.000000,229.828649
3705.924536,-8290.306550,296.082377,229.828649
3705.924866,-10510.924376,444.123565,689.485948
3705.925195,-11325.150913,444.123565,306.438199
3705.925525,-9622.677246,148.041188,0.000000
3705.925855,-8808.450710,148.041188,-153.219100
3705.926184,-9844.739029,74.020594,536.266849
3705.926514,-11177.109724,0.000000,766.095498
3705.926844,-9770.718434,-370.102971,1072.533697
3705.927174,-8364.327145,-666.185348,766.095498
3705.927503,-8512.368333,74.020594,766.095498
3705.927833,-10140.821405,74.020594,842.705048
3705.928163,-10658.965565,592.164754,995.924147
3705.928492,-9104.533087,0.000000,842.705048
3705.928822,-9104.533087,370.102971,459.657299
3705.929152,-10658.965565,0.000000,612.876398
3705.929482,-11473.192101,0.000000,612.876398
3705.929811,-9696.697840,-222.061783,153.219100
3705.930141,-8438.347739,-370.102971,0.000000
3705.930471,-8734.430116,148.041188,153.219100
3705.930800,-10658.965565,-148.041188,229.828649
3705.931130,-10436.903782,148.041188,689.485948
3705.931460,-8956.491898,-370.102971,536.266849
3705.931790,-8956.491898,0.000000,383.047749
3705.932119,-10584.944971,0.000000,995.924147
3705.932449,-11399.171507,444.123565,306.438199
3705.932779,-10214.842000,-296.082377,306.438199
3705.933109,-8956.491898,-74.020594,-383.047749
3705.933438,-9474.636058,0.000000,-76.609550
3705.933768,-10807.006753,0.000000,229.828649
3705.934098,-10140.821405,0.000000,-383.047749
3705.934427,-9178.553681,-370.102971,-536.266849
3705.934757,-9252.574275,74.020594,-612.876398
3705.935087,-10584.944971,0.000000,76.609550
3705.935417,-11251.130318,148.041188,-229.828649
3705.935746,-9622.677246,-444.123565,-919.314598
3705.936076,-8438.347739,-518.144159,-1072.533697
3705.936406,-8808.450710,-444.123565,-229.828649
3705.936735,-10140.821405,0.000000,0.000000
3705.937065,-9992.780217,0.000000,0.000000
3705.937395,-9326.594869,-518.144159,-153.219100
3705.937725,-9252.574275,0.000000,-306.438199
3705.938054,-10658.965565,-148.041188,383.047749
3705.938384,-11251.130318,0.000000,459.657299
3705.938714,-9474.636058,-814.226536,153.219100
3705.939043,-8068.244768,-1036.288319,766.095498
3705.939373,-8808.450710,-296.082377,689.485948
3705.939703,-11029.068536,74.020594,459.657299
3705.940033,-10214.842000,518.144159,612.876398
3705.940362,-8808.450710,0.000000,153.219100
3705.940692,-9252.574275,740.205942,0.000000
3705.941022,-11325.150913,148.041188,689.485948
3705.941351,-11695.253884,518.144159,842.705048
3705.941681,-9400.615463,-888.247130,0.000000
3705.942011,-7402.059420,-592.164754,459.657299
3705.942341,-8438.347739,0.000000,1685.410096
3705.942670,-10658.965565,148.041188,1915.238745
3705.943000,-10362.883188,370.102971,1762.019645
3705.943330,-9252.574275,222.061783,919.314598
3705.943659,-9178.553681,518.144159,383.047749
3705.943989,-10881.027347,370.102971,536.266849
3705.944319,-11769.274478,814.226536,306.438199
3705.944649,-9548.656652,0.000000,0.000000
3705.944978,-8216.285956,0.000000,-153.219100
3705.945308,-9178.553681,0.000000,0.000000
3705.945638,-10436.903782,740.205942,306.438199
3705.945967,-9548.656652,814.226536,919.314598
3705.946297,-9252.574275,814.226536,1072.533697
3705.946627,-10436.903782,1258.350101,1378.971896
3705.946957,-12065.356855,518.144159,459.657299
3705.947286,-11695.253884,444.123565,306.438199
3705.947616,-9252.574275,0.000000,0.000000
3705.947946,-7550.100608,0.000000,536.266849
3705.948275,-8734.430116,0.000000,229.828649
3705.948605,-10288.862594,1036.288319,-153.219100
3705.948935,-10288.862594,592.164754,-383.047749
3705.949265,-9696.697840,740.205942,-536.266849
3705.949594,-10140.821405,444.123565,0.000000
3705.949924,-11621.233289,222.061783,-229.828649
3705.950254,-10881.027347,0.000000,0.000000
3705.950583,-8660.409521,-888.247130,-612.876398
3705.950913,-7402.059420,-518.144159,-536.266849
3705.951243,-9326.594869,-148.041188,76.609550
3705.951573,-10658.965565,444.123565,383.047749
3705.951902,-9992.780217,296.082377,689.485948
3705.952232,-9030.512492,222.061783,0.000000
3705.952562,-10066.800811,148.041188,0.000000
3705.952891,-11399.171507,0.000000,-842.705048
3705.953221,-10584.944971,-74.020594,-995.924147
3705.953551,-8142.265362,-962.267725,0.000000
3705.953881,-7846.182985,-444.123565,383.047749
3705.954210,-9696.697840,-148.041188,919.314598
3705.954540,-11621.233289,296.082377,919.314598
3705.954870,-9918.759623,-74.020594,0.000000
3705.955199,-9030.512492,0.000000,0.000000
3705.955529,-9918.759623,74.020594,383.047749
3705.955859,-11621.233289,0.000000,919.314598
3705.956189,-10732.986159,-222.061783,766.095498
3705.956518,-8364.327145,-888.247130,153.219100
3705.956848,-7920.203579,-296.082377,229.828649
3705.957178,-10436.903782,74.020594,1378.971896
3705.957507,-11769.274478,0.000000,1762.019645
3705.957837,-10214.842000,-74.020594,1762.019645
3705.958167,-8364.327145,0.000000,766.095498
3705.958497,-8956.491898,148.041188,919.314598
3705.958826,-11177.109724,296.082377,459.657299
3705.959156,-10881.027347,666.185348,306.438199
3705.959486,-9548.656652,0.000000,306.438199
3705.959815,-8586.388927,148.041188,153.219100
3705.960145,-9844.739029,-296.082377,229.828649
3705.960475,-10362.883188,74.020594,383.047749
3705.960805,-8364.327145,222.061783,229.828649
3705.961134,-8512.368333,296.082377,1149.143247
3705.961464,-9918.759623,148.041188,1225.752797
3705.961794,-11917.315666,444.123565,842.705048
3705.962123,-10732.986159,666.185348,536.266849
3705.962453,-8660.409521,-592.164754,0.000000
3705.962783,-8512.368333,0.000000,306.438199
3705.963113,-10510.924376,-74.020594,766.095498
3705.963442,-10362.883188,74.020594,153.219100
3705.963772,-8512.368333,-222.061783,-995.924147
3705.964102,-7920.203579,222.061783,-1532.190996
3705.964432,-9918.759623,444.123565,-766.095498
3705.964761,-12287.418637,370.102971,76.609550
3705.965091,-10214.842000,0.000000,-612.876398
3705.965421,-8438.347739,-370.102971,-689.485948
3705.965750,-8438.347739,148.041188,-459.657299
3705.966080,-10955.047942,296.082377,-536.266849
3705.966410,-10881.027347,444.123565,-1225.752797
3705.966740,-9178.553681,74.020594,-612.876398
3705.967069,-8734.430116,148.041188,0.000000
3705.967399,-10510.924376,296.082377,383.047749
3705.967729,-11325.150913,444.123565,689.485948
3705.968058,-9696.697840,0.000000,76.609550
3705.968388,-7994.224174,-962.267725,-689.485948
3705.968718,-8512.368333,148.041188,0.000000
3705.969048,-11103.089130,74.020594,306.438199
3705.969377,-10288.862594,296.082377,1225.752797
3705.969707,-8734.430116,222.061783,459.657299
3705.970037,-8512.368333,148.041188,229.828649
3705.970366,-10214.842000,444.123565,536.266849
3705.970696,-11103.089130,222.061783,1378.971896
3705.971026,-10288.862594,148.041188,459.657299
3705.971356,-8512.368333,-148.041188,76.609550
3705.971685,-8660.409521,0.000000,153.219100
3705.972015,-10436.903782,0.000000,995.924147
3705.972345,-10807.006753,148.041188,1838.629195
3705.972674,-9326.594869,-74.020594,1532.190996
3705.973004,-8512.368333,296.082377,919.314598
3705.973334,-9844.739029,74.020594,766.095498
3705.973664,-11325.150913,74.020594,1225.752797
3705.973993,-10510.924376,148.041188,766.095498
3705.974323,-8882.471304,-222.061783,0.000000
3705.974653,-8734.430116,0.000000,0.000000
3705.974982,-10288.862594,370.102971,612.876398
3705.975312,-10732.986159,148.041188,919.314598
3705.975642,-9474.636058,222.061783,1149.143247
3705.975972,-8438.347739,74.020594,306.438199
3705.976301,-9622.677246,0.000000,229.828649
3705.976631,-11177.109724,370.102971,536.266849
3705.976961,-9696.697840,0.000000,766.095498
3705.977290,-8586.388927,0.000000,0.000000
3705.977620,-9474.636058,148.041188,229.828649
3705.977950,-11251.130318,592.164754,383.047749
3705.978280,-10732.986159,0.000000,-153.219100
3705.978609,-9178.553681,0.000000,-536.266849
3705.978939,-8660.409521,296.082377,0.000000
3705.979269,-10140.821405,296.082377,153.219100
3705.979598,-10955.047942,0.000000,689.485948
3705.979928,-9918.759623,-370.102971,0.000000
3705.980258,-8586.388927,-222.061783,-842.705048
3705.980588,-8734.430116,74.020594,-1302.362347
3705.980917,-10584.944971,74.020594,-459.657299
3705.981247,-10066.800811,0.000000,0.000000
3705.981577,-9400.615463,0.000000,0.000000
3705.981906,-9104.533087,74.020594,0.000000
3705.982236,-10584.944971,-444.123565,306.438199
3705.982566,-11103.089130,-222.061783,459.657299
3705.982896,-10066.800811,-518.144159,383.047749
3705.983225,-8586.388927,-666.185348,-306.438199
3705.983555,-8734.430116,-592.164754,-76.609550
3705.983885,-10510.924376,-518.144159,-383.047749
3705.984214,-10140.821405,-222.061783,0.000000
3705.984544,-9622.677246,-370.102971,153.219100
3705.984874,-8586.388927,0.000000,306.438199
3705.985204,-9622.677246,-518.144159,0.000000
3705.985533,-10066.800811,-444.123565,76.609550
3705.985863,-10066.800811,-592.164754,153.219100
3705.986193,-9474.636058,370.102971,536.266849
3705.986522,-10362.883188,0.000000,1302.362347
3705.986852,-11769.274478,148.041188,689.485948
3705.987182,-10658.965565,-592.164754,0.000000
3705.987512,-9252.574275,-592.164754,229.828649
3705.987841,-8216.285956,-444.123565,919.314598
3705.988171,-9770.718434,-222.061783,1302.362347
3705.988501,-9474.636058,222.061783,1455.581446
3705.988830,-9252.574275,0.000000,1149.143247
3705.989160,-8956.491898,592.164754,459.657299
3705.989490,-10584.944971,444.123565,383.047749
3705.989820,-12361.439231,666.185348,76.609550
3705.990149,-10510.924376,-296.082377,689.485948
3705.990479,-8660.409521,-296.082377,153.219100
3705.990809,-8290.306550,0.000000,995.924147
3705.991138,-10288.862594,222.061783,842.705048
3705.991468,-10732.986159,740.205942,383.047749
3705.991798,-9474.636058,148.041188,-383.047749
3705.992128,-8512.368333,740.205942,0.000000
3705.992457,-9548.656652,518.144159,229.828649
3705.992787,-11325.150913,814.226536,0.000000
3705.993117,-10214.842000,222.061783,-383.047749
3705.993447,-8956.491898,296.082377,-1072.533697
3705.993776,-8734.430116,592.164754,-612.876398
3705.994106,-10807.006753,148.041188,0.000000
3705.994436,-10881.027347,518.144159,0.000000
3705.994765,-9696.697840,74.020594,-919.314598
3705.995095,-8586.388927,-222.061783,-612.876398
3705.995425,-9178.553681,222.061783,0.000000
3705.995755,-10288.862594,518.144159,0.000000
3705.996084,-9252.574275,0.000000,0.000000
3705.996414,-8586.388927,222.061783,-229.828649
3705.996744,-9178.553681,666.185348,0.000000
3705.997073,-11251.130318,666.185348,612.876398
3705.997403,-11399.171507,518.144159,459.657299
3705.997733,-9844.739029,-296.082377,-536.266849
3705.998063,-8734.430116,0.000000,-689.485948
3705.998392,-9696.697840,0.000000,0.000000
3705.998722,-10732.986159,296.082377,459.657299
3705.999052,-9622.677246,0.000000,229.828649
3705.999381,-8586.388927,-296.082377,-459.657299
3705.999711,-8586.388927,222.061783,0.000000
3706.000041,-10658.965565,222.061783,459.657299
3706.000371,-11029.068536,296.082377,612.876398
3706.000701,-10066.800811,-74.020594,0.000000
3706.001030,-9030.512492,0.000000,-459.657299
3706.001360,-10066.800811,-148.041188,536.266849
3706.001690,-11029.068536,-370.102971,1455.581446
3706.002020,-9844.739029,-666.185348,1225.752797
3706.002350,-8734.430116,-888.247130,766.095498
3706.002680,-8734.430116,-666.185348,612.876398
3706.003009,-10436.903782,-222.061783,842.705048
3706.003339,-10066.800811,-222.061783,1225.752797
3706.003669,-9178.553681,74.020594,1838.629195
3706.003999,-8660.409521,222.061783,842.705048
3706.004329,-10510.924376,0.000000,0.000000
3706.004659,-11103.089130,0.000000,-536.266849
3706.004989,-9770.718434,-666.185348,0.000000
3706.005318,-8956.491898,-592.164754,-153.219100
3706.005648,-9326.594869,-592.164754,536.266849
3706.005978,-10436.903782,0.000000,995.924147
3706.006308,-9992.780217,0.000000,459.657299
3706.006638,-9252.574275,-518.144159,229.828649
3706.006968,-9252.574275,74.020594,0.000000
3706.007297,-10955.047942,0.000000,153.219100
3706.007627,-11103.089130,222.061783,0.000000
3706.007957,-9770.718434,-518.144159,0.000000
3706.008287,-9104.533087,-444.123565,-612.876398
3706.008617,-9474.636058,-666.185348,-536.266849
3706.008947,-10658.965565,148.041188,-1149.143247
3706.009277,-9918.759623,-444.123565,0.000000
3706.009606,-8808.450710,-444.123565,-306.438199
3706.009936,-9104.533087,0.000000,612.876398
3706.010266,-11103.089130,0.000000,459.657299
3706.010596,-11473.192101,74.020594,-153.219100
3706.010926,-9548.656652,-296.082377,-459.657299
3706.011256,-8364.327145,-74.020594,-612.876398
3706.011586,-9252.574275,-296.082377,-459.657299
3706.011915,-10807.006753,370.102971,0.000000
3706.012245,-9992.780217,148.041188,153.219100
3706.012575,-8808.450710,0.000000,-612.876398
3706.012905,-8512.368333,518.144159,-383.047749
3706.013235,-10584.944971,148.041188,-76.609550
3706.013565,-11029.068536,666.185348,919.314598
3706.013894,-9252.574275,0.000000,306.438199
3706.014224,-8808.450710,148.041188,153.219100
3706.014554,-9992.780217,-222.061783,766.095498
3706.014884,-10732.986159,0.000000,1532.190996
3706.015214,-9474.636058,148.041188,995.924147
3706.015544,-8068.244768,222.061783,229.828649
3706.015874,-8586.388927,888.247130,612.876398
3706.016203,-11251.130318,518.144159,1225.752797
3706.016533,-11473.192101,1036.288319,1225.752797
3706.016863,-9918.759623,0.000000,459.657299
3706.017193,-8734.430116,222.061783,306.438199
3706.017523,-9030.512492,-148.041188,536.266849
3706.017853,-9918.759623,888.247130,1302.362347
3706.018182,-9326.594869,370.102971,919.314598
3706.018512,-8290.306550,518.144159,842.705048
3706.018842,-9030.512492,1184.329507,1532.190996
3706.019172,-11991.336260,1702.473667,1149.143247
3706.019502,-11769.274478,1036.288319,689.485948
3706.019832,-9770.718434,222.061783,0.000000
3706.020162,-8882.471304,74.020594,0.000000
3706.020491,-9622.677246,0.000000,1149.143247
3706.020821,-10362.883188,518.144159,1225.752797
3706.021151,-9326.594869,0.000000,919.314598
3706.021481,-8882.471304,518.144159,0.000000
3706.021811,-9622.677246,740.205942,612.876398
3706.022141,-11769.274478,592.164754,76.609550
3706.022470,-11325.150913,222.061783,-306.438199
3706.022800,-9474.636058,-74.020594,0.000000
3706.023130,-8660.409521,0.000000,0.000000
3706.023460,-9992.780217,74.020594,383.047749
3706.023790,-10732.986159,74.020594,-229.828649
3706.024120,-9252.574275,-592.164754,-459.657299
3706.024450,-8290.306550,0.000000,-766.095498
3706.024779,-9030.512492,0.000000,-383.047749
3706.025109,-11177.109724,518.144159,-536.266849
3706.025439,-11325.150913,74.020594,-612.876398
3706.025769,-9696.697840,-518.144159,-766.095498
3706.026099,-9104.533087,-518.144159,-766.095498
3706.026429,-9622.677246,-666.185348,-153.219100
3706.026759,-9918.759623,-222.061783,229.828649
3706.027088,-8660.409521,-592.164754,229.828649
3706.027418,-8438.347739,-148.041188,76.609550
3706.027748,-9918.759623,0.000000,612.876398
3706.028078,-11917.315666,74.020594,-229.828649
3706.028408,-10881.027347,0.000000,0.000000
3706.028738,-9474.636058,-592.164754,76.609550
3706.029067,-8660.409521,0.000000,842.705048
3706.029397,-10362.883188,-296.082377,612.876398
3706.029727,-10881.027347,0.000000,459.657299
3706.030057,-9400.615463,-592.164754,-76.609550
3706.030387,-8438.347739,0.000000,306.438199
3706.030717,-9696.697840,222.061783,1225.752797
3706.031047,-11621.233289,370.102971,919.314598
3706.031376,-10066.800811,222.061783,459.657299
3706.031706,-8142.265362,-666.185348,-383.047749
3706.032036,-7550.100608,0.000000,229.828649
3706.032366,-10732.986159,-222.061783,612.876398
3706.032696,-11399.171507,222.061783,1072.533697
3706.033026,-9104.533087,-666.185348,1149.143247
3706.033355,-7550.100608,0.000000,1225.752797
3706.033685,-9030.512492,0.000000,995.924147
3706.034015,-11325.150913,740.205942,842.705048
3706.034345,-10510.924376,592.164754,995.924147
3706.034675,-9400.615463,296.082377,766.095498
3706.035005,-9770.718434,592.164754,612.876398
3706.035335,-11177.109724,222.061783,76.609550
3706.035664,-10510.924376,0.000000,536.266849
3706.035994,-8364.327145,-296.082377,306.438199
3706.036324,-7994.224174,370.102971,383.047749
3706.036654,-9918.759623,666.185348,689.485948
3706.036984,-12139.377449,814.226536,0.000000
3706.037314,-10732.986159,370.102971,-919.314598
3706.037643,-9400.615463,148.041188,-995.924147
3706.037973,-8808.450710,74.020594,-536.266849
3706.038303,-10362.883188,0.000000,-383.047749
3706.038633,-9770.718434,-222.061783,0.000000
3706.038963,-9030.512492,-888.247130,0.000000
3706.039293,-7994.224174,0.000000,0.000000
3706.039623,-9844.739029,74.020594,76.609550
3706.039952,-11917.315666,444.123565,153.219100
3706.040282,-10510.924376,-370.102971,306.438199
3706.040612,-9474.636058,-444.123565,0.000000
3706.040942,-9474.636058,0.000000,-383.047749
3706.041272,-11029.068536,0.000000,-153.219100
3706.041602,-10288.862594,148.041188,0.000000
3706.041932,-8882.471304,-148.041188,-1149.143247
3706.042261,-8512.368333,370.102971,-306.438199
3706.042591,-10732.986159,518.144159,306.438199
3706.042921,-11769.274478,962.267725,229.828649
3706.043251,-10066.800811,74.020594,-612.876398
3706.043581,-9326.594869,0.000000,-689.485948
3706.043911,-9622.677246,74.020594,0.000000
3706.044240,-10881.027347,0.000000,306.438199
3706.044570,-9844.739029,222.061783,536.266849
3706.044900,-8364.327145,-444.123565,306.438199
3706.045230,-8142.265362,444.123565,459.657299
3706.045560,-10658.965565,370.102971,842.705048
3706.045890,-11917.315666,814.226536,1072.533697
3706.046220,-9844.739029,74.020594,919.314598
3706.046549,-8660.409521,0.000000,0.000000
3706.046879,-9178.553681,-444.123565,383.047749
3706.047209,-10066.800811,-370.102971,1378.971896
3706.047539,-8734.430116,148.041188,1685.410096
3706.047869,-8068.244768,-222.061783,1225.752797
3706.048199,-7846.182985,518.144159,1762.019645
3706.048528,-10510.924376,592.164754,1991.848295
3706.048858,-12065.356855,1406.391290,1838.629195
3706.049188,-11029.068536,740.205942,1378.971896
3706.049518,-9918.759623,518.144159,383.047749
3706.049848,-9548.656652,0.000000,0.000000
3706.050178,-10436.903782,370.102971,153.219100
3706.050508,-9030.512492,222.061783,306.438199
3706.050837,-8660.409521,74.020594,536.266849
3706.051167,-8216.285956,444.123565,0.000000
3706.051497,-10140.821405,740.205942,-306.438199
3706.051827,-11251.130318,1702.473667,-612.876398
3706.052157,-10658.965565,296.082377,-229.828649
3706.052487,-9400.615463,0.000000,-306.438199
3706.052816,-9252.574275,-592.164754,-306.438199
3706.053146,-10881.027347,0.000000,0.000000
3706.053476,-9918.759623,-592.164754,-229.828649
3706.053806,-8586.388927,-666.185348,-536.266849
3706.054136,-7994.224174,0.000000,-229.828649
3706.054466,-10362.883188,148.041188,0.000000
3706.054796,-11029.068536,740.205942,459.657299
3706.055125,-10140.821405,-148.041188,153.219100
3706.055455,-9178.553681,370.102971,-229.828649
3706.055785,-10214.842000,-296.082377,-689.485948
3706.056115,-10955.047942,296.082377,-1378.971896
3706.056445,-9548.656652,-444.123565,-536.266849
3706.056775,-8586.388927,-444.123565,-689.485948
3706.057105,-8586.388927,0.000000,-306.438199
3706.057434,-10955.047942,148.041188,0.000000
3706.057764,-10955.047942,222.061783,-153.219100
3706.058094,-9400.615463,-296.082377,-76.609550
3706.058424,-9326.594869,0.000000,0.000000
3706.058754,-10140.821405,-666.185348,306.438199
3706.059084,-10436.903782,-370.102971,766.095498
3706.059413,-9474.636058,-962.267725,919.314598
3706.059743,-8956.491898,-740.205942,1149.143247
3706.060073,-9104.533087,-222.061783,1608.800546
3706.060403,-10955.047942,518.144159,1225.752797
3706.060733,-10362.883188,592.164754,383.047749
3706.061063,-9326.594869,0.000000,-383.047749
3706.061393,-9178.553681,370.102971,229.828649
3706.061722,-9548.656652,74.020594,153.219100
3706.062052,-10658.965565,370.102971,1532.190996
3706.062382,-9400.615463,74.020594,689.485948
3706.062712,-8364.327145,0.000000,689.485948
3706.063042,-8882.471304,888.247130,459.657299
3706.063372,-11473.192101,1110.308913,1225.752797
3706.063701,-11843.295072,888.247130,1762.019645
3706.064031,-10807.006753,444.123565,1302.362347
3706.064361,-9326.594869,148.041188,766.095498
3706.064691,-10140.821405,0.000000,842.705048
3706.065021,-10732.986159,0.000000,306.438199
3706.065351,-9252.574275,-814.226536,459.657299
3706.065681,-8142.265362,-222.061783,612.876398
3706.066010,-8216.285956,592.164754,0.000000
3706.066340,-10436.903782,592.164754,229.828649
3706.066670,-10584.944971,666.185348,-383.047749
3706.067000,-9622.677246,0.000000,-1225.752797
3706.067330,-9178.553681,518.144159,-1149.143247
3706.067660,-10436.903782,-370.102971,-459.657299
3706.067990,-11251.130318,-222.061783,0.000000
3706.068319,-9622.677246,-814.226536,76.609550
3706.068649,-8216.285956,-296.082377,229.828649
3706.068979,-8808.450710,74.020594,306.438199
3706.069309,-10881.027347,814.226536,0.000000
3706.069639,-10807.006753,444.123565,-459.657299
3706.069969,-9622.677246,-148.041188,-842.705048
3706.070298,-8734.430116,444.123565,-766.095498
3706.070628,-9844.739029,-222.061783,-612.876398
3706.070958,-10807.006753,0.000000,-229.828649
3706.071288,-9474.636058,-740.205942,-76.609550
3706.071618,-7550.100608,-592.164754,-536.266849
3706.071948,-8438.347739,-296.082377,229.828649
3706.072278,-10362.883188,0.000000,383.047749
3706.072607,-10510.924376,-222.061783,766.095498
3706.072937,-9622.677246,-74.020594,536.266849
3706.073267,-9326.594869,0.000000,536.266849
3706.073597,-10436.903782,-444.123565,383.047749
3706.073927,-10881.027347,74.020594,306.438199
3706.074257,-9474.636058,-444.123565,153.219100
3706.074586,-7920.203579,148.041188,383.047749
3706.074916,-9178.553681,370.102971,612.876398
3706.075246,-11177.109724,814.226536,1072.533697
3706.075576,-10732.986159,592.164754,1149.143247
3706.075906,-9474.636058,222.061783,1149.143247
3706.076236,-9326.594869,0.000000,689.485948
3706.076566,-10732.986159,0.000000,1378.971896
3706.076895,-11103.089130,0.000000,1838.629195
3706.077225,-9696.697840,-518.144159,1915.238745
3706.077555,-8290.306550,74.020594,1838.629195
3706.077885,-9474.636058,518.144159,1608.800546
3706.078215,-11177.109724,814.226536,995.924147
3706.078545,-10436.903782,740.205942,229.828649
3706.078874,-9696.697840,592.164754,-306.438199
3706.079204,-9474.636058,666.185348,-383.047749
3706.079534,-11103.089130,296.082377,0.000000
3706.079864,-10436.903782,296.082377,76.609550
3706.080194,-8660.409521,-888.247130,0.000000
3706.080524,-8142.265362,74.020594,306.438199
3706.080854,-9474.636058,148.041188,766.095498
3706.081183,-10807.006753,962.267725,229.828649
3706.081513,-10066.800811,444.123565,995.924147
3706.081843,-9104.533087,592.164754,306.438199
3706.082173,-9474.636058,666.185348,153.219100
3706.082503,-11177.109724,444.123565,-612.876398
3706.082833,-11473.192101,592.164754,-383.047749
3706.083163,-9400.615463,-740.205942,-919.314598
3706.083492,-8142.265362,148.041188,-842.705048
3706.083822,-8808.450710,0.000000,-383.047749
3706.084152,-10362.883188,888.247130,-153.219100
3706.084482,-9548.656652,222.061783,-536.266849
3706.084812,-9030.512492,666.185348,-1378.971896
3706.085142,-9252.574275,148.041188,-919.314598
3706.085471,-11177.109724,370.102971,-76.609550
3706.085801,-11103.089130,444.123565,766.095498
3706.086131,-9548.656652,-666.185348,689.485948
3706.086461,-7846.182985,0.000000,536.266849
3706.086791,-9474.636058,-370.102971,383.047749
3706.087121,-10732.986159,370.102971,459.657299
3706.087451,-9474.636058,0.000000,459.657299
3706.087780,-9030.512492,222.061783,383.047749
3706.088110,-9178.553681,370.102971,0.000000
3706.088440,-11103.089130,148.041188,0.000000
3706.088770,-10658.965565,0.000000,229.828649
3706.089100,-8364.327145,-962.267725,0.000000
3706.089430,-7846.182985,0.000000,919.314598
3706.089759,-9770.718434,0.000000,1225.752797
3706.090089,-11547.212695,1332.370696,1302.362347
3706.090419,-10066.800811,0.000000,0.000000
3706.090749,-8956.491898,222.061783,-383.047749
3706.091079,-10140.821405,74.020594,1149.143247
3706.091409,-11843.295072,148.041188,1455.581446
3706.091739,-10436.903782,0.000000,1378.971896
3706.092068,-8438.347739,-814.226536,766.095498
3706.092398,-7994.224174,0.000000,842.705048
3706.092728,-10510.924376,0.000000,689.485948
3706.093058,-11325.150913,592.164754,1149.143247
3706.093388,-9696.697840,222.061783,1455.581446
3706.093718,-9474.636058,148.041188,229.828649
3706.094047,-10066.800811,-222.061783,-229.828649
3706.094377,-11547.212695,-222.061783,-306.438199
3706.094707,-10288.862594,-592.164754,-612.876398
3706.095037,-8512.368333,-888.247130,-229.828649
3706.095367,-8290.306550,-444.123565,0.000000
3706.095697,-9252.574275,-370.102971,383.047749
3706.096027,-10362.883188,222.061783,383.047749
3706.096356,-10214.842000,0.000000,459.657299
3706.096686,-10362.883188,296.082377,0.000000
3706.097016,-10881.027347,0.000000,-76.609550
3706.097346,-11769.274478,0.000000,-153.219100
3706.097676,-9844.739029,-370.102971,-383.047749
3706.098006,-7994.224174,-666.185348,-459.657299
3706.098336,-7624.121203,-222.061783,-919.314598
3706.098665,-10362.883188,0.000000,-766.095498
3706.098995,-11029.068536,296.082377,-766.095498
3706.099325,-9770.718434,-518.144159,-766.095498
3706.099655,-9104.533087,296.082377,-153.219100
3706.099985,-9992.780217,-148.041188,612.876398
3706.100314,-10881.027347,0.000000,612.876398
3706.100644,-9400.615463,-296.082377,229.828649
3706.100974,-8068.244768,-444.123565,0.000000
3706.101304,-8438.347739,222.061783,0.000000
3706.101633,-10955.047942,0.000000,0.000000
3706.101963,-10881.027347,222.061783,459.657299
3706.102293,-9252.574275,-296.082377,229.828649
3706.102623,-8512.368333,0.000000,-76.609550
3706.102953,-9326.594869,-370.102971,0.000000
3706.103282,-10288.862594,74.020594,383.047749
3706.103612,-9252.574275,-444.123565,612.876398
3706.103942,-8364.327145,0.000000,536.266849
3706.104272,-9030.512492,148.041188,1762.019645
3706.104601,-11325.150913,370.102971,1072.533697
3706.104931,-10807.006753,814.226536,995.924147
3706.105261,-9770.718434,0.000000,76.609550
3706.105591,-9178.553681,740.205942,306.438199
3706.105921,-10362.883188,296.082377,536.266849
3706.106250,-10955.047942,1036.288319,842.705048
3706.106580,-9622.677246,74.020594,612.876398
3706.106910,-9104.533087,370.102971,153.219100
3706.107240,-9030.512492,444.123565,459.657299
3706.107570,-10881.027347,74.020594,689.485948
3706.107899,-9992.780217,592.164754,995.924147
3706.108229,-8882.471304,0.000000,919.314598
3706.108559,-8956.491898,962.267725,1225.752797
3706.108889,-10510.924376,74.020594,459.657299
3706.109218,-11769.274478,444.123565,306.438199
3706.109548,-9844.739029,-74.020594,459.657299
3706.109878,-9474.636058,444.123565,1072.533697
3706.110208,-9474.636058,370.102971,1225.752797
3706.110538,-11621.233289,148.041188,612.876398
3706.110867,-10066.800811,370.102971,0.000000
3706.111197,-8364.327145,74.020594,-919.314598
3706.111527,-8808.450710,1036.288319,-1455.581446
3706.111857,-10436.903782,592.164754,-842.705048
3706.112186,-11547.212695,962.267725,-842.705048
3706.112516,-10066.800811,-296.082377,-689.485948
3706.112846,-9252.574275,0.000000,-383.047749
3706.113176,-9622.677246,-74.020594,153.219100
3706.113506,-11473.192101,-148.041188,536.266849
3706.113835,-9844.739029,-518.144159,919.314598
3706.114165,-8586.388927,-518.144159,383.047749
3706.114495,-8512.368333,222.061783,383.047749
3706.114825,-10066.800811,0.000000,153.219100
3706.115155,-10658.965565,1110.308913,1149.143247
3706.115484,-10510.924376,-370.102971,0.000000
3706.115814,-8956.491898,0.000000,-612.876398
3706.116144,-9400.615463,222.061783,0.000000
3706.116474,-11103.089130,0.000000,-76.609550
3706.116803,-10140.821405,-148.041188,0.000000
3706.117133,-8808.450710,-518.144159,383.047749
3706.117463,-7994.224174,74.020594,766.095498
3706.117793,-9992.780217,74.020594,612.876398
3706.118123,-11621.233289,592.164754,1455.581446
3706.118452,-10881.027347,148.041188,1072.533697
3706.118782,-9622.677246,0.000000,76.609550
3706.119112,-9548.656652,-370.102971,459.657299
3706.119442,-10732.986159,0.000000,842.705048
3706.119771,-9770.718434,0.000000,1762.019645
3706.120101,-8216.285956,-518.144159,0.000000
3706.120431,-8216.285956,0.000000,-383.047749
3706.120761,-10362.883188,0.000000,0.000000
3706.121091,-11695.253884,444.123565,1225.752797
3706.121420,-10214.842000,-444.123565,1302.362347
3706.121750,-8882.471304,-74.020594,1149.143247
3706.122080,-8956.491898,-444.123565,766.095498
3706.122410,-10436.903782,0.000000,459.657299
3706.122739,-9474.636058,-222.061783,383.047749
3706.123069,-8956.491898,74.020594,612.876398
3706.123399,-9104.533087,370.102971,536.266849
3706.123729,-11103.089130,296.082377,459.657299
3706.124059,-11029.068536,592.164754,76.609550
3706.124388,-9992.780217,-370.102971,-766.095498
3706.124718,-8882.471304,0.000000,-1225.752797
3706.125048,-9696.697840,0.000000,-383.047749
3706.125378,-11029.068536,370.102971,153.219100
3706.125708,-9844.739029,-148.041188,76.609550
3706.126037,-9104.533087,0.000000,0.000000
3706.126367,-9178.553681,148.041188,-689.485948
3706.126697,-10881.027347,222.061783,-842.705048
3706.127027,-10436.903782,148.041188,-612.876398
3706.127356,-9770.718434,-666.185348,0.000000
3706.127686,-9030.512492,-74.020594,536.266849
3706.128016,-9918.759623,-296.082377,536.266849
3706.128346,-10955.047942,-518.144159,0.000000
3706.128676,-9696.697840,-74.020594,-153.219100
3706.129005,-9104.533087,74.020594,229.828649
3706.129335,-9844.739029,148.041188,153.219100
3706.129665,-11621.233289,74.020594,153.219100
3706.129995,-10658.965565,296.082377,-306.438199
3706.130324,-8512.368333,-444.123565,229.828649
3706.130654,-8364.327145,222.061783,536.266849
3706.130984,-10510.924376,-222.061783,842.705048
3706.131314,-11325.150913,148.041188,612.876398
3706.131644,-8956.491898,-814.226536,229.828649
3706.131973,-7994.224174,-222.061783,153.219100
3706.132303,-9252.574275,-222.061783,1072.533697
3706.132633,-11251.130318,740.205942,2068.457845
3706.132963,-10584.944971,370.102971,1378.971896
3706.133292,-8956.491898,-222.061783,306.438199
3706.133622,-8660.409521,592.164754,153.219100
3706.133952,-10658.965565,222.061783,306.438199
3706.134282,-11399.171507,222.061783,76.609550
3706.134612,-8882.471304,74.020594,0.000000
3706.134941,-7624.121203,0.000000,0.000000
3706.135271,-8956.491898,296.082377,-229.828649
3706.135601,-10881.027347,592.164754,229.828649
3706.135931,-10955.047942,888.247130,153.219100
3706.136261,-8956.491898,222.061783,0.000000
3706.136590,-9104.533087,592.164754,612.876398
3706.136920,-11695.253884,740.205942,1302.362347
3706.137250,-11843.295072,518.144159,1225.752797
3706.137580,-9770.718434,0.000000,689.485948
3706.137909,-8142.265362,0.000000,153.219100
3706.138239,-9178.553681,0.000000,153.219100
3706.138569,-10955.047942,518.144159,1149.143247
3706.138899,-10658.965565,962.267725,459.657299
3706.139229,-9252.574275,222.061783,-919.314598
3706.139558,-8808.450710,518.144159,-689.485948
3706.139888,-10807.006753,518.144159,-306.438199
3706.140218,-11547.212695,814.226536,459.657299
3706.140548,-10214.842000,148.041188,612.876398
3706.140877,-9178.553681,0.000000,0.000000
3706.141207,-9178.553681,0.000000,459.657299
3706.141537,-10584.944971,0.000000,383.047749
3706.141867,-10066.800811,-74.020594,766.095498
3706.142197,-8734.430116,-296.082377,153.219100
3706.142526,-8512.368333,296.082377,0.000000
3706.142856,-10066.800811,148.041188,229.828649
3706.143186,-10288.862594,370.102971,0.000000
3706.143516,-9770.718434,-74.020594,0.000000
3706.143846,-9326.594869,296.082377,459.657299
3706.144175,-9622.677246,-370.102971,459.657299
3706.144505,-10510.924376,-296.082377,229.828649
3706.144835,-9474.636058,-296.082377,76.609550
3706.145165,-8512.368333,-666.185348,-459.657299
3706.145494,-8068.244768,0.000000,-383.047749
3706.145824,-10584.944971,296.082377,-229.828649
3706.146154,-10510.924376,444.123565,766.095498
3706.146484,-9918.759623,0.000000,689.485948
3706.146814,-9252.574275,888.247130,383.047749
3706.147143,-9844.739029,-370.102971,306.438199
3706.147473,-10732.986159,0.000000,0.000000
3706.147803,-9474.636058,-296.082377,229.828649
3706.148133,-8882.471304,-222.061783,76.609550
3706.148462,-8660.409521,444.123565,612.876398
3706.148792,-11029.068536,74.020594,153.219100
3706.149122,-10658.965565,370.102971,459.657299
3706.149452,-9400.615463,-444.123565,536.266849
3706.149782,-9030.512492,370.102971,306.438199
3706.150111,-10584.944971,0.000000,689.485948
3706.150441,-11177.109724,0.000000,1225.752797
3706.150771,-9474.636058,-296.082377,1072.533697
3706.151101,-8142.265362,296.082377,459.657299
3706.151430,-9400.615463,444.123565,153.219100
3706.151760,-11325.150913,0.000000,-229.828649
3706.152090,-10140.821405,0.000000,0.000000
3706.152420,-8882.471304,0.000000,229.828649
3706.152750,-9326.594869,370.102971,1378.971896
3706.153079,-10955.047942,0.000000,1455.581446
3706.153409,-10955.047942,74.020594,229.828649
3706.153739,-8882.471304,-518.144159,-689.485948
3706.154069,-7994.224174,0.000000,-766.095498
3706.154399,-9474.636058,370.102971,383.047749
3706.154728,-11843.295072,740.205942,383.047749
3706.155058,-10436.903782,148.041188,-306.438199
3706.155388,-9326.594869,0.000000,-536.266849
3706.155718,-8882.471304,74.020594,-536.266849
3706.156047,-10658.965565,0.000000,-306.438199
3706.156377,-11177.109724,518.144159,0.000000
3706.156707,-9400.615463,-370.102971,0.000000
3706.157037,-8290.306550,222.061783,0.000000
3706.157367,-9400.615463,296.082377,153.219100
3706.157696,-11695.253884,666.185348,-76.609550
3706.158026,-10807.006753,370.102971,-766.095498
3706.158356,-9178.553681,-296.082377,-1072.533697
3706.158686,-8808.450710,0.000000,0.000000
3706.159015,-10658.965565,-222.061783,536.266849
3706.159345,-10807.006753,-148.041188,689.485948
3706.159675,-9030.512492,-888.247130,383.047749
3706.160005,-7994.224174,-222.061783,612.876398
3706.160335,-9622.677246,0.000000,919.314598
3706.160664,-11917.315666,74.020594,689.485948
3706.160994,-10510.924376,0.000000,1225.752797
3706.161324,-8882.471304,-814.226536,536.266849
3706.161654,-8808.450710,0.000000,842.705048
3706.161983,-10510.924376,-370.102971,842.705048
3706.162313,-10288.862594,148.041188,1149.143247
3706.162643,-8512.368333,-592.164754,-153.219100
3706.162973,-8438.347739,444.123565,-383.047749
3706.163303,-10584.944971,518.144159,612.876398
3706.163632,-12583.501014,518.144159,1149.143247
3706.163962,-10510.924376,-296.082377,612.876398
3706.164292,-8660.409521,-814.226536,-612.876398
3706.164622,-7994.224174,-740.205942,-306.438199
3706.164952,-9770.718434,-370.102971,766.095498
3706.165281,-9844.739029,222.061783,536.266849
3706.165611,-9030.512492,-148.041188,536.266849
3706.165941,-8808.450710,444.123565,153.219100
3706.166271,-10807.006753,296.082377,459.657299
3706.166600,-12435.459826,888.247130,919.314598
3706.166930,-10362.883188,-296.082377,1072.533697
3706.167260,-8512.368333,-814.226536,689.485948
3706.167590,-8364.327145,-148.041188,612.876398
3706.167920,-10658.965565,-148.041188,76.609550
3706.168249,-10362.883188,666.185348,383.047749
3706.168579,-9548.656652,0.000000,-153.219100
3706.168909,-9400.615463,888.247130,0.000000
3706.169239,-10510.924376,962.267725,76.609550
3706.169568,-11621.233289,1480.411884,153.219100
3706.169898,-9918.759623,444.123565,-612.876398
3706.170228,-8808.450710,592.164754,-1378.971896
3706.170558,-9400.615463,296.082377,-842.705048
3706.170888,-11473.192101,518.144159,-306.438199
3706.171217,-10214.842000,74.020594,76.609550
3706.171547,-8142.265362,-518.144159,0.000000
3706.171877,-8068.244768,148.041188,153.219100
3706.172207,-10436.903782,222.061783,383.047749
3706.172537,-11769.274478,592.164754,766.095498
3706.172866,-10066.800811,0.000000,689.485948
3706.173196,-8660.409521,370.102971,689.485948
3706.173526,-9104.533087,0.000000,383.047749
3706.173856,-10584.944971,-148.041188,229.828649
3706.174185,-9770.718434,-444.123565,-76.609550
3706.174515,-8068.244768,-592.164754,0.000000
3706.174845,-7476.080014,222.061783,0.000000
3706.175175,-9474.636058,592.164754,536.266849
3706.175505,-11177.109724,1110.308913,229.828649
3706.175834,-9770.718434,518.144159,0.000000
3706.176164,-9252.574275,444.123565,-306.438199
3706.176494,-10214.842000,148.041188,0.000000
3706.176824,-11621.233289,296.082377,689.485948
3706.177153,-9770.718434,0.000000,612.876398
3706.177483,-7994.224174,-740.205942,842.705048
3706.177813,-8364.327145,0.000000,1455.581446
3706.178143,-10584.944971,0.000000,842.705048
3706.178473,-11399.171507,370.102971,612.876398
3706.178802,-9918.759623,74.020594,229.828649
3706.179132,-8882.471304,0.000000,0.000000
3706.179462,-9326.594869,-518.144159,383.047749
3706.179792,-11251.130318,74.020594,536.266849
3706.180121,-10066.800811,-222.061783,383.047749
3706.180451,-8660.409521,-740.205942,766.095498
3706.180781,-8586.388927,148.041188,842.705048
3706.181111,-11103.089130,148.041188,1149.143247
3706.181441,-11103.089130,370.102971,995.924147
3706.181770,-9844.739029,148.041188,919.314598
3706.182100,-9770.718434,222.061783,306.438199
3706.182430,-10436.903782,-148.041188,306.438199
3706.182760,-11547.212695,0.000000,459.657299
3706.183090,-9326.594869,-518.144159,153.219100
3706.183419,-8216.285956,-148.041188,0.000000
3706.183749,-8142.265362,148.041188,-536.266849
3706.184079,-10955.047942,296.082377,-153.219100
3706.184409,-11103.089130,0.000000,-766.095498
3706.184738,-9548.656652,-592.164754,-459.657299
3706.185068,-9178.553681,0.000000,-1072.533697
3706.185398,-9474.636058,-740.205942,0.000000
3706.185728,-10658.965565,-518.144159,153.219100
3706.186058,-9326.594869,-814.226536,306.438199
3706.186387,-8142.265362,-962.267725,-229.828649
3706.186717,-8660.409521,148.041188,76.609550
3706.187047,-10881.027347,-370.102971,-383.047749
3706.187377,-11103.089130,740.205942,689.485948
3706.187706,-10214.842000,-666.185348,0.000000
3706.188036,-8882.471304,74.020594,-1378.971896
3706.188366,-9696.697840,-666.185348,-689.485948
3706.188696,-10807.006753,-370.102971,0.000000
3706.189026,-9326.594869,-370.102971,229.828649
3706.189355,-8142.265362,222.061783,0.000000
3706.189685,-8882.471304,1110.308913,766.095498
3706.190015,-11917.315666,888.247130,306.438199
3706.190345,-11621.233289,666.185348,-383.047749
3706.190675,-9918.759623,814.226536,-995.924147
3706.191004,-9400.615463,370.102971,-459.657299
3706.191334,-9844.739029,222.061783,0.000000
3706.191664,-10066.800811,-148.041188,995.924147
3706.191994,-8956.491898,-148.041188,689.485948
3706.192323,-7920.203579,0.000000,306.438199
3706.192653,-9252.574275,444.123565,842.705048
3706.192983,-11325.150913,222.061783,459.657299
3706.193313,-10214.842000,444.123565,1915.238745
3706.193643,-8512.368333,0.000000,1685.410096
3706.193972,-9178.553681,222.061783,2068.457845
3706.194302,-10732.986159,0.000000,1608.800546
3706.194632,-11103.089130,0.000000,612.876398
3706.194962,-7994.224174,-666.185348,153.219100
3706.195291,-7846.182985,-74.020594,612.876398
3706.195621,-8956.491898,666.185348,1762.019645
3706.195951,-11251.130318,814.226536,1608.800546
3706.196281,-9992.780217,740.205942,0.000000
3706.196611,-8660.409521,296.082377,-459.657299
3706.196940,-9622.677246,962.267725,-153.219100
3706.197270,-11621.233289,444.123565,919.314598
3706.197600,-11325.150913,518.144159,766.095498
3706.197930,-8660.409521,0.000000,536.266849
3706.198259,-8068.244768,0.000000,0.000000
3706.198589,-9326.594869,0.000000,76.609550
3706.198919,-11325.150913,518.144159,-536.266849
3706.199249,-9844.739029,222.061783,459.657299
3706.199579,-9030.512492,74.020594,-383.047749
3706.199908,-9474.636058,740.205942,0.000000
3706.200238,-11769.274478,222.061783,383.047749
3706.200568,-11917.315666,222.061783,0.000000
3706.200898,-9548.656652,-666.185348,-536.266849
3706.201228,-7846.182985,-370.102971,-383.047749
3706.201557,-8808.450710,518.144159,0.000000
3706.201887,-11251.130318,740.205942,0.000000
3706.202217,-10288.862594,962.267725,-536.266849
3706.202547,-9622.677246,444.123565,-1149.143247
3706.202877,-9992.780217,592.164754,-1378.971896
3706.203206,-11251.130318,-444.123565,-383.047749
3706.203536,-10807.006753,-518.144159,919.314598
3706.203866,-7920.203579,-1184.329507,1225.752797
3706.204196,-7105.977043,-666.185348,153.219100
3706.204526,-8956.491898,0.000000,76.609550
3706.204855,-11177.109724,222.061783,153.219100
3706.205185,-10288.862594,592.164754,1378.971896
3706.205515,-8956.491898,0.000000,536.266849
3706.205845,-9696.697840,370.102971,842.705048
3706.206175,-11695.253884,0.000000,536.266849
3706.206504,-11547.212695,222.061783,153.219100
3706.206834,-8660.409521,-1184.329507,-995.924147
3706.207164,-7402.059420,-592.164754,-995.924147
3706.207494,-8290.306550,0.000000,306.438199
3706.207824,-10436.903782,666.185348,1302.362347
3706.208153,-10140.821405,592.164754,1762.019645
3706.208483,-9474.636058,0.000000,-306.438199
3706.208813,-9992.780217,518.144159,-383.047749
3706.209143,-11621.233289,-444.123565,995.924147
3706.209472,-11029.068536,-444.123565,2145.067394
3706.209802,-8512.368333,-1332.370696,2068.457845
3706.210132,-7402.059420,-222.061783,919.314598
3706.210462,-8808.450710,-592.164754,0.000000
3706.210792,-11103.089130,444.123565,383.047749
3706.211121,-11325.150913,148.041188,536.266849
3706.211451,-10362.883188,222.061783,766.095498
3706.211781,-9178.553681,370.102971,612.876398
3706.212111,-9696.697840,0.000000,459.657299
3706.212441,-10066.800811,0.000000,229.828649
3706.212770,-9770.718434,-518.144159,-229.828649
3706.213100,-9252.574275,148.041188,0.000000
3706.213430,-10436.903782,0.000000,153.219100
3706.213760,-11547.212695,148.041188,766.095498
3706.214090,-9400.615463,-518.144159,153.219100
3706.214419,-8660.409521,-444.123565,-536.266849
3706.214749,-9400.615463,-518.144159,-536.266849
3706.215079,-11177.109724,-740.205942,0.000000
3706.215409,-10214.842000,0.000000,229.828649
3706.215739,-9178.553681,-666.185348,536.266849
3706.216068,-8808.450710,0.000000,76.609550
3706.216398,-9844.739029,-518.144159,-76.609550
3706.216728,-11029.068536,74.020594,-689.485948
3706.217058,-9622.677246,74.020594,-1072.533697
3706.217388,-9474.636058,148.041188,-612.876398
3706.217717,-9548.656652,-74.020594,-459.657299
3706.218047,-11029.068536,-444.123565,153.219100
3706.218377,-10510.924376,-148.041188,229.828649
3706.218707,-8956.491898,-1258.350101,536.266849
3706.219037,-8364.327145,-296.082377,153.219100
3706.219366,-9844.739029,0.000000,76.609550
3706.219696,-10881.027347,592.164754,0.000000
3706.220026,-10066.800811,74.020594,459.657299
3706.220356,-9622.677246,222.061783,919.314598
3706.220686,-9696.697840,370.102971,919.314598
3706.221015,-11103.089130,0.000000,612.876398
3706.221345,-10140.821405,-370.102971,153.219100
3706.221675,-8512.368333,-962.267725,0.000000
3706.222005,-7920.203579,148.041188,689.485948
3706.222335,-9474.636058,148.041188,766.095498
3706.222664,-10066.800811,1036.288319,0.000000
3706.222994,-9696.697840,592.164754,383.047749
3706.223324,-9622.677246,740.205942,76.609550
3706.223654,-9770.718434,296.082377,0.000000
3706.223984,-11103.089130,444.123565,383.047749
3706.224313,-10066.800811,296.082377,1149.143247
3706.224643,-8808.450710,-518.144159,766.095498
3706.224973,-8142.265362,0.000000,1302.362347
3706.225303,-10140.821405,370.102971,1608.800546
3706.225633,-10881.027347,962.267725,1455.581446
3706.225962,-9844.739029,370.102971,919.314598
3706.226292,-9844.739029,1036.288319,995.924147
3706.226622,-9844.739029,814.226536,995.924147
3706.226952,-11399.171507,814.226536,689.485948
3706.227282,-9992.780217,370.102971,-459.657299
3706.227611,-7920.203579,0.000000,-1072.533697
3706.227941,-7550.100608,666.185348,-612.876398
3706.228271,-10362.883188,814.226536,0.000000
3706.228601,-11621.233289,962.267725,0.000000
3706.228931,-10436.903782,370.102971,0.000000
3706.229260,-9400.615463,962.267725,-459.657299
3706.229590,-10362.883188,0.000000,-306.438199
3706.229920,-11251.130318,0.000000,383.047749
3706.230250,-9400.615463,-148.041188,229.828649
3706.230580,-8216.285956,-148.041188,306.438199
3706.230909,-7994.224174,222.061783,383.047749
3706.231239,-10881.027347,444.123565,459.657299
3706.231569,-10584.944971,444.123565,-229.828649
3706.231899,-9030.512492,0.000000,-842.705048
3706.232229,-8882.471304,148.041188,-842.705048
3706.232558,-9992.780217,-296.082377,229.828649
3706.232888,-10955.047942,-74.020594,459.657299
3706.233218,-8586.388927,-444.123565,0.000000
3706.233548,-8290.306550,-222.061783,306.438199
3706.233878,-8956.491898,296.082377,0.000000
3706.234207,-11177.109724,444.123565,306.438199
3706.234537,-11103.089130,518.144159,612.876398
3706.234867,-9474.636058,0.000000,689.485948
3706.235197,-8882.471304,0.000000,76.609550
3706.235527,-9770.718434,-370.102971,383.047749
3706.235856,-10732.986159,296.082377,766.095498
3706.236186,-9696.697840,-222.061783,459.657299
3706.236516,-9104.533087,-222.061783,536.266849
3706.236846,-8882.471304,518.144159,995.924147
3706.237176,-11473.192101,296.082377,1072.533697
3706.237505,-10732.986159,74.020594,383.047749
3706.237835,-8956.491898,-518.144159,689.485948
3706.238165,-8660.409521,148.041188,-229.828649
3706.238495,-10214.842000,0.000000,0.000000
3706.238825,-11325.150913,0.000000,612.876398
3706.239154,-9770.718434,-592.164754,1838.629195
3706.239484,-8290.306550,-370.102971,1225.752797
3706.239814,-8586.388927,-370.102971,1762.019645
3706.240144,-11325.150913,-222.061783,1225.752797
3706.240474,-10658.965565,74.020594,689.485948
3706.240803,-9474.636058,-148.041188,1302.362347
3706.241133,-9474.636058,444.123565,536.266849
3706.241463,-11251.130318,0.000000,76.609550
3706.241793,-11177.109724,518.144159,0.000000
3706.242123,-8660.409521,-222.061783,-612.876398
3706.242452,-7846.182985,0.000000,-536.266849
3706.242782,-9252.574275,444.123565,76.609550
3706.243112,-12213.398043,444.123565,612.876398
3706.243442,-10510.924376,370.102971,536.266849
3706.243772,-8882.471304,-296.082377,-842.705048
3706.244101,-8956.491898,148.041188,-1225.752797
3706.244431,-10732.986159,-444.123565,-842.705048
3706.244761,-10807.006753,222.061783,383.047749
3706.245091,-9400.615463,-1184.329507,0.000000
3706.245421,-9030.512492,-222.061783,459.657299
3706.245750,-9696.697840,0.000000,766.095498
3706.246080,-10732.986159,0.000000,0.000000
3706.246410,-9326.594869,74.020594,-459.657299
3706.246740,-8142.265362,0.000000,-612.876398
3706.247070,-9104.533087,296.082377,-612.876398
3706.247399,-10658.965565,148.041188,-383.047749
3706.247729,-10955.047942,740.205942,-306.438199
3706.248059,-9400.615463,-370.102971,-459.657299
3706.248389,-8586.388927,0.000000,-459.657299
3706.248719,-9474.636058,-148.041188,229.828649
3706.249048,-11029.068536,148.041188,1149.143247
3706.249378,-9548.656652,0.000000,1072.533697
3706.249708,-9178.553681,-222.061783,1072.533697
3706.250038,-9178.553681,518.144159,919.314598
3706.250368,-10807.006753,222.061783,766.095498
3706.250697,-11029.068536,0.000000,306.438199
3706.251027,-9400.615463,-962.267725,0.000000
3706.251357,-8216.285956,-444.123565,76.609550
3706.251687,-9400.615463,-296.082377,995.924147
3706.252017,-10881.027347,370.102971,1532.190996
3706.252346,-8956.491898,0.000000,459.657299
3706.252676,-8512.368333,0.000000,-612.876398
3706.253006,-9548.656652,296.082377,-459.657299
3706.253336,-11473.192101,0.000000,0.000000
3706.253666,-11325.150913,-148.041188,1149.143247
3706.253995,-9178.553681,-1258.350101,995.924147
3706.254325,-7994.224174,-518.144159,842.705048
3706.254655,-9326.594869,-370.102971,842.705048
3706.254985,-10510.924376,74.020594,306.438199
3706.255315,-9474.636058,444.123565,612.876398
3706.255644,-9326.594869,592.164754,76.609550
3706.255974,-10288.862594,962.267725,306.438199
3706.256304,-11843.295072,222.061783,306.438199
3706.256634,-10732.986159,222.061783,0.000000
3706.256964,-9030.512492,-888.247130,-995.924147
3706.257293,-8586.388927,-444.123565,-612.876398
3706.257623,-9844.739029,74.020594,-842.705048
3706.257953,-10510.924376,148.041188,0.000000
3706.258283,-9104.533087,0.000000,0.000000
3706.258613,-8956.491898,74.020594,229.828649
3706.258942,-9326.594869,962.267725,306.438199
3706.259272,-10955.047942,518.144159,0.000000
3706.259602,-10436.903782,888.247130,-383.047749
3706.259932,-8586.388927,-370.102971,-919.314598
3706.260262,-9030.512492,518.144159,-383.047749
3706.260591,-10436.903782,0.000000,-306.438199
3706.260921,-11473.192101,370.102971,-612.876398
3706.261251,-8956.491898,-592.164754,-306.438199
3706.261581,-7846.182985,0.000000,-459.657299
3706.261911,-8068.244768,222.061783,229.828649
3706.262240,-10807.006753,444.123565,766.095498
3706.262570,-10955.047942,962.267725,1225.752797
3706.262900,-10658.965565,74.020594,1225.752797
3706.263230,-9622.677246,592.164754,1608.800546
3706.263560,-10807.006753,0.000000,995.924147
3706.263889,-11029.068536,296.082377,689.485948
3706.264219,-8586.388927,-296.082377,1072.533697
3706.264549,-7624.121203,222.061783,306.438199
3706.264879,-8882.471304,592.164754,612.876398
3706.265209,-11251.130318,740.205942,536.266849
3706.265538,-10955.047942,1110.308913,536.266849
3706.265868,-9548.656652,222.061783,-383.047749
3706.266198,-8956.491898,148.041188,-459.657299
3706.266528,-10584.944971,-444.123565,0.000000
3706.266858,-10140.821405,-296.082377,383.047749
3706.267187,-8438.347739,-592.164754,1072.533697
3706.267517,-7698.141797,0.000000,1302.362347
3706.267847,-9400.615463,0.000000,536.266849
3706.268177,-11029.068536,444.123565,842.705048
3706.268507,-10436.903782,444.123565,383.047749
3706.268836,-9400.615463,-148.041188,766.095498
3706.269166,-9178.553681,0.000000,842.705048
3706.269496,-10214.842000,-740.205942,689.485948
3706.269826,-9326.594869,0.000000,76.609550
3706.270156,-7846.182985,-666.185348,-612.876398
3706.270485,-8290.306550,296.082377,-842.705048
3706.270815,-9548.656652,222.061783,-459.657299
3706.271145,-11325.150913,740.205942,76.609550
3706.271475,-11251.130318,740.205942,-383.047749
3706.271805,-9992.780217,222.061783,-383.047749
3706.272134,-9770.718434,0.000000,-842.705048
3706.272464,-10436.903782,-592.164754,-459.657299
3706.272794,-10362.883188,-148.041188,383.047749
3706.273124,-9178.553681,-222.061783,689.485948
3706.273454,-9400.615463,222.061783,689.485948
3706.273783,-10140.821405,0.000000,459.657299
3706.274113,-11399.171507,74.020594,76.609550
3706.274443,-10510.924376,0.000000,383.047749
3706.274773,-9622.677246,-444.123565,383.047749
3706.275103,-9252.574275,-592.164754,459.657299
3706.275432,-10288.862594,-740.205942,153.219100
3706.275762,-9844.739029,-592.164754,-689.485948
3706.276092,-9252.574275,-1184.329507,-766.095498
3706.276422,-8438.347739,-740.205942,76.609550
3706.276752,-9178.553681,-1110.308913,1225.752797
3706.277081,-10881.027347,0.000000,1608.800546
3706.277411,-9104.533087,-148.041188,76.609550
3706.277741,-8512.368333,-666.185348,306.438199
3706.278071,-9030.512492,0.000000,229.828649
3706.278401,-11029.068536,0.000000,766.095498
3706.278730,-11325.150913,888.247130,842.705048
3706.279060,-9622.677246,-444.123565,306.438199
3706.279390,-8586.388927,370.102971,153.219100
3706.279720,-9622.677246,74.020594,-306.438199
3706.280050,-11325.150913,814.226536,-766.095498
3706.280379,-9992.780217,518.144159,0.000000
3706.280709,-8438.347739,888.247130,153.219100
3706.281039,-8882.471304,740.205942,76.609550
3706.281369,-11251.130318,296.082377,0.000000
3706.281699,-10658.965565,740.205942,0.000000
3706.282028,-9252.574275,-296.082377,-76.609550
3706.282358,-8438.347739,222.061783,0.000000
3706.282688,-9622.677246,-296.082377,1532.190996
3706.283018,-10732.986159,888.247130,1991.848295
3706.283348,-9622.677246,148.041188,1685.410096
3706.283677,-9474.636058,518.144159,995.924147
3706.284007,-9474.636058,888.247130,612.876398
3706.284337,-11399.171507,814.226536,0.000000
3706.284667,-10510.924376,814.226536,76.609550
3706.284997,-8956.491898,370.102971,76.609550
3706.285326,-9178.553681,666.185348,-76.609550
3706.285656,-9844.739029,592.164754,-459.657299
3706.285986,-10584.944971,1258.350101,-919.314598
3706.286316,-9696.697840,296.082377,-383.047749
3706.286646,-9326.594869,814.226536,0.000000
3706.286975,-9992.780217,666.185348,459.657299
3706.287305,-11177.109724,814.226536,0.000000
3706.287635,-10807.006753,518.144159,919.314598
3706.287965,-9548.656652,0.000000,306.438199
3706.288295,-8586.388927,148.041188,-306.438199
3706.288624,-9770.718434,0.000000,-306.438199
3706.288954,-10584.944971,370.102971,0.000000
3706.289284,-9474.636058,-296.082377,0.000000
3706.289614,-9030.512492,74.020594,-536.266849
3706.289944,-9474.636058,444.123565,0.000000
3706.290273,-11695.253884,0.000000,-459.657299
3706.290603,-10658.965565,-222.061783,-383.047749
3706.290933,-9400.615463,-1184.329507,-459.657299
3706.291263,-8882.471304,-518.144159,0.000000
3706.291593,-9104.533087,-1036.288319,153.219100
3706.291922,-9474.636058,0.000000,1072.533697
3706.292252,-8438.347739,-740.205942,383.047749
3706.292582,-8512.368333,222.061783,76.609550
3706.292912,-9918.759623,444.123565,0.000000
3706.293242,-11843.295072,0.000000,-153.219100
3706.293571,-10510.924376,-518.144159,536.266849
3706.293901,-8808.450710,-888.247130,536.266849
3706.294231,-8364.327145,-222.061783,306.438199
3706.294561,-10362.883188,-592.164754,0.000000
3706.294891,-9844.739029,0.000000,-612.876398
3706.295220,-9030.512492,-740.205942,-612.876398
3706.295550,-8956.491898,518.144159,-536.266849
3706.295880,-10362.883188,148.041188,306.438199
3706.296210,-11843.295072,296.082377,1149.143247
3706.296540,-9992.780217,-296.082377,842.705048
3706.296869,-9178.553681,-740.205942,229.828649
3706.297199,-9252.574275,-962.267725,612.876398
3706.297529,-11029.068536,-1184.329507,1302.362347
3706.297859,-10436.903782,-296.082377,1915.238745
3706.298189,-9030.512492,-1036.288319,2068.457845
3706.298518,-8808.450710,222.061783,1991.848295
3706.298848,-10362.883188,0.000000,1302.362347
3706.299178,-11251.130318,148.041188,1072.533697
3706.299508,-10436.903782,74.020594,842.705048
3706.299838,-9844.739029,-296.082377,612.876398
3706.300167,-9030.512492,74.020594,689.485948
3706.300497,-9844.739029,148.041188,306.438199
3706.300827,-9474.636058,222.061783,-383.047749
3706.301157,-8660.409521,-518.144159,-842.705048
3706.301487,-8512.368333,740.205942,-229.828649
3706.301816,-9918.759623,740.205942,0.000000
3706.302146,-11103.089130,962.267725,-383.047749
3706.302476,-9770.718434,148.041188,0.000000
3706.302806,-9104.533087,222.061783,0.000000
3706.303136,-8660.409521,74.020594,76.609550
3706.303465,-10658.965565,74.020594,0.000000
3706.303795,-10288.862594,222.061783,-306.438199
3706.304125,-8808.450710,-222.061783,-919.314598
3706.304455,-7920.203579,666.185348,-919.314598
3706.304785,-9918.759623,962.267725,0.000000
3706.305114,-11251.130318,1258.350101,-536.266849
3706.305444,-10066.800811,222.061783,-995.924147
3706.305774,-9400.615463,222.061783,-1225.752797
3706.306104,-9474.636058,0.000000,0.000000
3706.306434,-10881.027347,0.000000,383.047749
3706.306763,-9548.656652,0.000000,995.924147
3706.307093,-8438.347739,-592.164754,459.657299
3706.307423,-7994.224174,814.226536,995.924147
3706.307753,-10214.842000,444.123565,306.438199
3706.308083,-12139.377449,962.267725,229.828649
3706.308412,-10510.924376,296.082377,229.828649
3706.308742,-9474.636058,0.000000,612.876398
3706.309072,-9548.656652,0.000000,995.924147
3706.309402,-11251.130318,0.000000,1455.581446
3706.309732,-10214.842000,-296.082377,536.266849
3706.310061,-8586.388927,-740.205942,-306.438199
3706.310391,-7846.182985,0.000000,0.000000
3706.310721,-10436.903782,74.020594,1225.752797
3706.311051,-11399.171507,518.144159,842.705048
3706.311381,-9400.615463,-444.123565,842.705048
3706.311710,-8290.306550,-296.082377,153.219100
3706.312040,-9326.594869,-518.144159,995.924147
3706.312370,-10658.965565,-666.185348,1378.971896
3706.312700,-9770.718434,-444.123565,1838.629195
3706.313030,-8512.368333,-740.205942,1762.019645
3706.313359,-8364.327145,0.000000,1991.848295
3706.313689,-11399.171507,74.020594,766.095498
3706.314019,-11843.295072,592.164754,0.000000
3706.314349,-9548.656652,-518.144159,-612.876398
3706.314679,-7846.182985,74.020594,0.000000
3706.315009,-9326.594869,0.000000,0.000000
3706.315338,-11251.130318,444.123565,536.266849
3706.315668,-10140.821405,-370.102971,-76.609550
3706.315998,-8142.265362,444.123565,229.828649
3706.316328,-9622.677246,148.041188,0.000000
3706.316658,-11621.233289,-222.061783,-383.047749
3706.316987,-10955.047942,222.061783,0.000000
3706.317317,-9474.636058,-222.061783,306.438199
3706.317647,-9326.594869,444.123565,76.609550
3706.317977,-10436.903782,0.000000,0.000000
3706.318307,-11251.130318,148.041188,0.000000
3706.318636,-9400.615463,-296.082377,0.000000
3706.318966,-9030.512492,74.020594,0.000000
3706.319296,-9696.697840,222.061783,0.000000
3706.319626,-10732.986159,0.000000,-842.705048
3706.319956,-9770.718434,444.123565,-1455.581446
3706.320285,-8512.368333,-148.041188,-1762.019645
3706.320615,-8808.450710,296.082377,-766.095498
3706.320945,-10214.842000,-148.041188,383.047749
3706.321275,-10881.027347,0.000000,1225.752797
3706.321605,-9770.718434,-740.205942,766.095498
3706.321934,-8660.409521,-518.144159,689.485948
3706.322264,-8734.430116,-740.205942,842.705048
3706.322594,-10362.883188,0.000000,612.876398
3706.322924,-9992.780217,370.102971,1149.143247
3706.323254,-9030.512492,222.061783,229.828649
3706.323583,-9104.533087,592.164754,153.219100
3706.323913,-10362.883188,222.061783,-76.609550
3706.324243,-11325.150913,296.082377,0.000000
3706.324573,-10066.800811,0.000000,0.000000
3706.324903,-8438.347739,-74.020594,0.000000
3706.325232,-8512.368333,222.061783,76.609550
3706.325562,-10732.986159,0.000000,0.000000
3706.325892,-10362.883188,222.061783,-612.876398
3706.326222,-9474.636058,-370.102971,0.000000
3706.326552,-9548.656652,518.144159,0.000000
3706.326881,-10658.965565,0.000000,919.314598
3706.327211,-10436.903782,0.000000,1378.971896
3706.327541,-8882.471304,0.000000,1532.190996
3706.327871,-8438.347739,0.000000,1225.752797
3706.328201,-9474.636058,518.144159,459.657299
3706.328530,-11325.150913,222.061783,-459.657299
3706.328860,-10436.903782,444.123565,-612.876398
3706.329190,-9622.677246,-370.102971,-383.047749
3706.329520,-9548.656652,0.000000,-76.609550
3706.329850,-10658.965565,-962.267725,0.000000
3706.330179,-9622.677246,0.000000,-995.924147
3706.330509,-7624.121203,-666.185348,153.219100
3706.330839,-8364.327145,148.041188,76.609550
3706.331169,-9474.636058,296.082377,766.095498
3706.331499,-11843.295072,592.164754,919.314598
3706.331828,-10732.986159,296.082377,229.828649
3706.332158,-9844.739029,-370.102971,-459.657299
3706.332488,-9918.759623,-444.123565,-229.828649
3706.332818,-11029.068536,-888.247130,306.438199
3706.333148,-10510.924376,-518.144159,76.609550
3706.333477,-8882.471304,-444.123565,229.828649
3706.333807,-8290.306550,0.000000,-383.047749
3706.334137,-9326.594869,518.144159,-689.485948
3706.334467,-10584.944971,518.144159,-919.314598
3706.334797,-11029.068536,888.247130,-612.876398
3706.335127,-9844.739029,148.041188,-919.314598
3706.335456,-9474.636058,0.000000,-536.266849
3706.335786,-10436.903782,-592.164754,0.000000
3706.336116,-10955.047942,-296.082377,383.047749
3706.336446,-9252.574275,-740.205942,612.876398
3706.336776,-7772.162391,-740.205942,689.485948
3706.337105,-8882.471304,370.102971,1455.581446
3706.337435,-11473.192101,592.164754,1149.143247
3706.337765,-11103.089130,222.061783,306.438199
3706.338095,-9548.656652,0.000000,306.438199
3706.338425,-9178.553681,0.000000,0.000000
3706.338754,-10584.944971,-444.123565,0.000000
3706.339084,-10066.800811,-74.020594,-536.266849
3706.339414,-7846.182985,-740.205942,-689.485948
3706.339744,-7254.018232,74.020594,-612.876398
3706.340074,-9548.656652,740.205942,153.219100
3706.340403,-12361.439231,1036.288319,306.438199
3706.340733,-11399.171507,518.144159,612.876398
3706.341063,-9844.739029,74.020594,383.047749
3706.341393,-9326.594869,-222.061783,689.485948
3706.341723,-10436.903782,-518.144159,1532.190996
3706.342052,-9474.636058,-444.123565,1915.238745
3706.342382,-8216.285956,-666.185348,1915.238745
3706.342712,-7846.182985,0.000000,1149.143247
3706.343042,-9770.718434,740.205942,689.485948
3706.343372,-11621.233289,1628.453072,536.266849
3706.343701,-9992.780217,296.082377,383.047749
3706.344031,-9326.594869,814.226536,229.828649
3706.344361,-9992.780217,740.205942,229.828649
3706.344691,-11695.253884,148.041188,306.438199
3706.345021,-10066.800811,74.020594,-459.657299
3706.345350,-8364.327145,-814.226536,-229.828649
3706.345680,-7846.182985,222.061783,153.219100
3706.346010,-9622.677246,518.144159,1149.143247
3706.346340,-11695.253884,1332.370696,1225.752797
3706.346670,-10584.944971,814.226536,612.876398
3706.346999,-10510.924376,444.123565,0.000000
3706.347329,-10732.986159,74.020594,-76.609550
3706.347659,-11917.315666,-148.041188,-766.095498
3706.347989,-9770.718434,-148.041188,-459.657299
3706.348319,-7846.182985,-962.267725,-536.266849
3706.348648,-7772.162391,0.000000,-153.219100
3706.348978,-10362.883188,74.020594,-229.828649
3706.349308,-11325.150913,888.247130,-995.924147
3706.349638,-9770.718434,0.000000,-536.266849
3706.349968,-9030.512492,0.000000,-459.657299
3706.350297,-9770.718434,0.000000,153.219100
3706.350627,-10658.965565,-296.082377,459.657299
3706.350957,-9548.656652,-370.102971,612.876398
3706.351287,-8438.347739,-592.164754,-229.828649
3706.351617,-8364.327145,74.020594,0.000000
3706.351946,-10214.842000,148.041188,306.438199
3706.352276,-11325.150913,444.123565,919.314598
3706.352606,-10140.821405,148.041188,1225.752797
3706.352936,-9474.636058,0.000000,689.485948
3706.353266,-9474.636058,0.000000,306.438199
3706.353596,-11251.130318,-518.144159,459.657299
3706.353925,-9548.656652,-740.205942,689.485948
3706.354255,-7994.224174,-888.247130,536.266849
3706.354585,-7920.203579,222.061783,76.609550
3706.354915,-9918.759623,370.102971,306.438199
3706.355245,-10362.883188,962.267725,-306.438199
3706.355574,-9326.594869,296.082377,0.000000
3706.355904,-9696.697840,666.185348,0.000000
3706.356234,-10214.842000,74.020594,1302.362347
3706.356564,-11399.171507,0.000000,1608.800546
3706.356894,-9696.697840,0.000000,1302.362347
3706.357223,-8586.388927,-592.164754,842.705048
3706.357553,-8364.327145,814.226536,1378.971896
3706.357883,-10436.903782,518.144159,1302.362347
3706.358213,-10732.986159,1702.473667,919.314598
3706.358543,-9474.636058,592.164754,153.219100
3706.358872,-9474.636058,1406.391290,0.000000
3706.359202,-10658.965565,370.102971,-1225.752797
3706.359532,-11769.274478,444.123565,-1072.533697
3706.359862,-9844.739029,-370.102971,-306.438199
3706.360192,-8586.388927,-296.082377,229.828649
3706.360521,-7624.121203,148.041188,842.705048
3706.360851,-10362.883188,222.061783,1149.143247
3706.361181,-10955.047942,1406.391290,0.000000
3706.361511,-10140.821405,518.144159,-689.485948
3706.361841,-9696.697840,666.185348,-536.266849
3706.362170,-10066.800811,0.000000,0.000000
3706.362500,-11621.233289,148.041188,229.828649
3706.362830,-9622.677246,-888.247130,0.000000
3706.363160,-8364.327145,-962.267725,-306.438199
3706.363490,-7772.162391,-148.041188,-766.095498
3706.363819,-9992.780217,-444.123565,-612.876398
3706.364149,-10584.944971,370.102971,306.438199
3706.364479,-9104.533087,0.000000,0.000000
3706.364809,-8216.285956,0.000000,-842.705048
3706.365139,-9622.677246,-370.102971,-919.314598
3706.365468,-11177.109724,-148.041188,-229.828649
3706.365798,-10214.842000,-740.205942,0.000000
3706.366128,-9030.512492,-592.164754,306.438199
3706.366458,-8364.327145,-296.082377,766.095498
3706.366788,-10584.944971,0.000000,689.485948
3706.367117,-10732.986159,222.061783,536.266849
3706.367447,-9992.780217,-370.102971,842.705048
3706.367777,-9844.739029,370.102971,-383.047749
3706.368107,-11103.089130,74.020594,0.000000
3706.368437,-11695.253884,0.000000,842.705048
3706.368766,-9252.574275,-962.267725,1378.971896
3706.369096,-7772.162391,-962.267725,153.219100
3706.369426,-8142.265362,-592.164754,766.095498
3706.369756,-10214.842000,0.000000,766.095498
3706.370086,-9844.739029,0.000000,1225.752797
3706.370415,-9622.677246,0.000000,612.876398
3706.370745,-10140.821405,740.205942,766.095498
3706.371075,-11399.171507,-296.082377,766.095498
3706.371405,-11843.295072,0.000000,842.705048
3706.371735,-9474.636058,-888.247130,1072.533697
3706.372064,-8068.244768,-888.247130,919.314598
3706.372394,-7994.224174,-740.205942,842.705048
3706.372724,-10140.821405,0.000000,612.876398
3706.373054,-9918.759623,666.185348,1149.143247
3706.373384,-9030.512492,148.041188,0.000000
3706.373714,-9844.739029,740.205942,-306.438199
3706.374043,-11029.068536,0.000000,-76.609550
3706.374373,-10955.047942,0.000000,-229.828649
3706.374703,-8586.388927,-814.226536,76.609550
3706.375033,-8216.285956,-370.102971,0.000000
3706.375363,-9030.512492,-296.082377,459.657299
3706.375692,-10510.924376,296.082377,383.047749
3706.376022,-10066.800811,518.144159,306.438199
3706.376352,-9844.739029,222.061783,229.828649
3706.376682,-9992.780217,666.185348,536.266849
3706.377012,-11621.233289,370.102971,459.657299
3706.377341,-11547.212695,222.061783,-76.609550
3706.377671,-9178.553681,-666.185348,-1225.752797
3706.378001,-8142.265362,0.000000,-1225.752797
3706.378331,-9104.533087,518.144159,-383.047749
3706.378661,-10807.006753,666.185348,-229.828649
3706.378990,-10140.821405,740.205942,-919.314598
3706.379320,-9400.615463,444.123565,-1225.752797
3706.379650,-9992.780217,666.185348,-766.095498
3706.379980,-11103.089130,0.000000,-383.047749
3706.380310,-11103.089130,74.020594,0.000000
3706.380639,-8512.368333,-1332.370696,995.924147
3706.380969,-7254.018232,-222.061783,1685.410096
3706.381299,-9104.533087,148.041188,1608.800546
3706.381629,-11103.089130,592.164754,229.828649
3706.381959,-10140.821405,148.041188,-689.485948
3706.382288,-8808.450710,296.082377,0.000000
3706.382618,-9474.636058,962.267725,229.828649
3706.382948,-11325.150913,370.102971,919.314598
3706.383278,-10362.883188,518.144159,459.657299
3706.383608,-8142.265362,-740.205942,-536.266849
3706.383937,-7772.162391,148.041188,-459.657299
3706.384267,-9844.739029,0.000000,306.438199
3706.384597,-11103.089130,592.164754,919.314598
3706.384927,-9104.533087,222.061783,1072.533697
3706.385257,-8364.327145,222.061783,1225.752797
3706.385586,-9770.718434,814.226536,1455.581446
3706.385916,-11473.192101,370.102971,536.266849
3706.386246,-11325.150913,666.185348,76.609550
3706.386576,-9178.553681,-518.144159,76.609550
3706.386906,-9178.553681,0.000000,536.266849
3706.387235,-10140.821405,0.000000,1072.533697
3706.387565,-11029.068536,74.020594,229.828649
3706.387895,-8660.409521,-666.185348,-766.095498
3706.388225,-8660.409521,-296.082377,-1608.800546
3706.388555,-9400.615463,0.000000,-383.047749
3706.388884,-11103.089130,-74.020594,689.485948
3706.389214,-10732.986159,222.061783,1225.752797
3706.389544,-9474.636058,-888.247130,229.828649
3706.389874,-9030.512492,-370.102971,0.000000
3706.390204,-10584.944971,-1110.308913,0.000000
3706.390533,-11769.274478,-444.123565,612.876398
3706.390863,-9548.656652,-888.247130,1838.629195
3706.391193,-8660.409521,-592.164754,612.876398
3706.391523,-9400.615463,-296.082377,76.609550
3706.391853,-11029.068536,-444.123565,-536.266849
3706.392182,-10362.883188,-222.061783,-766.095498
3706.392512,-8956.491898,-1110.308913,-689.485948
3706.392842,-8512.368333,-444.123565,-229.828649
3706.393172,-9844.739029,-888.247130,-153.219100
3706.393502,-10510.924376,0.000000,229.828649
3706.393832,-8438.347739,-814.226536,-76.609550
3706.394161,-8734.430116,-518.144159,-612.876398
3706.394491,-9474.636058,0.000000,0.000000
3706.394821,-11621.233289,74.020594,766.095498
3706.395151,-11029.068536,0.000000,1378.971896
3706.395481,-8734.430116,-888.247130,536.266849
3706.395810,-8586.388927,74.020594,459.657299
3706.396140,-10510.924376,74.020594,306.438199
3706.396470,-10658.965565,1036.288319,76.609550
3706.396800,-9326.594869,370.102971,229.828649
3706.397130,-9326.594869,1480.411884,459.657299
3706.397459,-10362.883188,814.226536,0.000000
3706.397789,-12287.418637,592.164754,383.047749
3706.398119,-10881.027347,222.061783,536.266849
3706.398449,-8956.491898,-444.123565,766.095498
3706.398779,-8512.368333,148.041188,1455.581446
3706.399108,-9992.780217,74.020594,1378.971896
3706.399438,-10288.862594,740.205942,1608.800546
3706.399768,-8882.471304,740.205942,1915.238745
3706.400098,-9622.677246,1554.432478,2068.457845
3706.400428,-11473.192101,962.267725,1532.190996
3706.400757,-12139.377449,814.226536,766.095498
3706.401087,-10362.883188,222.061783,0.000000
3706.401417,-8734.430116,74.020594,153.219100
3706.401747,-7846.182985,74.020594,76.609550
3706.402077,-9918.759623,0.000000,153.219100
3706.402406,-9252.574275,740.205942,306.438199
3706.402736,-7994.224174,444.123565,459.657299
3706.403066,-9104.533087,1406.391290,229.828649
3706.403396,-11177.109724,1036.288319,612.876398
3706.403725,-11843.295072,814.226536,0.000000
3706.404055,-9622.677246,444.123565,0.000000
3706.404385,-8586.388927,-444.123565,0.000000
3706.404715,-8956.491898,0.000000,536.266849
3706.405045,-11029.068536,148.041188,459.657299
3706.405374,-10362.883188,814.226536,-459.657299
3706.405704,-8364.327145,592.164754,-689.485948
3706.406034,-8438.347739,1406.391290,-1225.752797
3706.406364,-10584.944971,666.185348,-919.314598
3706.406693,-11769.274478,888.247130,-536.266849
3706.407023,-9622.677246,444.123565,-459.657299
3706.407353,-8734.430116,-74.020594,-995.924147
3706.407683,-9326.594869,74.020594,-153.219100
3706.408012,-11473.192101,74.020594,153.219100
3706.408342,-10436.903782,0.000000,766.095498
3706.408672,-9178.553681,-296.082377,766.095498
3706.409002,-9104.533087,370.102971,1072.533697
3706.409332,-11029.068536,222.061783,1225.752797
3706.409661,-11843.295072,962.267725,766.095498
3706.409991,-9770.718434,0.000000,536.266849
3706.410321,-8438.347739,0.000000,0.000000
3706.410651,-9252.574275,296.082377,383.047749
3706.410980,-11399.171507,0.000000,0.000000
3706.411310,-9548.656652,148.041188,306.438199
3706.411640,-8290.306550,-592.164754,-689.485948
3706.411970,-8882.471304,0.000000,0.000000
3706.412299,-10955.047942,74.020594,536.266849
3706.412629,-11251.130318,222.061783,1225.752797
3706.412959,-9252.574275,-666.185348,1532.190996
3706.413289,-8660.409521,-444.123565,1762.019645
3706.413619,-9992.780217,-370.102971,2068.457845
3706.413948,-11325.150913,-444.123565,2068.457845
3706.414278,-9400.615463,0.000000,919.314598
3706.414608,-7846.182985,-296.082377,229.828649
3706.414938,-9030.512492,518.144159,459.657299
3706.415267,-11251.130318,0.000000,842.705048
3706.415597,-11621.233289,444.123565,995.924147
3706.415927,-9400.615463,-740.205942,0.000000
3706.416257,-8808.450710,-222.061783,-766.095498
3706.416587,-9770.718434,-444.123565,0.000000
3706.416916,-10807.006753,-518.144159,842.705048
3706.417246,-9474.636058,-518.144159,612.876398
3706.417576,-8290.306550,-518.144159,0.000000
3706.417906,-9178.553681,148.041188,-306.438199
3706.418235,-11103.089130,370.102971,-612.876398
3706.418565,-11473.192101,444.123565,-153.219100
3706.418895,-10140.821405,74.020594,0.000000
3706.419225,-9992.780217,-222.061783,0.000000
3706.419554,-10288.862594,0.000000,229.828649
3706.419884,-11251.130318,0.000000,-229.828649
3706.420214,-9844.739029,-370.102971,-536.266849
3706.420544,-8586.388927,-518.144159,-612.876398
3706.420874,-9326.594869,222.061783,0.000000
3706.421203,-11103.089130,518.144159,0.000000
3706.421533,-10955.047942,296.082377,0.000000
3706.421863,-9178.553681,-740.205942,-766.095498
3706.422193,-8142.265362,-148.041188,-1225.752797
3706.422522,-9400.615463,-518.144159,-919.314598
3706.422852,-10066.800811,-592.164754,76.609550
3706.423182,-9696.697840,-518.144159,842.705048
3706.423512,-8586.388927,-518.144159,536.266849
3706.423841,-8364.327145,-370.102971,-76.609550
3706.424171,-10066.800811,0.000000,459.657299
3706.424501,-10362.883188,0.000000,459.657299
3706.424831,-9252.574275,-814.226536,536.266849
3706.425161,-8364.327145,74.020594,689.485948
3706.425490,-9844.739029,444.123565,1225.752797
3706.425820,-11251.130318,518.144159,689.485948
3706.426150,-9548.656652,0.000000,153.219100
3706.426480,-8734.430116,222.061783,0.000000
3706.426809,-9548.656652,296.082377,306.438199
3706.427139,-11177.109724,296.082377,842.705048
3706.427469,-10658.965565,518.144159,536.266849
3706.427799,-8882.471304,0.000000,76.609550
3706.428128,-8586.388927,814.226536,459.657299
3706.428458,-10510.924376,666.185348,766.095498
3706.428788,-11769.274478,814.226536,919.314598
3706.429118,-10214.842000,148.041188,1072.533697
3706.429448,-9326.594869,148.041188,1608.800546
3706.429777,-10066.800811,592.164754,1915.238745
3706.430107,-11029.068536,74.020594,1225.752797
3706.430437,-9696.697840,666.185348,689.485948
3706.430767,-8364.327145,370.102971,383.047749
3706.431096,-8808.450710,666.185348,689.485948
3706.431426,-11473.192101,740.205942,1072.533697
3706.431756,-12213.398043,666.185348,766.095498
3706.432086,-10214.842000,296.082377,306.438199
3706.432415,-9030.512492,296.082377,-153.219100
3706.432745,-9030.512492,74.020594,0.000000
3706.433075,-9844.739029,222.061783,0.000000
3706.433405,-9400.615463,518.144159,229.828649
3706.433735,-8586.388927,370.102971,766.095498
3706.434064,-9326.594869,592.164754,-76.609550
3706.434394,-10955.047942,296.082377,-612.876398
3706.434724,-10955.047942,592.164754,-689.485948
3706.435054,-9252.574275,-222.061783,-76.609550
3706.435383,-8808.450710,0.000000,306.438199
3706.435713,-8956.491898,-296.082377,0.000000
3706.436043,-10066.800811,74.020594,-536.266849
3706.436373,-8956.491898,0.000000,-842.705048
3706.436702,-8586.388927,0.000000,-919.314598
3706.437032,-9104.533087,444.123565,0.000000
3706.437362,-10732.986159,444.123565,536.266849
3706.437692,-10955.047942,666.185348,459.657299
3706.438022,-9104.533087,-222.061783,-229.828649
3706.438351,-9104.533087,148.041188,-459.657299
3706.438681,-9252.574275,0.000000,-383.047749
3706.439011,-10658.965565,74.020594,766.095498
3706.439341,-10362.883188,-74.020594,842.705048
3706.439670,-9474.636058,-222.061783,1455.581446
3706.440000,-9400.615463,148.041188,995.924147
3706.440330,-10436.903782,0.000000,153.219100
3706.440660,-10807.006753,592.164754,229.828649
3706.440989,-9548.656652,370.102971,229.828649
3706.441319,-9400.615463,296.082377,153.219100
3706.441649,-9918.759623,0.000000,76.609550
3706.441979,-11251.130318,0.000000,689.485948
3706.442309,-10214.842000,-296.082377,306.438199
3706.442638,-8808.450710,-666.185348,383.047749
3706.442968,-8882.471304,0.000000,689.485948
3706.443298,-10955.047942,-296.082377,995.924147
3706.443628,-10436.903782,-148.041188,1072.533697
3706.443957,-8512.368333,-740.205942,459.657299
3706.444287,-9252.574275,0.000000,1915.238745
3706.444617,-10214.842000,-444.123565,1838.629195
3706.444947,-10955.047942,-74.020594,1149.143247
3706.445276,-9030.512492,0.000000,0.000000
3706.445606,-8808.450710,0.000000,-153.219100
3706.445936,-9400.615463,148.041188,612.876398
3706.446266,-11177.109724,0.000000,1149.143247
3706.446596,-10807.006753,222.061783,459.657299
3706.446925,-9104.533087,-592.164754,-612.876398
3706.447255,-8660.409521,-222.061783,-612.876398
3706.447585,-9326.594869,-74.020594,-383.047749
3706.447915,-10510.924376,296.082377,229.828649
3706.448244,-9770.718434,0.000000,306.438199
3706.448574,-9400.615463,-666.185348,383.047749
3706.448904,-9400.615463,-74.020594,-306.438199
3706.449234,-11103.089130,222.061783,-689.485948
3706.449564,-10955.047942,740.205942,-229.828649
3706.449893,-9400.615463,-518.144159,-766.095498
3706.450223,-9178.553681,74.020594,-459.657299
3706.450553,-9696.697840,-74.020594,0.000000
3706.450883,-11399.171507,0.000000,-229.828649
3706.451212,-9548.656652,-74.020594,-995.924147
3706.451542,-8586.388927,-296.082377,-1225.752797
3706.451872,-8956.491898,296.082377,-1149.143247
3706.452202,-10881.027347,0.000000,-459.657299
3706.452531,-9992.780217,0.000000,0.000000
3706.452861,-8660.409521,-296.082377,612.876398
3706.453191,-8956.491898,0.000000,919.314598
3706.453521,-10807.006753,0.000000,689.485948
3706.453851,-11621.233289,444.123565,1149.143247
3706.454180,-9696.697840,-296.082377,459.657299
3706.454510,-8142.265362,0.000000,0.000000
3706.454840,-8734.430116,444.123565,612.876398
3706.455170,-10955.047942,370.102971,995.924147
3706.455499,-9992.780217,370.102971,76.609550
3706.455829,-8660.409521,0.000000,-612.876398
3706.456159,-8882.471304,296.082377,-383.047749
3706.456489,-10658.965565,296.082377,76.609550
3706.456818,-11251.130318,296.082377,1455.581446
3706.457148,-9178.553681,0.000000,1532.190996
3706.457478,-8586.388927,74.020594,1378.971896
3706.457808,-9844.739029,444.123565,1608.800546
3706.458138,-11843.295072,518.144159,1838.629195
3706.458467,-10436.903782,444.123565,1072.533697
3706.458797,-8512.368333,0.000000,536.266849
3706.459127,-8734.430116,370.102971,842.705048
3706.459457,-10807.006753,444.123565,1302.362347
3706.459786,-11177.109724,518.144159,766.095498
3706.460116,-9326.594869,-148.041188,0.000000
3706.460446,-8586.388927,0.000000,-306.438199
3706.460776,-9622.677246,518.144159,383.047749
3706.461105,-11251.130318,370.102971,919.314598
3706.461435,-10066.800811,814.226536,153.219100
3706.461765,-9030.512492,0.000000,0.000000
3706.462095,-9474.636058,666.185348,76.609550
3706.462425,-11251.130318,0.000000,536.266849
3706.462754,-11473.192101,518.144159,919.314598
3706.463084,-9030.512492,-592.164754,689.485948
3706.463414,-8364.327145,148.041188,0.000000
3706.463744,-9474.636058,518.144159,0.000000
3706.464073,-11251.130318,148.041188,-536.266849
3706.464403,-10288.862594,0.000000,-306.438199
3706.464733,-9400.615463,148.041188,-612.876398
3706.465063,-9844.739029,740.205942,-229.828649
3706.465392,-10881.027347,0.000000,-536.266849
3706.465722,-10362.883188,222.061783,-1072.533697
3706.466052,-8364.327145,-814.226536,-766.095498
3706.466382,-8290.306550,0.000000,-153.219100
3706.466712,-9622.677246,-222.061783,459.657299
3706.467041,-11547.212695,222.061783,0.000000
3706.467371,-9696.697840,-370.102971,-689.485948
3706.467701,-8586.388927,-222.061783,-383.047749
3706.468031,-8956.491898,0.000000,536.266849
3706.468360,-10436.903782,0.000000,766.095498
3706.468690,-10140.821405,74.020594,766.095498
3706.469020,-8660.409521,0.000000,76.609550
3706.469350,-8438.347739,518.144159,229.828649
3706.469679,-10214.842000,370.102971,-383.047749
3706.470009,-11621.233289,592.164754,-612.876398
3706.470339,-9844.739029,0.000000,0.000000
3706.470669,-8882.471304,-296.082377,0.000000
3706.470999,-9030.512492,-222.061783,306.438199
3706.471328,-10510.924376,-444.123565,689.485948
3706.471658,-10436.903782,370.102971,995.924147
3706.471988,-8586.388927,-370.102971,536.266849
3706.472318,-8660.409521,148.041188,1302.362347
3706.472647,-10658.965565,444.123565,1225.752797
3706.472977,-12139.377449,0.000000,1378.971896
3706.473307,-9918.759623,-74.020594,689.485948
3706.473637,-8438.347739,-592.164754,995.924147
3706.473966,-8956.491898,-444.123565,536.266849
3706.474296,-10955.047942,-148.041188,766.095498
3706.474626,-9918.759623,0.000000,612.876398
3706.474956,-8290.306550,-518.144159,306.438199
3706.475286,-8882.471304,518.144159,536.266849
3706.475615,-10584.944971,222.061783,459.657299
3706.475945,-11769.274478,0.000000,383.047749
3706.476275,-9548.656652,-666.185348,0.000000
3706.476605,-8882.471304,-740.205942,306.438199
3706.476934,-9400.615463,-370.102971,0.000000
3706.477264,-11029.068536,-1036.288319,536.266849
3706.477594,-9770.718434,-666.185348,612.876398
3706.477924,-8882.471304,-814.226536,536.266849
3706.478253,-8660.409521,0.000000,229.828649
3706.478583,-10362.883188,-444.123565,-153.219100
3706.478913,-11399.171507,148.041188,-459.657299
3706.479243,-9918.759623,-296.082377,-306.438199
3706.479573,-9474.636058,-222.061783,-995.924147
3706.479902,-10214.842000,-370.102971,-995.924147
3706.480232,-11177.109724,-666.185348,-766.095498
3706.480562,-9770.718434,-370.102971,-612.876398
3706.480892,-8512.368333,-592.164754,-612.876398
3706.481221,-8586.388927,74.020594,-612.876398
3706.481551,-10214.842000,0.000000,-306.438199
3706.481881,-10955.047942,444.123565,-153.219100
3706.482211,-9770.718434,222.061783,383.047749
3706.482540,-9474.636058,0.000000,383.047749
3706.482870,-10140.821405,0.000000,766.095498
3706.483200,-11103.089130,0.000000,536.266849
3706.483530,-9696.697840,0.000000,1072.533697
3706.483860,-8290.306550,-222.061783,536.266849
3706.484189,-8512.368333,444.123565,689.485948
3706.484519,-10732.986159,592.164754,842.705048
3706.484849,-11473.192101,1702.473667,76.609550
3706.485179,-8956.491898,592.164754,-919.314598
3706.485508,-8882.471304,740.205942,-383.047749
3706.485838,-9696.697840,592.164754,229.828649
3706.486168,-10881.027347,370.102971,919.314598
3706.486498,-9178.553681,0.000000,919.314598
3706.486828,-8290.306550,296.082377,919.314598
3706.487157,-9474.636058,740.205942,1532.190996
3706.487487,-11695.253884,814.226536,1455.581446
3706.487817,-11029.068536,814.226536,1072.533697
3706.488147,-8882.471304,74.020594,766.095498
3706.488476,-8438.347739,370.102971,995.924147
3706.488806,-10066.800811,592.164754,1915.238745
3706.489136,-11103.089130,740.205942,1532.190996
3706.489466,-9030.512492,888.247130,536.266849
3706.489795,-8438.347739,592.164754,-229.828649
3706.490125,-9178.553681,1184.329507,0.000000
3706.490455,-11473.192101,962.267725,229.828649
3706.490785,-11177.109724,1480.411884,306.438199
3706.491115,-8956.491898,296.082377,0.000000
3706.491444,-9178.553681,370.102971,-842.705048
3706.491774,-10362.883188,222.061783,0.000000
3706.492104,-10732.986159,740.205942,1225.752797
3706.492434,-9326.594869,148.041188,1149.143247
3706.492763,-8586.388927,74.020594,842.705048
3706.493093,-9474.636058,592.164754,0.000000
3706.493423,-11399.171507,518.144159,-306.438199
3706.493753,-10658.965565,740.205942,-919.314598
3706.494082,-9918.759623,296.082377,-689.485948
3706.494412,-9474.636058,296.082377,-689.485948
3706.494742,-9918.759623,-296.082377,-766.095498
3706.495072,-10436.903782,0.000000,-306.438199
3706.495402,-9400.615463,-740.205942,-229.828649
3706.495731,-8142.265362,-814.226536,-536.266849
3706.496061,-8438.347739,-296.082377,-383.047749
3706.496391,-10510.924376,222.061783,0.000000
3706.496721,-10584.944971,0.000000,459.657299
3706.497050,-9252.574275,-666.185348,383.047749
3706.497380,-9326.594869,-296.082377,229.828649
3706.497710,-9992.780217,-518.144159,536.266849
3706.498040,-11177.109724,-518.144159,153.219100
3706.498369,-9400.615463,-962.267725,612.876398
3706.498699,-7994.224174,-1184.329507,995.924147
3706.499029,-8734.430116,-148.041188,1072.533697
3706.499359,-10510.924376,74.020594,153.219100
3706.499689,-9992.780217,148.041188,0.000000
3706.500018,-9030.512492,-148.041188,459.657299
3706.500348,-9770.718434,148.041188,383.047749
3706.500678,-11251.130318,-444.123565,536.266849
3706.501008,-11325.150913,0.000000,689.485948
3706.501337,-9030.512492,-592.164754,306.438199
3706.501667,-8364.327145,-444.123565,536.266849
3706.501997,-9104.533087,74.020594,1072.533697
3706.502327,-11399.171507,-518.144159,919.314598
3706.502656,-10066.800811,0.000000,689.485948
3706.502986,-8956.491898,-444.123565,766.095498
3706.503316,-9474.636058,0.000000,229.828649
3706.503646,-10955.047942,-740.205942,995.924147
3706.503975,-10807.006753,0.000000,536.266849
3706.504305,-8808.450710,-666.185348,0.000000
3706.504635,-8512.368333,-370.102971,459.657299
3706.504965,-9770.718434,592.164754,383.047749
3706.505295,-11399.171507,518.144159,0.000000
3706.505624,-9918.759623,518.144159,0.000000
3706.505954,-9326.594869,0.000000,-383.047749
3706.506284,-10288.862594,666.185348,-76.609550
3706.506614,-11251.130318,-370.102971,-995.924147
3706.506943,-10436.903782,-518.144159,-536.266849
3706.507273,-8364.327145,-888.247130,76.609550
3706.507603,-7846.182985,-370.102971,153.219100
3706.507933,-9326.594869,0.000000,306.438199
3706.508263,-10881.027347,-148.041188,-689.485948
3706.508592,-9474.636058,74.020594,-766.095498
3706.508922,-8808.450710,-444.123565,-689.485948
3706.509252,-9474.636058,0.000000,-383.047749
3706.509582,-10510.924376,-888.247130,-76.609550
3706.509912,-9844.739029,74.020594,-919.314598
3706.510241,-7994.224174,-1036.288319,-1225.752797
3706.510571,-7994.224174,222.061783,-1149.143247
3706.510901,-9770.718434,0.000000,76.609550
3706.511231,-11473.192101,370.102971,459.657299
3706.511560,-9622.677246,370.102971,689.485948
3706.511890,-8586.388927,592.164754,153.219100
3706.512220,-9252.574275,370.102971,-459.657299
3706.512550,-11251.130318,222.061783,306.438199
3706.512880,-11769.274478,592.164754,766.095498
3706.513209,-9622.677246,-148.041188,153.219100
3706.513539,-8882.471304,444.123565,612.876398
3706.513869,-9474.636058,370.102971,0.000000
3706.514199,-10732.986159,666.185348,0.000000
3706.514528,-9326.594869,740.205942,0.000000
3706.514858,-8660.409521,518.144159,0.000000
3706.515188,-9844.739029,962.267725,1149.143247
3706.515518,-11621.233289,74.020594,1608.800546
3706.515848,-11325.150913,518.144159,1532.190996
3706.516177,-9252.574275,-518.144159,1838.629195
3706.516507,-8660.409521,74.020594,1378.971896
3706.516837,-9548.656652,148.041188,1378.971896
3706.517167,-10732.986159,666.185348,1072.533697
3706.517496,-9622.677246,518.144159,612.876398
3706.517826,-9696.697840,592.164754,689.485948
3706.518156,-9844.739029,814.226536,842.705048
3706.518486,-11177.109724,148.041188,1149.143247
3706.518816,-10436.903782,0.000000,153.219100
3706.519145,-8438.347739,-962.267725,-842.705048
3706.519475,-7994.224174,-370.102971,306.438199
3706.519805,-9104.533087,0.000000,1378.971896
3706.520135,-11251.130318,518.144159,2221.676944
3706.520465,-9474.636058,444.123565,1532.190996
3706.520794,-9326.594869,222.061783,536.266849
3706.521124,-10288.862594,444.123565,-383.047749
3706.521454,-12435.459826,74.020594,-229.828649
3706.521784,-11251.130318,148.041188,306.438199
3706.522113,-8142.265362,-888.247130,0.000000
3706.522443,-7254.018232,-148.041188,-306.438199
3706.522773,-9474.636058,0.000000,-306.438199
3706.523103,-11473.192101,814.226536,-536.266849
3706.523433,-9844.739029,0.000000,-766.095498
3706.523762,-9178.553681,296.082377,-766.095498
3706.524092,-9992.780217,222.061783,-612.876398
3706.524422,-11769.274478,-148.041188,0.000000
3706.524752,-10955.047942,-222.061783,383.047749
3706.525081,-8438.347739,-1332.370696,-612.876398
3706.525411,-8216.285956,-444.123565,-536.266849
3706.525741,-8956.491898,-518.144159,0.000000
3706.526071,-10066.800811,222.061783,689.485948
3706.526401,-8734.430116,-74.020594,383.047749
3706.526730,-9178.553681,740.205942,153.219100
3706.527060,-11029.068536,518.144159,-306.438199
3706.527390,-11991.336260,74.020594,-842.705048
3706.527720,-10362.883188,0.000000,-383.047749
3706.528050,-8586.388927,-592.164754,76.609550
3706.528379,-8586.388927,296.082377,459.657299
3706.528709,-10214.842000,0.000000,229.828649
3706.529039,-10140.821405,222.061783,-459.657299
3706.529369,-8808.450710,592.164754,0.000000
3706.529698,-9548.656652,814.226536,383.047749
3706.530028,-11325.150913,740.205942,842.705048
3706.530358,-12065.356855,814.226536,1378.971896
3706.530688,-9622.677246,74.020594,76.609550
3706.531018,-8438.347739,-888.247130,76.609550
3706.531347,-8734.430116,-74.020594,1302.362347
3706.531677,-10436.903782,148.041188,2068.457845
3706.532007,-10881.027347,148.041188,1225.752797
3706.532337,-9474.636058,-148.041188,1149.143247
3706.532666,-9844.739029,-74.020594,536.266849
3706.532996,-9992.780217,-296.082377,612.876398
3706.533326,-10584.944971,-592.164754,995.924147
3706.533656,-9252.574275,-222.061783,919.314598
3706.533986,-8068.244768,-444.123565,689.485948
3706.534315,-8586.388927,444.123565,459.657299
3706.534645,-11029.068536,814.226536,0.000000
3706.534975,-11473.192101,444.123565,0.000000
3706.535305,-10066.800811,-74.020594,536.266849
3706.535635,-9696.697840,444.123565,612.876398
3706.535964,-10510.924376,74.020594,842.705048
3706.536294,-11547.212695,0.000000,0.000000
3706.536624,-9326.594869,-518.144159,-612.876398
3706.536954,-8364.327145,-444.123565,-459.657299
3706.537283,-9178.553681,296.082377,229.828649
3706.537613,-11029.068536,296.082377,306.438199
3706.537943,-10140.821405,0.000000,-612.876398
3706.538273,-8216.285956,-222.061783,-919.314598
3706.538603,-8734.430116,0.000000,-689.485948
3706.538932,-10214.842000,0.000000,229.828649
3706.539262,-11473.192101,0.000000,689.485948
3706.539592,-9918.759623,-518.144159,76.609550
3706.539922,-9030.512492,-592.164754,-306.438199
3706.540251,-8734.430116,0.000000,-229.828649
3706.540581,-10510.924376,0.000000,0.000000
3706.540911,-9992.780217,148.041188,-76.609550
3706.541241,-8290.306550,-444.123565,0.000000
3706.541571,-8882.471304,148.041188,76.609550
3706.541900,-10807.006753,222.061783,229.828649
3706.542230,-11547.212695,666.185348,0.000000
3706.542560,-9548.656652,-296.082377,-536.266849
3706.542890,-8290.306550,-518.144159,0.000000
3706.543220,-9474.636058,444.123565,766.095498
3706.543549,-11473.192101,296.082377,153.219100
3706.543879,-10140.821405,444.123565,153.219100
3706.544209,-8216.285956,0.000000,229.828649
3706.544539,-8734.430116,1036.288319,-306.438199
3706.544868,-10658.965565,222.061783,306.438199
3706.545198,-11547.212695,518.144159,459.657299
3706.545528,-9326.594869,0.000000,76.609550
3706.545858,-8438.347739,222.061783,459.657299
3706.546188,-9326.594869,74.020594,766.095498
3706.546517,-11399.171507,0.000000,1455.581446
3706.546847,-10066.800811,148.041188,1455.581446
3706.547177,-8216.285956,-222.061783,842.705048
3706.547507,-8808.450710,296.082377,1072.533697
3706.547836,-10955.047942,74.020594,1302.362347
3706.548166,-11399.171507,370.102971,919.314598
3706.548496,-9252.574275,-592.164754,153.219100
3706.548826,-7920.203579,0.000000,-229.828649
3706.549156,-9104.533087,0.000000,459.657299
3706.549485,-10732.986159,148.041188,0.000000
3706.549815,-9326.594869,370.102971,0.000000
3706.550145,-8364.327145,518.144159,76.609550
3706.550475,-9326.594869,888.247130,-383.047749
3706.550804,-11473.192101,740.205942,-459.657299
3706.551134,-11917.315666,444.123565,0.000000
3706.551464,-9770.718434,0.000000,0.000000
3706.551794,-8882.471304,-148.041188,0.000000
3706.552124,-9474.636058,0.000000,306.438199
3706.552453,-11177.109724,148.041188,536.266849
3706.552783,-9992.780217,222.061783,153.219100
3706.553113,-8438.347739,-370.102971,-919.314598
3706.553443,-8956.491898,222.061783,-1149.143247
3706.553773,-10584.944971,0.000000,-766.095498
3706.554102,-11251.130318,444.123565,0.000000
3706.554432,-8512.368333,-592.164754,0.000000
3706.554762,-8438.347739,-444.123565,-612.876398
3706.555092,-9474.636058,-74.020594,-459.657299
3706.555421,-10955.047942,148.041188,0.000000
3706.555751,-9474.636058,222.061783,1149.143247
3706.556081,-8586.388927,-370.102971,995.924147
3706.556411,-9326.594869,518.144159,536.266849
3706.556741,-11103.089130,148.041188,76.609550
3706.557070,-11177.109724,370.102971,689.485948
3706.557400,-9474.636058,-148.041188,995.924147
3706.557730,-8956.491898,444.123565,842.705048
3706.558060,-9696.697840,74.020594,536.266849
3706.558389,-11029.068536,592.164754,306.438199
3706.558719,-9992.780217,592.164754,459.657299
3706.559049,-9178.553681,0.000000,459.657299
3706.559379,-9252.574275,222.061783,306.438199
3706.559709,-10436.903782,0.000000,612.876398
3706.560038,-10140.821405,296.082377,1072.533697
3706.560368,-8808.450710,-444.123565,842.705048
3706.560698,-8586.388927,0.000000,306.438199
3706.561028,-10288.862594,74.020594,0.000000
3706.561358,-11547.212695,74.020594,306.438199
3706.561687,-9326.594869,-370.102971,919.314598
3706.562017,-8290.306550,-148.041188,1072.533697
3706.562347,-8660.409521,0.000000,842.705048
3706.562677,-10288.862594,0.000000,919.314598
3706.563006,-10066.800811,370.102971,0.000000
3706.563336,-9622.677246,-222.061783,229.828649
3706.563666,-9992.780217,592.164754,153.219100
3706.563996,-10658.965565,222.061783,229.828649
3706.564326,-10955.047942,296.082377,-766.095498
3706.564655,-9104.533087,-296.082377,229.828649
3706.564985,-8808.450710,-518.144159,306.438199
3706.565315,-9178.553681,-296.082377,306.438199
3706.565645,-10732.986159,296.082377,76.609550
3706.565974,-10436.903782,222.061783,383.047749
3706.566304,-9326.594869,-296.082377,229.828649
3706.566634,-9400.615463,370.102971,0.000000
3706.566964,-11325.150913,-148.041188,-306.438199
3706.567294,-10881.027347,-370.102971,-766.095498
3706.567623,-8734.430116,-1184.329507,-459.657299
3706.567953,-7994.224174,-370.102971,-153.219100
3706.568283,-8512.368333,-444.123565,0.000000
3706.568613,-10510.924376,0.000000,229.828649
3706.568943,-9844.739029,0.000000,-306.438199
3706.569272,-8882.471304,-518.144159,-459.657299
3706.569602,-9844.739029,370.102971,459.657299
3706.569932,-11325.150913,74.020594,842.705048
3706.570262,-10955.047942,0.000000,229.828649
3706.570591,-8660.409521,-740.205942,-153.219100
3706.570921,-8660.409521,-148.041188,0.000000
3706.571251,-9622.677246,-74.020594,383.047749
3706.571581,-10362.883188,74.020594,536.266849
3706.571911,-9030.512492,518.144159,0.000000
3706.572240,-8512.368333,296.082377,0.000000
3706.572570,-9918.759623,888.247130,842.705048
3706.572900,-11843.295072,370.102971,689.485948
3706.573230,-10955.047942,370.102971,306.438199
3706.573559,-8734.430116,0.000000,536.266849
3706.573889,-8734.430116,0.000000,-383.047749
3706.574219,-9104.533087,592.164754,153.219100
3706.574549,-10732.986159,814.226536,1149.143247
3706.574879,-9770.718434,814.226536,766.095498
3706.575208,-9178.553681,814.226536,306.438199
3706.575538,-9918.759623,1036.288319,919.314598
3706.575868,-11103.089130,740.205942,919.314598
3706.576198,-10955.047942,814.226536,383.047749
3706.576528,-8882.471304,-222.061783,0.000000
3706.576857,-9030.512492,0.000000,76.609550
3706.577187,-9030.512492,444.123565,306.438199
3706.577517,-10584.944971,444.123565,1149.143247
3706.577847,-9326.594869,296.082377,306.438199
3706.578176,-8808.450710,296.082377,-383.047749
3706.578506,-9178.553681,1332.370696,-689.485948
3706.578836,-11621.233289,592.164754,383.047749
3706.579166,-11325.150913,370.102971,612.876398
3706.579496,-9178.553681,-444.123565,1149.143247
3706.579825,-8882.471304,0.000000,612.876398
3706.580155,-9548.656652,-148.041188,536.266849
3706.580485,-10807.006753,222.061783,76.609550
3706.580815,-9548.656652,0.000000,0.000000
3706.581144,-9178.553681,222.061783,-306.438199
3706.581474,-9622.677246,592.164754,-229.828649
3706.581804,-11029.068536,74.020594,-995.924147
3706.582134,-9918.759623,74.020594,-919.314598
3706.582464,-8290.306550,-1332.370696,-1532.190996
3706.582793,-8142.265362,0.000000,-383.047749
3706.583123,-9918.759623,-666.185348,0.000000
3706.583453,-10658.965565,148.041188,383.047749
3706.583783,-9474.636058,-148.041188,383.047749
3706.584112,-8956.491898,-592.164754,153.219100
3706.584442,-9696.697840,0.000000,0.000000
3706.584772,-11177.109724,-370.102971,306.438199
3706.585102,-10214.842000,-370.102971,919.314598
3706.585432,-8734.430116,-1258.350101,766.095498
3706.585761,-8512.368333,0.000000,153.219100
3706.586091,-9474.636058,-296.082377,-76.609550
3706.586421,-10732.986159,444.123565,-459.657299
3706.586751,-9474.636058,0.000000,-459.657299
3706.587081,-9696.697840,74.020594,-306.438199
3706.587410,-10288.862594,592.164754,229.828649
3706.587740,-11695.253884,222.061783,76.609550
3706.588070,-10436.903782,0.000000,76.609550
3706.588400,-9178.553681,-814.226536,153.219100
3706.588729,-9178.553681,74.020594,766.095498
3706.589059,-10140.821405,-666.185348,1991.848295
3706.589389,-10881.027347,74.020594,1838.629195
3706.589719,-9030.512492,-592.164754,1685.410096
3706.590049,-9400.615463,-74.020594,842.705048
3706.590378,-9770.718434,222.061783,689.485948
3706.590708,-11103.089130,-148.041188,919.314598
3706.591038,-9622.677246,-148.041188,1149.143247
3706.591368,-8364.327145,-296.082377,689.485948
3706.591697,-9104.533087,0.000000,383.047749
3706.592027,-10510.924376,-296.082377,459.657299
3706.592357,-10881.027347,222.061783,459.657299
3706.592687,-9030.512492,-370.102971,76.609550
3706.593017,-8660.409521,518.144159,153.219100
3706.593346,-9622.677246,370.102971,383.047749
3706.593676,-11325.150913,740.205942,76.609550
3706.594006,-9918.759623,592.164754,0.000000
3706.594336,-8882.471304,-370.102971,-766.095498
3706.594666,-9252.574275,444.123565,-766.095498
3706.594995,-10066.800811,148.041188,0.000000
3706.595325,-10510.924376,814.226536,153.219100
3706.595655,-8808.450710,0.000000,0.000000
3706.595985,-8512.368333,518.144159,-536.266849
3706.596314,-9844.739029,444.123565,-842.705048
3706.596644,-11547.212695,592.164754,-842.705048
3706.596974,-10214.842000,148.041188,-1072.533697
3706.597304,-8586.388927,-296.082377,-689.485948
3706.597634,-8660.409521,296.082377,-229.828649
3706.597963,-10140.821405,-148.041188,306.438199
3706.598293,-10584.944971,666.185348,0.000000
3706.598623,-9992.780217,0.000000,459.657299
3706.598953,-9400.615463,370.102971,76.609550
3706.599282,-10362.883188,0.000000,76.609550
3706.599612,-11843.295072,0.000000,153.219100
3706.599942,-9844.739029,-148.041188,689.485948
3706.600272,-8364.327145,-518.144159,0.000000
3706.600602,-8438.347739,-74.020594,76.609550
3706.600931,-10436.903782,0.000000,459.657299
3706.601261,-10510.924376,296.082377,766.095498
3706.601591,-9252.574275,-444.123565,383.047749
3706.601921,-8882.471304,444.123565,153.219100
3706.602251,-9548.656652,0.000000,306.438199
3706.602580,-11177.109724,0.000000,229.828649
3706.602910,-9770.718434,0.000000,229.828649
3706.603240,-8660.409521,-888.247130,383.047749
3706.603570,-8808.450710,-370.102971,1072.533697
3706.603899,-10288.862594,-296.082377,459.657299
3706.604229,-10584.944971,222.061783,1149.143247
3706.604559,-8956.491898,-518.144159,689.485948
3706.604889,-8956.491898,222.061783,766.095498
3706.605219,-10584.944971,296.082377,689.485948
3706.605548,-11325.150913,296.082377,459.657299
3706.605878,-9178.553681,-444.123565,306.438199
3706.606208,-9178.553681,-222.061783,459.657299
3706.606538,-9622.677246,-74.020594,612.876398
3706.606868,-11103.089130,-518.144159,995.924147
3706.607197,-9548.656652,-296.082377,536.266849
3706.607527,-7846.182985,-666.185348,536.266849
3706.607857,-8438.347739,74.020594,1225.752797
3706.608187,-10362.883188,0.000000,1072.533697
