#time,accel_x,accel_y,accel_z
4133.800623,-9844.739029,0.000000,306.438199
4133.800953,-9770.718434,0.000000,229.828649
4133.801283,-9696.697840,148.041188,383.047749
4133.801612,-9548.656652,0.000000,383.047749
4133.801942,-9474.636058,0.000000,306.438199
4133.802272,-9622.677246,0.000000,0.000000
4133.802602,-9770.718434,148.041188,0.000000
4133.802931,-9918.759623,518.144159,153.219100
4133.803261,-9918.759623,370.102971,306.438199
4133.803591,-9474.636058,0.000000,76.609550
4133.803920,-9622.677246,0.000000,76.609550
4133.804250,-9844.739029,0.000000,0.000000
4133.804580,-9770.718434,0.000000,536.266849
4133.804910,-10066.800811,0.000000,459.657299
4133.805239,-9770.718434,-222.061783,612.876398
4133.805569,-9474.636058,0.000000,153.219100
4133.805899,-9844.739029,0.000000,459.657299
4133.806229,-9548.656652,74.020594,229.828649
4133.806558,-9622.677246,0.000000,153.219100
4133.806888,-9548.656652,0.000000,0.000000
4133.807218,-9696.697840,74.020594,536.266849
4133.807548,-9400.615463,222.061783,459.657299
4133.807877,-9548.656652,148.041188,153.219100
4133.808207,-9770.718434,296.082377,0.000000
4133.808537,-10066.800811,148.041188,0.000000
4133.808866,-10066.800811,148.041188,76.609550
4133.809196,-9918.759623,0.000000,229.828649
4133.809526,-9844.739029,-222.061783,995.924147
4133.809856,-9844.739029,-370.102971,766.095498
4133.810185,-9770.718434,0.000000,766.095498
4133.810515,-9844.739029,-444.123565,229.828649
4133.810845,-9844.739029,370.102971,229.828649
4133.811175,-10140.821405,222.061783,153.219100
4133.811504,-9918.759623,296.082377,536.266849
4133.811834,-10066.800811,0.000000,612.876398
4133.812164,-9918.759623,222.061783,612.876398
4133.812493,-9622.677246,-444.123565,612.876398
4133.812823,-9770.718434,-370.102971,1149.143247
4133.813153,-9918.759623,-518.144159,1762.019645
4133.813483,-10066.800811,-222.061783,919.314598
4133.813812,-9992.780217,-74.020594,459.657299
4133.814142,-9770.718434,-296.082377,0.000000
4133.814472,-9770.718434,0.000000,76.609550
4133.814802,-9696.697840,-74.020594,612.876398
4133.815131,-9622.677246,-592.164754,1685.410096
4133.815461,-9844.739029,-296.082377,2528.115143
4133.815791,-9770.718434,-666.185348,2451.505594
4133.816120,-9696.697840,-592.164754,2068.457845
4133.816450,-9770.718434,-888.247130,1225.752797
4133.816780,-10066.800811,-1480.411884,1915.238745
4133.817110,-10214.842000,-1332.370696,2757.943793
4133.817439,-10214.842000,-1480.411884,2987.772442
4133.817769,-9992.780217,-592.164754,4060.306139
4133.818099,-10066.800811,-1332.370696,2987.772442
4133.818429,-10066.800811,-740.205942,2451.505594
4133.818758,-10288.862594,-666.185348,2145.067394
4133.819088,-10658.965565,-888.247130,1608.800546
4133.819418,-10066.800811,-1480.411884,1915.238745
4133.819747,-9696.697840,-2146.597232,2451.505594
4133.820077,-9918.759623,-2442.679609,2987.772442
4133.820407,-9696.697840,-3108.864956,3064.381992
4133.820737,-9178.553681,-3330.926739,2298.286494
4133.821066,-8364.327145,-3552.988522,2604.724693
4133.821396,-8660.409521,-3627.009116,3064.381992
4133.821726,-8734.430116,-2886.803174,4290.134789
4133.822056,-9622.677246,-2664.741391,4290.134789
4133.822385,-10066.800811,-2664.741391,3983.696590
4133.822715,-11029.068536,-2664.741391,3140.991542
4133.823045,-11325.150913,-2886.803174,2451.505594
4133.823374,-10732.986159,-2738.761985,1302.362347
4133.823704,-10436.903782,-2368.659014,689.485948
4133.824034,-9252.574275,-2738.761985,995.924147
4133.824364,-9400.615463,-2960.823768,1838.629195
4133.824693,-8882.471304,-3256.906145,2451.505594
4133.825023,-9252.574275,-3478.967927,2987.772442
4133.825353,-9844.739029,-3701.029710,2911.162892
4133.825683,-9548.656652,-4145.153275,3064.381992
4133.826012,-9770.718434,-4515.256246,3600.648841
4133.826342,-9030.512492,-4367.215058,4136.915689
4133.826672,-9844.739029,-3552.988522,3753.867940
4133.827001,-10658.965565,-2960.823768,3370.820191
4133.827331,-10881.027347,-2516.700203,2681.334243
4133.827661,-10955.047942,-1924.535449,1608.800546
4133.827991,-10436.903782,-2146.597232,1455.581446
4133.828320,-9992.780217,-2368.659014,1762.019645
4133.828650,-9548.656652,-2812.782580,1532.190996
4133.828980,-9844.739029,-2590.720797,2068.457845
4133.829310,-9918.759623,-2960.823768,1915.238745
4133.829639,-8956.491898,-2886.803174,1378.971896
4133.829969,-8808.450710,-2960.823768,1608.800546
4133.830299,-9844.739029,-2442.679609,2451.505594
4133.830628,-11177.109724,-1850.514855,3830.477490
4133.830958,-10584.944971,-1776.494261,3524.039291
4133.831288,-9326.594869,-1702.473667,2604.724693
4133.831618,-8882.471304,-1850.514855,1762.019645
4133.831947,-9918.759623,-1554.432478,1991.848295
4133.832277,-10955.047942,-1850.514855,2145.067394
4133.832607,-10510.924376,-1776.494261,3217.601092
4133.832937,-9474.636058,-1850.514855,2987.772442
4133.833266,-9474.636058,-1998.556043,1762.019645
4133.833596,-9474.636058,-1850.514855,689.485948
4133.833926,-9326.594869,-1480.411884,459.657299
4133.834255,-9474.636058,-888.247130,1302.362347
4133.834585,-9326.594869,-592.164754,2681.334243
4133.834915,-9770.718434,-740.205942,3600.648841
4133.835245,-10362.883188,-666.185348,3753.867940
4133.835574,-11177.109724,-518.144159,2528.115143
4133.835904,-10807.006753,-962.267725,1685.410096
4133.836234,-10140.821405,-1110.308913,1991.848295
4133.836564,-9252.574275,-962.267725,2451.505594
4133.836893,-9326.594869,-1258.350101,2834.553343
4133.837223,-9548.656652,-592.164754,3064.381992
4133.837553,-9918.759623,-814.226536,1685.410096
4133.837882,-10066.800811,-444.123565,459.657299
4133.838212,-9252.574275,-1258.350101,383.047749
4133.838542,-9992.780217,-1258.350101,1838.629195
4133.838872,-10140.821405,-1184.329507,2757.943793
4133.839201,-9178.553681,-1776.494261,3524.039291
4133.839531,-9252.574275,-1998.556043,3064.381992
4133.839861,-10140.821405,-1776.494261,2681.334243
4133.840191,-10362.883188,-1258.350101,2068.457845
4133.840520,-9918.759623,-1702.473667,2451.505594
4133.840850,-9696.697840,-1702.473667,2451.505594
4133.841180,-10214.842000,-1554.432478,3447.429741
4133.841509,-10288.862594,-1554.432478,3370.820191
4133.841839,-9844.739029,-1628.453072,2068.457845
4133.842169,-9178.553681,-1702.473667,689.485948
4133.842499,-9474.636058,-1998.556043,689.485948
4133.842828,-10510.924376,-1110.308913,2068.457845
4133.843158,-10214.842000,-1776.494261,2681.334243
4133.843488,-10066.800811,-1776.494261,2145.067394
4133.843818,-9918.759623,-2146.597232,1991.848295
4133.844147,-10288.862594,-2516.700203,2068.457845
4133.844477,-10362.883188,-2886.803174,2374.896044
4133.844807,-9622.677246,-2442.679609,2681.334243
4133.845136,-9622.677246,-2960.823768,3447.429741
4133.845466,-9548.656652,-2812.782580,3753.867940
4133.845796,-9622.677246,-2738.761985,3830.477490
4133.846126,-10658.965565,-2294.638420,3217.601092
4133.846455,-11103.089130,-2442.679609,2221.676944
4133.846785,-10436.903782,-2442.679609,1532.190996
4133.847115,-9400.615463,-2664.741391,1378.971896
4133.847445,-9252.574275,-3404.947333,1838.629195
4133.847774,-9178.553681,-2516.700203,2757.943793
4133.848104,-9696.697840,-3108.864956,2528.115143
4133.848434,-9326.594869,-3034.844362,1302.362347
4133.848763,-9104.533087,-3478.967927,2451.505594
4133.849093,-10732.986159,-3552.988522,3600.648841
4133.849423,-11029.068536,-3701.029710,4903.011187
4133.849753,-10140.821405,-3552.988522,4673.182538
4133.850082,-9400.615463,-3182.885551,3140.991542
4133.850412,-9918.759623,-2220.617826,2681.334243
4133.850742,-10066.800811,-2368.659014,1838.629195
4133.851072,-10732.986159,-2368.659014,2374.896044
4133.851401,-10288.862594,-1628.453072,2604.724693
4133.851731,-9844.739029,-2516.700203,2757.943793
4133.852061,-9918.759623,-2812.782580,1685.410096
4133.852390,-9252.574275,-2812.782580,1455.581446
4133.852720,-9474.636058,-3182.885551,1762.019645
4133.853050,-9474.636058,-3478.967927,2604.724693
4133.853380,-9178.553681,-3034.844362,3217.601092
4133.853709,-8734.430116,-2590.720797,3907.087040
4133.854039,-9474.636058,-1998.556043,4060.306139
4133.854369,-10658.965565,-1406.391290,2528.115143
4133.854699,-10732.986159,-1332.370696,2145.067394
4133.855028,-10436.903782,-1110.308913,1072.533697
4133.855358,-9548.656652,-1628.453072,995.924147
4133.855688,-9696.697840,-1480.411884,1455.581446
4133.856017,-9400.615463,-1702.473667,1838.629195
4133.856347,-8364.327145,-1406.391290,1532.190996
4133.856677,-8142.265362,-1850.514855,689.485948
4133.857007,-8956.491898,-1036.288319,459.657299
4133.857336,-10584.944971,-518.144159,1685.410096
4133.857666,-10658.965565,-592.164754,1455.581446
4133.857995,-10214.842000,-1184.329507,1149.143247
4133.858325,-10214.842000,-666.185348,2298.286494
4133.858655,-10955.047942,-666.185348,2451.505594
4133.858984,-9918.759623,-444.123565,1608.800546
4133.859314,-8956.491898,-592.164754,0.000000
4133.859644,-9104.533087,148.041188,-153.219100
4133.859974,-10362.883188,444.123565,229.828649
4133.860304,-10658.965565,370.102971,1149.143247
4133.860633,-9918.759623,0.000000,2221.676944
4133.860963,-9474.636058,-814.226536,2068.457845
4133.861293,-9918.759623,-518.144159,1608.800546
4133.861623,-10584.944971,-666.185348,766.095498
4133.861953,-9696.697840,0.000000,0.000000
4133.862282,-9474.636058,444.123565,-536.266849
4133.862612,-10510.924376,1036.288319,-766.095498
4133.862942,-10955.047942,962.267725,-153.219100
4133.863272,-10140.821405,1036.288319,-536.266849
4133.863602,-9104.533087,1036.288319,-459.657299
4133.863932,-9400.615463,518.144159,-1149.143247
4133.864261,-9622.677246,0.000000,-1378.971896
4133.864591,-7698.141797,0.000000,-842.705048
4133.864921,-8068.244768,444.123565,76.609550
4133.865251,-9400.615463,740.205942,306.438199
4133.865581,-11029.068536,1036.288319,0.000000
4133.865910,-11251.130318,888.247130,229.828649
4133.866240,-10140.821405,814.226536,-919.314598
4133.866570,-10510.924376,740.205942,153.219100
4133.866900,-9622.677246,592.164754,1685.410096
4133.867230,-9474.636058,814.226536,1915.238745
4133.867559,-8808.450710,740.205942,842.705048
4133.867889,-8956.491898,814.226536,-76.609550
4133.868219,-9918.759623,814.226536,-1225.752797
4133.868549,-11325.150913,1036.288319,-1302.362347
4133.868879,-10955.047942,1258.350101,0.000000
4133.869208,-9696.697840,444.123565,612.876398
4133.869538,-9474.636058,814.226536,383.047749
4133.869868,-8956.491898,814.226536,-919.314598
4133.870198,-9178.553681,814.226536,-1302.362347
4133.870528,-10066.800811,1036.288319,-689.485948
4133.870858,-10807.006753,1258.350101,459.657299
4133.871187,-9844.739029,740.205942,1302.362347
4133.871517,-9918.759623,0.000000,1072.533697
4133.871847,-9474.636058,74.020594,459.657299
4133.872177,-9548.656652,-222.061783,0.000000
4133.872507,-9474.636058,148.041188,-919.314598
4133.872836,-9030.512492,-370.102971,-1149.143247
4133.873166,-8808.450710,-370.102971,306.438199
4133.873496,-8808.450710,-444.123565,1149.143247
4133.873826,-9992.780217,0.000000,1532.190996
4133.874156,-9918.759623,-370.102971,229.828649
4133.874485,-9474.636058,-296.082377,0.000000
4133.874815,-9326.594869,-296.082377,0.000000
4133.875145,-9696.697840,0.000000,919.314598
4133.875475,-10955.047942,148.041188,1762.019645
4133.875805,-10658.965565,0.000000,842.705048
4133.876134,-9770.718434,-74.020594,0.000000
4133.876464,-9474.636058,-370.102971,-383.047749
4133.876794,-10807.006753,-296.082377,-689.485948
4133.877124,-10658.965565,-518.144159,536.266849
4133.877454,-9178.553681,-1110.308913,842.705048
4133.877784,-8364.327145,-666.185348,1149.143247
4133.878113,-9474.636058,-222.061783,1532.190996
4133.878443,-11399.171507,74.020594,1149.143247
4133.878773,-11547.212695,444.123565,383.047749
4133.879103,-10732.986159,0.000000,-612.876398
4133.879433,-9770.718434,-592.164754,0.000000
4133.879762,-10584.944971,-370.102971,1455.581446
4133.880092,-10510.924376,-518.144159,2221.676944
4133.880422,-9918.759623,-1258.350101,1072.533697
4133.880752,-8956.491898,-1036.288319,229.828649
4133.881082,-9252.574275,-1258.350101,-306.438199
4133.881411,-9030.512492,-888.247130,842.705048
4133.881741,-9474.636058,-518.144159,1378.971896
4133.882071,-9474.636058,-592.164754,842.705048
4133.882401,-9400.615463,0.000000,-229.828649
4133.882731,-10066.800811,-296.082377,-689.485948
4133.883060,-11399.171507,-148.041188,-76.609550
4133.883390,-10955.047942,-444.123565,0.000000
4133.883720,-9622.677246,-592.164754,689.485948
4133.884050,-8512.368333,-1110.308913,1225.752797
4133.884380,-8660.409521,-888.247130,1685.410096
4133.884710,-9252.574275,-444.123565,766.095498
4133.885039,-9030.512492,-370.102971,-1378.971896
4133.885369,-9326.594869,0.000000,-1149.143247
4133.885699,-9474.636058,444.123565,153.219100
4133.886029,-10362.883188,444.123565,1455.581446
4133.886359,-10510.924376,814.226536,766.095498
4133.886688,-10066.800811,740.205942,-1149.143247
4133.887018,-10288.862594,888.247130,-1532.190996
4133.887348,-11325.150913,888.247130,-919.314598
4133.887678,-10066.800811,666.185348,0.000000
4133.888008,-9548.656652,814.226536,1302.362347
4133.888337,-9622.677246,592.164754,689.485948
4133.888667,-10288.862594,814.226536,689.485948
4133.888997,-9622.677246,592.164754,-153.219100
4133.889327,-9844.739029,888.247130,-76.609550
4133.889657,-10510.924376,1628.453072,383.047749
4133.889986,-9696.697840,1332.370696,76.609550
4133.890316,-10584.944971,1184.329507,229.828649
4133.890646,-10362.883188,1480.411884,536.266849
4133.890976,-10955.047942,518.144159,76.609550
4133.891306,-9770.718434,592.164754,-612.876398
4133.891636,-9252.574275,0.000000,-383.047749
4133.891965,-8438.347739,0.000000,459.657299
4133.892295,-8586.388927,74.020594,1608.800546
4133.892625,-9400.615463,518.144159,1455.581446
4133.892955,-10288.862594,740.205942,306.438199
4133.893285,-9770.718434,666.185348,-919.314598
4133.893614,-10584.944971,296.082377,-842.705048
4133.893944,-10807.006753,0.000000,0.000000
4133.894274,-9474.636058,666.185348,1378.971896
4133.894604,-8734.430116,74.020594,766.095498
4133.894934,-9252.574275,518.144159,-995.924147
4133.895263,-9548.656652,296.082377,-1149.143247
4133.895593,-9770.718434,444.123565,-1302.362347
4133.895923,-9696.697840,0.000000,-1072.533697
4133.896253,-9474.636058,222.061783,383.047749
4133.896583,-9326.594869,444.123565,1149.143247
4133.896912,-9770.718434,0.000000,766.095498
4133.897242,-10214.842000,222.061783,689.485948
4133.897572,-10510.924376,0.000000,0.000000
4133.897902,-11547.212695,1184.329507,-1072.533697
4133.898232,-10510.924376,-666.185348,-612.876398
4133.898562,-8734.430116,222.061783,1455.581446
4133.898891,-9400.615463,74.020594,2451.505594
4133.899221,-10732.986159,518.144159,1378.971896
4133.899551,-10362.883188,0.000000,-76.609550
4133.899881,-10214.842000,148.041188,-1149.143247
4133.900211,-10140.821405,-518.144159,459.657299
4133.900540,-11251.130318,-370.102971,1915.238745
4133.900870,-11029.068536,-444.123565,2068.457845
4133.901200,-9030.512492,-1110.308913,1532.190996
4133.901530,-8660.409521,-74.020594,306.438199
4133.901860,-9770.718434,-444.123565,-842.705048
4133.902189,-10510.924376,0.000000,-459.657299
4133.902519,-9696.697840,-370.102971,0.000000
4133.902849,-9770.718434,-518.144159,919.314598
4133.903179,-9770.718434,-222.061783,1225.752797
4133.903509,-9622.677246,-1110.308913,76.609550
4133.903838,-9104.533087,-1184.329507,-1225.752797
4133.904168,-8290.306550,-1184.329507,-1225.752797
4133.904498,-9252.574275,-444.123565,-383.047749
4133.904828,-9844.739029,-666.185348,1072.533697
4133.905158,-9474.636058,-518.144159,1838.629195
4133.905488,-9252.574275,-592.164754,1608.800546
4133.905817,-9918.759623,-296.082377,0.000000
4133.906147,-10214.842000,-740.205942,-1225.752797
4133.906477,-9474.636058,-740.205942,-1072.533697
4133.906807,-9030.512492,-370.102971,612.876398
4133.907137,-9696.697840,0.000000,1608.800546
4133.907466,-9178.553681,74.020594,689.485948
4133.907796,-9770.718434,0.000000,-1149.143247
4133.908126,-10732.986159,222.061783,-689.485948
4133.908456,-10510.924376,222.061783,766.095498
4133.908786,-10214.842000,0.000000,612.876398
4133.909115,-9844.739029,-222.061783,1838.629195
4133.909445,-9696.697840,518.144159,2374.896044
4133.909775,-10732.986159,148.041188,1072.533697
4133.910105,-10955.047942,518.144159,-1378.971896
4133.910435,-10288.862594,74.020594,-1608.800546
4133.910764,-9770.718434,814.226536,-842.705048
4133.911094,-10066.800811,296.082377,842.705048
4133.911424,-10140.821405,666.185348,1685.410096
4133.911754,-9030.512492,-592.164754,1378.971896
4133.912084,-9474.636058,296.082377,-459.657299
4133.912414,-10362.883188,-518.144159,-383.047749
4133.912743,-10066.800811,-444.123565,306.438199
4133.913073,-10288.862594,-370.102971,1378.971896
4133.913403,-9770.718434,-296.082377,2221.676944
4133.913733,-9178.553681,-222.061783,1378.971896
4133.914063,-9104.533087,148.041188,-766.095498
4133.914392,-9400.615463,148.041188,-1915.238745
4133.914722,-9252.574275,148.041188,-1378.971896
4133.915052,-9770.718434,444.123565,76.609550
4133.915382,-10066.800811,518.144159,1149.143247
4133.915712,-9400.615463,74.020594,766.095498
4133.916041,-9178.553681,222.061783,-306.438199
4133.916371,-9696.697840,74.020594,-1225.752797
4133.916701,-9474.636058,0.000000,-1608.800546
4133.917031,-8808.450710,518.144159,-383.047749
4133.917361,-9992.780217,814.226536,1378.971896
4133.917690,-10436.903782,1776.494261,1608.800546
4133.918020,-10732.986159,1258.350101,383.047749
4133.918350,-10807.006753,740.205942,-1378.971896
4133.918680,-9918.759623,370.102971,-1455.581446
4133.919010,-9622.677246,814.226536,-306.438199
4133.919340,-9844.739029,148.041188,766.095498
4133.919669,-9178.553681,592.164754,1378.971896
4133.919999,-9474.636058,518.144159,612.876398
4133.920329,-10658.965565,1036.288319,-76.609550
4133.920659,-11473.192101,888.247130,-842.705048
4133.920989,-10584.944971,296.082377,-612.876398
4133.921318,-10140.821405,0.000000,766.095498
4133.921648,-10140.821405,0.000000,1838.629195
4133.921978,-9326.594869,-148.041188,1608.800546
4133.922308,-8586.388927,0.000000,0.000000
4133.922638,-9474.636058,0.000000,-536.266849
4133.922967,-10214.842000,0.000000,-1225.752797
4133.923297,-10584.944971,148.041188,76.609550
4133.923627,-9918.759623,-592.164754,1072.533697
4133.923957,-8734.430116,-444.123565,1838.629195
4133.924287,-9178.553681,-592.164754,919.314598
4133.924616,-9770.718434,-1110.308913,0.000000
4133.924946,-8660.409521,-1036.288319,-995.924147
4133.925276,-7994.224174,-592.164754,0.000000
4133.925606,-10288.862594,0.000000,1149.143247
4133.925936,-11399.171507,0.000000,1915.238745
4133.926266,-10362.883188,-370.102971,1378.971896
4133.926595,-9400.615463,-814.226536,0.000000
4133.926925,-9474.636058,-1110.308913,-229.828649
4133.927255,-9548.656652,-666.185348,0.000000
4133.927585,-9252.574275,-666.185348,-76.609550
4133.927915,-8734.430116,-370.102971,383.047749
4133.928244,-9548.656652,0.000000,919.314598
4133.928574,-11177.109724,444.123565,995.924147
4133.928904,-11177.109724,-148.041188,153.219100
4133.929234,-10066.800811,0.000000,-536.266849
4133.929564,-9548.656652,0.000000,306.438199
4133.929893,-10955.047942,0.000000,1762.019645
4133.930223,-10584.944971,-296.082377,1838.629195
4133.930553,-9844.739029,-518.144159,1302.362347
4133.930883,-10288.862594,0.000000,536.266849
4133.931213,-9918.759623,296.082377,-919.314598
4133.931542,-9918.759623,-148.041188,-536.266849
4133.931872,-9178.553681,0.000000,306.438199
4133.932202,-9178.553681,0.000000,1149.143247
4133.932532,-10066.800811,-592.164754,1149.143247
4133.932862,-10214.842000,-74.020594,383.047749
4133.933192,-9918.759623,-740.205942,153.219100
4133.933521,-9030.512492,-518.144159,0.000000
4133.933851,-9400.615463,-518.144159,536.266849
4133.934181,-10140.821405,74.020594,1532.190996
4133.934511,-10214.842000,0.000000,919.314598
4133.934841,-9252.574275,296.082377,306.438199
4133.935170,-9030.512492,74.020594,-842.705048
4133.935500,-9622.677246,518.144159,-1302.362347
4133.935830,-10288.862594,592.164754,-536.266849
4133.936160,-10066.800811,148.041188,-459.657299
4133.936490,-9178.553681,222.061783,0.000000
4133.936819,-9178.553681,222.061783,-612.876398
4133.937149,-9474.636058,370.102971,-536.266849
4133.937479,-9474.636058,296.082377,-995.924147
4133.937809,-9548.656652,1036.288319,229.828649
4133.938139,-10288.862594,814.226536,612.876398
4133.938468,-9918.759623,740.205942,842.705048
4133.938798,-9696.697840,222.061783,1072.533697
4133.939128,-10140.821405,518.144159,612.876398
4133.939458,-10066.800811,-148.041188,536.266849
4133.939788,-9548.656652,222.061783,995.924147
4133.940118,-10140.821405,296.082377,1072.533697
4133.940447,-9770.718434,740.205942,842.705048
4133.940777,-9992.780217,888.247130,76.609550
4133.941107,-10807.006753,888.247130,-995.924147
4133.941437,-10436.903782,518.144159,-2145.067394
4133.941767,-9252.574275,222.061783,-1608.800546
4133.942096,-8882.471304,444.123565,-919.314598
4133.942426,-9474.636058,370.102971,0.000000
4133.942756,-9622.677246,370.102971,383.047749
4133.943086,-9918.759623,148.041188,689.485948
4133.943416,-10658.965565,74.020594,536.266849
4133.943745,-10658.965565,-74.020594,612.876398
4133.944075,-9844.739029,-444.123565,995.924147
4133.944405,-9918.759623,-666.185348,1532.190996
4133.944735,-9474.636058,-222.061783,1149.143247
4133.945065,-9030.512492,-222.061783,0.000000
4133.945394,-9622.677246,74.020594,-612.876398
4133.945724,-9770.718434,222.061783,-612.876398
4133.946054,-9178.553681,0.000000,-689.485948
4133.946384,-9400.615463,0.000000,153.219100
4133.946714,-9918.759623,148.041188,0.000000
4133.947044,-9918.759623,-518.144159,0.000000
4133.947373,-9252.574275,0.000000,-76.609550
4133.947703,-9770.718434,0.000000,0.000000
4133.948033,-9696.697840,0.000000,459.657299
4133.948363,-9696.697840,222.061783,842.705048
4133.948693,-9992.780217,0.000000,1378.971896
4133.949022,-10140.821405,370.102971,612.876398
4133.949352,-10436.903782,518.144159,459.657299
4133.949682,-10362.883188,370.102971,153.219100
4133.950012,-9474.636058,0.000000,229.828649
4133.950342,-9474.636058,518.144159,689.485948
4133.950671,-10807.006753,296.082377,689.485948
4133.951001,-10584.944971,222.061783,383.047749
4133.951331,-9622.677246,-814.226536,0.000000
4133.951661,-9548.656652,0.000000,459.657299
4133.951991,-9844.739029,-222.061783,842.705048
4133.952320,-9400.615463,-296.082377,1991.848295
4133.952650,-9104.533087,-666.185348,1838.629195
4133.952980,-9770.718434,0.000000,1302.362347
4133.953310,-10288.862594,-222.061783,1302.362347
4133.953640,-10214.842000,-518.144159,919.314598
4133.953970,-9622.677246,-518.144159,995.924147
4133.954299,-9326.594869,-148.041188,1072.533697
4133.954629,-9918.759623,-666.185348,383.047749
4133.954959,-9992.780217,-888.247130,229.828649
4133.955289,-10066.800811,-740.205942,-536.266849
4133.955619,-9770.718434,-222.061783,229.828649
4133.955948,-9474.636058,-370.102971,-536.266849
4133.956278,-8734.430116,-592.164754,153.219100
4133.956608,-9104.533087,0.000000,842.705048
4133.956938,-10510.924376,0.000000,536.266849
4133.957268,-10584.944971,0.000000,0.000000
4133.957597,-9474.636058,-222.061783,-689.485948
4133.957927,-9252.574275,0.000000,-306.438199
4133.958257,-9474.636058,-148.041188,0.000000
4133.958587,-9474.636058,-370.102971,0.000000
4133.958917,-9474.636058,-740.205942,-842.705048
4133.959246,-8956.491898,0.000000,-229.828649
4133.959576,-9474.636058,222.061783,306.438199
4133.959906,-10658.965565,518.144159,536.266849
4133.960236,-10807.006753,0.000000,612.876398
4133.960566,-9622.677246,74.020594,-76.609550
4133.960896,-10066.800811,740.205942,76.609550
4133.961226,-10362.883188,444.123565,-383.047749
4133.961556,-10214.842000,74.020594,153.219100
4133.961886,-9474.636058,222.061783,306.438199
4133.962216,-9622.677246,592.164754,153.219100
4133.962545,-9474.636058,592.164754,-536.266849
4133.962875,-9400.615463,666.185348,-842.705048
4133.963205,-10214.842000,370.102971,-536.266849
4133.963535,-10584.944971,296.082377,-306.438199
4133.963865,-10288.862594,370.102971,153.219100
4133.964195,-9622.677246,296.082377,383.047749
4133.964525,-9474.636058,592.164754,-383.047749
4133.964855,-9326.594869,740.205942,-536.266849
4133.965185,-9770.718434,148.041188,-383.047749
4133.965515,-9548.656652,518.144159,-306.438199
4133.965845,-9844.739029,370.102971,612.876398
4133.966175,-10288.862594,296.082377,459.657299
4133.966504,-9252.574275,-222.061783,-153.219100
4133.966834,-8512.368333,0.000000,-612.876398
4133.967164,-9474.636058,592.164754,-919.314598
4133.967494,-9622.677246,296.082377,-306.438199
4133.967824,-9770.718434,518.144159,459.657299
4133.968154,-9326.594869,814.226536,229.828649
4133.968484,-9474.636058,962.267725,153.219100
4133.968814,-9992.780217,814.226536,0.000000
4133.969144,-10140.821405,592.164754,306.438199
4133.969474,-9992.780217,296.082377,153.219100
4133.969804,-8956.491898,592.164754,76.609550
4133.970134,-9252.574275,222.061783,76.609550
4133.970464,-9622.677246,148.041188,842.705048
4133.970793,-9548.656652,74.020594,612.876398
4133.971123,-9918.759623,296.082377,766.095498
4133.971453,-10510.924376,148.041188,0.000000
4133.971783,-10288.862594,0.000000,612.876398
4133.972113,-9844.739029,148.041188,1762.019645
4133.972443,-10807.006753,370.102971,1762.019645
4133.972773,-10584.944971,222.061783,612.876398
4133.973103,-9918.759623,148.041188,0.000000
4133.973433,-9918.759623,0.000000,-842.705048
4133.973763,-9696.697840,0.000000,-1072.533697
4133.974093,-9474.636058,-296.082377,459.657299
4133.974423,-9918.759623,-148.041188,842.705048
4133.974752,-9252.574275,-888.247130,919.314598
4133.975082,-8586.388927,-1258.350101,536.266849
4133.975412,-8808.450710,-888.247130,-153.219100
4133.975742,-9844.739029,-592.164754,383.047749
4133.976072,-8956.491898,-1480.411884,383.047749
4133.976402,-9474.636058,-814.226536,1072.533697
4133.976732,-9844.739029,-222.061783,1455.581446
4133.977062,-9548.656652,-1332.370696,459.657299
4133.977392,-7994.224174,-1702.473667,612.876398
4133.977722,-8956.491898,-1184.329507,1225.752797
4133.978052,-10140.821405,-222.061783,766.095498
4133.978382,-10362.883188,-296.082377,-383.047749
4133.978712,-9918.759623,-518.144159,-612.876398
4133.979041,-9770.718434,-370.102971,153.219100
4133.979371,-9622.677246,-222.061783,-306.438199
4133.979701,-11029.068536,148.041188,0.000000
4133.980031,-9770.718434,0.000000,229.828649
4133.980361,-9178.553681,148.041188,-459.657299
4133.980691,-10510.924376,148.041188,-306.438199
4133.981021,-11177.109724,-296.082377,153.219100
4133.981351,-10288.862594,-296.082377,612.876398
4133.981681,-9770.718434,0.000000,1455.581446
4133.982011,-10362.883188,-962.267725,842.705048
4133.982341,-10066.800811,-444.123565,766.095498
4133.982671,-9400.615463,-518.144159,689.485948
4133.983000,-10066.800811,-518.144159,229.828649
4133.983330,-9770.718434,0.000000,0.000000
4133.983660,-9696.697840,370.102971,229.828649
4133.983990,-10214.842000,-74.020594,-229.828649
4133.984320,-9696.697840,0.000000,153.219100
4133.984650,-9844.739029,0.000000,536.266849
4133.984980,-10288.862594,0.000000,766.095498
4133.985310,-9400.615463,0.000000,459.657299
4133.985640,-8734.430116,0.000000,0.000000
4133.985970,-9400.615463,-148.041188,-306.438199
4133.986300,-10066.800811,296.082377,-612.876398
4133.986630,-10066.800811,370.102971,-1149.143247
4133.986960,-8956.491898,222.061783,-1072.533697
4133.987289,-9030.512492,222.061783,-995.924147
4133.987619,-8660.409521,222.061783,0.000000
4133.987949,-9104.533087,222.061783,0.000000
4133.988279,-10066.800811,370.102971,0.000000
4133.988609,-9992.780217,814.226536,-229.828649
4133.988939,-10214.842000,888.247130,-76.609550
4133.989269,-9844.739029,148.041188,0.000000
4133.989599,-9770.718434,666.185348,306.438199
4133.989929,-9696.697840,888.247130,612.876398
4133.990259,-9770.718434,1110.308913,0.000000
4133.990589,-8882.471304,888.247130,-995.924147
4133.990919,-9326.594869,1184.329507,-919.314598
4133.991248,-10510.924376,1554.432478,0.000000
4133.991578,-10584.944971,962.267725,766.095498
4133.991908,-10658.965565,1554.432478,1378.971896
4133.992238,-10362.883188,1110.308913,383.047749
4133.992568,-10066.800811,222.061783,-306.438199
4133.992898,-9104.533087,148.041188,0.000000
4133.993228,-10066.800811,666.185348,459.657299
4133.993558,-10436.903782,888.247130,1838.629195
4133.993888,-9918.759623,666.185348,1532.190996
4133.994218,-9918.759623,592.164754,995.924147
4133.994548,-9918.759623,666.185348,0.000000
4133.994878,-9770.718434,666.185348,0.000000
4133.995207,-10214.842000,74.020594,0.000000
4133.995537,-9992.780217,0.000000,612.876398
4133.995867,-9030.512492,-222.061783,766.095498
4133.996197,-8882.471304,-74.020594,383.047749
4133.996527,-9548.656652,-222.061783,0.000000
4133.996857,-9918.759623,-148.041188,-229.828649
4133.997187,-9400.615463,-444.123565,612.876398
4133.997517,-9622.677246,0.000000,306.438199
4133.997847,-9622.677246,-74.020594,536.266849
4133.998177,-9696.697840,0.000000,1072.533697
4133.998507,-9992.780217,-444.123565,995.924147
4133.998837,-9770.718434,-370.102971,-306.438199
4133.999167,-9844.739029,-592.164754,-689.485948
4133.999496,-10288.862594,-370.102971,-459.657299
4133.999826,-9474.636058,-444.123565,229.828649
4134.000156,-9252.574275,0.000000,536.266849
4134.000486,-10066.800811,74.020594,383.047749
4134.000816,-10436.903782,-148.041188,0.000000
4134.001146,-9696.697840,-222.061783,-229.828649
4134.001476,-9326.594869,-222.061783,0.000000
4134.001806,-10584.944971,0.000000,306.438199
4134.002136,-10436.903782,0.000000,1225.752797
4134.002466,-10658.965565,74.020594,919.314598
4134.002796,-9622.677246,222.061783,383.047749
4134.003126,-9844.739029,-74.020594,-612.876398
4134.003455,-9992.780217,222.061783,-612.876398
4134.003785,-10066.800811,-370.102971,153.219100
4134.004115,-9622.677246,370.102971,1225.752797
4134.004445,-9622.677246,0.000000,1685.410096
4134.004775,-10362.883188,-296.082377,766.095498
4134.005105,-9992.780217,-814.226536,76.609550
4134.005435,-9474.636058,-962.267725,76.609550
4134.005765,-9178.553681,-592.164754,536.266849
4134.006095,-9696.697840,-518.144159,842.705048
4134.006425,-9844.739029,0.000000,1149.143247
4134.006755,-9844.739029,-296.082377,689.485948
4134.007085,-8808.450710,-74.020594,-766.095498
4134.007415,-9178.553681,-222.061783,0.000000
4134.007744,-10288.862594,296.082377,229.828649
4134.008074,-9474.636058,-888.247130,0.000000
4134.008404,-8216.285956,-370.102971,0.000000
4134.008734,-8956.491898,-74.020594,153.219100
4134.009064,-9992.780217,74.020594,459.657299
4134.009394,-10214.842000,370.102971,0.000000
4134.009724,-9326.594869,592.164754,-383.047749
4134.010054,-9400.615463,74.020594,-842.705048
4134.010384,-9622.677246,222.061783,76.609550
4134.010714,-9844.739029,370.102971,919.314598
4134.011044,-9696.697840,74.020594,459.657299
4134.011374,-9030.512492,0.000000,-306.438199
4134.011703,-9474.636058,370.102971,0.000000
4134.012033,-10584.944971,296.082377,153.219100
4134.012363,-10214.842000,444.123565,842.705048
4134.012693,-9770.718434,296.082377,1378.971896
4134.013023,-10584.944971,296.082377,1072.533697
4134.013353,-9844.739029,814.226536,229.828649
4134.013683,-10436.903782,888.247130,0.000000
4134.014013,-11029.068536,1036.288319,-459.657299
4134.014343,-10658.965565,518.144159,229.828649
4134.014673,-10140.821405,666.185348,229.828649
4134.015003,-9696.697840,296.082377,383.047749
4134.015333,-9474.636058,370.102971,689.485948
4134.015663,-9474.636058,222.061783,153.219100
4134.015992,-10066.800811,296.082377,0.000000
4134.016322,-10436.903782,-296.082377,-842.705048
4134.016652,-9548.656652,-444.123565,306.438199
4134.016982,-9104.533087,-296.082377,842.705048
4134.017312,-9178.553681,-444.123565,689.485948
4134.017642,-9252.574275,-444.123565,229.828649
4134.017972,-8956.491898,-370.102971,-306.438199
4134.018302,-9770.718434,74.020594,-153.219100
4134.018632,-10288.862594,518.144159,306.438199
4134.018962,-10214.842000,148.041188,919.314598
4134.019292,-10140.821405,-370.102971,229.828649
4134.019622,-9104.533087,-148.041188,-153.219100
4134.019951,-8882.471304,-296.082377,-1302.362347
4134.020281,-8956.491898,-518.144159,-919.314598
4134.020611,-8808.450710,-592.164754,-919.314598
4134.020941,-8956.491898,-296.082377,0.000000
4134.021271,-9326.594869,148.041188,612.876398
4134.021601,-9992.780217,444.123565,229.828649
4134.021931,-10214.842000,0.000000,536.266849
4134.022261,-10066.800811,0.000000,153.219100
4134.022591,-9548.656652,-518.144159,229.828649
4134.022921,-9326.594869,0.000000,766.095498
4134.023251,-9622.677246,-222.061783,1072.533697
4134.023581,-10510.924376,370.102971,689.485948
4134.023911,-10807.006753,148.041188,-689.485948
4134.024240,-9844.739029,148.041188,-1378.971896
4134.024570,-9400.615463,296.082377,-995.924147
4134.024900,-9104.533087,370.102971,153.219100
4134.025230,-9548.656652,666.185348,383.047749
4134.025560,-10066.800811,370.102971,-383.047749
4134.025890,-9992.780217,222.061783,-612.876398
4134.026220,-10140.821405,148.041188,-229.828649
4134.026550,-10214.842000,74.020594,383.047749
4134.026880,-9844.739029,222.061783,383.047749
4134.027210,-9104.533087,0.000000,842.705048
4134.027540,-8956.491898,-296.082377,766.095498
4134.027870,-8808.450710,-296.082377,0.000000
4134.028199,-9548.656652,0.000000,-383.047749
4134.028529,-10214.842000,518.144159,0.000000
4134.028859,-10288.862594,148.041188,612.876398
4134.029189,-9548.656652,370.102971,1302.362347
4134.029519,-9548.656652,0.000000,1302.362347
4134.029849,-10214.842000,148.041188,383.047749
4134.030179,-10732.986159,0.000000,0.000000
4134.030509,-9770.718434,0.000000,-536.266849
4134.030839,-9918.759623,0.000000,0.000000
4134.031169,-9030.512492,518.144159,689.485948
4134.031499,-9104.533087,0.000000,-306.438199
4134.031829,-8956.491898,-74.020594,-766.095498
4134.032159,-8956.491898,0.000000,-383.047749
4134.032488,-9548.656652,0.000000,919.314598
4134.032818,-10955.047942,0.000000,1302.362347
4134.033148,-10955.047942,-222.061783,1762.019645
4134.033478,-9622.677246,-518.144159,1685.410096
4134.033808,-9622.677246,-222.061783,842.705048
4134.034138,-9844.739029,-370.102971,153.219100
4134.034468,-9178.553681,0.000000,153.219100
4134.034798,-9104.533087,148.041188,689.485948
4134.035128,-9844.739029,444.123565,689.485948
4134.035458,-10288.862594,666.185348,229.828649
4134.035788,-10584.944971,444.123565,0.000000
4134.036118,-9992.780217,518.144159,-1302.362347
4134.036447,-10066.800811,148.041188,-1608.800546
4134.036777,-9474.636058,0.000000,-1532.190996
4134.037107,-9548.656652,-296.082377,76.609550
4134.037437,-9326.594869,-74.020594,919.314598
4134.037767,-9548.656652,0.000000,1225.752797
4134.038097,-10584.944971,-296.082377,612.876398
4134.038427,-9548.656652,-666.185348,76.609550
4134.038757,-9770.718434,-444.123565,536.266849
4134.039087,-10362.883188,-370.102971,1302.362347
4134.039417,-9844.739029,-592.164754,1838.629195
4134.039747,-9178.553681,-740.205942,1302.362347
4134.040077,-9030.512492,-592.164754,612.876398
4134.040407,-9548.656652,-444.123565,0.000000
4134.040736,-10066.800811,-592.164754,-612.876398
4134.041066,-9918.759623,74.020594,-842.705048
4134.041396,-9252.574275,-296.082377,153.219100
4134.041726,-9252.574275,-518.144159,306.438199
4134.042056,-9474.636058,-296.082377,76.609550
4134.042386,-9178.553681,296.082377,76.609550
4134.042716,-9474.636058,-74.020594,-383.047749
4134.043046,-10510.924376,0.000000,76.609550
4134.043376,-11103.089130,-296.082377,1608.800546
4134.043706,-10436.903782,0.000000,1991.848295
4134.044036,-9326.594869,222.061783,1608.800546
4134.044366,-10066.800811,148.041188,612.876398
4134.044695,-10214.842000,0.000000,76.609550
4134.045025,-10066.800811,296.082377,0.000000
4134.045355,-9548.656652,0.000000,-766.095498
4134.045685,-9918.759623,148.041188,536.266849
4134.046015,-10140.821405,74.020594,536.266849
4134.046345,-10066.800811,-74.020594,0.000000
4134.046675,-8882.471304,0.000000,-919.314598
4134.047005,-8882.471304,0.000000,0.000000
4134.047335,-9844.739029,74.020594,842.705048
4134.047665,-10288.862594,0.000000,1532.190996
4134.047995,-10288.862594,222.061783,689.485948
4134.048325,-10955.047942,370.102971,689.485948
4134.048655,-10214.842000,74.020594,0.000000
4134.048984,-9474.636058,0.000000,-536.266849
4134.049314,-9252.574275,-74.020594,0.000000
4134.049644,-9770.718434,740.205942,689.485948
4134.049974,-10436.903782,-444.123565,0.000000
4134.050304,-9252.574275,0.000000,0.000000
4134.050634,-9030.512492,-296.082377,-536.266849
4134.050964,-9696.697840,370.102971,-306.438199
4134.051294,-10288.862594,-222.061783,0.000000
4134.051624,-9548.656652,-74.020594,153.219100
4134.051954,-8660.409521,0.000000,153.219100
4134.052284,-9918.759623,222.061783,-229.828649
4134.052614,-10732.986159,222.061783,229.828649
4134.052943,-9844.739029,444.123565,76.609550
4134.053273,-9104.533087,222.061783,-383.047749
4134.053603,-9992.780217,0.000000,0.000000
4134.053933,-10140.821405,222.061783,842.705048
4134.054263,-8660.409521,0.000000,383.047749
4134.054593,-8586.388927,74.020594,-383.047749
4134.054923,-9400.615463,296.082377,153.219100
4134.055253,-9992.780217,1036.288319,1225.752797
4134.055583,-10214.842000,444.123565,612.876398
4134.055913,-10362.883188,0.000000,-459.657299
4134.056243,-9992.780217,592.164754,229.828649
4134.056573,-9548.656652,444.123565,1532.190996
4134.056902,-9548.656652,370.102971,-153.219100
4134.057232,-8882.471304,888.247130,-612.876398
4134.057562,-9770.718434,1036.288319,-536.266849
4134.057892,-10807.006753,1036.288319,0.000000
4134.058222,-10584.944971,888.247130,-76.609550
4134.058552,-10436.903782,666.185348,-229.828649
4134.058882,-10214.842000,444.123565,0.000000
4134.059212,-9400.615463,148.041188,-229.828649
4134.059542,-9104.533087,370.102971,-689.485948
4134.059872,-9252.574275,222.061783,-612.876398
4134.060202,-10288.862594,518.144159,842.705048
4134.060532,-10881.027347,814.226536,1302.362347
4134.060861,-11325.150913,-74.020594,919.314598
4134.061191,-10436.903782,0.000000,383.047749
4134.061521,-9696.697840,-518.144159,76.609550
4134.061851,-9474.636058,-592.164754,0.000000
4134.062181,-7698.141797,-740.205942,76.609550
4134.062511,-7698.141797,-222.061783,612.876398
4134.062841,-9548.656652,518.144159,995.924147
4134.063171,-10881.027347,666.185348,383.047749
4134.063501,-11399.171507,740.205942,0.000000
4134.063831,-10658.965565,370.102971,0.000000
4134.064160,-10140.821405,-74.020594,-229.828649
4134.064490,-9030.512492,-444.123565,536.266849
4134.064820,-7698.141797,-296.082377,766.095498
4134.065150,-8734.430116,0.000000,919.314598
4134.065480,-9992.780217,296.082377,0.000000
4134.065810,-10881.027347,222.061783,0.000000
4134.066140,-11251.130318,296.082377,0.000000
4134.066470,-9770.718434,296.082377,995.924147
4134.066800,-9844.739029,740.205942,1225.752797
4134.067130,-9770.718434,-148.041188,383.047749
4134.067459,-8586.388927,0.000000,0.000000
4134.067789,-8808.450710,370.102971,-306.438199
4134.068119,-10362.883188,666.185348,-1072.533697
4134.068449,-10955.047942,74.020594,-383.047749
4134.068779,-9918.759623,0.000000,612.876398
4134.069109,-9992.780217,0.000000,1149.143247
4134.069439,-9918.759623,-444.123565,689.485948
4134.069769,-9548.656652,0.000000,0.000000
4134.070099,-8956.491898,-74.020594,-459.657299
4134.070428,-9326.594869,0.000000,-76.609550
4134.070758,-9844.739029,74.020594,536.266849
4134.071088,-10807.006753,0.000000,1378.971896
4134.071418,-10807.006753,0.000000,383.047749
4134.071748,-9326.594869,-444.123565,-612.876398
4134.072078,-8808.450710,-592.164754,-536.266849
4134.072408,-9030.512492,-444.123565,-76.609550
4134.072738,-9178.553681,0.000000,536.266849
4134.073068,-9474.636058,-370.102971,842.705048
4134.073398,-10510.924376,-296.082377,229.828649
4134.073727,-10214.842000,-592.164754,536.266849
4134.074057,-9474.636058,-814.226536,766.095498
4134.074387,-10066.800811,-444.123565,1149.143247
4134.074717,-10066.800811,-888.247130,1455.581446
4134.075047,-9326.594869,-888.247130,2298.286494
4134.075377,-9400.615463,0.000000,1378.971896
4134.075707,-9474.636058,370.102971,612.876398
4134.076037,-9918.759623,444.123565,-689.485948
4134.076367,-9474.636058,296.082377,-1378.971896
4134.076697,-9474.636058,74.020594,-1225.752797
4134.077026,-9844.739029,296.082377,-766.095498
4134.077356,-10140.821405,-296.082377,383.047749
4134.077686,-9696.697840,-1036.288319,459.657299
4134.078016,-8956.491898,-1036.288319,-229.828649
4134.078346,-9326.594869,0.000000,76.609550
4134.078676,-9918.759623,0.000000,76.609550
4134.079006,-9918.759623,0.000000,0.000000
4134.079336,-10214.842000,222.061783,842.705048
4134.079666,-11177.109724,222.061783,766.095498
4134.079996,-10955.047942,296.082377,153.219100
4134.080325,-9770.718434,0.000000,-306.438199
4134.080655,-9252.574275,74.020594,-842.705048
4134.080985,-8882.471304,-222.061783,-383.047749
4134.081315,-10066.800811,148.041188,383.047749
4134.081645,-10807.006753,370.102971,919.314598
4134.081975,-9696.697840,222.061783,612.876398
4134.082305,-9104.533087,518.144159,0.000000
4134.082635,-10362.883188,666.185348,-306.438199
4134.082965,-11251.130318,296.082377,0.000000
4134.083295,-9696.697840,148.041188,766.095498
4134.083624,-9252.574275,148.041188,1532.190996
4134.083954,-9622.677246,222.061783,1302.362347
4134.084284,-9474.636058,296.082377,842.705048
4134.084614,-9696.697840,148.041188,0.000000
4134.084944,-9400.615463,296.082377,-153.219100
4134.085274,-9918.759623,444.123565,0.000000
4134.085604,-9918.759623,518.144159,766.095498
4134.085934,-9252.574275,0.000000,1149.143247
4134.086264,-9104.533087,740.205942,689.485948
4134.086594,-8734.430116,296.082377,229.828649
4134.086923,-9474.636058,370.102971,-229.828649
4134.087253,-9474.636058,666.185348,-1149.143247
4134.087583,-9622.677246,814.226536,536.266849
4134.087913,-10658.965565,1036.288319,766.095498
4134.088243,-10288.862594,518.144159,306.438199
4134.088573,-10510.924376,518.144159,-842.705048
4134.088903,-9992.780217,592.164754,-766.095498
4134.089233,-9400.615463,0.000000,-766.095498
4134.089563,-9030.512492,222.061783,0.000000
4134.089893,-9474.636058,296.082377,459.657299
4134.090222,-10436.903782,74.020594,0.000000
4134.090552,-10436.903782,-222.061783,-536.266849
4134.090882,-9622.677246,0.000000,-536.266849
4134.091212,-9992.780217,-888.247130,-306.438199
4134.091542,-10066.800811,-592.164754,612.876398
4134.091872,-9770.718434,-222.061783,1225.752797
4134.092202,-9252.574275,-222.061783,229.828649
4134.092532,-9030.512492,-370.102971,-766.095498
4134.092862,-9474.636058,-444.123565,-689.485948
4134.093192,-10066.800811,-518.144159,-536.266849
4134.093521,-9548.656652,148.041188,842.705048
4134.093851,-9844.739029,-222.061783,1072.533697
4134.094181,-9918.759623,-740.205942,612.876398
4134.094511,-9178.553681,-592.164754,153.219100
4134.094841,-9178.553681,-592.164754,536.266849
4134.095171,-9844.739029,74.020594,459.657299
4134.095501,-10214.842000,0.000000,153.219100
4134.095831,-9548.656652,-222.061783,0.000000
4134.096161,-9474.636058,222.061783,383.047749
4134.096491,-9622.677246,0.000000,612.876398
4134.096820,-10955.047942,444.123565,766.095498
4134.097150,-11029.068536,0.000000,536.266849
4134.097480,-10288.862594,296.082377,229.828649
4134.097810,-9770.718434,592.164754,0.000000
4134.098140,-9918.759623,370.102971,153.219100
4134.098470,-10140.821405,222.061783,459.657299
4134.098800,-9844.739029,444.123565,536.266849
4134.099130,-9548.656652,592.164754,-766.095498
4134.099460,-10436.903782,370.102971,-383.047749
4134.099790,-9992.780217,592.164754,76.609550
4134.100119,-9474.636058,0.000000,306.438199
4134.100449,-9400.615463,444.123565,612.876398
4134.100779,-9548.656652,-148.041188,689.485948
4134.101109,-9770.718434,222.061783,153.219100
4134.101439,-9770.718434,370.102971,0.000000
4134.101769,-9696.697840,148.041188,-306.438199
4134.102099,-9770.718434,0.000000,153.219100
4134.102429,-10066.800811,296.082377,1072.533697
4134.102759,-9548.656652,148.041188,1072.533697
4134.103089,-8956.491898,370.102971,76.609550
4134.103418,-8808.450710,148.041188,-612.876398
4134.103748,-9104.533087,370.102971,-1225.752797
4134.104078,-9030.512492,740.205942,-689.485948
4134.104408,-9622.677246,296.082377,536.266849
4134.104738,-10140.821405,370.102971,689.485948
4134.105068,-9770.718434,0.000000,689.485948
4134.105398,-9992.780217,-222.061783,306.438199
4134.105728,-9696.697840,-222.061783,-536.266849
4134.106058,-9326.594869,-148.041188,536.266849
4134.106388,-9548.656652,0.000000,1608.800546
4134.106717,-10066.800811,74.020594,1455.581446
4134.107047,-9770.718434,444.123565,1072.533697
4134.107377,-9844.739029,444.123565,0.000000
4134.107707,-10510.924376,74.020594,-919.314598
4134.108037,-10066.800811,370.102971,-306.438199
4134.108367,-9844.739029,444.123565,306.438199
4134.108697,-10140.821405,444.123565,459.657299
4134.109027,-10214.842000,74.020594,612.876398
4134.109357,-10881.027347,74.020594,229.828649
4134.109687,-10732.986159,74.020594,-766.095498
4134.110016,-10140.821405,-370.102971,-1455.581446
4134.110346,-9178.553681,-148.041188,-383.047749
4134.110676,-9030.512492,-74.020594,1072.533697
4134.111006,-10140.821405,222.061783,1072.533697
4134.111336,-10214.842000,0.000000,995.924147
4134.111666,-9992.780217,-518.144159,0.000000
4134.111996,-10066.800811,-592.164754,-612.876398
4134.112326,-9844.739029,-444.123565,76.609550
4134.112656,-9992.780217,-888.247130,1608.800546
4134.112986,-8956.491898,-888.247130,919.314598
4134.113315,-8512.368333,-148.041188,842.705048
4134.113645,-9844.739029,74.020594,0.000000
4134.113975,-10658.965565,0.000000,-1072.533697
4134.114305,-9844.739029,-222.061783,-766.095498
4134.114635,-8734.430116,-296.082377,0.000000
4134.114965,-9400.615463,-296.082377,1149.143247
4134.115295,-9548.656652,-222.061783,612.876398
4134.115625,-9770.718434,-444.123565,0.000000
4134.115955,-9696.697840,0.000000,-536.266849
4134.116285,-9474.636058,0.000000,-1072.533697
4134.116614,-9844.739029,592.164754,229.828649
4134.116944,-10362.883188,444.123565,1072.533697
4134.117274,-10066.800811,814.226536,1072.533697
4134.117604,-9918.759623,444.123565,536.266849
4134.117934,-10955.047942,148.041188,-536.266849
4134.118264,-10510.924376,-518.144159,-766.095498
4134.118594,-9400.615463,-370.102971,612.876398
4134.118924,-9252.574275,-518.144159,1762.019645
4134.119254,-9252.574275,0.000000,1302.362347
4134.119584,-9622.677246,-296.082377,919.314598
4134.119913,-9548.656652,74.020594,612.876398
4134.120243,-10807.006753,74.020594,-306.438199
4134.120573,-9770.718434,444.123565,-612.876398
4134.120903,-8882.471304,148.041188,0.000000
4134.121233,-9622.677246,0.000000,536.266849
4134.121563,-9918.759623,0.000000,383.047749
4134.121893,-9844.739029,-666.185348,0.000000
4134.122223,-9622.677246,-592.164754,-995.924147
4134.122553,-8808.450710,-592.164754,-689.485948
4134.122882,-8882.471304,0.000000,612.876398
4134.123212,-9326.594869,0.000000,766.095498
4134.123542,-9474.636058,148.041188,459.657299
4134.123872,-9548.656652,0.000000,153.219100
4134.124202,-9696.697840,0.000000,-842.705048
4134.124532,-9622.677246,-518.144159,-919.314598
4134.124862,-8956.491898,0.000000,153.219100
4134.125192,-9030.512492,-444.123565,1225.752797
4134.125522,-9622.677246,370.102971,995.924147
4134.125852,-9696.697840,74.020594,229.828649
4134.126181,-10214.842000,0.000000,-229.828649
4134.126511,-10658.965565,-222.061783,-842.705048
4134.126841,-10066.800811,0.000000,306.438199
4134.127171,-9696.697840,148.041188,1532.190996
4134.127501,-9622.677246,0.000000,1915.238745
4134.127831,-9548.656652,444.123565,1149.143247
4134.128161,-9844.739029,222.061783,229.828649
4134.128491,-10955.047942,740.205942,-306.438199
4134.128821,-10881.027347,296.082377,459.657299
4134.129151,-10510.924376,666.185348,766.095498
4134.129480,-10140.821405,0.000000,1302.362347
4134.129810,-9474.636058,-74.020594,842.705048
4134.130140,-8586.388927,0.000000,153.219100
4134.130470,-9622.677246,74.020594,0.000000
4134.130800,-10807.006753,592.164754,-383.047749
4134.131130,-10066.800811,370.102971,0.000000
4134.131460,-9474.636058,666.185348,306.438199
4134.131790,-9992.780217,0.000000,459.657299
4134.132120,-10584.944971,444.123565,0.000000
4134.132450,-9770.718434,-148.041188,-536.266849
4134.132779,-9030.512492,0.000000,-1149.143247
4134.133109,-9178.553681,296.082377,-1149.143247
4134.133439,-9474.636058,370.102971,76.609550
4134.133769,-10436.903782,444.123565,919.314598
4134.134099,-9548.656652,518.144159,536.266849
4134.134429,-9104.533087,222.061783,-995.924147
4134.134759,-9474.636058,370.102971,-1762.019645
4134.135089,-9252.574275,296.082377,-919.314598
4134.135419,-9030.512492,0.000000,0.000000
4134.135749,-9474.636058,222.061783,1225.752797
4134.136078,-9548.656652,740.205942,766.095498
4134.136408,-10140.821405,592.164754,306.438199
4134.136738,-9918.759623,740.205942,-995.924147
4134.137068,-9992.780217,222.061783,-919.314598
4134.137398,-9622.677246,370.102971,-383.047749
4134.137728,-9548.656652,148.041188,1302.362347
4134.138058,-9400.615463,296.082377,1838.629195
4134.138388,-9696.697840,148.041188,1378.971896
4134.138718,-10362.883188,74.020594,0.000000
4134.139048,-10140.821405,0.000000,-459.657299
4134.139377,-10288.862594,222.061783,-383.047749
4134.139707,-10436.903782,-222.061783,383.047749
4134.140037,-10066.800811,-222.061783,919.314598
4134.140367,-8882.471304,-518.144159,919.314598
4134.140697,-9252.574275,0.000000,-459.657299
4134.141027,-10140.821405,-148.041188,-766.095498
4134.141357,-11029.068536,-592.164754,76.609550
4134.141687,-9844.739029,-518.144159,1149.143247
4134.142017,-9474.636058,-592.164754,1455.581446
4134.142347,-9992.780217,-518.144159,1991.848295
4134.142676,-9770.718434,-740.205942,1149.143247
4134.143006,-10214.842000,-444.123565,0.000000
4134.143336,-9770.718434,-444.123565,-383.047749
4134.143666,-9918.759623,-296.082377,-306.438199
4134.143996,-9622.677246,-592.164754,383.047749
4134.144326,-8956.491898,-370.102971,919.314598
4134.144656,-9326.594869,-148.041188,383.047749
4134.144986,-9770.718434,0.000000,-383.047749
4134.145316,-10066.800811,-592.164754,-1072.533697
4134.145646,-9696.697840,-296.082377,0.000000
4134.145975,-9474.636058,74.020594,766.095498
4134.146305,-10510.924376,370.102971,1302.362347
4134.146635,-10214.842000,0.000000,689.485948
4134.146965,-9844.739029,148.041188,-536.266849
4134.147295,-11029.068536,222.061783,-766.095498
4134.147625,-10732.986159,296.082377,-153.219100
4134.147955,-10362.883188,74.020594,1149.143247
4134.148285,-9104.533087,518.144159,689.485948
4134.148615,-8586.388927,222.061783,612.876398
4134.148945,-9844.739029,148.041188,-306.438199
4134.149274,-10807.006753,296.082377,-383.047749
4134.149604,-10807.006753,-148.041188,536.266849
4134.149934,-9992.780217,0.000000,1225.752797
4134.150264,-9548.656652,-592.164754,1915.238745
4134.150594,-9918.759623,-518.144159,919.314598
4134.150924,-9474.636058,0.000000,995.924147
4134.151254,-9770.718434,222.061783,229.828649
4134.151584,-9252.574275,0.000000,0.000000
4134.151914,-10066.800811,518.144159,612.876398
4134.152244,-10658.965565,222.061783,1532.190996
4134.152573,-10140.821405,0.000000,919.314598
4134.152903,-9548.656652,148.041188,-612.876398
4134.153233,-8882.471304,-296.082377,-919.314598
4134.153563,-8808.450710,0.000000,-689.485948
4134.153893,-9474.636058,0.000000,306.438199
4134.154223,-9770.718434,296.082377,459.657299
4134.154553,-9918.759623,444.123565,153.219100
4134.154883,-9474.636058,222.061783,-229.828649
4134.155213,-9178.553681,0.000000,-766.095498
4134.155543,-9844.739029,148.041188,-76.609550
4134.155872,-9992.780217,0.000000,-153.219100
4134.156202,-8290.306550,-296.082377,-612.876398
4134.156532,-8734.430116,0.000000,306.438199
4134.156862,-9696.697840,518.144159,612.876398
4134.157192,-10658.965565,0.000000,-689.485948
4134.157522,-9622.677246,666.185348,-612.876398
4134.157852,-8956.491898,296.082377,-1302.362347
4134.158182,-10066.800811,740.205942,-536.266849
4134.158512,-10584.944971,222.061783,306.438199
4134.158842,-10658.965565,296.082377,383.047749
4134.159171,-9992.780217,740.205942,229.828649
4134.159501,-9696.697840,592.164754,-229.828649
4134.159831,-10732.986159,518.144159,-766.095498
4134.160161,-10140.821405,740.205942,-76.609550
4134.160491,-10436.903782,666.185348,383.047749
4134.160821,-10584.944971,222.061783,842.705048
4134.161151,-9918.759623,444.123565,842.705048
4134.161481,-9252.574275,0.000000,306.438199
4134.161811,-10066.800811,444.123565,229.828649
4134.162140,-10436.903782,-518.144159,-306.438199
4134.162470,-9918.759623,0.000000,-229.828649
4134.162800,-9696.697840,-592.164754,0.000000
4134.163130,-8660.409521,-592.164754,1149.143247
4134.163460,-8956.491898,-148.041188,1149.143247
4134.163790,-9252.574275,0.000000,536.266849
4134.164120,-9474.636058,0.000000,-383.047749
4134.164449,-9400.615463,222.061783,-1072.533697
4134.164779,-9992.780217,222.061783,306.438199
4134.165109,-10140.821405,0.000000,919.314598
4134.165439,-9918.759623,148.041188,536.266849
4134.165769,-9400.615463,-222.061783,-919.314598
4134.166099,-9030.512492,-370.102971,-612.876398
4134.166429,-9178.553681,0.000000,0.000000
4134.166758,-9918.759623,148.041188,612.876398
4134.167088,-10362.883188,148.041188,1149.143247
4134.167418,-9622.677246,444.123565,919.314598
4134.167748,-9622.677246,444.123565,76.609550
4134.168078,-10288.862594,296.082377,-689.485948
4134.168408,-10362.883188,148.041188,-689.485948
4134.168738,-9474.636058,-296.082377,-689.485948
4134.169068,-9326.594869,-444.123565,76.609550
4134.169397,-9104.533087,0.000000,1149.143247
4134.169727,-9696.697840,-296.082377,995.924147
4134.170057,-10881.027347,74.020594,0.000000
4134.170387,-9992.780217,-370.102971,153.219100
4134.170717,-10140.821405,0.000000,1149.143247
4134.171047,-10732.986159,0.000000,1915.238745
4134.171377,-10436.903782,0.000000,1915.238745
4134.171706,-9844.739029,-370.102971,766.095498
4134.172036,-9548.656652,-370.102971,229.828649
4134.172366,-10362.883188,-222.061783,-153.219100
4134.172696,-10140.821405,-296.082377,459.657299
4134.173026,-9918.759623,-148.041188,612.876398
4134.173356,-9104.533087,-518.144159,383.047749
4134.173686,-9400.615463,-148.041188,76.609550
4134.174015,-9918.759623,-518.144159,-229.828649
4134.174345,-9326.594869,0.000000,-306.438199
4134.174675,-8882.471304,-666.185348,0.000000
4134.175005,-9474.636058,-370.102971,612.876398
4134.175335,-10214.842000,-814.226536,689.485948
4134.175665,-9696.697840,0.000000,306.438199
4134.175995,-8882.471304,-296.082377,0.000000
4134.176324,-9400.615463,-296.082377,-153.219100
4134.176654,-10362.883188,0.000000,383.047749
4134.176984,-9696.697840,0.000000,459.657299
4134.177314,-8808.450710,-296.082377,0.000000
4134.177644,-8512.368333,222.061783,-459.657299
4134.177974,-9844.739029,222.061783,-1072.533697
4134.178304,-10658.965565,370.102971,-536.266849
4134.178633,-9844.739029,518.144159,-459.657299
4134.178963,-8956.491898,222.061783,0.000000
4134.179293,-9548.656652,666.185348,0.000000
4134.179623,-10436.903782,666.185348,0.000000
4134.179953,-9696.697840,888.247130,-1072.533697
4134.180283,-9770.718434,1036.288319,-76.609550
4134.180613,-10510.924376,1110.308913,0.000000
4134.180943,-11177.109724,1554.432478,1072.533697
4134.181272,-10584.944971,1480.411884,306.438199
4134.181602,-10436.903782,518.144159,-536.266849
4134.181932,-9918.759623,518.144159,-383.047749
4134.182262,-9770.718434,0.000000,0.000000
4134.182592,-10658.965565,296.082377,383.047749
4134.182922,-9400.615463,0.000000,1302.362347
4134.183252,-9622.677246,222.061783,1838.629195
4134.183581,-10288.862594,74.020594,1762.019645
4134.183911,-9400.615463,74.020594,306.438199
4134.184241,-9548.656652,296.082377,-766.095498
4134.184571,-10288.862594,74.020594,229.828649
4134.184901,-9844.739029,-222.061783,612.876398
4134.185231,-8734.430116,-444.123565,153.219100
4134.185561,-8068.244768,0.000000,76.609550
4134.185890,-9104.533087,-592.164754,-536.266849
4134.186220,-8808.450710,-740.205942,-919.314598
4134.186550,-9104.533087,-148.041188,-689.485948
4134.186880,-9252.574275,-592.164754,306.438199
4134.187210,-9548.656652,-222.061783,1072.533697
4134.187540,-10288.862594,0.000000,842.705048
4134.187870,-9696.697840,-370.102971,-306.438199
4134.188199,-8956.491898,-296.082377,-919.314598
4134.188529,-9548.656652,222.061783,0.000000
4134.188859,-10658.965565,0.000000,-306.438199
4134.189189,-10066.800811,-296.082377,0.000000
4134.189519,-8956.491898,0.000000,0.000000
4134.189849,-9696.697840,222.061783,306.438199
4134.190179,-10214.842000,0.000000,229.828649
4134.190509,-9696.697840,-370.102971,229.828649
4134.190838,-9400.615463,0.000000,-76.609550
4134.191168,-9992.780217,0.000000,0.000000
4134.191498,-11103.089130,148.041188,689.485948
4134.191828,-10510.924376,-296.082377,612.876398
4134.192158,-9992.780217,148.041188,383.047749
4134.192488,-9548.656652,74.020594,153.219100
4134.192818,-10436.903782,370.102971,-306.438199
4134.193147,-10066.800811,0.000000,-306.438199
4134.193477,-9622.677246,-296.082377,383.047749
4134.193807,-9992.780217,222.061783,459.657299
4134.194137,-10436.903782,0.000000,612.876398
4134.194467,-9844.739029,370.102971,383.047749
4134.194797,-8734.430116,-296.082377,76.609550
4134.195127,-10214.842000,222.061783,-306.438199
4134.195456,-10732.986159,-296.082377,536.266849
4134.195786,-10214.842000,-296.082377,842.705048
4134.196116,-8290.306550,-592.164754,459.657299
4134.196446,-7920.203579,0.000000,383.047749
4134.196776,-9770.718434,0.000000,919.314598
4134.197106,-10584.944971,-296.082377,1302.362347
4134.197436,-9770.718434,-370.102971,153.219100
4134.197765,-8808.450710,0.000000,1072.533697
4134.198095,-9548.656652,444.123565,1302.362347
4134.198425,-10214.842000,444.123565,919.314598
4134.198755,-9104.533087,444.123565,-153.219100
4134.199085,-9178.553681,814.226536,-995.924147
4134.199415,-9992.780217,296.082377,-1378.971896
4134.199745,-10288.862594,370.102971,-306.438199
4134.200075,-9918.759623,148.041188,229.828649
4134.200404,-9326.594869,740.205942,919.314598
4134.200734,-9696.697840,962.267725,459.657299
4134.201064,-10066.800811,1184.329507,-153.219100
4134.201394,-10436.903782,888.247130,-919.314598
4134.201724,-9770.718434,592.164754,-383.047749
4134.202054,-9770.718434,74.020594,383.047749
4134.202384,-9844.739029,444.123565,689.485948
4134.202713,-9548.656652,962.267725,-306.438199
4134.203043,-9918.759623,0.000000,-536.266849
4134.203373,-10066.800811,370.102971,-1685.410096
4134.203703,-9696.697840,0.000000,-612.876398
4134.204033,-9548.656652,296.082377,306.438199
4134.204363,-9474.636058,370.102971,306.438199
4134.204693,-9548.656652,0.000000,842.705048
4134.205022,-9696.697840,-592.164754,612.876398
4134.205352,-10066.800811,-296.082377,76.609550
4134.205682,-10288.862594,-962.267725,536.266849
4134.206012,-9548.656652,-222.061783,612.876398
4134.206342,-8808.450710,-296.082377,1225.752797
4134.206672,-8660.409521,-296.082377,842.705048
4134.207002,-9548.656652,0.000000,76.609550
4134.207331,-10140.821405,0.000000,-229.828649
4134.207661,-10214.842000,0.000000,-459.657299
4134.207991,-9400.615463,-296.082377,-76.609550
4134.208321,-9474.636058,-592.164754,383.047749
4134.208651,-9178.553681,-888.247130,383.047749
4134.208981,-8660.409521,-740.205942,153.219100
4134.209311,-8586.388927,-592.164754,76.609550
4134.209640,-10140.821405,222.061783,0.000000
4134.209970,-10807.006753,0.000000,306.438199
4134.210300,-10807.006753,222.061783,1072.533697
4134.210630,-10288.862594,222.061783,1532.190996
4134.210960,-10436.903782,0.000000,1225.752797
4134.211290,-10066.800811,518.144159,842.705048
4134.211620,-10584.944971,296.082377,0.000000
4134.211950,-9548.656652,-296.082377,-1149.143247
4134.212279,-9474.636058,296.082377,-995.924147
4134.212609,-9474.636058,0.000000,-459.657299
4134.212939,-10140.821405,592.164754,229.828649
4134.213269,-9918.759623,296.082377,383.047749
4134.213599,-9474.636058,-444.123565,0.000000
4134.213929,-9918.759623,-444.123565,306.438199
4134.214259,-9770.718434,-296.082377,1225.752797
4134.214588,-10436.903782,-518.144159,1532.190996
4134.214918,-9918.759623,0.000000,1072.533697
4134.215248,-9548.656652,0.000000,1072.533697
4134.215578,-9178.553681,222.061783,306.438199
4134.215908,-10362.883188,222.061783,-459.657299
4134.216238,-10288.862594,0.000000,-459.657299
4134.216568,-8956.491898,-296.082377,-153.219100
4134.216897,-8660.409521,0.000000,-459.657299
4134.217227,-8956.491898,-296.082377,-229.828649
4134.217557,-9770.718434,-370.102971,0.000000
4134.217887,-10288.862594,0.000000,0.000000
4134.218217,-9326.594869,-518.144159,-306.438199
4134.218547,-9474.636058,74.020594,689.485948
4134.218877,-9918.759623,-370.102971,1455.581446
4134.219206,-10066.800811,0.000000,2068.457845
4134.219536,-9474.636058,0.000000,1302.362347
4134.219866,-9326.594869,222.061783,383.047749
4134.220196,-10658.965565,74.020594,229.828649
4134.220526,-9992.780217,0.000000,536.266849
4134.220856,-9030.512492,222.061783,383.047749
4134.221186,-9474.636058,592.164754,0.000000
4134.221516,-10584.944971,296.082377,-153.219100
4134.221845,-9992.780217,0.000000,-689.485948
4134.222175,-9548.656652,666.185348,-919.314598
4134.222505,-9770.718434,1110.308913,0.000000
4134.222835,-10288.862594,666.185348,536.266849
4134.223165,-10807.006753,666.185348,1149.143247
4134.223495,-10214.842000,518.144159,306.438199
4134.223825,-9770.718434,74.020594,0.000000
4134.224154,-9844.739029,74.020594,0.000000
4134.224484,-9400.615463,-444.123565,0.000000
4134.224814,-8882.471304,-222.061783,919.314598
4134.225144,-9474.636058,222.061783,1378.971896
4134.225474,-9844.739029,74.020594,76.609550
4134.225804,-9918.759623,0.000000,-766.095498
4134.226134,-9400.615463,74.020594,-1149.143247
4134.226463,-9696.697840,0.000000,-383.047749
4134.226793,-9104.533087,814.226536,612.876398
4134.227123,-8956.491898,222.061783,842.705048
4134.227453,-9696.697840,740.205942,459.657299
4134.227783,-10510.924376,370.102971,-842.705048
4134.228113,-11029.068536,222.061783,-612.876398
4134.228443,-10214.842000,370.102971,229.828649
4134.228772,-9474.636058,74.020594,842.705048
4134.229102,-9252.574275,0.000000,995.924147
4134.229432,-9622.677246,74.020594,536.266849
4134.229762,-10066.800811,0.000000,-1378.971896
4134.230092,-8808.450710,222.061783,-1225.752797
4134.230422,-10214.842000,370.102971,76.609550
4134.230752,-11103.089130,592.164754,995.924147
4134.231081,-10658.965565,148.041188,1915.238745
4134.231411,-10214.842000,74.020594,1608.800546
4134.231741,-9104.533087,-518.144159,612.876398
4134.232071,-9622.677246,-370.102971,-306.438199
4134.232401,-10066.800811,-444.123565,0.000000
4134.232731,-9918.759623,-518.144159,1072.533697
4134.233061,-10066.800811,296.082377,1455.581446
4134.233391,-9770.718434,74.020594,383.047749
4134.233720,-9844.739029,222.061783,-842.705048
4134.234050,-9400.615463,518.144159,-1455.581446
4134.234380,-9770.718434,296.082377,-995.924147
4134.234710,-10658.965565,148.041188,153.219100
4134.235040,-10807.006753,222.061783,995.924147
4134.235370,-10362.883188,-444.123565,689.485948
4134.235700,-9474.636058,-592.164754,-459.657299
4134.236029,-8956.491898,-296.082377,-995.924147
4134.236359,-9030.512492,-814.226536,-229.828649
4134.236689,-9844.739029,222.061783,153.219100
4134.237019,-9548.656652,-74.020594,1302.362347
4134.237349,-9548.656652,0.000000,1072.533697
4134.237679,-9252.574275,0.000000,153.219100
4134.238009,-9400.615463,0.000000,-612.876398
4134.238338,-9326.594869,-296.082377,-612.876398
4134.238668,-9474.636058,148.041188,-229.828649
4134.238998,-9918.759623,-222.061783,919.314598
4134.239328,-9622.677246,148.041188,919.314598
4134.239658,-9696.697840,0.000000,766.095498
4134.239988,-9844.739029,222.061783,-842.705048
4134.240318,-9252.574275,518.144159,-1149.143247
4134.240647,-9252.574275,518.144159,0.000000
4134.240977,-10140.821405,444.123565,995.924147
4134.241307,-10214.842000,888.247130,2068.457845
4134.241637,-10881.027347,444.123565,1225.752797
4134.241967,-10732.986159,592.164754,0.000000
4134.242297,-10288.862594,222.061783,-612.876398
4134.242627,-9992.780217,592.164754,0.000000
4134.242957,-9474.636058,74.020594,689.485948
4134.243286,-9400.615463,0.000000,1302.362347
4134.243616,-9326.594869,74.020594,1072.533697
4134.243946,-10732.986159,444.123565,612.876398
4134.244276,-10436.903782,0.000000,-842.705048
4134.244606,-9844.739029,-370.102971,-689.485948
4134.244936,-9696.697840,-296.082377,689.485948
4134.245266,-9252.574275,-296.082377,2298.286494
4134.245595,-9252.574275,74.020594,2068.457845
4134.245925,-9696.697840,-148.041188,383.047749
4134.246255,-9918.759623,0.000000,-689.485948
4134.246585,-9696.697840,-370.102971,-1072.533697
4134.246915,-9474.636058,-444.123565,-536.266849
4134.247245,-9178.553681,-592.164754,612.876398
4134.247575,-9104.533087,74.020594,1608.800546
4134.247904,-8734.430116,-370.102971,995.924147
4134.248234,-9104.533087,-592.164754,-383.047749
4134.248564,-10362.883188,-74.020594,-536.266849
4134.248894,-10288.862594,0.000000,0.000000
4134.249224,-10214.842000,148.041188,76.609550
4134.249554,-9474.636058,-370.102971,229.828649
4134.249884,-8956.491898,0.000000,306.438199
4134.250213,-9622.677246,-296.082377,689.485948
4134.250543,-10140.821405,0.000000,76.609550
4134.250873,-10214.842000,74.020594,-536.266849
4134.251203,-9770.718434,666.185348,-383.047749
4134.251533,-10214.842000,0.000000,0.000000
4134.251863,-9918.759623,0.000000,0.000000
4134.252193,-9696.697840,-370.102971,0.000000
4134.252523,-9696.697840,0.000000,0.000000
4134.252852,-9400.615463,444.123565,76.609550
4134.253182,-9622.677246,0.000000,-383.047749
4134.253512,-9992.780217,0.000000,0.000000
4134.253842,-10066.800811,814.226536,1762.019645
4134.254172,-9918.759623,518.144159,612.876398
4134.254502,-10510.924376,296.082377,459.657299
4134.254832,-10288.862594,0.000000,383.047749
4134.255161,-9252.574275,-592.164754,306.438199
4134.255491,-9326.594869,0.000000,153.219100
4134.255821,-9844.739029,222.061783,919.314598
4134.256151,-9844.739029,222.061783,1455.581446
4134.256481,-9474.636058,444.123565,229.828649
4134.256811,-9474.636058,592.164754,-306.438199
4134.257141,-9696.697840,518.144159,-842.705048
4134.257470,-10140.821405,518.144159,-919.314598
4134.257800,-9548.656652,296.082377,-536.266849
4134.258130,-8290.306550,222.061783,-842.705048
4134.258460,-8882.471304,222.061783,0.000000
4134.258790,-9400.615463,-518.144159,0.000000
4134.259120,-9770.718434,0.000000,76.609550
4134.259450,-9548.656652,222.061783,0.000000
4134.259779,-9770.718434,222.061783,536.266849
4134.260109,-10214.842000,444.123565,995.924147
4134.260439,-10436.903782,296.082377,1225.752797
4134.260769,-10140.821405,148.041188,1072.533697
4134.261098,-10140.821405,222.061783,229.828649
4134.261428,-10140.821405,444.123565,-459.657299
4134.261758,-9770.718434,0.000000,-919.314598
4134.262088,-9400.615463,74.020594,-383.047749
4134.262417,-9252.574275,-222.061783,612.876398
4134.262747,-10066.800811,0.000000,842.705048
4134.263077,-9548.656652,0.000000,766.095498
4134.263407,-9474.636058,-666.185348,536.266849
4134.263736,-10584.944971,0.000000,919.314598
4134.264066,-10436.903782,-370.102971,689.485948
4134.264396,-10732.986159,-444.123565,1378.971896
4134.264725,-9770.718434,-222.061783,1302.362347
4134.265055,-9326.594869,-444.123565,1149.143247
4134.265385,-8882.471304,0.000000,766.095498
4134.265715,-9178.553681,0.000000,-459.657299
4134.266044,-9326.594869,0.000000,-1225.752797
4134.266374,-9918.759623,370.102971,-842.705048
4134.266704,-11251.130318,444.123565,76.609550
4134.267033,-10584.944971,-592.164754,0.000000
4134.267363,-9178.553681,-592.164754,-612.876398
4134.267693,-8882.471304,-888.247130,-612.876398
4134.268023,-9696.697840,-518.144159,0.000000
4134.268352,-9770.718434,0.000000,766.095498
4134.268682,-9992.780217,0.000000,1072.533697
4134.269012,-9696.697840,518.144159,689.485948
4134.269342,-10140.821405,-296.082377,306.438199
4134.269671,-10066.800811,518.144159,-459.657299
4134.270001,-10140.821405,-518.144159,0.000000
4134.270331,-9622.677246,-370.102971,76.609550
4134.270660,-8364.327145,-888.247130,459.657299
4134.270990,-9400.615463,0.000000,459.657299
4134.271320,-9400.615463,0.000000,-383.047749
4134.271650,-9622.677246,222.061783,-76.609550
4134.271979,-10510.924376,296.082377,153.219100
4134.272309,-10510.924376,-74.020594,536.266849
4134.272639,-10732.986159,518.144159,1685.410096
4134.272968,-9696.697840,-370.102971,1532.190996
4134.273298,-9474.636058,222.061783,919.314598
4134.273628,-9474.636058,-518.144159,0.000000
4134.273958,-9474.636058,518.144159,-1072.533697
4134.274287,-9844.739029,0.000000,-536.266849
4134.274617,-9696.697840,444.123565,229.828649
4134.274947,-9844.739029,0.000000,1455.581446
4134.275277,-10066.800811,-444.123565,919.314598
4134.275606,-9548.656652,148.041188,229.828649
4134.275936,-9844.739029,-74.020594,0.000000
4134.276266,-10658.965565,0.000000,-306.438199
4134.276595,-9474.636058,-518.144159,536.266849
4134.276925,-8882.471304,-370.102971,1532.190996
4134.277255,-9548.656652,-444.123565,1762.019645
4134.277585,-10510.924376,0.000000,1532.190996
4134.277914,-10881.027347,-296.082377,0.000000
4134.278244,-10066.800811,-148.041188,-1149.143247
4134.278574,-9104.533087,-666.185348,-1302.362347
4134.278904,-9104.533087,-296.082377,0.000000
4134.279233,-9474.636058,0.000000,842.705048
4134.279563,-9474.636058,370.102971,306.438199
4134.279893,-9770.718434,592.164754,-995.924147
4134.280222,-9844.739029,0.000000,-1762.019645
4134.280552,-10288.862594,0.000000,-1302.362347
4134.280882,-9770.718434,-444.123565,0.000000
4134.281212,-10140.821405,-444.123565,1455.581446
4134.281541,-9474.636058,-592.164754,1302.362347
4134.281871,-9178.553681,-740.205942,766.095498
4134.282201,-8586.388927,0.000000,-842.705048
4134.282530,-9474.636058,74.020594,-536.266849
4134.282860,-10658.965565,1184.329507,459.657299
4134.283190,-10510.924376,740.205942,995.924147
4134.283520,-10214.842000,888.247130,153.219100
4134.283849,-9696.697840,444.123565,0.000000
4134.284179,-10362.883188,148.041188,-536.266849
4134.284509,-9844.739029,148.041188,-919.314598
4134.284839,-9400.615463,74.020594,-689.485948
4134.285168,-8808.450710,370.102971,0.000000
4134.285498,-9844.739029,370.102971,919.314598
4134.285828,-10510.924376,814.226536,1225.752797
4134.286157,-10436.903782,370.102971,842.705048
4134.286487,-9548.656652,148.041188,612.876398
4134.286817,-9400.615463,0.000000,612.876398
4134.287147,-9696.697840,296.082377,842.705048
4134.287476,-9696.697840,0.000000,995.924147
4134.287806,-9844.739029,74.020594,383.047749
4134.288136,-9622.677246,-370.102971,-229.828649
4134.288465,-9178.553681,0.000000,0.000000
4134.288795,-9252.574275,74.020594,0.000000
4134.289125,-9622.677246,592.164754,536.266849
4134.289455,-9474.636058,-296.082377,766.095498
4134.289784,-9474.636058,592.164754,766.095498
4134.290114,-9770.718434,370.102971,612.876398
4134.290444,-10288.862594,296.082377,-459.657299
4134.290774,-9844.739029,0.000000,-153.219100
4134.291103,-9770.718434,0.000000,0.000000
4134.291433,-8882.471304,148.041188,76.609550
4134.291763,-9770.718434,148.041188,306.438199
4134.292092,-9918.759623,740.205942,689.485948
4134.292422,-9918.759623,370.102971,0.000000
4134.292752,-9918.759623,592.164754,-229.828649
4134.293082,-10066.800811,222.061783,-612.876398
4134.293411,-10140.821405,0.000000,229.828649
4134.293741,-9400.615463,-296.082377,689.485948
4134.294071,-8660.409521,0.000000,153.219100
4134.294400,-9844.739029,0.000000,0.000000
4134.294730,-10436.903782,-222.061783,-306.438199
4134.295060,-10658.965565,0.000000,306.438199
4134.295390,-9770.718434,222.061783,0.000000
4134.295719,-9844.739029,296.082377,153.219100
4134.296049,-9474.636058,0.000000,229.828649
4134.296379,-9918.759623,148.041188,0.000000
4134.296709,-10140.821405,-222.061783,-306.438199
4134.297038,-10140.821405,-518.144159,-536.266849
4134.297368,-9918.759623,-222.061783,-306.438199
4134.297698,-9326.594869,-1036.288319,383.047749
4134.298027,-9474.636058,-444.123565,1378.971896
4134.298357,-9474.636058,148.041188,1378.971896
4134.298687,-10066.800811,74.020594,0.000000
4134.299017,-10288.862594,-74.020594,-766.095498
4134.299346,-9400.615463,-148.041188,-306.438199
4134.299676,-9770.718434,-74.020594,1072.533697
4134.300006,-9696.697840,-296.082377,1838.629195
4134.300335,-9918.759623,148.041188,2068.457845
4134.300665,-9844.739029,74.020594,76.609550
4134.300995,-9400.615463,-74.020594,-1302.362347
4134.301325,-8586.388927,0.000000,-1378.971896
4134.301654,-9770.718434,74.020594,0.000000
4134.301984,-10510.924376,222.061783,612.876398
4134.302314,-10362.883188,0.000000,919.314598
4134.302644,-9326.594869,148.041188,229.828649
4134.302973,-9696.697840,74.020594,-612.876398
4134.303303,-10066.800811,74.020594,-153.219100
4134.303633,-9696.697840,74.020594,0.000000
4134.303962,-9918.759623,148.041188,1532.190996
4134.304292,-9844.739029,296.082377,1225.752797
4134.304622,-10288.862594,74.020594,536.266849
4134.304952,-10214.842000,222.061783,-306.438199
4134.305281,-9844.739029,-296.082377,-995.924147
4134.305611,-10288.862594,74.020594,-306.438199
4134.305941,-9770.718434,-370.102971,766.095498
4134.306270,-9030.512492,740.205942,689.485948
4134.306600,-8808.450710,222.061783,306.438199
4134.306930,-9992.780217,296.082377,-612.876398
4134.307260,-10807.006753,0.000000,-1149.143247
4134.307589,-9918.759623,-296.082377,-1685.410096
4134.307919,-9252.574275,-296.082377,536.266849
4134.308249,-9770.718434,0.000000,1532.190996
4134.308579,-10214.842000,-370.102971,1838.629195
4134.308908,-9992.780217,-518.144159,1072.533697
4134.309238,-9178.553681,-592.164754,153.219100
4134.309568,-9844.739029,-148.041188,76.609550
4134.309897,-9918.759623,-74.020594,842.705048
4134.310227,-9104.533087,-370.102971,1072.533697
4134.310557,-8586.388927,370.102971,229.828649
4134.310887,-10214.842000,74.020594,153.219100
4134.311216,-10955.047942,74.020594,-1225.752797
4134.311546,-10066.800811,-222.061783,-1072.533697
4134.311876,-8734.430116,148.041188,-459.657299
4134.312205,-8216.285956,0.000000,1685.410096
4134.312535,-9844.739029,0.000000,2145.067394
4134.312865,-10362.883188,222.061783,1149.143247
4134.313195,-10362.883188,0.000000,0.000000
4134.313524,-10362.883188,222.061783,-1225.752797
4134.313854,-10436.903782,0.000000,-459.657299
4134.314184,-10362.883188,518.144159,1072.533697
4134.314514,-9474.636058,74.020594,1302.362347
4134.314843,-9548.656652,888.247130,-229.828649
4134.315173,-9918.759623,814.226536,-1685.410096
4134.315503,-10066.800811,222.061783,-2298.286494
4134.315832,-9770.718434,296.082377,-1455.581446
4134.316162,-9252.574275,666.185348,766.095498
4134.316492,-9992.780217,518.144159,1991.848295
4134.316822,-10510.924376,222.061783,1378.971896
4134.317151,-10214.842000,0.000000,-229.828649
4134.317481,-9400.615463,-296.082377,-1149.143247
4134.317811,-9326.594869,222.061783,-1608.800546
4134.318140,-9844.739029,518.144159,229.828649
4134.318470,-10066.800811,518.144159,1072.533697
4134.318800,-9400.615463,444.123565,919.314598
4134.319130,-8956.491898,814.226536,76.609550
4134.319459,-9696.697840,740.205942,-1149.143247
4134.319789,-10807.006753,74.020594,-1302.362347
4134.320119,-9622.677246,148.041188,-459.657299
4134.320449,-9400.615463,592.164754,1225.752797
4134.320778,-9844.739029,148.041188,1532.190996
4134.321108,-9400.615463,0.000000,612.876398
4134.321438,-9474.636058,296.082377,-229.828649
4134.321767,-9326.594869,666.185348,-842.705048
4134.322097,-9770.718434,222.061783,-383.047749
4134.322427,-10214.842000,296.082377,766.095498
4134.322757,-9474.636058,148.041188,1378.971896
4134.323086,-10214.842000,296.082377,1302.362347
4134.323416,-10362.883188,0.000000,0.000000
4134.323746,-10510.924376,0.000000,-842.705048
4134.324075,-9548.656652,0.000000,-995.924147
4134.324405,-9104.533087,0.000000,-536.266849
4134.324735,-8808.450710,666.185348,919.314598
4134.325065,-9844.739029,296.082377,1149.143247
4134.325394,-9992.780217,814.226536,383.047749
4134.325724,-9918.759623,444.123565,0.000000
4134.326054,-10658.965565,444.123565,-153.219100
4134.326384,-10214.842000,-296.082377,-229.828649
4134.326713,-10140.821405,0.000000,919.314598
4134.327043,-8956.491898,0.000000,1685.410096
4134.327373,-8512.368333,0.000000,919.314598
4134.327702,-9770.718434,518.144159,0.000000
4134.328032,-9918.759623,0.000000,-689.485948
4134.328362,-10066.800811,296.082377,-383.047749
4134.328692,-10066.800811,222.061783,842.705048
4134.329021,-10362.883188,74.020594,1072.533697
4134.329351,-9548.656652,-296.082377,612.876398
4134.329681,-9104.533087,0.000000,0.000000
4134.330010,-8956.491898,-518.144159,-459.657299
4134.330340,-9696.697840,-592.164754,0.000000
4134.330670,-10066.800811,0.000000,1149.143247
4134.331000,-10140.821405,0.000000,2068.457845
4134.331329,-9918.759623,0.000000,1762.019645
4134.331659,-9918.759623,0.000000,1072.533697
4134.331989,-10510.924376,0.000000,76.609550
4134.332319,-9992.780217,0.000000,-153.219100
4134.332648,-9844.739029,-296.082377,-919.314598
4134.332978,-9844.739029,0.000000,153.219100
4134.333308,-9992.780217,-444.123565,383.047749
4134.333637,-9030.512492,74.020594,153.219100
4134.333967,-9252.574275,0.000000,-153.219100
4134.334297,-9844.739029,74.020594,76.609550
4134.334627,-9918.759623,-296.082377,229.828649
4134.334956,-10140.821405,74.020594,306.438199
4134.335286,-10362.883188,-518.144159,995.924147
4134.335616,-9918.759623,-222.061783,383.047749
4134.335945,-9474.636058,0.000000,459.657299
4134.336275,-9474.636058,-296.082377,-153.219100
4134.336605,-9400.615463,-296.082377,-459.657299
4134.336935,-9474.636058,0.000000,459.657299
4134.337264,-10436.903782,0.000000,995.924147
4134.337594,-10362.883188,296.082377,383.047749
4134.337924,-9326.594869,0.000000,-612.876398
4134.338254,-9400.615463,0.000000,-536.266849
4134.338583,-9770.718434,518.144159,-229.828649
4134.338913,-9548.656652,0.000000,-383.047749
4134.339243,-10436.903782,444.123565,76.609550
4134.339572,-10436.903782,0.000000,0.000000
4134.339902,-9844.739029,0.000000,459.657299
4134.340232,-10362.883188,-370.102971,1072.533697
4134.340562,-10066.800811,0.000000,1225.752797
4134.340891,-9400.615463,-962.267725,306.438199
4134.341221,-8660.409521,74.020594,76.609550
4134.341551,-8734.430116,-74.020594,153.219100
4134.341880,-10584.944971,740.205942,766.095498
4134.342210,-10955.047942,148.041188,766.095498
4134.342540,-10214.842000,296.082377,-536.266849
4134.342870,-8956.491898,0.000000,-919.314598
4134.343199,-8956.491898,148.041188,-1532.190996
4134.343529,-9622.677246,0.000000,-459.657299
4134.343859,-9622.677246,370.102971,153.219100
4134.344189,-9326.594869,370.102971,0.000000
4134.344518,-9918.759623,148.041188,229.828649
4134.344848,-9918.759623,74.020594,0.000000
4134.345178,-9548.656652,0.000000,536.266849
4134.345507,-9474.636058,-74.020594,459.657299
4134.345837,-9474.636058,-74.020594,919.314598
4134.346167,-9696.697840,0.000000,1072.533697
4134.346497,-9992.780217,0.000000,536.266849
4134.346826,-9696.697840,296.082377,-842.705048
4134.347156,-9104.533087,148.041188,-1072.533697
4134.347486,-9474.636058,666.185348,-689.485948
4134.347816,-9918.759623,74.020594,459.657299
4134.348145,-9770.718434,148.041188,1072.533697
4134.348475,-10362.883188,0.000000,766.095498
4134.348805,-10510.924376,-296.082377,306.438199
4134.349134,-10140.821405,-370.102971,76.609550
4134.349464,-10807.006753,74.020594,689.485948
4134.349794,-10584.944971,-296.082377,1455.581446
4134.350124,-9992.780217,0.000000,1378.971896
4134.350453,-10140.821405,-222.061783,766.095498
4134.350783,-10066.800811,222.061783,76.609550
4134.351113,-10066.800811,74.020594,76.609550
4134.351442,-10140.821405,518.144159,-306.438199
4134.351772,-9992.780217,0.000000,306.438199
4134.352102,-9622.677246,0.000000,229.828649
4134.352432,-9104.533087,0.000000,536.266849
4134.352761,-10140.821405,0.000000,0.000000
4134.353091,-10807.006753,-444.123565,-536.266849
4134.353421,-9992.780217,-444.123565,153.219100
4134.353751,-9252.574275,-888.247130,383.047749
4134.354080,-8734.430116,-444.123565,1302.362347
4134.354410,-9474.636058,0.000000,1608.800546
4134.354740,-9918.759623,-222.061783,229.828649
4134.355069,-9030.512492,0.000000,-229.828649
4134.355399,-9622.677246,-148.041188,-612.876398
4134.355729,-10732.986159,148.041188,0.000000
4134.356059,-10436.903782,-222.061783,229.828649
4134.356388,-8956.491898,0.000000,383.047749
4134.356718,-8586.388927,-296.082377,0.000000
4134.357048,-9178.553681,74.020594,-612.876398
4134.357377,-10807.006753,222.061783,-536.266849
4134.357707,-10214.842000,74.020594,-306.438199
4134.358037,-9844.739029,222.061783,76.609550
4134.358367,-9918.759623,444.123565,76.609550
4134.358696,-9770.718434,444.123565,306.438199
4134.359026,-10140.821405,370.102971,76.609550
4134.359356,-9918.759623,444.123565,-229.828649
4134.359686,-9696.697840,592.164754,-612.876398
4134.360015,-10362.883188,740.205942,-383.047749
4134.360345,-9474.636058,222.061783,-229.828649
4134.360675,-9252.574275,444.123565,459.657299
4134.361004,-10584.944971,222.061783,689.485948
4134.361334,-10881.027347,222.061783,0.000000
4134.361664,-9474.636058,-444.123565,0.000000
4134.361994,-9474.636058,222.061783,919.314598
4134.362323,-10214.842000,0.000000,1762.019645
4134.362653,-10807.006753,518.144159,1685.410096
4134.362983,-9548.656652,740.205942,229.828649
4134.363312,-9178.553681,74.020594,-229.828649
4134.363642,-9844.739029,814.226536,0.000000
4134.363972,-11029.068536,370.102971,76.609550
4134.364301,-9474.636058,0.000000,76.609550
4134.364631,-8660.409521,-370.102971,76.609550
4134.364961,-9252.574275,0.000000,-76.609550
4134.365290,-9918.759623,-444.123565,306.438199
4134.365620,-9548.656652,-592.164754,-306.438199
4134.365950,-8142.265362,0.000000,0.000000
4134.366279,-8956.491898,0.000000,766.095498
4134.366609,-11547.212695,296.082377,1149.143247
4134.366939,-10214.842000,-370.102971,995.924147
4134.367268,-9548.656652,-888.247130,536.266849
4134.367598,-9548.656652,-370.102971,-306.438199
4134.367928,-9844.739029,-666.185348,0.000000
4134.368257,-9992.780217,-592.164754,383.047749
4134.368587,-8882.471304,-370.102971,0.000000
4134.368917,-9178.553681,0.000000,0.000000
4134.369247,-10066.800811,370.102971,-229.828649
4134.369576,-9992.780217,0.000000,-153.219100
4134.369906,-9696.697840,-222.061783,-612.876398
4134.370236,-9770.718434,0.000000,153.219100
4134.370565,-10658.965565,-666.185348,153.219100
4134.370895,-10288.862594,-222.061783,536.266849
4134.371225,-9696.697840,0.000000,689.485948
4134.371554,-10288.862594,370.102971,0.000000
4134.371884,-11103.089130,0.000000,153.219100
4134.372214,-10362.883188,148.041188,-459.657299
4134.372543,-9548.656652,0.000000,-306.438199
4134.372873,-9918.759623,222.061783,383.047749
4134.373203,-10066.800811,0.000000,1455.581446
4134.373532,-10288.862594,74.020594,1225.752797
4134.373862,-9474.636058,0.000000,612.876398
4134.374192,-9252.574275,444.123565,-1149.143247
4134.374521,-9696.697840,666.185348,-766.095498
4134.374851,-9770.718434,0.000000,-306.438199
4134.375181,-9252.574275,222.061783,842.705048
4134.375510,-9770.718434,296.082377,1685.410096
4134.375840,-10436.903782,296.082377,1685.410096
4134.376170,-10140.821405,-222.061783,842.705048
4134.376499,-9622.677246,296.082377,-306.438199
4134.376829,-9326.594869,0.000000,229.828649
4134.377159,-8808.450710,518.144159,0.000000
4134.377488,-9474.636058,518.144159,766.095498
4134.377818,-9770.718434,296.082377,229.828649
4134.378148,-9622.677246,148.041188,-689.485948
4134.378477,-9696.697840,962.267725,-1838.629195
4134.378807,-9844.739029,444.123565,229.828649
4134.379137,-9844.739029,0.000000,383.047749
4134.379467,-8956.491898,370.102971,459.657299
4134.379796,-9104.533087,0.000000,766.095498
4134.380126,-10066.800811,518.144159,306.438199
4134.380456,-9622.677246,370.102971,-536.266849
4134.380785,-9844.739029,444.123565,0.000000
4134.381115,-9918.759623,0.000000,76.609550
4134.381445,-9400.615463,370.102971,76.609550
4134.381774,-9770.718434,296.082377,842.705048
4134.382104,-9400.615463,0.000000,229.828649
4134.382434,-9178.553681,0.000000,-76.609550
4134.382763,-10066.800811,962.267725,-383.047749
4134.383093,-10584.944971,296.082377,0.000000
4134.383423,-10436.903782,0.000000,229.828649
4134.383752,-9474.636058,-444.123565,383.047749
4134.384082,-9770.718434,0.000000,383.047749
4134.384412,-9770.718434,0.000000,76.609550
4134.384741,-10214.842000,74.020594,536.266849
4134.385071,-10288.862594,74.020594,229.828649
4134.385401,-9844.739029,296.082377,153.219100
4134.385730,-9918.759623,592.164754,0.000000
4134.386060,-9992.780217,0.000000,-383.047749
4134.386390,-9696.697840,0.000000,-919.314598
4134.386719,-9548.656652,-592.164754,-459.657299
4134.387049,-10288.862594,0.000000,459.657299
4134.387379,-10214.842000,-814.226536,306.438199
4134.387708,-9326.594869,-148.041188,153.219100
4134.388038,-9474.636058,148.041188,995.924147
4134.388368,-10362.883188,74.020594,766.095498
4134.388698,-10436.903782,-518.144159,612.876398
4134.389027,-10288.862594,-148.041188,153.219100
4134.389357,-10436.903782,-74.020594,153.219100
4134.389687,-9992.780217,-296.082377,229.828649
4134.390016,-9474.636058,-666.185348,0.000000
4134.390346,-8586.388927,-1036.288319,-153.219100
4134.390676,-8956.491898,-888.247130,-306.438199
4134.391005,-9326.594869,-296.082377,0.000000
4134.391335,-9178.553681,-814.226536,459.657299
4134.391665,-9696.697840,0.000000,153.219100
4134.391994,-9548.656652,0.000000,689.485948
4134.392324,-10140.821405,0.000000,842.705048
4134.392654,-9770.718434,0.000000,919.314598
4134.392983,-9400.615463,-666.185348,612.876398
4134.393313,-9400.615463,-296.082377,995.924147
4134.393643,-9104.533087,-296.082377,306.438199
4134.393972,-9252.574275,74.020594,76.609550
4134.394302,-9548.656652,296.082377,-76.609550
4134.394632,-9918.759623,518.144159,-612.876398
4134.394961,-9696.697840,222.061783,-229.828649
4134.395291,-10140.821405,814.226536,229.828649
4134.395621,-9696.697840,444.123565,229.828649
4134.395950,-9474.636058,148.041188,0.000000
4134.396280,-10066.800811,518.144159,459.657299
4134.396610,-9696.697840,444.123565,76.609550
4134.396939,-9770.718434,888.247130,-536.266849
4134.397269,-9622.677246,592.164754,383.047749
4134.397599,-9696.697840,370.102971,1225.752797
4134.397928,-9770.718434,592.164754,995.924147
4134.398258,-9696.697840,0.000000,536.266849
4134.398588,-9844.739029,444.123565,383.047749
4134.398918,-10362.883188,148.041188,76.609550
4134.399247,-9548.656652,0.000000,306.438199
4134.399577,-9622.677246,444.123565,536.266849
4134.399907,-9252.574275,814.226536,76.609550
4134.400236,-8882.471304,74.020594,-383.047749
4134.400566,-10066.800811,814.226536,-153.219100
4134.400896,-10140.821405,0.000000,0.000000
4134.401225,-10658.965565,370.102971,612.876398
4134.401555,-10658.965565,222.061783,1225.752797
4134.401885,-10214.842000,-444.123565,1302.362347
4134.402214,-9400.615463,-296.082377,306.438199
4134.402544,-9030.512492,-666.185348,0.000000
4134.402874,-9474.636058,-888.247130,76.609550
4134.403203,-9252.574275,-370.102971,1072.533697
4134.403533,-9622.677246,222.061783,1838.629195
4134.403863,-10510.924376,0.000000,1225.752797
4134.404192,-10140.821405,0.000000,0.000000
4134.404522,-9844.739029,-666.185348,-536.266849
4134.404852,-9178.553681,-518.144159,-1072.533697
4134.405181,-9400.615463,-296.082377,-689.485948
4134.405511,-9770.718434,-74.020594,0.000000
4134.405841,-8956.491898,-370.102971,0.000000
4134.406170,-8808.450710,-296.082377,-612.876398
4134.406500,-9696.697840,222.061783,76.609550
4134.406830,-9696.697840,0.000000,153.219100
4134.407159,-10584.944971,74.020594,0.000000
4134.407489,-9696.697840,148.041188,0.000000
4134.407819,-10288.862594,148.041188,153.219100
4134.408148,-10955.047942,74.020594,76.609550
4134.408478,-9918.759623,-148.041188,-766.095498
4134.408808,-9548.656652,-296.082377,-536.266849
4134.409138,-8808.450710,74.020594,-306.438199
4134.409467,-9548.656652,74.020594,76.609550
4134.409797,-10732.986159,740.205942,995.924147
4134.410127,-10881.027347,370.102971,1149.143247
4134.410456,-10510.924376,0.000000,459.657299
4134.410786,-10510.924376,0.000000,229.828649
4134.411116,-10584.944971,148.041188,612.876398
4134.411445,-10510.924376,-814.226536,153.219100
4134.411775,-8956.491898,0.000000,766.095498
4134.412105,-9178.553681,-296.082377,1378.971896
4134.412434,-9178.553681,222.061783,1915.238745
4134.412764,-9770.718434,0.000000,1149.143247
4134.413094,-10658.965565,444.123565,842.705048
4134.413423,-10288.862594,370.102971,0.000000
4134.413753,-10214.842000,74.020594,0.000000
4134.414083,-9696.697840,-518.144159,0.000000
4134.414412,-8882.471304,-444.123565,76.609550
4134.414742,-8216.285956,0.000000,0.000000
4134.415072,-8660.409521,0.000000,-153.219100
4134.415401,-9474.636058,444.123565,0.000000
4134.415731,-10214.842000,0.000000,995.924147
4134.416061,-10436.903782,296.082377,1608.800546
4134.416390,-9918.759623,0.000000,919.314598
4134.416720,-8586.388927,74.020594,76.609550
4134.417050,-9178.553681,-222.061783,-76.609550
4134.417379,-9844.739029,-296.082377,229.828649
4134.417709,-9844.739029,-444.123565,153.219100
4134.418039,-9696.697840,222.061783,459.657299
4134.418368,-9474.636058,370.102971,306.438199
4134.418698,-9474.636058,592.164754,76.609550
4134.419028,-10214.842000,444.123565,-229.828649
4134.419358,-10584.944971,222.061783,-689.485948
4134.419687,-9918.759623,148.041188,-995.924147
4134.420017,-9400.615463,518.144159,0.000000
4134.420347,-9548.656652,370.102971,842.705048
4134.420676,-9992.780217,518.144159,1072.533697
4134.421006,-10658.965565,888.247130,842.705048
4134.421336,-11177.109724,518.144159,-383.047749
4134.421665,-11251.130318,148.041188,-459.657299
4134.421995,-10066.800811,148.041188,0.000000
4134.422325,-9252.574275,222.061783,459.657299
4134.422654,-9326.594869,370.102971,229.828649
4134.422984,-9400.615463,296.082377,-306.438199
4134.423314,-10510.924376,222.061783,-995.924147
4134.423643,-10214.842000,222.061783,-383.047749
4134.423973,-10436.903782,-370.102971,459.657299
4134.424303,-9918.759623,0.000000,1302.362347
4134.424632,-9400.615463,-740.205942,1608.800546
4134.424962,-9844.739029,-444.123565,766.095498
4134.425292,-9474.636058,-888.247130,-306.438199
4134.425621,-9252.574275,-814.226536,-153.219100
4134.425951,-8364.327145,-666.185348,383.047749
4134.426281,-8956.491898,0.000000,1378.971896
4134.426610,-9992.780217,74.020594,1608.800546
4134.426940,-10066.800811,-370.102971,536.266849
4134.427270,-9400.615463,-370.102971,-1149.143247
4134.427599,-9104.533087,-444.123565,-1072.533697
4134.427929,-10140.821405,-296.082377,-689.485948
4134.428259,-9030.512492,-444.123565,689.485948
4134.428589,-8956.491898,0.000000,1608.800546
4134.428918,-9474.636058,0.000000,1225.752797
4134.429248,-10214.842000,74.020594,0.000000
4134.429578,-10510.924376,518.144159,-612.876398
4134.429907,-9622.677246,222.061783,0.000000
4134.430237,-9770.718434,518.144159,383.047749
4134.430567,-10214.842000,592.164754,1225.752797
4134.430896,-10732.986159,740.205942,995.924147
4134.431226,-9326.594869,222.061783,-612.876398
4134.431556,-9918.759623,740.205942,-919.314598
4134.431885,-10584.944971,740.205942,-153.219100
4134.432215,-10732.986159,444.123565,0.000000
4134.432545,-9696.697840,370.102971,0.000000
4134.432874,-9030.512492,0.000000,536.266849
4134.433204,-10214.842000,518.144159,76.609550
4134.433534,-9622.677246,148.041188,0.000000
4134.433863,-9992.780217,370.102971,76.609550
4134.434193,-10362.883188,740.205942,0.000000
4134.434523,-9770.718434,444.123565,-306.438199
4134.434852,-10658.965565,296.082377,536.266849
4134.435182,-9992.780217,0.000000,1378.971896
4134.435512,-9770.718434,0.000000,842.705048
4134.435841,-9400.615463,-74.020594,-229.828649
4134.436171,-8882.471304,-888.247130,-306.438199
4134.436501,-8364.327145,-518.144159,-766.095498
4134.436830,-8660.409521,0.000000,153.219100
4134.437160,-10658.965565,74.020594,919.314598
4134.437490,-10436.903782,0.000000,1225.752797
4134.437819,-10066.800811,0.000000,1072.533697
4134.438149,-9178.553681,74.020594,229.828649
4134.438479,-9844.739029,-148.041188,153.219100
4134.438809,-10066.800811,74.020594,536.266849
4134.439138,-9696.697840,-222.061783,919.314598
4134.439468,-10066.800811,148.041188,995.924147
4134.439798,-10362.883188,148.041188,76.609550
4134.440127,-10288.862594,0.000000,0.000000
4134.440457,-9326.594869,-222.061783,-459.657299
4134.440787,-8586.388927,-74.020594,0.000000
4134.441116,-10214.842000,296.082377,689.485948
4134.441446,-10807.006753,222.061783,1225.752797
4134.441776,-10140.821405,296.082377,229.828649
4134.442105,-9696.697840,444.123565,-842.705048
4134.442435,-9548.656652,222.061783,-1225.752797
4134.442765,-9844.739029,0.000000,-842.705048
4134.443094,-9844.739029,518.144159,383.047749
4134.443424,-9548.656652,148.041188,536.266849
4134.443754,-9104.533087,0.000000,0.000000
4134.444083,-9548.656652,74.020594,-766.095498
4134.444413,-9548.656652,148.041188,-842.705048
4134.444743,-9918.759623,0.000000,-612.876398
4134.445072,-9770.718434,518.144159,689.485948
4134.445402,-10288.862594,444.123565,842.705048
4134.445732,-9844.739029,740.205942,0.000000
4134.446061,-9918.759623,370.102971,-612.876398
4134.446391,-9474.636058,444.123565,-153.219100
4134.446721,-9770.718434,148.041188,153.219100
4134.447050,-10436.903782,148.041188,919.314598
4134.447380,-10510.924376,74.020594,1378.971896
4134.447710,-9770.718434,0.000000,612.876398
4134.448039,-8438.347739,0.000000,153.219100
4134.448369,-9474.636058,444.123565,0.000000
4134.448699,-10584.944971,0.000000,689.485948
4134.449029,-10732.986159,0.000000,995.924147
4134.449358,-9770.718434,296.082377,1455.581446
4134.449688,-9696.697840,-74.020594,1302.362347
4134.450018,-9030.512492,222.061783,76.609550
4134.450347,-9992.780217,0.000000,0.000000
4134.450677,-9400.615463,0.000000,229.828649
4134.451007,-9548.656652,0.000000,536.266849
4134.451336,-9992.780217,296.082377,919.314598
4134.451666,-10436.903782,-666.185348,919.314598
4134.451996,-9696.697840,-296.082377,306.438199
4134.452325,-8808.450710,-444.123565,0.000000
4134.452655,-9548.656652,74.020594,-842.705048
4134.452985,-9770.718434,296.082377,-536.266849
4134.453314,-9474.636058,518.144159,306.438199
4134.453644,-9696.697840,222.061783,612.876398
4134.453974,-9992.780217,370.102971,612.876398
4134.454303,-10214.842000,296.082377,-306.438199
4134.454633,-10140.821405,-222.061783,-919.314598
4134.454963,-9622.677246,-592.164754,-612.876398
4134.455292,-9326.594869,-444.123565,689.485948
4134.455622,-9844.739029,0.000000,1302.362347
4134.455952,-10214.842000,-370.102971,1455.581446
4134.456281,-9696.697840,-222.061783,612.876398
4134.456611,-9548.656652,-888.247130,-306.438199
4134.456941,-9474.636058,-518.144159,-459.657299
4134.457270,-9696.697840,-370.102971,536.266849
4134.457600,-10066.800811,0.000000,1225.752797
4134.457930,-9622.677246,-592.164754,1072.533697
4134.458260,-8882.471304,-370.102971,76.609550
4134.458589,-10066.800811,0.000000,-1149.143247
4134.458919,-10066.800811,-222.061783,-1149.143247
4134.459249,-10510.924376,-222.061783,0.000000
4134.459578,-10066.800811,-518.144159,1532.190996
4134.459908,-9474.636058,-370.102971,1225.752797
4134.460238,-9474.636058,0.000000,766.095498
4134.460567,-9400.615463,0.000000,76.609550
4134.460897,-10140.821405,222.061783,153.219100
4134.461227,-10955.047942,0.000000,459.657299
4134.461556,-10436.903782,296.082377,306.438199
4134.461886,-10140.821405,0.000000,1225.752797
4134.462216,-9770.718434,-74.020594,689.485948
4134.462545,-9992.780217,222.061783,689.485948
4134.462875,-10214.842000,148.041188,153.219100
4134.463205,-9178.553681,-148.041188,0.000000
4134.463534,-8734.430116,148.041188,0.000000
4134.463864,-9622.677246,370.102971,766.095498
4134.464194,-10436.903782,0.000000,306.438199
4134.464523,-9696.697840,444.123565,-383.047749
4134.464853,-9548.656652,0.000000,-383.047749
4134.465183,-9918.759623,370.102971,-229.828649
4134.465513,-9400.615463,0.000000,0.000000
4134.465843,-8660.409521,296.082377,1225.752797
4134.466172,-8956.491898,592.164754,1302.362347
4134.466502,-10362.883188,666.185348,842.705048
4134.466832,-11251.130318,592.164754,306.438199
4134.467162,-10362.883188,888.247130,-229.828649
4134.467492,-10140.821405,592.164754,-1072.533697
4134.467821,-9326.594869,888.247130,-612.876398
4134.468151,-9030.512492,1036.288319,0.000000
4134.468481,-9474.636058,814.226536,536.266849
4134.468811,-9474.636058,1036.288319,0.000000
4134.469140,-9992.780217,1036.288319,-306.438199
4134.469470,-10362.883188,518.144159,-919.314598
4134.469800,-9992.780217,0.000000,0.000000
4134.470130,-9844.739029,296.082377,1149.143247
4134.470460,-9474.636058,0.000000,1149.143247
4134.470789,-9104.533087,370.102971,689.485948
4134.471119,-9326.594869,444.123565,0.000000
4134.471449,-9918.759623,370.102971,-306.438199
4134.471779,-10807.006753,740.205942,536.266849
4134.472109,-10732.986159,444.123565,612.876398
4134.472438,-10214.842000,296.082377,612.876398
4134.472768,-9844.739029,-518.144159,766.095498
4134.473098,-9844.739029,-666.185348,536.266849
4134.473428,-9252.574275,-444.123565,-383.047749
4134.473758,-8142.265362,-370.102971,-459.657299
4134.474087,-8734.430116,-148.041188,153.219100
4134.474417,-10288.862594,-148.041188,1762.019645
4134.474747,-10955.047942,0.000000,1915.238745
4134.475077,-9918.759623,-148.041188,536.266849
4134.475407,-9918.759623,-592.164754,-612.876398
4134.475736,-9178.553681,-888.247130,-1225.752797
4134.476066,-8956.491898,-1110.308913,0.000000
4134.476396,-9696.697840,-148.041188,842.705048
4134.476726,-9992.780217,-370.102971,536.266849
4134.477056,-10066.800811,-222.061783,153.219100
4134.477385,-9770.718434,-814.226536,-153.219100
4134.477715,-10066.800811,-592.164754,-1149.143247
4134.478045,-9474.636058,-666.185348,-995.924147
4134.478375,-9400.615463,74.020594,306.438199
4134.478704,-9252.574275,-370.102971,919.314598
4134.479034,-9326.594869,-74.020594,0.000000
4134.479364,-10584.944971,0.000000,-612.876398
4134.479694,-11029.068536,-74.020594,76.609550
4134.480024,-10732.986159,148.041188,0.000000
4134.480353,-9770.718434,0.000000,536.266849
4134.480683,-9992.780217,0.000000,766.095498
4134.481013,-10362.883188,148.041188,0.000000
4134.481343,-9548.656652,148.041188,-689.485948
4134.481673,-9474.636058,74.020594,-1378.971896
4134.482002,-10362.883188,444.123565,-1532.190996
4134.482332,-10288.862594,518.144159,-383.047749
4134.482662,-9992.780217,518.144159,995.924147
4134.482992,-9770.718434,148.041188,459.657299
4134.483322,-9696.697840,222.061783,-689.485948
4134.483651,-10214.842000,444.123565,-995.924147
4134.483981,-9770.718434,222.061783,0.000000
4134.484311,-9104.533087,148.041188,536.266849
4134.484641,-9474.636058,370.102971,766.095498
4134.484971,-10436.903782,148.041188,919.314598
4134.485300,-10288.862594,0.000000,1455.581446
4134.485630,-9474.636058,0.000000,76.609550
4134.485960,-8956.491898,-370.102971,-766.095498
4134.486290,-9030.512492,0.000000,229.828649
4134.486620,-9178.553681,666.185348,1685.410096
4134.486949,-9622.677246,0.000000,1302.362347
4134.487279,-9474.636058,370.102971,383.047749
4134.487609,-9918.759623,518.144159,-383.047749
4134.487939,-10140.821405,74.020594,-842.705048
4134.488268,-9474.636058,-222.061783,-229.828649
4134.488598,-8290.306550,-370.102971,689.485948
4134.488928,-9474.636058,444.123565,1685.410096
4134.489258,-9918.759623,148.041188,689.485948
4134.489588,-8882.471304,518.144159,-689.485948
4134.489917,-9696.697840,740.205942,-383.047749
4134.490247,-10732.986159,370.102971,306.438199
4134.490577,-10807.006753,222.061783,842.705048
4134.490907,-10140.821405,814.226536,919.314598
4134.491237,-8882.471304,-222.061783,153.219100
4134.491566,-9030.512492,-148.041188,-229.828649
4134.491896,-10066.800811,296.082377,-612.876398
4134.492226,-10066.800811,74.020594,76.609550
4134.492556,-9770.718434,444.123565,459.657299
4134.492886,-10066.800811,888.247130,1149.143247
4134.493215,-10732.986159,370.102971,1225.752797
4134.493545,-10584.944971,444.123565,306.438199
4134.493875,-10214.842000,-666.185348,-766.095498
4134.494205,-9992.780217,-666.185348,-459.657299
4134.494535,-10066.800811,-666.185348,536.266849
4134.494864,-8956.491898,-370.102971,919.314598
4134.495194,-9104.533087,0.000000,1378.971896
4134.495524,-10288.862594,444.123565,689.485948
4134.495854,-10510.924376,0.000000,459.657299
4134.496183,-10288.862594,-148.041188,-229.828649
4134.496513,-10288.862594,0.000000,-689.485948
4134.496843,-10436.903782,-1258.350101,-306.438199
4134.497173,-8808.450710,-814.226536,1455.581446
4134.497503,-9622.677246,-1406.391290,2298.286494
4134.497832,-10066.800811,0.000000,842.705048
4134.498162,-9252.574275,-592.164754,-153.219100
4134.498492,-9400.615463,-296.082377,-995.924147
4134.498822,-9030.512492,-296.082377,153.219100
4134.499152,-9844.739029,666.185348,612.876398
4134.499481,-10436.903782,-296.082377,1532.190996
4134.499811,-10807.006753,-222.061783,1149.143247
4134.500141,-9622.677246,-296.082377,0.000000
4134.500471,-8956.491898,-666.185348,-919.314598
4134.500801,-9622.677246,518.144159,-306.438199
4134.501130,-9770.718434,0.000000,766.095498
4134.501460,-9770.718434,518.144159,766.095498
4134.501790,-9696.697840,222.061783,0.000000
4134.502120,-9770.718434,296.082377,-766.095498
4134.502450,-9844.739029,370.102971,-766.095498
4134.502779,-9326.594869,222.061783,-536.266849
4134.503109,-9770.718434,0.000000,0.000000
4134.503439,-10214.842000,222.061783,612.876398
4134.503769,-10288.862594,0.000000,766.095498
4134.504099,-9622.677246,370.102971,0.000000
4134.504428,-9252.574275,74.020594,-995.924147
4134.504758,-9474.636058,148.041188,-919.314598
4134.505088,-9992.780217,518.144159,689.485948
4134.505418,-10214.842000,0.000000,1072.533697
4134.505747,-9104.533087,0.000000,1302.362347
4134.506077,-9030.512492,0.000000,1149.143247
4134.506407,-9844.739029,74.020594,76.609550
4134.506737,-9696.697840,444.123565,76.609550
4134.507067,-10214.842000,518.144159,-459.657299
4134.507396,-9770.718434,296.082377,0.000000
4134.507726,-9844.739029,370.102971,919.314598
4134.508056,-10140.821405,296.082377,536.266849
4134.508386,-10214.842000,296.082377,612.876398
4134.508716,-9992.780217,0.000000,-459.657299
4134.509045,-9548.656652,74.020594,-1072.533697
4134.509375,-9178.553681,74.020594,0.000000
4134.509705,-9770.718434,222.061783,689.485948
4134.510035,-9992.780217,0.000000,1685.410096
4134.510365,-9918.759623,0.000000,1302.362347
4134.510694,-9770.718434,148.041188,153.219100
4134.511024,-9918.759623,0.000000,-612.876398
4134.511354,-10140.821405,296.082377,229.828649
4134.511684,-10288.862594,370.102971,995.924147
4134.512014,-9622.677246,0.000000,1225.752797
4134.512343,-9474.636058,592.164754,536.266849
4134.512673,-9770.718434,222.061783,-383.047749
4134.513003,-9770.718434,296.082377,-1225.752797
4134.513333,-10658.965565,148.041188,-1838.629195
4134.513663,-9326.594869,-222.061783,-766.095498
4134.513992,-9696.697840,74.020594,1072.533697
4134.514322,-10066.800811,0.000000,1072.533697
4134.514652,-9548.656652,0.000000,306.438199
4134.514982,-9178.553681,0.000000,-459.657299
4134.515311,-9548.656652,666.185348,-689.485948
4134.515641,-10362.883188,0.000000,76.609550
4134.515971,-10881.027347,0.000000,995.924147
4134.516301,-10066.800811,-370.102971,1225.752797
4134.516631,-9474.636058,-592.164754,229.828649
4134.516960,-8882.471304,-814.226536,-153.219100
4134.517290,-9104.533087,-740.205942,-612.876398
4134.517620,-8956.491898,-666.185348,0.000000
4134.517950,-9252.574275,222.061783,1225.752797
4134.518280,-10066.800811,74.020594,1455.581446
4134.518609,-10658.965565,370.102971,1455.581446
4134.518939,-11029.068536,0.000000,766.095498
4134.519269,-10140.821405,0.000000,0.000000
4134.519599,-9178.553681,-148.041188,-919.314598
4134.519929,-9252.574275,0.000000,0.000000
4134.520258,-9474.636058,-74.020594,842.705048
4134.520588,-9474.636058,-148.041188,766.095498
4134.520918,-8956.491898,148.041188,153.219100
4134.521248,-9400.615463,296.082377,-306.438199
4134.521578,-10214.842000,0.000000,-842.705048
4134.521907,-9696.697840,-148.041188,0.000000
4134.522237,-10436.903782,0.000000,995.924147
4134.522567,-9696.697840,-370.102971,1072.533697
4134.522897,-9326.594869,74.020594,153.219100
4134.523227,-9696.697840,148.041188,76.609550
4134.523556,-9474.636058,74.020594,-536.266849
4134.523886,-9770.718434,0.000000,-383.047749
4134.524216,-9918.759623,444.123565,383.047749
4134.524546,-9770.718434,-222.061783,919.314598
4134.524875,-9844.739029,148.041188,1378.971896
4134.525205,-10140.821405,0.000000,766.095498
4134.525535,-10436.903782,296.082377,76.609550
4134.525865,-10214.842000,-444.123565,-689.485948
4134.526195,-9548.656652,-296.082377,-536.266849
4134.526524,-9622.677246,-296.082377,842.705048
4134.526854,-9844.739029,222.061783,1608.800546
4134.527184,-9696.697840,296.082377,995.924147
4134.527514,-9918.759623,222.061783,0.000000
4134.527844,-9770.718434,74.020594,-689.485948
4134.528173,-9770.718434,0.000000,0.000000
4134.528503,-10807.006753,148.041188,1532.190996
4134.528833,-10362.883188,0.000000,1915.238745
4134.529163,-9252.574275,222.061783,1072.533697
4134.529493,-10066.800811,518.144159,0.000000
4134.529822,-10436.903782,0.000000,-766.095498
4134.530152,-9992.780217,296.082377,-689.485948
4134.530482,-9548.656652,592.164754,612.876398
4134.530812,-9474.636058,370.102971,919.314598
4134.531142,-9770.718434,296.082377,919.314598
4134.531471,-10140.821405,0.000000,-306.438199
4134.531801,-9770.718434,0.000000,-612.876398
4134.532131,-9400.615463,-296.082377,-459.657299
4134.532461,-9252.574275,-222.061783,229.828649
4134.532791,-9252.574275,0.000000,1532.190996
4134.533120,-9326.594869,370.102971,1608.800546
4134.533450,-10288.862594,296.082377,1149.143247
4134.533780,-9770.718434,370.102971,-1225.752797
4134.534110,-10140.821405,370.102971,-2145.067394
4134.534439,-9622.677246,592.164754,-1072.533697
4134.534769,-10214.842000,74.020594,1149.143247
4134.535099,-10066.800811,0.000000,766.095498
4134.535429,-8882.471304,-222.061783,0.000000
4134.535759,-8512.368333,-74.020594,-612.876398
4134.536088,-9178.553681,296.082377,-919.314598
4134.536418,-9696.697840,518.144159,-689.485948
4134.536748,-10214.842000,370.102971,76.609550
4134.537078,-10288.862594,74.020594,689.485948
4134.537408,-10732.986159,814.226536,1302.362347
4134.537737,-11029.068536,74.020594,459.657299
4134.538067,-10362.883188,518.144159,-459.657299
4134.538397,-9178.553681,-740.205942,-1225.752797
4134.538727,-8956.491898,-444.123565,-76.609550
4134.539057,-9548.656652,-592.164754,1915.238745
4134.539386,-9622.677246,0.000000,2145.067394
4134.539716,-9548.656652,-370.102971,995.924147
4134.540046,-9548.656652,0.000000,153.219100
4134.540376,-9992.780217,0.000000,-612.876398
4134.540706,-9844.739029,74.020594,-612.876398
4134.541035,-10362.883188,0.000000,612.876398
4134.541365,-10584.944971,-222.061783,995.924147
4134.541695,-9770.718434,0.000000,1225.752797
4134.542025,-8956.491898,-148.041188,0.000000
4134.542355,-9178.553681,296.082377,-612.876398
4134.542684,-9844.739029,74.020594,-919.314598
4134.543014,-10732.986159,148.041188,229.828649
4134.543344,-10510.924376,74.020594,995.924147
4134.543674,-9770.718434,74.020594,919.314598
4134.544003,-9474.636058,444.123565,383.047749
4134.544333,-9844.739029,-296.082377,-383.047749
4134.544663,-9474.636058,-74.020594,-842.705048
4134.544993,-8882.471304,0.000000,-536.266849
4134.545323,-9474.636058,666.185348,689.485948
4134.545652,-10658.965565,814.226536,1378.971896
4134.545982,-11177.109724,444.123565,76.609550
4134.546312,-10436.903782,444.123565,-459.657299
4134.546642,-10436.903782,0.000000,-1762.019645
4134.546972,-10436.903782,-148.041188,-1225.752797
4134.547301,-8808.450710,-592.164754,766.095498
4134.547631,-8142.265362,296.082377,1378.971896
4134.547961,-8956.491898,740.205942,842.705048
4134.548291,-10436.903782,1480.411884,-306.438199
4134.548621,-10732.986159,814.226536,-1915.238745
4134.548950,-9548.656652,1110.308913,-1762.019645
4134.549280,-10140.821405,1554.432478,-919.314598
4134.549610,-10436.903782,1332.370696,766.095498
4134.549940,-9770.718434,814.226536,76.609550
4134.550270,-9178.553681,1184.329507,-1608.800546
4134.550599,-9548.656652,1110.308913,-2374.896044
4134.550929,-9918.759623,1110.308913,-2451.505594
4134.551259,-9622.677246,1258.350101,-1072.533697
4134.551589,-9252.574275,1406.391290,1149.143247
4134.551918,-9474.636058,1702.473667,1225.752797
4134.552248,-10214.842000,1702.473667,-689.485948
4134.552578,-10362.883188,1776.494261,-2604.724693
4134.552908,-10140.821405,2220.617826,-3753.867940
4134.553238,-9548.656652,2516.700203,-3294.210641
4134.553567,-9992.780217,2146.597232,-2298.286494
4134.553897,-9104.533087,2368.659014,-1991.848295
4134.554227,-8142.265362,1998.556043,-2604.724693
4134.554557,-8956.491898,2220.617826,-3064.381992
4134.554887,-9844.739029,1850.514855,-2987.772442
4134.555216,-9992.780217,2220.617826,-2145.067394
4134.555546,-9326.594869,2442.679609,-2221.676944
4134.555876,-9622.677246,2442.679609,-2068.457845
4134.556206,-10066.800811,2812.782580,-1455.581446
4134.556536,-9918.759623,2886.803174,-2068.457845
4134.556865,-9474.636058,2886.803174,-2987.772442
4134.557195,-9474.636058,2812.782580,-3217.601092
4134.557525,-9770.718434,3034.844362,-2757.943793
4134.557855,-9844.739029,2664.741391,-1532.190996
4134.558185,-9030.512492,2738.761985,-1838.629195
4134.558514,-9178.553681,2812.782580,-1838.629195
4134.558844,-9030.512492,2812.782580,-2298.286494
4134.559174,-9622.677246,2812.782580,-3217.601092
4134.559504,-9770.718434,2590.720797,-2911.162892
4134.559834,-10288.862594,2812.782580,-1532.190996
4134.560163,-10807.006753,2368.659014,-612.876398
4134.560493,-9918.759623,2368.659014,-1072.533697
4134.560823,-9622.677246,2664.741391,-1532.190996
4134.561153,-9770.718434,2960.823768,-2068.457845
4134.561482,-9474.636058,2590.720797,-2298.286494
4134.561812,-9548.656652,2516.700203,-2068.457845
4134.562142,-10066.800811,2886.803174,-1072.533697
4134.562472,-9622.677246,2516.700203,-1762.019645
4134.562802,-9548.656652,2812.782580,-2834.553343
4134.563131,-9992.780217,2294.638420,-3370.820191
4134.563461,-10510.924376,1850.514855,-2757.943793
4134.563791,-9696.697840,1924.535449,-2834.553343
4134.564121,-8438.347739,1554.432478,-1991.848295
4134.564451,-8068.244768,2072.576638,-1072.533697
4134.564781,-9770.718434,2368.659014,0.000000
4134.565111,-10510.924376,2664.741391,-766.095498
4134.565440,-10807.006753,2738.761985,-1608.800546
4134.565770,-10584.944971,2664.741391,-2451.505594
4134.566100,-10732.986159,2368.659014,-2451.505594
4134.566430,-10362.883188,2516.700203,-2145.067394
4134.566760,-9622.677246,1702.473667,-2068.457845
4134.567090,-9104.533087,1702.473667,-3370.820191
4134.567420,-8808.450710,1776.494261,-3983.696590
4134.567750,-8808.450710,1036.288319,-2757.943793
4134.568079,-9252.574275,1702.473667,-1072.533697
4134.568409,-9548.656652,1702.473667,-612.876398
4134.568739,-9918.759623,2590.720797,-306.438199
4134.569069,-10066.800811,2368.659014,153.219100
4134.569399,-10066.800811,3552.988522,-1072.533697
4134.569729,-9474.636058,1998.556043,-2451.505594
4134.570059,-11695.253884,1702.473667,-1915.238745
4134.570389,-10362.883188,1850.514855,-1302.362347
4134.570718,-9030.512492,1998.556043,-1915.238745
4134.571048,-9696.697840,1036.288319,-2451.505594
4134.571378,-9104.533087,1406.391290,-2374.896044
4134.571708,-9252.574275,1332.370696,-2451.505594
4134.572038,-8882.471304,1110.308913,-1838.629195
4134.572368,-9844.739029,1850.514855,-459.657299
4134.572698,-10288.862594,1702.473667,-1072.533697
4134.573027,-10066.800811,1998.556043,-2145.067394
4134.573357,-9992.780217,1702.473667,-2451.505594
4134.573687,-9918.759623,1258.350101,-2451.505594
4134.574017,-9622.677246,1258.350101,-1532.190996
4134.574347,-9104.533087,1110.308913,-536.266849
4134.574677,-8438.347739,1702.473667,-1455.581446
4134.575007,-9252.574275,1702.473667,-2145.067394
4134.575337,-10140.821405,2072.576638,-2681.334243
4134.575666,-10658.965565,2220.617826,-2528.115143
4134.575996,-9992.780217,2368.659014,-1378.971896
4134.576326,-10362.883188,1998.556043,-1378.971896
4134.576656,-9918.759623,1850.514855,-1991.848295
4134.576986,-9844.739029,1850.514855,-2681.334243
4134.577316,-9474.636058,1332.370696,-3217.601092
4134.577646,-8808.450710,1480.411884,-1762.019645
4134.577976,-9252.574275,1406.391290,-1225.752797
4134.578305,-9548.656652,1480.411884,-536.266849
4134.578635,-9474.636058,1628.453072,-536.266849
4134.578965,-9770.718434,1850.514855,-766.095498
4134.579295,-10214.842000,2146.597232,-1915.238745
4134.579625,-10066.800811,1850.514855,-2298.286494
4134.579955,-10214.842000,2812.782580,-1762.019645
4134.580285,-10066.800811,2590.720797,-1685.410096
4134.580615,-10436.903782,2960.823768,-1302.362347
4134.580944,-10807.006753,2960.823768,-2145.067394
4134.581274,-10584.944971,2738.761985,-3677.258390
4134.581604,-9104.533087,2516.700203,-4290.134789
4134.581934,-9104.533087,2220.617826,-2604.724693
4134.582264,-9474.636058,2294.638420,-612.876398
4134.582594,-10066.800811,2220.617826,153.219100
4134.582924,-9474.636058,2368.659014,-689.485948
4134.583253,-9178.553681,2368.659014,-2911.162892
4134.583583,-9474.636058,2590.720797,-3447.429741
4134.583913,-9696.697840,2516.700203,-2374.896044
4134.584243,-10214.842000,2516.700203,-1455.581446
4134.584573,-10066.800811,2738.761985,-766.095498
4134.584903,-9548.656652,2886.803174,-995.924147
4134.585233,-9474.636058,2886.803174,-2757.943793
4134.585563,-9696.697840,3108.864956,-4290.134789
4134.585892,-9992.780217,3256.906145,-3524.039291
4134.586222,-9844.739029,2960.823768,-2374.896044
4134.586552,-9474.636058,2664.741391,-1991.848295
4134.586882,-9252.574275,2664.741391,-1762.019645
4134.587212,-9400.615463,2368.659014,-1532.190996
4134.587542,-9844.739029,2516.700203,-3217.601092
4134.587872,-10066.800811,2516.700203,-3830.477490
4134.588202,-9622.677246,2590.720797,-2834.553343
4134.588531,-9696.697840,2960.823768,-1455.581446
4134.588861,-9548.656652,2294.638420,-459.657299
4134.589191,-10658.965565,2368.659014,-919.314598
4134.589521,-10288.862594,2368.659014,-1378.971896
4134.589851,-9474.636058,1850.514855,-2604.724693
4134.590181,-10066.800811,1776.494261,-2298.286494
4134.590511,-9104.533087,1628.453072,-1838.629195
4134.590841,-8956.491898,1924.535449,-1991.848295
4134.591170,-8956.491898,1998.556043,-2451.505594
4134.591500,-9844.739029,2368.659014,-2374.896044
4134.591830,-10658.965565,2368.659014,-2068.457845
4134.592160,-10658.965565,2368.659014,-2068.457845
4134.592490,-10658.965565,2294.638420,-1762.019645
4134.592820,-9474.636058,1776.494261,-1302.362347
4134.593150,-9844.739029,1702.473667,-1302.362347
4134.593479,-10140.821405,1110.308913,-1302.362347
4134.593809,-9474.636058,888.247130,-1608.800546
4134.594139,-8956.491898,666.185348,-1838.629195
4134.594469,-8068.244768,814.226536,-1762.019645
4134.594799,-9252.574275,1036.288319,-612.876398
4134.595129,-9844.739029,1332.370696,-536.266849
4134.595459,-10807.006753,1406.391290,-1149.143247
4134.595789,-10584.944971,888.247130,-995.924147
4134.596118,-10288.862594,1036.288319,-766.095498
4134.596448,-10140.821405,814.226536,0.000000
4134.596778,-10140.821405,1036.288319,-153.219100
4134.597108,-9844.739029,518.144159,-459.657299
4134.597438,-9474.636058,592.164754,-1608.800546
4134.597768,-9622.677246,592.164754,-1762.019645
4134.598098,-9918.759623,666.185348,-1225.752797
4134.598428,-9474.636058,666.185348,-1455.581446
4134.598757,-8956.491898,592.164754,-2145.067394
4134.599087,-9178.553681,740.205942,-2374.896044
4134.599417,-9474.636058,592.164754,-1762.019645
4134.599747,-10140.821405,888.247130,-919.314598
4134.600077,-10362.883188,1332.370696,-1302.362347
4134.600407,-9622.677246,1036.288319,-2451.505594
4134.600737,-9252.574275,814.226536,-3370.820191
4134.601067,-9622.677246,962.267725,-2757.943793
4134.601396,-9992.780217,1406.391290,-1455.581446
4134.601726,-9622.677246,1406.391290,-1762.019645
4134.602056,-9178.553681,1258.350101,-2145.067394
4134.602386,-9030.512492,1258.350101,-2298.286494
4134.602716,-9844.739029,1924.535449,-2604.724693
4134.603046,-10658.965565,2368.659014,-2987.772442
4134.603376,-9992.780217,2516.700203,-3140.991542
4134.603705,-9474.636058,2368.659014,-3064.381992
4134.604035,-9918.759623,2294.638420,-2374.896044
4134.604365,-10066.800811,2442.679609,-1838.629195
4134.604695,-10510.924376,2442.679609,-1685.410096
4134.605025,-10214.842000,2294.638420,-2298.286494
4134.605355,-9474.636058,2368.659014,-2451.505594
4134.605685,-9400.615463,2590.720797,-2374.896044
4134.606015,-9400.615463,2590.720797,-2145.067394
4134.606344,-9178.553681,3256.906145,-2451.505594
4134.606674,-9400.615463,3330.926739,-2528.115143
4134.607004,-9918.759623,3478.967927,-2451.505594
4134.607334,-10436.903782,3849.070898,-2068.457845
4134.607664,-10881.027347,4071.132681,-2068.457845
4134.607994,-9622.677246,4219.173869,-2604.724693
4134.608324,-9104.533087,3404.947333,-2911.162892
4134.608654,-9548.656652,3256.906145,-2681.334243
4134.608983,-10362.883188,3552.988522,-1378.971896
4134.609313,-10288.862594,3552.988522,-1072.533697
4134.609643,-9030.512492,3775.050304,-2068.457845
4134.609973,-8956.491898,3552.988522,-3370.820191
4134.610303,-9178.553681,4071.132681,-3524.039291
4134.610633,-9844.739029,3997.112087,-2681.334243
4134.610963,-10362.883188,4293.194464,-1608.800546
4134.611293,-9474.636058,3478.967927,-1072.533697
4134.611622,-8956.491898,3034.844362,-1455.581446
4134.611952,-9844.739029,3256.906145,-919.314598
4134.612282,-10436.903782,3404.947333,-1455.581446
4134.612612,-9844.739029,3034.844362,-2145.067394
4134.612942,-8956.491898,3034.844362,-3140.991542
4134.613272,-8882.471304,3404.947333,-2451.505594
4134.613602,-9178.553681,3256.906145,-1838.629195
4134.613931,-10140.821405,3701.029710,-2068.457845
4134.614261,-9770.718434,3256.906145,-2681.334243
4134.614591,-10066.800811,3034.844362,-3064.381992
4134.614921,-10362.883188,2590.720797,-1838.629195
4134.615251,-10584.944971,2516.700203,-383.047749
4134.615581,-10066.800811,1998.556043,0.000000
4134.615911,-9474.636058,1776.494261,-2068.457845
4134.616241,-8660.409521,1184.329507,-3217.601092
4134.616570,-9400.615463,1332.370696,-2145.067394
4134.616900,-10436.903782,1554.432478,-689.485948
4134.617230,-10214.842000,1924.535449,306.438199
4134.617560,-9622.677246,1406.391290,-842.705048
4134.617890,-10214.842000,1850.514855,-2068.457845
4134.618220,-10807.006753,1776.494261,-2987.772442
4134.618550,-11251.130318,1332.370696,-2451.505594
4134.618880,-10066.800811,962.267725,-1532.190996
4134.619209,-8882.471304,148.041188,-229.828649
4134.619539,-8586.388927,592.164754,-1378.971896
4134.619869,-8956.491898,592.164754,-1378.971896
4134.620199,-9474.636058,0.000000,-2757.943793
4134.620529,-9104.533087,-296.082377,-1991.848295
4134.620859,-9548.656652,0.000000,-1149.143247
4134.621189,-10436.903782,296.082377,383.047749
4134.621518,-10436.903782,962.267725,76.609550
4134.621848,-10436.903782,592.164754,-1072.533697
4134.622178,-9770.718434,666.185348,-3064.381992
4134.622508,-10066.800811,888.247130,-2604.724693
4134.622838,-10066.800811,1258.350101,-1915.238745
4134.623168,-9548.656652,666.185348,-1149.143247
4134.623498,-9400.615463,1110.308913,-2068.457845
4134.623828,-8956.491898,296.082377,-2834.553343
4134.624157,-9178.553681,0.000000,-3983.696590
4134.624487,-10214.842000,518.144159,-2987.772442
4134.624817,-9030.512492,666.185348,-919.314598
4134.625147,-9178.553681,814.226536,153.219100
4134.625477,-9178.553681,1184.329507,0.000000
4134.625807,-10362.883188,1406.391290,76.609550
4134.626137,-12065.356855,2220.617826,-383.047749
4134.626467,-11251.130318,2294.638420,-1915.238745
4134.626796,-10214.842000,1628.453072,-2834.553343
4134.627126,-8882.471304,2072.576638,-2528.115143
4134.627456,-8586.388927,2220.617826,-1532.190996
4134.627786,-9770.718434,1998.556043,-1991.848295
4134.628116,-9178.553681,2442.679609,-3907.087040
4134.628446,-7994.224174,1776.494261,-4903.011187
4134.628776,-8882.471304,1850.514855,-2834.553343
