#time,accel_x,accel_y,accel_z
3687.453411,-11769.274478,-370.102971,-2221.676944
3687.453741,-10658.965565,-814.226536,-1455.581446
3687.454071,-9622.677246,-1184.329507,-1762.019645
3687.454401,-8586.388927,-666.185348,-1378.971896
3687.454731,-8808.450710,-1036.288319,-1915.238745
3687.455061,-9104.533087,0.000000,-2604.724693
3687.455391,-8956.491898,-296.082377,-2911.162892
3687.455721,-9474.636058,666.185348,-1608.800546
3687.456051,-9844.739029,444.123565,-766.095498
3687.456381,-10214.842000,740.205942,-766.095498
3687.456712,-9696.697840,74.020594,-1532.190996
3687.457042,-9548.656652,296.082377,-1378.971896
3687.457372,-9992.780217,222.061783,-995.924147
3687.457702,-9992.780217,0.000000,-612.876398
3687.458032,-9548.656652,-74.020594,-1302.362347
3687.458362,-8956.491898,0.000000,-842.705048
3687.458692,-9474.636058,962.267725,-1072.533697
3687.459022,-10066.800811,962.267725,-1685.410096
3687.459352,-9770.718434,1036.288319,-2298.286494
3687.459682,-9326.594869,888.247130,-2757.943793
3687.460012,-9474.636058,1110.308913,-1608.800546
3687.460342,-10362.883188,666.185348,-459.657299
3687.460672,-10288.862594,296.082377,-612.876398
3687.461002,-9548.656652,-370.102971,-1608.800546
3687.461332,-9474.636058,-148.041188,-1685.410096
3687.461663,-10214.842000,-592.164754,-1225.752797
3687.461993,-10807.006753,-296.082377,-995.924147
3687.462323,-10510.924376,-444.123565,-1532.190996
3687.462653,-9918.759623,-518.144159,-2145.067394
3687.462983,-8808.450710,-962.267725,-2451.505594
3687.463313,-9770.718434,-1998.556043,-995.924147
3687.463643,-11325.150913,-740.205942,-229.828649
3687.463973,-9400.615463,-1258.350101,-383.047749
3687.464303,-9400.615463,-1702.473667,-766.095498
3687.464633,-10214.842000,-1554.432478,-1762.019645
3687.464963,-11547.212695,-1332.370696,-3753.867940
3687.465293,-11621.233289,-2368.659014,-4290.134789
3687.465623,-11547.212695,-2738.761985,-4060.306139
3687.465953,-10436.903782,-3627.009116,-4596.572988
3687.466283,-8290.306550,-4515.256246,-3294.210641
3687.466614,-7772.162391,-4811.338623,-1991.848295
3687.466944,-8808.450710,-4293.194464,-1302.362347
3687.467274,-8808.450710,-3923.091493,-2221.676944
3687.467604,-8734.430116,-3849.070898,-2374.896044
3687.467934,-9326.594869,-3849.070898,-1838.629195
3687.468264,-11103.089130,-3775.050304,-1762.019645
3687.468594,-12287.418637,-3701.029710,-995.924147
3687.468924,-12361.439231,-4145.153275,-2681.334243
3687.469254,-11251.130318,-4737.318029,-5362.668486
3687.469584,-10510.924376,-5107.421000,-7124.688131
3687.469914,-9474.636058,-6069.688724,-6818.249932
3687.470244,-8956.491898,-6069.688724,-4749.792088
3687.470574,-7846.182985,-6661.853478,-2298.286494
3687.470904,-6883.915261,-6513.812290,-766.095498
3687.471234,-6291.750507,-5329.482782,-689.485948
3687.471565,-6957.935855,-4441.235652,-1762.019645
3687.471895,-10955.047942,-3552.988522,-1149.143247
3687.472225,-12657.521608,-3330.926739,-766.095498
3687.472555,-12953.603985,-3849.070898,-2604.724693
3687.472885,-11843.295072,-4959.379811,-2834.553343
3687.473215,-11399.171507,-5403.503377,-2528.115143
3687.473545,-10955.047942,-5699.585753,-3064.381992
3687.473875,-8586.388927,-6661.853478,-3447.429741
3687.474205,-5773.606348,-5847.626942,-3064.381992
3687.474535,-5699.585753,-4293.194464,-2145.067394
3687.474865,-7550.100608,-3182.885551,-1149.143247
3687.475195,-9104.533087,-2220.617826,-689.485948
3687.475525,-9622.677246,-2368.659014,-1685.410096
3687.475855,-10510.924376,-2294.638420,-1608.800546
3687.476185,-11917.315666,-2960.823768,-76.609550
3687.476515,-12657.521608,-3552.988522,1991.848295
3687.476845,-12065.356855,-3182.885551,1225.752797
3687.477174,-10955.047942,-2664.741391,-689.485948
3687.477504,-9844.739029,-2664.741391,-2451.505594
3687.477834,-9326.594869,-2516.700203,-2987.772442
3687.478164,-8512.368333,-2664.741391,-2451.505594
3687.478494,-7179.997637,-1702.473667,153.219100
3687.478824,-7328.038826,-1036.288319,1378.971896
3687.479154,-8290.306550,-592.164754,0.000000
3687.479483,-9104.533087,-518.144159,-3217.601092
3687.479813,-10288.862594,-370.102971,-3524.039291
3687.480143,-11029.068536,-370.102971,-1762.019645
3687.480473,-11769.274478,-666.185348,1762.019645
3687.480803,-11843.295072,-592.164754,4136.915689
3687.481133,-11695.253884,-592.164754,3294.210641
3687.481463,-10658.965565,-444.123565,766.095498
3687.481792,-9918.759623,0.000000,-2298.286494
3687.482122,-9474.636058,444.123565,-3370.820191
3687.482452,-7846.182985,1406.391290,-612.876398
3687.482782,-8512.368333,2220.617826,919.314598
3687.483112,-8808.450710,2368.659014,-1455.581446
3687.483442,-8216.285956,1998.556043,-3753.867940
3687.483772,-10436.903782,1628.453072,-5669.106685
3687.484101,-12139.377449,1036.288319,-3140.991542
3687.484431,-12139.377449,1258.350101,0.000000
3687.484761,-11251.130318,962.267725,1532.190996
3687.485091,-9400.615463,370.102971,383.047749
3687.485421,-8660.409521,74.020594,-536.266849
3687.485751,-8882.471304,0.000000,-1455.581446
3687.486081,-9178.553681,518.144159,0.000000
3687.486410,-10140.821405,1480.411884,2528.115143
3687.486740,-9178.553681,2738.761985,2374.896044
3687.487070,-8586.388927,2886.803174,536.266849
3687.487400,-9770.718434,2664.741391,-2681.334243
3687.487730,-10807.006753,1998.556043,-3830.477490
3687.488060,-12139.377449,1480.411884,-3064.381992
3687.488390,-11325.150913,1332.370696,-1762.019645
3687.488719,-8808.450710,444.123565,-229.828649
3687.489049,-8068.244768,0.000000,1072.533697
3687.489379,-8512.368333,0.000000,1072.533697
3687.489709,-9992.780217,518.144159,766.095498
3687.490039,-10584.944971,1110.308913,0.000000
3687.490369,-9178.553681,1554.432478,-229.828649
3687.490699,-8290.306550,1332.370696,1072.533697
3687.491029,-9178.553681,1406.391290,2145.067394
3687.491358,-10658.965565,1110.308913,2298.286494
3687.491688,-12435.459826,740.205942,536.266849
3687.492018,-10658.965565,814.226536,-995.924147
3687.492348,-9548.656652,-592.164754,-1838.629195
3687.492678,-8808.450710,-962.267725,0.000000
3687.493008,-9400.615463,-814.226536,2068.457845
3687.493338,-9918.759623,-962.267725,2681.334243
3687.493667,-8586.388927,0.000000,1072.533697
3687.493997,-7402.059420,-148.041188,-153.219100
3687.494327,-8956.491898,-222.061783,612.876398
3687.494657,-10955.047942,888.247130,3140.991542
3687.494987,-13175.665768,1110.308913,4749.792088
3687.495317,-11917.315666,296.082377,1762.019645
3687.495647,-9400.615463,-1110.308913,-919.314598
3687.495976,-9474.636058,-2294.638420,-612.876398
3687.496306,-10066.800811,-1258.350101,1225.752797
3687.496636,-11177.109724,-1184.329507,2298.286494
3687.496966,-9622.677246,-1258.350101,-229.828649
3687.497296,-7476.080014,-1184.329507,-2451.505594
3687.497626,-7476.080014,-1776.494261,-1762.019645
3687.497956,-8956.491898,-1406.391290,1072.533697
3687.498285,-11843.295072,-444.123565,2911.162892
3687.498615,-11325.150913,-1258.350101,1915.238745
3687.498945,-8956.491898,-1702.473667,229.828649
3687.499275,-9178.553681,-2072.576638,229.828649
3687.499605,-10214.842000,-1850.514855,1608.800546
3687.499935,-12657.521608,-1332.370696,3370.820191
3687.500265,-12287.418637,-814.226536,1762.019645
3687.500594,-9548.656652,-888.247130,-1378.971896
3687.500924,-8586.388927,-1406.391290,-2451.505594
3687.501254,-8808.450710,-1036.288319,-919.314598
3687.501584,-9474.636058,-740.205942,842.705048
3687.501914,-10214.842000,0.000000,1225.752797
3687.502244,-8734.430116,-370.102971,-1302.362347
3687.502574,-8660.409521,-222.061783,-1608.800546
3687.502903,-9400.615463,-740.205942,-919.314598
3687.503233,-11029.068536,-444.123565,0.000000
3687.503563,-12139.377449,-592.164754,0.000000
3687.503893,-10881.027347,-592.164754,-995.924147
3687.504223,-9400.615463,-1184.329507,-1072.533697
3687.504553,-8216.285956,-1332.370696,-612.876398
3687.504883,-8364.327145,-592.164754,0.000000
3687.505212,-9992.780217,0.000000,-612.876398
3687.505542,-9178.553681,518.144159,-1762.019645
3687.505872,-8882.471304,518.144159,-1378.971896
3687.506202,-8438.347739,370.102971,0.000000
3687.506532,-8512.368333,444.123565,0.000000
3687.506862,-11473.192101,1110.308913,306.438199
3687.507192,-11473.192101,1554.432478,-1608.800546
3687.507522,-10881.027347,666.185348,-2451.505594
3687.507851,-9548.656652,-518.144159,-1685.410096
3687.508181,-8512.368333,0.000000,-153.219100
3687.508511,-10066.800811,296.082377,919.314598
3687.508841,-9770.718434,814.226536,766.095498
3687.509171,-8586.388927,1184.329507,1149.143247
3687.509501,-8438.347739,1184.329507,995.924147
3687.509831,-7550.100608,1332.370696,995.924147
3687.510160,-10214.842000,1924.535449,766.095498
3687.510490,-11843.295072,2738.761985,-383.047749
3687.510820,-11029.068536,1702.473667,-153.219100
3687.511150,-9844.739029,518.144159,229.828649
3687.511480,-8734.430116,222.061783,612.876398
3687.511810,-10362.883188,592.164754,995.924147
3687.512140,-10732.986159,962.267725,536.266849
3687.512469,-8882.471304,814.226536,612.876398
3687.512799,-8068.244768,666.185348,1685.410096
3687.513129,-7994.224174,1036.288319,2757.943793
3687.513459,-10214.842000,2146.597232,3294.210641
3687.513789,-11917.315666,2590.720797,1532.190996
3687.514119,-11177.109724,2220.617826,-612.876398
3687.514449,-10584.944971,1258.350101,-459.657299
3687.514778,-9918.759623,1480.411884,1302.362347
3687.515108,-10881.027347,814.226536,1838.629195
3687.515438,-10658.965565,444.123565,612.876398
3687.515768,-9474.636058,-592.164754,306.438199
3687.516098,-7846.182985,-666.185348,1455.581446
3687.516428,-8290.306550,74.020594,2757.943793
3687.516758,-9844.739029,592.164754,3677.258390
3687.517087,-11029.068536,1184.329507,1608.800546
3687.517417,-10288.862594,1628.453072,-383.047749
3687.517747,-10584.944971,814.226536,0.000000
3687.518077,-11177.109724,370.102971,536.266849
3687.518407,-11251.130318,370.102971,536.266849
3687.518737,-11325.150913,-370.102971,-459.657299
3687.519067,-9400.615463,0.000000,-1608.800546
3687.519396,-9104.533087,-888.247130,-536.266849
3687.519726,-8808.450710,-814.226536,1685.410096
3687.520056,-9104.533087,0.000000,2298.286494
3687.520386,-10362.883188,296.082377,76.609550
3687.520716,-9622.677246,592.164754,-2604.724693
3687.521046,-9992.780217,148.041188,-2221.676944
3687.521376,-10362.883188,-222.061783,-612.876398
3687.521705,-10214.842000,-444.123565,0.000000
3687.522035,-10955.047942,-962.267725,-995.924147
3687.522365,-9770.718434,-1110.308913,-2528.115143
3687.522695,-9178.553681,-1332.370696,-1608.800546
3687.523025,-8586.388927,-1702.473667,536.266849
3687.523355,-8660.409521,-1184.329507,1915.238745
3687.523685,-10881.027347,-222.061783,842.705048
3687.524015,-11029.068536,0.000000,-1149.143247
3687.524344,-10436.903782,-592.164754,-1762.019645
3687.524674,-9326.594869,-1110.308913,-689.485948
3687.525004,-8068.244768,-1554.432478,-306.438199
3687.525334,-9474.636058,-1480.411884,-76.609550
3687.525664,-9474.636058,-1184.329507,-842.705048
3687.525994,-8882.471304,-1184.329507,536.266849
3687.526324,-9400.615463,-1776.494261,1302.362347
3687.526653,-9178.553681,-1332.370696,1762.019645
3687.526983,-10732.986159,-1184.329507,1455.581446
3687.527313,-11029.068536,-666.185348,0.000000
3687.527643,-9548.656652,-814.226536,-229.828649
3687.527973,-9178.553681,-888.247130,229.828649
3687.528303,-8808.450710,-666.185348,0.000000
3687.528633,-10140.821405,-666.185348,-153.219100
3687.528962,-10436.903782,0.000000,-536.266849
3687.529292,-9252.574275,-592.164754,-459.657299
3687.529622,-9030.512492,-1036.288319,689.485948
3687.529952,-8512.368333,-666.185348,1915.238745
3687.530282,-9770.718434,148.041188,2298.286494
3687.530612,-10807.006753,296.082377,766.095498
3687.530942,-10140.821405,444.123565,-459.657299
3687.531271,-10066.800811,-518.144159,0.000000
3687.531601,-9326.594869,-296.082377,459.657299
3687.531931,-10288.862594,-444.123565,1838.629195
3687.532261,-11177.109724,-296.082377,1149.143247
3687.532591,-9252.574275,-666.185348,76.609550
3687.532921,-7994.224174,-296.082377,1378.971896
3687.533251,-7994.224174,592.164754,2451.505594
3687.533580,-9844.739029,1110.308913,2528.115143
3687.533910,-11843.295072,1628.453072,1608.800546
3687.534240,-10881.027347,1702.473667,-306.438199
3687.534570,-10881.027347,1184.329507,-229.828649
3687.534900,-10066.800811,814.226536,0.000000
3687.535230,-9770.718434,888.247130,383.047749
3687.535560,-10732.986159,888.247130,-459.657299
3687.535889,-9252.574275,1110.308913,-689.485948
3687.536219,-9400.615463,296.082377,0.000000
3687.536549,-9030.512492,518.144159,689.485948
3687.536879,-9252.574275,592.164754,1838.629195
3687.537209,-11029.068536,1554.432478,1072.533697
3687.537539,-10658.965565,1406.391290,-383.047749
3687.537869,-9992.780217,740.205942,-1072.533697
3687.538198,-9844.739029,222.061783,-766.095498
3687.538528,-9992.780217,518.144159,-383.047749
3687.538858,-11177.109724,888.247130,-306.438199
3687.539188,-9548.656652,592.164754,-1532.190996
3687.539518,-8586.388927,148.041188,-1149.143247
3687.539848,-7920.203579,-74.020594,383.047749
3687.540178,-7920.203579,518.144159,1532.190996
3687.540507,-10362.883188,740.205942,842.705048
3687.540837,-11177.109724,1628.453072,-842.705048
3687.541167,-10658.965565,1036.288319,-1149.143247
3687.541497,-10140.821405,222.061783,-766.095498
3687.541827,-9326.594869,296.082377,76.609550
3687.542157,-10658.965565,-444.123565,0.000000
3687.542487,-10214.842000,0.000000,-1378.971896
3687.542817,-8586.388927,-296.082377,-1225.752797
3687.543146,-7846.182985,-296.082377,229.828649
3687.543476,-7994.224174,0.000000,1378.971896
3687.543806,-10510.924376,222.061783,1838.629195
3687.544136,-11251.130318,1036.288319,229.828649
3687.544466,-10214.842000,592.164754,-612.876398
3687.544796,-9918.759623,0.000000,-153.219100
3687.545126,-9474.636058,74.020594,536.266849
3687.545455,-10140.821405,0.000000,766.095498
3687.545785,-10732.986159,0.000000,-153.219100
3687.546115,-9696.697840,-518.144159,-383.047749
3687.546445,-9252.574275,-740.205942,842.705048
3687.546775,-8734.430116,-592.164754,2068.457845
3687.547105,-9474.636058,0.000000,2681.334243
3687.547435,-10436.903782,0.000000,1762.019645
3687.547764,-9548.656652,222.061783,153.219100
3687.548094,-10066.800811,-296.082377,383.047749
3687.548424,-9770.718434,-296.082377,995.924147
3687.548754,-10881.027347,-296.082377,1685.410096
3687.549084,-11177.109724,-592.164754,306.438199
3687.549414,-9474.636058,-814.226536,0.000000
3687.549744,-9326.594869,-1258.350101,612.876398
3687.550073,-8364.327145,-1184.329507,1991.848295
3687.550403,-9104.533087,-296.082377,3524.039291
3687.550733,-11029.068536,518.144159,2451.505594
3687.551063,-10658.965565,814.226536,766.095498
3687.551393,-10807.006753,370.102971,76.609550
3687.551723,-10510.924376,148.041188,0.000000
3687.552053,-10510.924376,0.000000,-76.609550
3687.552382,-11029.068536,-592.164754,-536.266849
3687.552712,-9622.677246,-148.041188,-1685.410096
3687.553042,-9030.512492,-518.144159,-229.828649
3687.553372,-8660.409521,-444.123565,383.047749
3687.553702,-8586.388927,-296.082377,919.314598
3687.554032,-10658.965565,370.102971,842.705048
3687.554362,-10732.986159,1036.288319,76.609550
3687.554691,-10288.862594,222.061783,-153.219100
3687.555021,-10066.800811,-222.061783,-153.219100
3687.555351,-9326.594869,-296.082377,0.000000
3687.555681,-10732.986159,0.000000,-1149.143247
3687.556011,-9844.739029,0.000000,-2145.067394
3687.556341,-8882.471304,-666.185348,-1915.238745
3687.556671,-8216.285956,-814.226536,-383.047749
3687.557000,-7624.121203,-370.102971,842.705048
3687.557330,-9696.697840,370.102971,1378.971896
3687.557660,-10436.903782,1332.370696,0.000000
3687.557990,-10510.924376,666.185348,-1072.533697
3687.558320,-10140.821405,148.041188,-995.924147
3687.558650,-9178.553681,74.020594,306.438199
3687.558980,-10140.821405,0.000000,-153.219100
3687.559310,-10288.862594,74.020594,-383.047749
3687.559639,-9030.512492,-296.082377,0.000000
3687.559969,-8734.430116,-518.144159,459.657299
3687.560299,-7698.141797,-222.061783,1072.533697
3687.560629,-9548.656652,370.102971,1685.410096
3687.560959,-11029.068536,1184.329507,995.924147
3687.561289,-10066.800811,962.267725,0.000000
3687.561619,-10288.862594,444.123565,536.266849
3687.561948,-9548.656652,518.144159,76.609550
3687.562278,-10658.965565,962.267725,536.266849
3687.562608,-11399.171507,592.164754,-536.266849
3687.562938,-9770.718434,0.000000,-919.314598
3687.563268,-8290.306550,-370.102971,76.609550
3687.563598,-7550.100608,-296.082377,1608.800546
3687.563928,-8808.450710,296.082377,3217.601092
3687.564257,-10658.965565,814.226536,1838.629195
3687.564587,-10362.883188,962.267725,-153.219100
3687.564917,-10140.821405,518.144159,-612.876398
3687.565247,-9844.739029,0.000000,689.485948
3687.565577,-10807.006753,222.061783,1915.238745
3687.565907,-11399.171507,148.041188,1532.190996
3687.566237,-9548.656652,296.082377,76.609550
3687.566566,-8808.450710,-296.082377,-153.219100
3687.566896,-8364.327145,-518.144159,383.047749
3687.567226,-9178.553681,444.123565,1991.848295
3687.567556,-10807.006753,962.267725,1991.848295
3687.567886,-10584.944971,1110.308913,766.095498
3687.568216,-10584.944971,296.082377,0.000000
3687.568546,-10214.842000,148.041188,229.828649
3687.568875,-10066.800811,148.041188,0.000000
3687.569205,-11251.130318,222.061783,-536.266849
3687.569535,-10214.842000,296.082377,-1225.752797
3687.569865,-8956.491898,0.000000,0.000000
3687.570195,-8956.491898,-592.164754,1225.752797
3687.570525,-9252.574275,74.020594,1225.752797
3687.570855,-10807.006753,74.020594,536.266849
3687.571184,-10510.924376,518.144159,-1532.190996
3687.571514,-9622.677246,74.020594,-1302.362347
3687.571844,-9030.512492,-296.082377,-153.219100
3687.572174,-9178.553681,0.000000,536.266849
3687.572504,-11473.192101,148.041188,0.000000
3687.572834,-10955.047942,148.041188,-1838.629195
3687.573164,-9844.739029,-444.123565,-2451.505594
3687.573493,-9326.594869,-962.267725,-919.314598
3687.573823,-8660.409521,-1184.329507,2068.457845
3687.574153,-9622.677246,-592.164754,2451.505594
3687.574483,-9400.615463,0.000000,612.876398
3687.574813,-8956.491898,0.000000,-383.047749
3687.575143,-9326.594869,-296.082377,-612.876398
3687.575473,-9400.615463,0.000000,229.828649
3687.575803,-10807.006753,0.000000,459.657299
3687.576133,-10807.006753,0.000000,0.000000
3687.576463,-9918.759623,0.000000,-536.266849
3687.576793,-9104.533087,-814.226536,-536.266849
3687.577123,-7920.203579,-740.205942,383.047749
3687.577453,-8808.450710,-444.123565,1072.533697
3687.577783,-9696.697840,222.061783,995.924147
3687.578113,-9400.615463,222.061783,766.095498
3687.578443,-9400.615463,592.164754,1838.629195
3687.578773,-9474.636058,0.000000,1378.971896
3687.579103,-11029.068536,444.123565,842.705048
3687.579433,-12287.418637,740.205942,-766.095498
3687.579763,-10436.903782,148.041188,-1225.752797
3687.580093,-9474.636058,-518.144159,0.000000
3687.580423,-7920.203579,-592.164754,1762.019645
3687.580753,-8882.471304,370.102971,2374.896044
3687.581082,-10362.883188,518.144159,689.485948
3687.581412,-9474.636058,666.185348,-995.924147
3687.581742,-9918.759623,296.082377,-383.047749
3687.582072,-9918.759623,0.000000,383.047749
3687.582402,-10214.842000,296.082377,1685.410096
3687.582732,-10658.965565,222.061783,1302.362347
3687.583062,-9474.636058,74.020594,-76.609550
3687.583392,-8956.491898,-518.144159,-612.876398
3687.583722,-8956.491898,-592.164754,383.047749
3687.584052,-9474.636058,-148.041188,2298.286494
3687.584382,-10955.047942,592.164754,2451.505594
3687.584712,-10362.883188,518.144159,1225.752797
3687.585042,-10140.821405,0.000000,306.438199
3687.585372,-9918.759623,296.082377,0.000000
3687.585702,-9548.656652,0.000000,0.000000
3687.586032,-10881.027347,222.061783,-995.924147
3687.586362,-9474.636058,296.082377,-995.924147
3687.586692,-9326.594869,0.000000,-689.485948
3687.587022,-8956.491898,-592.164754,919.314598
3687.587352,-9252.574275,0.000000,766.095498
3687.587682,-9992.780217,0.000000,-306.438199
3687.588012,-9474.636058,0.000000,-1838.629195
3687.588342,-9474.636058,0.000000,-612.876398
3687.588672,-10066.800811,-296.082377,1072.533697
3687.589002,-9844.739029,0.000000,1149.143247
3687.589332,-10732.986159,0.000000,-76.609550
3687.589662,-10510.924376,0.000000,-2604.724693
3687.589992,-9770.718434,-518.144159,-2145.067394
3687.590322,-9030.512492,-888.247130,459.657299
3687.590652,-8290.306550,-592.164754,1838.629195
3687.590982,-9548.656652,74.020594,1378.971896
3687.591312,-9918.759623,592.164754,-1378.971896
3687.591642,-9918.759623,296.082377,-1991.848295
3687.591972,-9696.697840,-444.123565,-612.876398
3687.592301,-9400.615463,74.020594,383.047749
3687.592631,-10510.924376,518.144159,612.876398
3687.592961,-10436.903782,0.000000,-459.657299
3687.593291,-8956.491898,-370.102971,-1225.752797
3687.593621,-9104.533087,-740.205942,0.000000
3687.593951,-8586.388927,-518.144159,1608.800546
3687.594281,-9622.677246,0.000000,2298.286494
3687.594611,-10362.883188,518.144159,1072.533697
3687.594941,-9844.739029,592.164754,459.657299
3687.595271,-9918.759623,-370.102971,306.438199
3687.595601,-9474.636058,74.020594,689.485948
3687.595931,-9992.780217,0.000000,612.876398
3687.596261,-10584.944971,222.061783,153.219100
3687.596591,-9844.739029,296.082377,-383.047749
3687.596921,-9326.594869,-222.061783,536.266849
3687.597251,-8438.347739,-370.102971,1225.752797
3687.597581,-9104.533087,444.123565,1378.971896
3687.597911,-10436.903782,370.102971,919.314598
3687.598241,-9770.718434,740.205942,76.609550
3687.598571,-9696.697840,0.000000,459.657299
3687.598901,-9474.636058,0.000000,1149.143247
3687.599231,-10362.883188,0.000000,1838.629195
3687.599561,-11103.089130,296.082377,1149.143247
3687.599891,-9548.656652,0.000000,-459.657299
3687.600221,-9326.594869,-148.041188,-153.219100
3687.600551,-9326.594869,-222.061783,919.314598
3687.600881,-9548.656652,74.020594,1838.629195
3687.601211,-10732.986159,666.185348,306.438199
3687.601541,-10140.821405,666.185348,0.000000
3687.601871,-9400.615463,148.041188,-153.219100
3687.602201,-9252.574275,0.000000,459.657299
3687.602531,-9770.718434,592.164754,306.438199
3687.602861,-12065.356855,740.205942,229.828649
3687.603191,-11103.089130,296.082377,-766.095498
3687.603520,-9622.677246,-370.102971,-612.876398
3687.603850,-8956.491898,-592.164754,229.828649
3687.604180,-8734.430116,0.000000,1072.533697
3687.604510,-10214.842000,0.000000,612.876398
3687.604840,-10214.842000,592.164754,-995.924147
3687.605170,-9474.636058,296.082377,-1225.752797
3687.605500,-9696.697840,0.000000,-153.219100
3687.605830,-9474.636058,74.020594,0.000000
3687.606160,-10584.944971,0.000000,-76.609550
3687.606490,-10436.903782,74.020594,-1838.629195
3687.606820,-9844.739029,0.000000,-1991.848295
3687.607150,-9474.636058,-740.205942,-766.095498
3687.607480,-8808.450710,-444.123565,612.876398
3687.607810,-9622.677246,-370.102971,1225.752797
3687.608140,-9770.718434,0.000000,0.000000
3687.608470,-9548.656652,-296.082377,-766.095498
3687.608800,-9844.739029,-148.041188,229.828649
3687.609130,-9474.636058,0.000000,229.828649
3687.609460,-11103.089130,0.000000,612.876398
3687.609790,-10584.944971,148.041188,-1302.362347
3687.610120,-8956.491898,0.000000,-1302.362347
3687.610450,-8586.388927,-666.185348,-919.314598
3687.610780,-8142.265362,-518.144159,229.828649
3687.611110,-9326.594869,0.000000,689.485948
3687.611440,-10732.986159,518.144159,919.314598
3687.611770,-10214.842000,370.102971,306.438199
3687.612100,-9622.677246,0.000000,1149.143247
3687.612430,-9178.553681,0.000000,1685.410096
3687.612760,-9474.636058,74.020594,1149.143247
3687.613090,-10436.903782,444.123565,0.000000
3687.613420,-10066.800811,740.205942,-383.047749
3687.613750,-9696.697840,0.000000,536.266849
3687.614080,-9622.677246,0.000000,1225.752797
3687.614410,-9844.739029,222.061783,1455.581446
3687.614739,-10881.027347,296.082377,689.485948
3687.615069,-9548.656652,0.000000,-536.266849
3687.615399,-8734.430116,-888.247130,-766.095498
3687.615729,-8512.368333,-444.123565,1838.629195
3687.616059,-9400.615463,0.000000,2374.896044
3687.616389,-10732.986159,518.144159,1915.238745
3687.616719,-10510.924376,1184.329507,995.924147
3687.617049,-10288.862594,0.000000,612.876398
3687.617379,-10436.903782,0.000000,612.876398
3687.617709,-9918.759623,-444.123565,1532.190996
3687.618039,-11177.109724,148.041188,1455.581446
3687.618369,-9770.718434,222.061783,536.266849
3687.618699,-8882.471304,0.000000,0.000000
3687.619029,-8586.388927,0.000000,306.438199
3687.619359,-9030.512492,370.102971,0.000000
3687.619689,-10881.027347,1258.350101,-766.095498
3687.620019,-11251.130318,1480.411884,-689.485948
3687.620349,-10807.006753,888.247130,0.000000
3687.620679,-9844.739029,74.020594,76.609550
3687.621009,-9474.636058,222.061783,536.266849
3687.621339,-10362.883188,0.000000,76.609550
3687.621669,-10140.821405,0.000000,-1149.143247
3687.621999,-9252.574275,-222.061783,-766.095498
3687.622329,-8956.491898,148.041188,842.705048
3687.622659,-8956.491898,74.020594,1149.143247
3687.622989,-10362.883188,148.041188,306.438199
3687.623319,-10584.944971,444.123565,-1302.362347
3687.623649,-9918.759623,222.061783,-2451.505594
3687.623979,-9548.656652,-444.123565,-1149.143247
3687.624309,-8586.388927,-444.123565,0.000000
3687.624639,-9770.718434,-222.061783,919.314598
3687.624969,-10214.842000,0.000000,0.000000
3687.625299,-9992.780217,148.041188,-842.705048
3687.625629,-8956.491898,-518.144159,-842.705048
3687.625958,-9178.553681,-370.102971,0.000000
3687.626288,-10362.883188,-296.082377,995.924147
3687.626618,-10658.965565,518.144159,1455.581446
3687.626948,-9474.636058,296.082377,1072.533697
3687.627278,-9326.594869,-222.061783,76.609550
3687.627608,-8660.409521,-518.144159,-229.828649
3687.627938,-9770.718434,0.000000,0.000000
3687.628268,-10881.027347,0.000000,0.000000
3687.628598,-9992.780217,370.102971,76.609550
3687.628928,-9474.636058,0.000000,1072.533697
3687.629258,-8882.471304,-370.102971,919.314598
3687.629588,-9030.512492,0.000000,383.047749
3687.629918,-10510.924376,74.020594,0.000000
3687.630248,-10066.800811,592.164754,0.000000
3687.630578,-9918.759623,0.000000,1072.533697
3687.630908,-9252.574275,296.082377,1685.410096
3687.631238,-9844.739029,370.102971,2298.286494
3687.631568,-11399.171507,666.185348,1149.143247
3687.631898,-10288.862594,296.082377,-919.314598
3687.632228,-9474.636058,0.000000,-1149.143247
3687.632558,-8586.388927,-296.082377,229.828649
3687.632888,-9252.574275,74.020594,2298.286494
3687.633218,-11103.089130,74.020594,1991.848295
3687.633548,-10436.903782,444.123565,689.485948
3687.633878,-9548.656652,74.020594,-306.438199
3687.634208,-9252.574275,0.000000,0.000000
3687.634538,-9474.636058,0.000000,766.095498
3687.634868,-11103.089130,740.205942,1915.238745
3687.635198,-9696.697840,592.164754,1378.971896
3687.635528,-9844.739029,370.102971,0.000000
3687.635858,-9548.656652,0.000000,-383.047749
3687.636188,-9030.512492,0.000000,-536.266849
3687.636518,-10584.944971,444.123565,0.000000
3687.636848,-10066.800811,518.144159,0.000000
3687.637177,-9548.656652,296.082377,536.266849
3687.637507,-9474.636058,444.123565,536.266849
3687.637837,-9474.636058,370.102971,-153.219100
3687.638167,-11177.109724,592.164754,-536.266849
3687.638497,-10881.027347,148.041188,-1302.362347
3687.638827,-9696.697840,74.020594,-1072.533697
3687.639157,-9178.553681,-518.144159,612.876398
3687.639487,-8734.430116,0.000000,689.485948
3687.639817,-10066.800811,0.000000,536.266849
3687.640147,-10362.883188,370.102971,-766.095498
3687.640477,-9918.759623,222.061783,-1608.800546
3687.640807,-9474.636058,-74.020594,-1302.362347
3687.641137,-8364.327145,-74.020594,536.266849
3687.641467,-9770.718434,74.020594,1378.971896
3687.641797,-10658.965565,444.123565,-536.266849
3687.642127,-9992.780217,0.000000,-2298.286494
3687.642457,-9252.574275,-518.144159,-1455.581446
3687.642787,-8512.368333,-222.061783,-536.266849
3687.643117,-9844.739029,-296.082377,1225.752797
3687.643447,-10510.924376,-148.041188,1455.581446
3687.643777,-9622.677246,370.102971,306.438199
3687.644107,-9474.636058,-222.061783,-229.828649
3687.644437,-9326.594869,-296.082377,0.000000
3687.644767,-10214.842000,74.020594,919.314598
3687.645097,-10955.047942,444.123565,306.438199
3687.645427,-9918.759623,296.082377,612.876398
3687.645757,-9696.697840,0.000000,383.047749
3687.646087,-9178.553681,-296.082377,383.047749
3687.646417,-9992.780217,0.000000,689.485948
3687.646747,-10732.986159,296.082377,306.438199
3687.647077,-9474.636058,296.082377,-536.266849
3687.647407,-9030.512492,0.000000,229.828649
3687.647737,-8586.388927,222.061783,1072.533697
3687.648067,-10140.821405,296.082377,1762.019645
3687.648396,-12583.501014,518.144159,842.705048
3687.648726,-10955.047942,0.000000,-459.657299
3687.649056,-9326.594869,-740.205942,-383.047749
3687.649386,-7476.080014,-962.267725,689.485948
3687.649716,-8364.327145,-444.123565,2451.505594
3687.650046,-9918.759623,0.000000,2374.896044
3687.650376,-9770.718434,370.102971,689.485948
3687.650706,-9474.636058,222.061783,-919.314598
3687.651036,-9918.759623,296.082377,0.000000
3687.651366,-10066.800811,518.144159,1378.971896
3687.651696,-11325.150913,222.061783,1762.019645
3687.652026,-10732.986159,296.082377,-306.438199
3687.652356,-9474.636058,148.041188,-1225.752797
3687.652686,-9178.553681,-370.102971,-1149.143247
3687.653016,-9030.512492,0.000000,306.438199
3687.653346,-10436.903782,0.000000,919.314598
3687.653676,-10214.842000,296.082377,689.485948
3687.654006,-9474.636058,74.020594,459.657299
3687.654336,-9696.697840,0.000000,459.657299
3687.654666,-9474.636058,148.041188,0.000000
3687.654996,-10658.965565,592.164754,-459.657299
3687.655326,-10658.965565,592.164754,-1378.971896
3687.655656,-10140.821405,222.061783,-1915.238745
3687.655986,-9770.718434,-296.082377,-1378.971896
3687.656316,-8660.409521,-592.164754,0.000000
3687.656646,-10140.821405,-370.102971,76.609550
3687.656976,-10066.800811,0.000000,-536.266849
3687.657306,-9474.636058,74.020594,-766.095498
3687.657636,-8956.491898,-296.082377,383.047749
3687.657966,-8734.430116,296.082377,1149.143247
3687.658296,-10066.800811,296.082377,1685.410096
3687.658626,-11473.192101,1110.308913,306.438199
3687.658956,-10955.047942,518.144159,-1149.143247
3687.659286,-9696.697840,-74.020594,-1149.143247
3687.659616,-8808.450710,-592.164754,-689.485948
3687.659945,-9474.636058,-888.247130,153.219100
3687.660275,-9696.697840,-296.082377,153.219100
3687.660605,-8438.347739,-296.082377,153.219100
3687.660935,-8216.285956,-444.123565,0.000000
3687.661265,-8068.244768,0.000000,766.095498
3687.661595,-9622.677246,444.123565,1685.410096
3687.661925,-11769.274478,1036.288319,1225.752797
3687.662255,-11103.089130,1110.308913,-459.657299
3687.662585,-10881.027347,296.082377,-229.828649
3687.662915,-9474.636058,-444.123565,153.219100
3687.663245,-9400.615463,-148.041188,689.485948
3687.663575,-9548.656652,-370.102971,1072.533697
3687.663905,-8734.430116,74.020594,0.000000
3687.664235,-8586.388927,0.000000,383.047749
3687.664565,-9178.553681,0.000000,1455.581446
3687.664895,-9548.656652,74.020594,2451.505594
3687.665225,-11399.171507,666.185348,1532.190996
3687.665555,-10732.986159,444.123565,-153.219100
3687.665885,-10362.883188,-222.061783,0.000000
3687.666215,-9326.594869,-740.205942,383.047749
3687.666545,-8808.450710,-518.144159,1991.848295
3687.666875,-10288.862594,-296.082377,1225.752797
3687.667205,-10140.821405,0.000000,0.000000
3687.667535,-9474.636058,-370.102971,306.438199
3687.667865,-8808.450710,0.000000,1762.019645
3687.668195,-9474.636058,296.082377,2298.286494
3687.668525,-11399.171507,888.247130,1838.629195
3687.668855,-11473.192101,1110.308913,-612.876398
3687.669185,-10436.903782,592.164754,-1608.800546
3687.669515,-9770.718434,0.000000,-995.924147
3687.669845,-9622.677246,0.000000,76.609550
3687.670175,-10436.903782,-148.041188,383.047749
3687.670505,-9770.718434,0.000000,-689.485948
3687.670835,-8438.347739,-222.061783,-612.876398
3687.671164,-8956.491898,-148.041188,76.609550
3687.671494,-9030.512492,444.123565,1149.143247
3687.671824,-10732.986159,592.164754,1225.752797
3687.672154,-11103.089130,592.164754,-1072.533697
3687.672484,-9992.780217,370.102971,-2068.457845
3687.672814,-9770.718434,-296.082377,-995.924147
3687.673144,-9252.574275,-296.082377,-76.609550
3687.673474,-10066.800811,-888.247130,76.609550
3687.673804,-10066.800811,-148.041188,-1072.533697
3687.674134,-8364.327145,-370.102971,-1302.362347
3687.674464,-8438.347739,-518.144159,229.828649
3687.674794,-8438.347739,148.041188,612.876398
3687.675124,-9770.718434,666.185348,995.924147
3687.675454,-11843.295072,962.267725,-842.705048
3687.675784,-11251.130318,518.144159,-2451.505594
3687.676114,-10510.924376,-444.123565,-1302.362347
3687.676444,-8956.491898,-888.247130,536.266849
3687.676774,-9474.636058,-444.123565,842.705048
3687.677104,-9548.656652,-370.102971,153.219100
3687.677434,-8512.368333,0.000000,-612.876398
3687.677764,-8734.430116,74.020594,0.000000
3687.678093,-9030.512492,0.000000,2145.067394
3687.678423,-10955.047942,740.205942,2374.896044
3687.678753,-11547.212695,1184.329507,995.924147
3687.679083,-10436.903782,518.144159,-766.095498
3687.679413,-9844.739029,-370.102971,-612.876398
3687.679743,-9474.636058,-296.082377,-306.438199
3687.680073,-9844.739029,-370.102971,766.095498
3687.680402,-9992.780217,-444.123565,306.438199
3687.680732,-8512.368333,-74.020594,306.438199
3687.681062,-8438.347739,-148.041188,1072.533697
3687.681392,-8660.409521,296.082377,2298.286494
3687.681722,-9474.636058,222.061783,2451.505594
3687.682052,-11103.089130,814.226536,995.924147
3687.682382,-10658.965565,444.123565,-536.266849
3687.682711,-10214.842000,370.102971,0.000000
3687.683041,-9770.718434,-148.041188,1149.143247
3687.683371,-9474.636058,-148.041188,1838.629195
3687.683701,-10288.862594,-222.061783,306.438199
3687.684031,-9030.512492,-296.082377,-459.657299
3687.684361,-8586.388927,0.000000,1072.533697
3687.684691,-8660.409521,0.000000,3064.381992
3687.685020,-9252.574275,1110.308913,2911.162892
3687.685350,-10955.047942,1850.514855,1378.971896
3687.685680,-11695.253884,1480.411884,-766.095498
3687.686010,-11695.253884,1036.288319,-995.924147
3687.686340,-11325.150913,74.020594,-229.828649
3687.686670,-10288.862594,0.000000,383.047749
3687.687000,-9474.636058,-148.041188,0.000000
3687.687330,-8660.409521,0.000000,-1149.143247
3687.687659,-8068.244768,296.082377,0.000000
3687.687989,-8956.491898,0.000000,1455.581446
3687.688319,-9400.615463,740.205942,1685.410096
3687.688649,-10881.027347,1110.308913,1149.143247
3687.688979,-11843.295072,1554.432478,-306.438199
3687.689309,-11473.192101,518.144159,-689.485948
3687.689639,-10807.006753,-370.102971,-995.924147
3687.689968,-8882.471304,-666.185348,-1072.533697
3687.690298,-8956.491898,-444.123565,-919.314598
3687.690628,-9548.656652,-370.102971,-995.924147
3687.690958,-8660.409521,-296.082377,-459.657299
3687.691288,-9030.512492,-444.123565,536.266849
3687.691618,-8512.368333,-296.082377,766.095498
3687.691948,-9548.656652,444.123565,-306.438199
3687.692277,-10807.006753,518.144159,-766.095498
3687.692607,-10510.924376,222.061783,-1378.971896
3687.692937,-10140.821405,-370.102971,-842.705048
3687.693267,-9400.615463,-148.041188,-383.047749
3687.693597,-9844.739029,-666.185348,-383.047749
3687.693927,-10658.965565,-592.164754,0.000000
3687.694257,-9400.615463,-444.123565,-229.828649
3687.694586,-8586.388927,-814.226536,0.000000
3687.694916,-7402.059420,-518.144159,306.438199
3687.695246,-8660.409521,370.102971,1532.190996
3687.695576,-11399.171507,888.247130,842.705048
3687.695906,-11251.130318,962.267725,-229.828649
3687.696236,-10214.842000,296.082377,-612.876398
3687.696566,-9474.636058,-444.123565,-995.924147
3687.696895,-10140.821405,-370.102971,0.000000
3687.697225,-11029.068536,-666.185348,612.876398
3687.697555,-9178.553681,-592.164754,459.657299
3687.697885,-7994.224174,-1036.288319,1149.143247
3687.698215,-7846.182985,-518.144159,1991.848295
3687.698545,-9178.553681,74.020594,1915.238745
3687.698875,-11547.212695,740.205942,1072.533697
3687.699205,-11177.109724,1110.308913,-383.047749
3687.699534,-10066.800811,518.144159,-459.657299
3687.699864,-10066.800811,-148.041188,536.266849
3687.700194,-10140.821405,-74.020594,1149.143247
3687.700524,-10807.006753,-148.041188,1149.143247
3687.700854,-9326.594869,-370.102971,-995.924147
3687.701184,-8216.285956,-814.226536,-766.095498
3687.701514,-8512.368333,-518.144159,995.924147
3687.701843,-8290.306550,222.061783,2757.943793
3687.702173,-10362.883188,814.226536,2911.162892
3687.702503,-10584.944971,1332.370696,1149.143247
3687.702833,-11177.109724,1184.329507,0.000000
3687.703163,-10881.027347,148.041188,-383.047749
3687.703493,-10362.883188,0.000000,229.828649
3687.703823,-11399.171507,-370.102971,766.095498
3687.704152,-10214.842000,0.000000,0.000000
3687.704482,-8956.491898,-592.164754,-459.657299
3687.704812,-8290.306550,-592.164754,0.000000
3687.705142,-8290.306550,0.000000,842.705048
3687.705472,-10436.903782,740.205942,612.876398
3687.705802,-11695.253884,1258.350101,-306.438199
3687.706132,-10362.883188,962.267725,-919.314598
3687.706461,-10140.821405,0.000000,-536.266849
3687.706791,-9252.574275,74.020594,-459.657299
3687.707121,-10066.800811,-222.061783,0.000000
3687.707451,-10066.800811,-370.102971,-383.047749
3687.707781,-9252.574275,0.000000,-536.266849
3687.708111,-9326.594869,-148.041188,459.657299
3687.708441,-9178.553681,0.000000,1225.752797
3687.708770,-9992.780217,370.102971,1225.752797
3687.709100,-10881.027347,1110.308913,-536.266849
3687.709430,-9992.780217,814.226536,-2451.505594
3687.709760,-9696.697840,0.000000,-2145.067394
3687.710090,-8660.409521,0.000000,-995.924147
3687.710420,-9178.553681,370.102971,-229.828649
3687.710750,-10214.842000,0.000000,306.438199
3687.711080,-9992.780217,148.041188,306.438199
3687.711409,-9400.615463,-444.123565,459.657299
3687.711739,-8438.347739,-370.102971,459.657299
3687.712069,-9326.594869,0.000000,1225.752797
3687.712399,-10807.006753,0.000000,1608.800546
3687.712729,-10214.842000,666.185348,229.828649
3687.713059,-9474.636058,888.247130,76.609550
3687.713389,-10140.821405,296.082377,-76.609550
3687.713718,-10214.842000,222.061783,-612.876398
3687.714048,-10732.986159,-148.041188,-459.657299
3687.714378,-9400.615463,0.000000,-536.266849
3687.714708,-8660.409521,-222.061783,536.266849
3687.715038,-8438.347739,-296.082377,1838.629195
3687.715368,-8438.347739,0.000000,2374.896044
3687.715698,-10732.986159,296.082377,1225.752797
3687.716027,-10510.924376,888.247130,-1072.533697
3687.716357,-11103.089130,148.041188,-306.438199
3687.716687,-10658.965565,-444.123565,995.924147
3687.717017,-9548.656652,-444.123565,1915.238745
3687.717347,-10510.924376,-148.041188,2145.067394
3687.717677,-9474.636058,-444.123565,459.657299
3687.718007,-8142.265362,-444.123565,-306.438199
3687.718336,-8216.285956,-666.185348,229.828649
3687.718666,-8438.347739,-296.082377,1149.143247
3687.718996,-10140.821405,74.020594,1991.848295
3687.719326,-10807.006753,518.144159,1072.533697
3687.719656,-10140.821405,296.082377,-229.828649
3687.719986,-10584.944971,-296.082377,-536.266849
3687.720316,-9844.739029,-296.082377,-229.828649
3687.720645,-11325.150913,-518.144159,229.828649
3687.720975,-11251.130318,-370.102971,383.047749
3687.721305,-9474.636058,-962.267725,76.609550
3687.721635,-8586.388927,-962.267725,0.000000
3687.721965,-7328.038826,-814.226536,536.266849
3687.722295,-9104.533087,0.000000,689.485948
3687.722625,-10436.903782,592.164754,-229.828649
3687.722954,-10214.842000,666.185348,-1225.752797
3687.723284,-10732.986159,222.061783,-1072.533697
3687.723614,-10288.862594,0.000000,-612.876398
3687.723944,-11399.171507,-592.164754,-153.219100
3687.724274,-11029.068536,-962.267725,-1149.143247
3687.724604,-8808.450710,-1110.308913,-1608.800546
3687.724934,-8364.327145,-1480.411884,-842.705048
3687.725264,-7846.182985,-814.226536,612.876398
3687.725593,-8734.430116,0.000000,2221.676944
3687.725923,-10658.965565,1184.329507,306.438199
3687.726253,-10436.903782,1332.370696,-1072.533697
3687.726583,-10584.944971,444.123565,-1455.581446
3687.726913,-10658.965565,148.041188,-995.924147
3687.727243,-10584.944971,148.041188,306.438199
3687.727573,-10436.903782,-296.082377,0.000000
3687.727902,-8734.430116,-444.123565,-459.657299
3687.728232,-8438.347739,-814.226536,-153.219100
3687.728562,-7994.224174,-888.247130,842.705048
3687.728892,-8660.409521,0.000000,2145.067394
3687.729222,-10510.924376,666.185348,2221.676944
3687.729552,-10214.842000,1184.329507,919.314598
3687.729882,-9844.739029,740.205942,612.876398
3687.730211,-9474.636058,592.164754,306.438199
3687.730541,-10066.800811,888.247130,536.266849
3687.730871,-11547.212695,666.185348,-459.657299
3687.731201,-10066.800811,518.144159,-919.314598
3687.731531,-8216.285956,518.144159,0.000000
3687.731861,-8216.285956,148.041188,1072.533697
3687.732191,-8660.409521,518.144159,1302.362347
3687.732520,-10584.944971,888.247130,1149.143247
3687.732850,-10362.883188,1184.329507,0.000000
3687.733180,-9622.677246,962.267725,-306.438199
3687.733510,-9622.677246,518.144159,766.095498
3687.733840,-9326.594869,444.123565,1838.629195
3687.734170,-10807.006753,814.226536,1072.533697
3687.734500,-10140.821405,444.123565,-153.219100
3687.734829,-9992.780217,0.000000,-76.609550
3687.735159,-9696.697840,-444.123565,1455.581446
3687.735489,-8734.430116,0.000000,2451.505594
3687.735819,-9400.615463,518.144159,3064.381992
3687.736149,-10066.800811,1036.288319,1072.533697
3687.736479,-9918.759623,962.267725,-459.657299
3687.736809,-10362.883188,370.102971,-76.609550
3687.737139,-10066.800811,962.267725,-689.485948
3687.737468,-11251.130318,444.123565,-306.438199
3687.737798,-10807.006753,666.185348,-1302.362347
3687.738128,-9474.636058,74.020594,-1532.190996
3687.738458,-8808.450710,-444.123565,-76.609550
3687.738788,-8586.388927,-370.102971,1072.533697
3687.739118,-10436.903782,0.000000,2068.457845
3687.739448,-11473.192101,518.144159,919.314598
3687.739777,-10288.862594,148.041188,-612.876398
3687.740107,-9696.697840,222.061783,-306.438199
3687.740437,-9474.636058,-370.102971,0.000000
3687.740767,-10732.986159,-296.082377,229.828649
3687.741097,-10584.944971,-222.061783,-383.047749
3687.741427,-9030.512492,-296.082377,-689.485948
3687.741757,-9030.512492,-888.247130,-766.095498
3687.742086,-8142.265362,-1258.350101,153.219100
3687.742416,-9104.533087,-666.185348,1532.190996
3687.742746,-10510.924376,0.000000,1072.533697
3687.743076,-9918.759623,296.082377,0.000000
3687.743406,-9992.780217,0.000000,-536.266849
3687.743736,-9622.677246,-370.102971,153.219100
3687.744066,-10436.903782,0.000000,459.657299
3687.744395,-11547.212695,592.164754,-229.828649
3687.744725,-9770.718434,148.041188,-1685.410096
3687.745055,-8956.491898,-518.144159,-1225.752797
3687.745385,-7994.224174,-592.164754,229.828649
3687.745715,-8512.368333,222.061783,1685.410096
3687.746045,-11177.109724,740.205942,1455.581446
3687.746375,-9918.759623,1110.308913,-383.047749
3687.746704,-9178.553681,222.061783,-153.219100
3687.747034,-9400.615463,444.123565,536.266849
3687.747364,-10140.821405,592.164754,919.314598
3687.747694,-11843.295072,740.205942,919.314598
3687.748024,-10288.862594,518.144159,-612.876398
3687.748354,-9400.615463,0.000000,0.000000
3687.748684,-8956.491898,0.000000,1378.971896
3687.749013,-9104.533087,222.061783,2374.896044
3687.749343,-10214.842000,444.123565,1838.629195
3687.749673,-9622.677246,888.247130,-153.219100
3687.750003,-9030.512492,592.164754,-76.609550
3687.750333,-9474.636058,444.123565,919.314598
3687.750663,-9622.677246,814.226536,1608.800546
3687.750993,-11029.068536,814.226536,612.876398
3687.751323,-10658.965565,740.205942,-766.095498
3687.751652,-9252.574275,0.000000,-919.314598
3687.751982,-9326.594869,-370.102971,1149.143247
3687.752312,-8882.471304,-296.082377,2911.162892
3687.752642,-9844.739029,0.000000,2987.772442
3687.752972,-9992.780217,814.226536,1072.533697
3687.753302,-9178.553681,592.164754,-1225.752797
3687.753632,-9844.739029,444.123565,0.000000
3687.753961,-10362.883188,740.205942,306.438199
3687.754291,-11325.150913,740.205942,0.000000
3687.754621,-10732.986159,148.041188,-536.266849
3687.754951,-9548.656652,74.020594,-1302.362347
3687.755281,-9622.677246,-666.185348,-459.657299
3687.755611,-8734.430116,-444.123565,229.828649
3687.755941,-9326.594869,-666.185348,76.609550
3687.756270,-10214.842000,222.061783,76.609550
3687.756600,-9918.759623,148.041188,306.438199
3687.756930,-10732.986159,-148.041188,1302.362347
3687.757260,-10584.944971,74.020594,1455.581446
3687.757590,-11029.068536,0.000000,-153.219100
3687.757920,-11769.274478,-148.041188,-1532.190996
3687.758250,-9918.759623,-666.185348,-1838.629195
3687.758579,-9474.636058,-888.247130,0.000000
3687.758909,-8142.265362,-962.267725,842.705048
3687.759239,-8882.471304,-814.226536,1072.533697
3687.759569,-10288.862594,0.000000,-536.266849
3687.759899,-10140.821405,592.164754,-1455.581446
3687.760229,-10140.821405,-296.082377,-689.485948
3687.760559,-9178.553681,-444.123565,229.828649
3687.760888,-9474.636058,-74.020594,689.485948
3687.761218,-11103.089130,0.000000,459.657299
3687.761548,-10584.944971,-296.082377,-995.924147
3687.761878,-9548.656652,-814.226536,-842.705048
3687.762208,-8438.347739,-1036.288319,306.438199
3687.762538,-8660.409521,-444.123565,1225.752797
3687.762868,-10288.862594,0.000000,1302.362347
3687.763198,-9548.656652,296.082377,612.876398
3687.763527,-9104.533087,0.000000,-306.438199
3687.763857,-9104.533087,148.041188,-306.438199
3687.764187,-9400.615463,444.123565,-536.266849
3687.764517,-11029.068536,444.123565,-153.219100
3687.764847,-10510.924376,592.164754,-766.095498
3687.765177,-9918.759623,-296.082377,153.219100
3687.765507,-9326.594869,-740.205942,1608.800546
3687.765836,-8882.471304,-444.123565,1838.629195
3687.766166,-10288.862594,0.000000,1991.848295
3687.766496,-9400.615463,0.000000,612.876398
3687.766826,-8290.306550,0.000000,1072.533697
3687.767156,-9474.636058,370.102971,2221.676944
3687.767486,-9844.739029,888.247130,1608.800546
3687.767816,-11103.089130,444.123565,229.828649
3687.768145,-10658.965565,888.247130,-1149.143247
3687.768475,-9992.780217,518.144159,-383.047749
3687.768805,-9770.718434,0.000000,612.876398
3687.769135,-9326.594869,222.061783,1455.581446
3687.769465,-9992.780217,0.000000,1532.190996
3687.769795,-10510.924376,518.144159,689.485948
3687.770125,-9474.636058,370.102971,-459.657299
3687.770454,-9844.739029,0.000000,536.266849
3687.770784,-9400.615463,666.185348,1072.533697
3687.771114,-10362.883188,962.267725,612.876398
3687.771444,-10955.047942,962.267725,-459.657299
3687.771774,-10140.821405,592.164754,-1302.362347
3687.772104,-9918.759623,0.000000,-153.219100
3687.772434,-9252.574275,-296.082377,76.609550
3687.772763,-9992.780217,-222.061783,459.657299
3687.773093,-10140.821405,0.000000,0.000000
3687.773423,-9326.594869,0.000000,-842.705048
3687.773753,-9326.594869,-740.205942,-306.438199
3687.774083,-8956.491898,222.061783,0.000000
3687.774413,-9992.780217,592.164754,-153.219100
3687.774743,-11029.068536,740.205942,-1072.533697
3687.775072,-10510.924376,370.102971,-1532.190996
3687.775402,-10362.883188,-370.102971,459.657299
3687.775732,-9252.574275,-814.226536,689.485948
3687.776062,-9622.677246,-592.164754,689.485948
3687.776392,-10140.821405,-518.144159,229.828649
3687.776722,-9326.594869,-222.061783,-229.828649
3687.777052,-8808.450710,-740.205942,0.000000
3687.777381,-8586.388927,-444.123565,689.485948
3687.777711,-9770.718434,0.000000,612.876398
3687.778041,-11399.171507,370.102971,0.000000
3687.778371,-10214.842000,666.185348,-1149.143247
3687.778701,-9030.512492,-222.061783,-1072.533697
3687.779030,-8734.430116,-148.041188,-306.438199
3687.779360,-9030.512492,-296.082377,536.266849
3687.779690,-10584.944971,74.020594,919.314598
3687.780020,-9622.677246,296.082377,0.000000
3687.780350,-9030.512492,-148.041188,229.828649
3687.780680,-9178.553681,-148.041188,1149.143247
3687.781009,-9326.594869,296.082377,1455.581446
3687.781339,-11399.171507,592.164754,1149.143247
3687.781669,-11029.068536,518.144159,0.000000
3687.781999,-10140.821405,0.000000,153.219100
3687.782329,-9548.656652,-296.082377,536.266849
3687.782658,-9104.533087,-370.102971,1991.848295
3687.782988,-10436.903782,0.000000,1532.190996
3687.783318,-9844.739029,222.061783,0.000000
3687.783648,-8882.471304,148.041188,-536.266849
3687.783978,-9252.574275,222.061783,76.609550
3687.784308,-9474.636058,444.123565,1225.752797
3687.784637,-11177.109724,962.267725,1378.971896
3687.784967,-10955.047942,962.267725,76.609550
3687.785297,-9918.759623,296.082377,-536.266849
3687.785627,-9918.759623,-518.144159,0.000000
3687.785957,-9474.636058,-444.123565,1608.800546
3687.786287,-10436.903782,-296.082377,2757.943793
3687.786616,-10362.883188,370.102971,1685.410096
3687.786946,-9326.594869,74.020594,842.705048
3687.787276,-9400.615463,0.000000,842.705048
3687.787606,-9326.594869,444.123565,842.705048
3687.787936,-10807.006753,444.123565,306.438199
3687.788265,-11251.130318,814.226536,-612.876398
3687.788595,-9770.718434,370.102971,-1685.410096
3687.788925,-9252.574275,148.041188,-1149.143247
3687.789255,-8364.327145,0.000000,-842.705048
3687.789585,-9770.718434,0.000000,229.828649
3687.789915,-10955.047942,74.020594,-689.485948
3687.790244,-9474.636058,0.000000,-766.095498
3687.790574,-9474.636058,-296.082377,766.095498
3687.790904,-9474.636058,-222.061783,1685.410096
3687.791234,-10288.862594,370.102971,1455.581446
3687.791564,-10807.006753,148.041188,0.000000
3687.791893,-10140.821405,148.041188,-1225.752797
3687.792223,-10584.944971,-666.185348,-919.314598
3687.792553,-9104.533087,-296.082377,76.609550
3687.792883,-8808.450710,-444.123565,459.657299
3687.793213,-9770.718434,0.000000,-383.047749
3687.793543,-9696.697840,74.020594,-1302.362347
3687.793872,-9696.697840,-592.164754,-1149.143247
3687.794202,-9178.553681,-222.061783,0.000000
3687.794532,-9178.553681,148.041188,1149.143247
3687.794862,-10510.924376,0.000000,766.095498
3687.795192,-9844.739029,74.020594,76.609550
3687.795522,-9696.697840,0.000000,229.828649
3687.795851,-9326.594869,-518.144159,76.609550
3687.796181,-9844.739029,-222.061783,842.705048
3687.796511,-10881.027347,-370.102971,842.705048
3687.796841,-10066.800811,222.061783,995.924147
3687.797171,-8808.450710,-592.164754,306.438199
3687.797500,-8660.409521,0.000000,459.657299
3687.797830,-8586.388927,-148.041188,612.876398
3687.798160,-10288.862594,296.082377,153.219100
3687.798490,-10658.965565,740.205942,-459.657299
3687.798820,-10658.965565,370.102971,306.438199
3687.799150,-10066.800811,0.000000,995.924147
3687.799479,-8734.430116,0.000000,919.314598
3687.799809,-9622.677246,0.000000,0.000000
3687.800139,-9992.780217,296.082377,-1149.143247
3687.800469,-9622.677246,0.000000,-536.266849
3687.800799,-9400.615463,-444.123565,612.876398
3687.801129,-8734.430116,148.041188,1685.410096
3687.801458,-10214.842000,148.041188,1915.238745
3687.801788,-11103.089130,222.061783,229.828649
3687.802118,-10066.800811,-74.020594,-919.314598
3687.802448,-9474.636058,-370.102971,-536.266849
3687.802778,-8438.347739,-444.123565,1149.143247
3687.803107,-10214.842000,-148.041188,2221.676944
3687.803437,-10955.047942,518.144159,1838.629195
3687.803767,-9548.656652,370.102971,0.000000
3687.804097,-9400.615463,-370.102971,-459.657299
3687.804427,-8882.471304,0.000000,-459.657299
3687.804757,-10140.821405,0.000000,459.657299
3687.805086,-10955.047942,444.123565,383.047749
3687.805416,-9178.553681,740.205942,-459.657299
3687.805746,-9474.636058,74.020594,-612.876398
3687.806076,-8956.491898,0.000000,-612.876398
3687.806406,-10214.842000,0.000000,-76.609550
3687.806735,-11621.233289,1036.288319,-459.657299
3687.807065,-10214.842000,222.061783,-689.485948
3687.807395,-10140.821405,-444.123565,842.705048
3687.807725,-9104.533087,-148.041188,1072.533697
3687.808055,-9696.697840,-148.041188,1072.533697
3687.808385,-10288.862594,148.041188,-76.609550
3687.808714,-9474.636058,296.082377,-1685.410096
3687.809044,-9400.615463,-74.020594,-689.485948
3687.809374,-9030.512492,-148.041188,689.485948
3687.809704,-9770.718434,740.205942,689.485948
3687.810034,-11473.192101,666.185348,689.485948
3687.810364,-10362.883188,296.082377,-689.485948
3687.810693,-9696.697840,-444.123565,-919.314598
3687.811023,-8586.388927,-666.185348,153.219100
3687.811353,-8216.285956,0.000000,1685.410096
3687.811683,-10214.842000,148.041188,1608.800546
3687.812013,-9548.656652,296.082377,536.266849
3687.812342,-9400.615463,0.000000,-459.657299
3687.812672,-9474.636058,222.061783,-689.485948
3687.813002,-9252.574275,74.020594,153.219100
3687.813332,-10732.986159,222.061783,536.266849
3687.813662,-9548.656652,518.144159,306.438199
3687.813992,-8660.409521,0.000000,459.657299
3687.814321,-8882.471304,0.000000,689.485948
3687.814651,-9252.574275,444.123565,612.876398
3687.814981,-11177.109724,518.144159,229.828649
3687.815311,-10584.944971,1036.288319,-383.047749
3687.815641,-9400.615463,222.061783,306.438199
3687.815970,-9474.636058,222.061783,1378.971896
3687.816300,-8956.491898,74.020594,1455.581446
3687.816630,-10066.800811,444.123565,306.438199
3687.816960,-9992.780217,1036.288319,-1072.533697
3687.817290,-9326.594869,518.144159,-919.314598
3687.817620,-9918.759623,222.061783,612.876398
3687.817949,-9770.718434,74.020594,2068.457845
3687.818279,-10510.924376,0.000000,1608.800546
3687.818609,-10732.986159,222.061783,536.266849
3687.818939,-9474.636058,-444.123565,0.000000
3687.819269,-9178.553681,-592.164754,995.924147
3687.819599,-8364.327145,0.000000,1149.143247
3687.819928,-9918.759623,592.164754,2374.896044
3687.820258,-11103.089130,1036.288319,995.924147
3687.820588,-10362.883188,1036.288319,-689.485948
3687.820918,-9992.780217,0.000000,-995.924147
3687.821248,-9548.656652,0.000000,-612.876398
3687.821577,-10214.842000,-370.102971,-153.219100
3687.821907,-10214.842000,-444.123565,-76.609550
3687.822237,-8882.471304,0.000000,76.609550
3687.822567,-9030.512492,-148.041188,0.000000
3687.822897,-9326.594869,-370.102971,383.047749
3687.823227,-10362.883188,0.000000,459.657299
3687.823556,-11399.171507,0.000000,0.000000
3687.823886,-10140.821405,0.000000,-766.095498
3687.824216,-9696.697840,-1184.329507,0.000000
3687.824546,-8808.450710,-962.267725,383.047749
3687.824876,-9252.574275,-814.226536,536.266849
3687.825206,-10140.821405,-296.082377,-1072.533697
3687.825535,-9252.574275,-222.061783,-1991.848295
3687.825865,-9252.574275,-888.247130,-1225.752797
3687.826195,-8808.450710,-592.164754,229.828649
3687.826525,-9622.677246,-370.102971,1072.533697
3687.826855,-10510.924376,-222.061783,-153.219100
3687.827184,-9918.759623,-222.061783,-1838.629195
3687.827514,-9326.594869,-666.185348,-2068.457845
3687.827844,-8882.471304,-814.226536,-229.828649
3687.828174,-8808.450710,-370.102971,1149.143247
3687.828504,-10288.862594,-444.123565,1378.971896
3687.828834,-9918.759623,0.000000,536.266849
3687.829163,-9474.636058,-370.102971,0.000000
3687.829493,-9474.636058,148.041188,766.095498
3687.829823,-9918.759623,0.000000,1225.752797
3687.830153,-11177.109724,222.061783,842.705048
3687.830483,-10214.842000,592.164754,0.000000
3687.830812,-9770.718434,-74.020594,-229.828649
3687.831142,-9474.636058,0.000000,76.609550
3687.831472,-9104.533087,0.000000,383.047749
3687.831802,-10362.883188,74.020594,612.876398
3687.832132,-9844.739029,518.144159,0.000000
3687.832462,-8882.471304,222.061783,76.609550
3687.832791,-9548.656652,-370.102971,1762.019645
3687.833121,-9326.594869,74.020594,2145.067394
3687.833451,-10881.027347,296.082377,1685.410096
3687.833781,-9992.780217,444.123565,-383.047749
3687.834111,-9474.636058,148.041188,-459.657299
3687.834441,-9770.718434,0.000000,995.924147
3687.834770,-9400.615463,0.000000,2145.067394
3687.835100,-10807.006753,296.082377,1762.019645
3687.835430,-10214.842000,222.061783,153.219100
3687.835760,-9474.636058,222.061783,-612.876398
3687.836090,-9400.615463,148.041188,995.924147
3687.836419,-9104.533087,370.102971,1991.848295
3687.836749,-10436.903782,888.247130,1072.533697
3687.837079,-11103.089130,1110.308913,76.609550
3687.837409,-9622.677246,370.102971,-995.924147
3687.837739,-9770.718434,74.020594,0.000000
3687.838069,-9030.512492,518.144159,0.000000
3687.838398,-10436.903782,296.082377,919.314598
3687.838728,-10584.944971,740.205942,0.000000
3687.839058,-9030.512492,518.144159,-689.485948
3687.839388,-8956.491898,814.226536,0.000000
3687.839718,-9104.533087,148.041188,383.047749
3687.840048,-9918.759623,592.164754,612.876398
3687.840377,-10881.027347,1036.288319,-689.485948
3687.840707,-9992.780217,814.226536,-1915.238745
3687.841037,-9992.780217,518.144159,-1302.362347
3687.841367,-9918.759623,74.020594,76.609550
3687.841697,-9696.697840,0.000000,536.266849
3687.842026,-10510.924376,0.000000,-459.657299
3687.842356,-8808.450710,222.061783,-1762.019645
3687.842686,-9400.615463,-666.185348,-383.047749
3687.843016,-9030.512492,-222.061783,919.314598
3687.843346,-9474.636058,222.061783,1302.362347
3687.843676,-11103.089130,518.144159,-383.047749
3687.844005,-10436.903782,1036.288319,-995.924147
3687.844335,-9844.739029,148.041188,-689.485948
3687.844665,-9474.636058,0.000000,76.609550
3687.844995,-9400.615463,148.041188,76.609550
3687.845325,-10214.842000,0.000000,-459.657299
3687.845654,-9474.636058,0.000000,-995.924147
3687.845984,-8586.388927,-444.123565,-459.657299
3687.846314,-8660.409521,-444.123565,1532.190996
3687.846644,-9252.574275,296.082377,1915.238745
3687.846974,-11399.171507,148.041188,1915.238745
3687.847304,-10732.986159,740.205942,383.047749
3687.847633,-9400.615463,74.020594,-229.828649
3687.847963,-9474.636058,0.000000,612.876398
3687.848293,-9696.697840,-148.041188,1762.019645
3687.848623,-10658.965565,-74.020594,1149.143247
3687.848953,-9770.718434,222.061783,-229.828649
3687.849283,-8438.347739,74.020594,-766.095498
3687.849612,-8808.450710,-444.123565,1149.143247
3687.849942,-8882.471304,0.000000,2068.457845
3687.850272,-10807.006753,0.000000,1991.848295
3687.850602,-11029.068536,296.082377,0.000000
3687.850932,-10436.903782,0.000000,-536.266849
3687.851261,-10066.800811,-444.123565,0.000000
3687.851591,-9400.615463,-518.144159,766.095498
3687.851921,-9770.718434,-370.102971,612.876398
3687.852251,-9696.697840,0.000000,-383.047749
3687.852581,-9178.553681,-296.082377,0.000000
3687.852911,-9252.574275,-888.247130,1225.752797
3687.853240,-9178.553681,-370.102971,1915.238745
3687.853570,-10288.862594,74.020594,1378.971896
3687.853900,-11177.109724,222.061783,153.219100
3687.854230,-9992.780217,0.000000,-1225.752797
3687.854560,-9918.759623,-740.205942,76.609550
3687.854889,-9400.615463,-148.041188,536.266849
3687.855219,-10140.821405,0.000000,306.438199
3687.855549,-11473.192101,518.144159,-383.047749
3687.855879,-10288.862594,296.082377,-1455.581446
3687.856209,-10066.800811,-148.041188,-383.047749
3687.856539,-9474.636058,0.000000,-383.047749
3687.856868,-9178.553681,-74.020594,0.000000
3687.857198,-10436.903782,592.164754,-306.438199
3687.857528,-9918.759623,370.102971,-1455.581446
3687.857858,-9918.759623,296.082377,-995.924147
3687.858188,-9696.697840,-74.020594,-612.876398
3687.858518,-9918.759623,0.000000,-459.657299
3687.858847,-10955.047942,-296.082377,-689.485948
3687.859177,-10288.862594,-370.102971,-383.047749
3687.859507,-8956.491898,-962.267725,0.000000
3687.859837,-7920.203579,-666.185348,1302.362347
3687.860167,-8290.306550,0.000000,1149.143247
3687.860496,-10510.924376,444.123565,229.828649
3687.860826,-10140.821405,888.247130,-1149.143247
3687.861156,-9400.615463,0.000000,-919.314598
3687.861486,-9548.656652,74.020594,0.000000
3687.861816,-10066.800811,-222.061783,689.485948
3687.862146,-11103.089130,0.000000,-153.219100
3687.862475,-9548.656652,0.000000,-536.266849
3687.862805,-8216.285956,-518.144159,0.000000
3687.863135,-7846.182985,-296.082377,1149.143247
3687.863465,-8216.285956,518.144159,1455.581446
3687.863795,-10584.944971,888.247130,1225.752797
3687.864125,-11029.068536,1258.350101,76.609550
3687.864454,-10658.965565,666.185348,-689.485948
3687.864784,-10584.944971,444.123565,459.657299
3687.865114,-9918.759623,0.000000,1149.143247
3687.865444,-10807.006753,222.061783,76.609550
3687.865774,-9844.739029,0.000000,-689.485948
3687.866103,-8586.388927,-148.041188,-766.095498
3687.866433,-8068.244768,0.000000,459.657299
3687.866763,-8586.388927,592.164754,1915.238745
3687.867093,-10658.965565,1332.370696,2298.286494
3687.867423,-11399.171507,1554.432478,0.000000
3687.867753,-9844.739029,1184.329507,-612.876398
3687.868082,-9992.780217,0.000000,-306.438199
3687.868412,-9548.656652,0.000000,1149.143247
3687.868742,-10584.944971,0.000000,1225.752797
3687.869072,-10214.842000,74.020594,459.657299
3687.869402,-9030.512492,0.000000,153.219100
3687.869731,-9104.533087,-222.061783,919.314598
3687.870061,-8734.430116,222.061783,1838.629195
3687.870391,-10140.821405,740.205942,1838.629195
3687.870721,-10955.047942,1110.308913,995.924147
3687.871051,-10214.842000,814.226536,229.828649
3687.871381,-10140.821405,370.102971,689.485948
3687.871710,-10214.842000,518.144159,1225.752797
3687.872040,-10732.986159,444.123565,-229.828649
3687.872370,-10955.047942,0.000000,-1532.190996
3687.872700,-9474.636058,0.000000,-1455.581446
3687.873030,-8956.491898,-444.123565,383.047749
3687.873360,-8290.306550,0.000000,1455.581446
3687.873689,-8956.491898,444.123565,1225.752797
3687.874019,-10510.924376,962.267725,-612.876398
3687.874349,-10584.944971,1110.308913,-1991.848295
3687.874679,-10510.924376,74.020594,-1072.533697
3687.875009,-10436.903782,0.000000,0.000000
3687.875338,-10066.800811,-444.123565,383.047749
3687.875668,-10362.883188,-888.247130,-383.047749
3687.875998,-9326.594869,-888.247130,-995.924147
3687.876328,-7994.224174,-1258.350101,-459.657299
3687.876657,-7846.182985,-666.185348,1378.971896
3687.876987,-8808.450710,148.041188,1685.410096
3687.877317,-10807.006753,814.226536,612.876398
3687.877647,-11029.068536,1184.329507,-919.314598
3687.877977,-10510.924376,0.000000,-1762.019645
3687.878306,-9770.718434,-148.041188,-995.924147
3687.878636,-9474.636058,-222.061783,-1149.143247
3687.878966,-10214.842000,-592.164754,-1225.752797
3687.879296,-9326.594869,-592.164754,-689.485948
3687.879626,-8216.285956,-666.185348,76.609550
3687.879955,-8364.327145,-592.164754,919.314598
3687.880285,-8734.430116,148.041188,1302.362347
3687.880615,-11029.068536,740.205942,383.047749
3687.880945,-11103.089130,1110.308913,0.000000
3687.881274,-10214.842000,148.041188,-612.876398
3687.881604,-9992.780217,0.000000,229.828649
3687.881934,-9622.677246,0.000000,76.609550
3687.882264,-10436.903782,-370.102971,-76.609550
3687.882594,-9992.780217,-370.102971,-766.095498
3687.882923,-9178.553681,-518.144159,-689.485948
3687.883253,-8586.388927,-666.185348,842.705048
3687.883583,-8290.306550,0.000000,2451.505594
3687.883913,-9992.780217,444.123565,2451.505594
3687.884242,-10881.027347,740.205942,1072.533697
3687.884572,-10436.903782,666.185348,-842.705048
3687.884902,-10510.924376,0.000000,-536.266849
3687.885232,-9770.718434,-222.061783,306.438199
3687.885562,-10214.842000,-666.185348,1072.533697
3687.885891,-10584.944971,-296.082377,766.095498
3687.886221,-8956.491898,-444.123565,842.705048
3687.886551,-8216.285956,-962.267725,1302.362347
3687.886881,-8512.368333,74.020594,1608.800546
3687.887210,-9992.780217,592.164754,1762.019645
3687.887540,-11695.253884,1258.350101,1149.143247
3687.887870,-10732.986159,814.226536,306.438199
3687.888200,-10066.800811,74.020594,-306.438199
3687.888530,-9548.656652,0.000000,-536.266849
3687.888859,-10140.821405,222.061783,0.000000
3687.889189,-11399.171507,222.061783,-536.266849
3687.889519,-9474.636058,296.082377,-1225.752797
3687.889849,-8956.491898,-370.102971,-383.047749
3687.890179,-8364.327145,-222.061783,919.314598
3687.890508,-8734.430116,0.000000,1532.190996
3687.890838,-10140.821405,222.061783,1149.143247
3687.891168,-10362.883188,518.144159,-766.095498
3687.891498,-10066.800811,0.000000,0.000000
3687.891827,-9918.759623,-74.020594,153.219100
3687.892157,-10214.842000,74.020594,0.000000
3687.892487,-11325.150913,-370.102971,-383.047749
3687.892817,-10214.842000,-444.123565,-1149.143247
3687.893147,-8660.409521,-1184.329507,-766.095498
3687.893476,-7772.162391,-888.247130,76.609550
3687.893806,-8216.285956,0.000000,612.876398
3687.894136,-10732.986159,370.102971,919.314598
3687.894466,-10510.924376,740.205942,0.000000
3687.894795,-9696.697840,148.041188,-1378.971896
3687.895125,-9400.615463,-296.082377,-1072.533697
3687.895455,-9622.677246,74.020594,-383.047749
3687.895785,-11251.130318,-148.041188,0.000000
3687.896115,-10140.821405,-148.041188,0.000000
3687.896444,-8882.471304,-592.164754,229.828649
3687.896774,-8512.368333,-740.205942,919.314598
3687.897104,-8882.471304,-74.020594,1532.190996
3687.897434,-10584.944971,148.041188,1149.143247
3687.897763,-10140.821405,740.205942,229.828649
3687.898093,-8364.327145,296.082377,-383.047749
3687.898423,-9178.553681,148.041188,306.438199
3687.898753,-9770.718434,518.144159,612.876398
3687.899083,-11399.171507,444.123565,229.828649
3687.899412,-10955.047942,592.164754,-1378.971896
3687.899742,-9474.636058,-148.041188,-1072.533697
3687.900072,-9178.553681,-518.144159,919.314598
3687.900402,-7920.203579,-222.061783,2451.505594
3687.900732,-9030.512492,222.061783,2451.505594
3687.901061,-10214.842000,666.185348,766.095498
3687.901391,-10510.924376,592.164754,-612.876398
3687.901721,-10807.006753,0.000000,306.438199
3687.902051,-10140.821405,148.041188,1225.752797
3687.902380,-10288.862594,0.000000,766.095498
3687.902710,-10066.800811,-296.082377,0.000000
3687.903040,-8438.347739,0.000000,-306.438199
3687.903370,-8660.409521,-740.205942,153.219100
3687.903700,-8586.388927,222.061783,842.705048
3687.904029,-9844.739029,296.082377,1302.362347
3687.904359,-11177.109724,814.226536,1149.143247
3687.904689,-10288.862594,1036.288319,153.219100
3687.905019,-10436.903782,444.123565,0.000000
3687.905348,-10436.903782,148.041188,76.609550
3687.905678,-10807.006753,148.041188,-153.219100
3687.906008,-11177.109724,222.061783,-1302.362347
3687.906338,-9474.636058,296.082377,-1608.800546
3687.906668,-9178.553681,-222.061783,0.000000
3687.906997,-8808.450710,0.000000,919.314598
3687.907327,-9178.553681,0.000000,612.876398
3687.907657,-10732.986159,0.000000,0.000000
3687.907987,-9770.718434,74.020594,0.000000
3687.908316,-9548.656652,-444.123565,306.438199
3687.908646,-9252.574275,-518.144159,995.924147
3687.908976,-9918.759623,-296.082377,536.266849
3687.909306,-11251.130318,0.000000,-766.095498
3687.909636,-10658.965565,74.020594,-2068.457845
3687.909965,-9252.574275,-592.164754,-1685.410096
3687.910295,-8364.327145,-814.226536,229.828649
3687.910625,-7920.203579,-592.164754,1991.848295
3687.910955,-9696.697840,666.185348,2145.067394
3687.911285,-10214.842000,1110.308913,0.000000
3687.911614,-9770.718434,370.102971,-1685.410096
3687.911944,-10140.821405,0.000000,-1225.752797
3687.912274,-10436.903782,0.000000,0.000000
3687.912604,-11473.192101,0.000000,919.314598
3687.912933,-10288.862594,148.041188,612.876398
3687.913263,-8438.347739,-518.144159,0.000000
3687.913593,-7846.182985,-518.144159,76.609550
3687.913923,-8438.347739,0.000000,1149.143247
3687.914253,-10584.944971,740.205942,2068.457845
3687.914582,-11103.089130,1258.350101,1225.752797
3687.914912,-9252.574275,592.164754,-76.609550
3687.915242,-9030.512492,222.061783,383.047749
3687.915572,-9548.656652,740.205942,919.314598
3687.915901,-11177.109724,592.164754,459.657299
3687.916231,-10436.903782,296.082377,-383.047749
3687.916561,-8586.388927,148.041188,-919.314598
3687.916891,-8364.327145,-518.144159,459.657299
3687.917221,-8882.471304,148.041188,2604.724693
3687.917550,-10066.800811,296.082377,2834.553343
3687.917880,-10066.800811,666.185348,995.924147
3687.918210,-9252.574275,666.185348,-766.095498
3687.918540,-9474.636058,0.000000,229.828649
3687.918869,-9548.656652,444.123565,1608.800546
3687.919199,-10140.821405,518.144159,1302.362347
3687.919529,-10881.027347,888.247130,-766.095498
3687.919859,-9918.759623,518.144159,-2374.896044
3687.920189,-9474.636058,-370.102971,-1378.971896
3687.920518,-9030.512492,0.000000,1225.752797
3687.920848,-9400.615463,0.000000,2374.896044
3687.921178,-10658.965565,296.082377,1072.533697
3687.921508,-9548.656652,370.102971,-842.705048
3687.921838,-9548.656652,148.041188,0.000000
3687.922167,-9548.656652,-74.020594,1378.971896
3687.922497,-10807.006753,222.061783,1532.190996
3687.922827,-11621.233289,444.123565,383.047749
3687.923157,-10066.800811,518.144159,-1072.533697
3687.923486,-8734.430116,-814.226536,-1149.143247
3687.923816,-8956.491898,-74.020594,153.219100
3687.924146,-9252.574275,74.020594,306.438199
3687.924476,-10881.027347,370.102971,-919.314598
3687.924806,-10214.842000,518.144159,-1762.019645
3687.925135,-9548.656652,-74.020594,-153.219100
3687.925465,-9474.636058,-148.041188,1149.143247
3687.925795,-9844.739029,0.000000,919.314598
3687.926125,-10955.047942,0.000000,-459.657299
3687.926454,-10436.903782,-296.082377,-1838.629195
3687.926784,-9326.594869,-814.226536,-1072.533697
3687.927114,-9400.615463,-814.226536,1302.362347
3687.927444,-8882.471304,-888.247130,1915.238745
3687.927774,-10140.821405,-148.041188,995.924147
3687.928103,-9622.677246,-370.102971,-919.314598
3687.928433,-8956.491898,-962.267725,-612.876398
3687.928763,-9474.636058,-740.205942,842.705048
3687.929093,-9474.636058,-148.041188,1685.410096
3687.929422,-10732.986159,222.061783,229.828649
3687.929752,-10066.800811,148.041188,-1532.190996
3687.930082,-9104.533087,-296.082377,-1532.190996
3687.930412,-9178.553681,-592.164754,0.000000
3687.930742,-8956.491898,74.020594,1302.362347
3687.931071,-10436.903782,0.000000,1838.629195
3687.931401,-10362.883188,518.144159,612.876398
3687.931731,-9474.636058,444.123565,383.047749
3687.932061,-10288.862594,0.000000,1302.362347
3687.932391,-9622.677246,0.000000,1302.362347
3687.932720,-10436.903782,222.061783,76.609550
3687.933050,-11029.068536,296.082377,-842.705048
3687.933380,-9918.759623,-74.020594,-612.876398
3687.933710,-9030.512492,-444.123565,76.609550
3687.934039,-8364.327145,-74.020594,612.876398
3687.934369,-9178.553681,222.061783,689.485948
3687.934699,-10066.800811,518.144159,-153.219100
3687.935029,-9178.553681,518.144159,-306.438199
3687.935359,-9474.636058,148.041188,1455.581446
3687.935688,-9918.759623,444.123565,1762.019645
3687.936018,-10955.047942,370.102971,689.485948
3687.936348,-11843.295072,814.226536,-383.047749
3687.936678,-10214.842000,222.061783,-1072.533697
3687.937007,-9548.656652,-444.123565,306.438199
3687.937337,-8808.450710,-444.123565,1072.533697
3687.937667,-9252.574275,74.020594,1149.143247
3687.937997,-10214.842000,296.082377,0.000000
3687.938327,-9400.615463,296.082377,-766.095498
3687.938656,-9400.615463,0.000000,153.219100
3687.938986,-9548.656652,74.020594,1149.143247
3687.939316,-10362.883188,444.123565,842.705048
3687.939646,-11547.212695,296.082377,-153.219100
3687.939975,-10436.903782,296.082377,-1072.533697
3687.940305,-10066.800811,-296.082377,-459.657299
3687.940635,-9992.780217,-148.041188,842.705048
3687.940965,-9696.697840,0.000000,1149.143247
3687.941295,-10658.965565,296.082377,383.047749
3687.941624,-9548.656652,370.102971,-766.095498
3687.941954,-8808.450710,-370.102971,-689.485948
3687.942284,-9178.553681,74.020594,0.000000
3687.942614,-9548.656652,148.041188,153.219100
3687.942943,-10881.027347,74.020594,-153.219100
3687.943273,-10436.903782,-222.061783,-919.314598
3687.943603,-10066.800811,-592.164754,-689.485948
3687.943933,-9104.533087,-962.267725,0.000000
3687.944263,-8956.491898,-518.144159,919.314598
3687.944592,-10214.842000,-370.102971,306.438199
3687.944922,-9696.697840,0.000000,-612.876398
3687.945252,-8808.450710,-296.082377,-76.609550
3687.945582,-8660.409521,-592.164754,536.266849
3687.945912,-9474.636058,370.102971,229.828649
3687.946241,-11399.171507,296.082377,-153.219100
3687.946571,-11103.089130,296.082377,-1378.971896
3687.946901,-8956.491898,-148.041188,-995.924147
3687.947231,-8882.471304,-148.041188,229.828649
3687.947560,-8808.450710,296.082377,1302.362347
3687.947890,-10066.800811,518.144159,766.095498
3687.948220,-10510.924376,518.144159,0.000000
3687.948550,-9992.780217,444.123565,0.000000
3687.948880,-9918.759623,296.082377,2068.457845
3687.949209,-9622.677246,222.061783,2374.896044
3687.949539,-10436.903782,518.144159,1915.238745
3687.949869,-11029.068536,444.123565,1072.533697
3687.950199,-9770.718434,444.123565,229.828649
3687.950528,-9548.656652,370.102971,689.485948
3687.950858,-9400.615463,296.082377,995.924147
3687.951188,-10288.862594,518.144159,1378.971896
3687.951518,-10732.986159,518.144159,689.485948
3687.951848,-9622.677246,444.123565,-153.219100
3687.952177,-8512.368333,-592.164754,383.047749
3687.952507,-8882.471304,-370.102971,919.314598
3687.952837,-10066.800811,0.000000,1302.362347
3687.953167,-11769.274478,444.123565,766.095498
3687.953496,-9696.697840,148.041188,0.000000
3687.953826,-9252.574275,-296.082377,306.438199
3687.954156,-9104.533087,0.000000,1378.971896
3687.954486,-9548.656652,-370.102971,1225.752797
3687.954816,-10510.924376,0.000000,459.657299
3687.955145,-9770.718434,222.061783,0.000000
3687.955475,-9178.553681,-296.082377,153.219100
3687.955805,-9326.594869,0.000000,306.438199
3687.956135,-9696.697840,74.020594,0.000000
3687.956465,-11177.109724,148.041188,-766.095498
3687.956794,-10510.924376,370.102971,-1608.800546
3687.957124,-9474.636058,0.000000,-842.705048
3687.957454,-8882.471304,0.000000,612.876398
3687.957784,-9178.553681,444.123565,459.657299
3687.958113,-11177.109724,518.144159,-306.438199
3687.958443,-10955.047942,962.267725,-1302.362347
3687.958773,-9548.656652,0.000000,-1608.800546
3687.959103,-8882.471304,-444.123565,76.609550
3687.959433,-8808.450710,74.020594,536.266849
3687.959762,-10732.986159,0.000000,306.438199
3687.960092,-10436.903782,296.082377,-1378.971896
3687.960422,-9400.615463,0.000000,-1532.190996
3687.960752,-9992.780217,-148.041188,-536.266849
3687.961081,-9474.636058,-444.123565,306.438199
3687.961411,-10436.903782,370.102971,1072.533697
3687.961741,-10436.903782,222.061783,229.828649
3687.962071,-8882.471304,0.000000,-536.266849
3687.962401,-8734.430116,-666.185348,0.000000
3687.962730,-9030.512492,0.000000,229.828649
3687.963060,-10732.986159,74.020594,612.876398
3687.963390,-10584.944971,666.185348,536.266849
3687.963720,-9178.553681,74.020594,229.828649
3687.964049,-8734.430116,-370.102971,229.828649
3687.964379,-9030.512492,74.020594,383.047749
3687.964709,-10732.986159,0.000000,1302.362347
3687.965039,-11325.150913,740.205942,306.438199
3687.965369,-9326.594869,296.082377,0.000000
3687.965698,-8808.450710,-296.082377,383.047749
3687.966028,-8438.347739,148.041188,1225.752797
3687.966358,-10066.800811,296.082377,995.924147
3687.966688,-10584.944971,222.061783,306.438199
3687.967018,-9770.718434,296.082377,-459.657299
3687.967347,-9622.677246,296.082377,1149.143247
3687.967677,-8808.450710,0.000000,1608.800546
3687.968007,-9622.677246,0.000000,1378.971896
3687.968337,-10732.986159,518.144159,306.438199
3687.968666,-9844.739029,444.123565,-612.876398
3687.968996,-9548.656652,-370.102971,536.266849
3687.969326,-9178.553681,592.164754,1685.410096
3687.969656,-10066.800811,148.041188,2221.676944
3687.969986,-11251.130318,592.164754,1532.190996
3687.970315,-9918.759623,74.020594,0.000000
3687.970645,-9622.677246,0.000000,0.000000
3687.970975,-9252.574275,222.061783,689.485948
3687.971305,-9474.636058,444.123565,689.485948
3687.971634,-10584.944971,666.185348,689.485948
3687.971964,-10658.965565,1036.288319,459.657299
3687.972294,-10510.924376,518.144159,229.828649
3687.972624,-10140.821405,518.144159,459.657299
3687.972954,-9696.697840,518.144159,-153.219100
3687.973283,-10436.903782,0.000000,-459.657299
3687.973613,-9400.615463,518.144159,-1072.533697
3687.973943,-9474.636058,148.041188,-153.219100
3687.974273,-9400.615463,74.020594,919.314598
3687.974602,-9622.677246,370.102971,229.828649
3687.974932,-11399.171507,0.000000,-612.876398
3687.975262,-10658.965565,592.164754,-1149.143247
3687.975592,-9548.656652,-370.102971,-459.657299
3687.975922,-9252.574275,-666.185348,459.657299
3687.976251,-8512.368333,-592.164754,306.438199
3687.976581,-10140.821405,-666.185348,229.828649
3687.976911,-10214.842000,0.000000,-612.876398
3687.977241,-9474.636058,-222.061783,-919.314598
3687.977571,-9030.512492,-296.082377,0.000000
3687.977901,-8586.388927,-148.041188,0.000000
3687.978231,-10288.862594,-148.041188,0.000000
3687.978561,-10955.047942,0.000000,-459.657299
3687.978890,-10362.883188,-518.144159,-766.095498
3687.979220,-9178.553681,-888.247130,229.828649
3687.979550,-8216.285956,-814.226536,153.219100
3687.979880,-9622.677246,-370.102971,306.438199
3687.980210,-9992.780217,0.000000,0.000000
3687.980540,-9030.512492,296.082377,-766.095498
3687.980870,-9252.574275,-296.082377,0.000000
3687.981200,-8808.450710,0.000000,229.828649
3687.981530,-10807.006753,518.144159,842.705048
3687.981860,-10881.027347,888.247130,76.609550
3687.982190,-9696.697840,222.061783,-612.876398
3687.982519,-9400.615463,-370.102971,-383.047749
3687.982849,-9474.636058,0.000000,0.000000
3687.983179,-10288.862594,74.020594,229.828649
3687.983509,-10881.027347,222.061783,76.609550
3687.983839,-9104.533087,370.102971,383.047749
3687.984169,-8660.409521,-222.061783,919.314598
3687.984499,-8808.450710,148.041188,1072.533697
3687.984829,-9844.739029,222.061783,766.095498
3687.985159,-11251.130318,888.247130,689.485948
3687.985489,-10066.800811,592.164754,-383.047749
3687.985819,-9622.677246,-740.205942,76.609550
3687.986148,-9252.574275,-592.164754,1149.143247
3687.986478,-9696.697840,-296.082377,1991.848295
3687.986808,-10362.883188,0.000000,1455.581446
3687.987138,-9326.594869,0.000000,612.876398
3687.987468,-9326.594869,0.000000,842.705048
3687.987798,-9400.615463,370.102971,1378.971896
3687.988128,-9918.759623,518.144159,1762.019645
3687.988458,-11843.295072,814.226536,1225.752797
3687.988788,-11177.109724,740.205942,0.000000
3687.989118,-10288.862594,74.020594,0.000000
3687.989448,-9548.656652,74.020594,0.000000
3687.989777,-9030.512492,0.000000,383.047749
3687.990107,-10436.903782,222.061783,383.047749
3687.990437,-9400.615463,666.185348,0.000000
3687.990767,-9104.533087,74.020594,-459.657299
3687.991097,-9178.553681,296.082377,-229.828649
3687.991427,-9400.615463,740.205942,0.000000
3687.991757,-11547.212695,444.123565,-229.828649
3687.992087,-10510.924376,370.102971,-1532.190996
3687.992417,-9178.553681,-296.082377,-1532.190996
3687.992747,-9252.574275,-518.144159,0.000000
3687.993077,-9326.594869,-296.082377,842.705048
3687.993406,-10436.903782,-296.082377,919.314598
3687.993736,-10066.800811,-148.041188,0.000000
3687.994066,-9030.512492,-444.123565,0.000000
3687.994396,-9252.574275,-148.041188,689.485948
3687.994726,-8956.491898,222.061783,766.095498
3687.995056,-10362.883188,370.102971,383.047749
3687.995386,-10881.027347,962.267725,-766.095498
3687.995716,-9992.780217,518.144159,-2068.457845
3687.996046,-9844.739029,-74.020594,-1225.752797
3687.996376,-8956.491898,-296.082377,-766.095498
3687.996706,-9844.739029,0.000000,229.828649
3687.997035,-9548.656652,0.000000,612.876398
3687.997365,-8882.471304,0.000000,383.047749
3687.997695,-9474.636058,148.041188,306.438199
3687.998025,-9326.594869,518.144159,689.485948
3687.998355,-10955.047942,740.205942,536.266849
3687.998685,-11399.171507,888.247130,153.219100
3687.999015,-10214.842000,296.082377,0.000000
3687.999345,-9844.739029,-222.061783,766.095498
3687.999675,-9252.574275,-740.205942,1072.533697
3688.000005,-9252.574275,-444.123565,1149.143247
3688.000335,-9622.677246,-444.123565,1149.143247
3688.000665,-9104.533087,222.061783,459.657299
3688.000994,-9400.615463,0.000000,1455.581446
3688.001324,-9474.636058,222.061783,2451.505594
3688.001654,-10214.842000,148.041188,2145.067394
3688.001984,-11621.233289,518.144159,612.876398
3688.002314,-10288.862594,0.000000,-1532.190996
3688.002644,-9548.656652,-740.205942,-1302.362347
3688.002974,-8660.409521,-814.226536,229.828649
3688.003304,-8956.491898,-444.123565,1685.410096
3688.003634,-10732.986159,0.000000,1685.410096
3688.003964,-9770.718434,0.000000,306.438199
3688.004294,-9030.512492,-666.185348,0.000000
3688.004623,-8734.430116,-222.061783,919.314598
3688.004953,-9474.636058,222.061783,1762.019645
3688.005283,-11547.212695,962.267725,1302.362347
3688.005613,-10807.006753,1184.329507,-153.219100
3688.005943,-9844.739029,148.041188,-1608.800546
3688.006273,-10140.821405,0.000000,-1378.971896
3688.006603,-10140.821405,-222.061783,-919.314598
3688.006933,-10658.965565,-444.123565,-383.047749
3688.007263,-8808.450710,-296.082377,-383.047749
3688.007593,-7550.100608,-370.102971,0.000000
3688.007923,-8216.285956,-592.164754,1302.362347
3688.008252,-9252.574275,0.000000,1608.800546
3688.008582,-11177.109724,666.185348,842.705048
3688.008912,-11843.295072,1110.308913,-995.924147
3688.009242,-10436.903782,222.061783,-1838.629195
3688.009572,-10658.965565,-222.061783,-383.047749
3688.009902,-9548.656652,-370.102971,459.657299
3688.010232,-10140.821405,-740.205942,766.095498
3688.010562,-9400.615463,-296.082377,-995.924147
3688.010892,-8142.265362,-370.102971,-1455.581446
3688.011222,-8068.244768,-222.061783,0.000000
3688.011552,-8660.409521,222.061783,1378.971896
3688.011881,-10732.986159,1406.391290,1838.629195
3688.012211,-11769.274478,1036.288319,0.000000
3688.012541,-10658.965565,222.061783,-1608.800546
3688.012871,-9918.759623,-518.144159,-919.314598
3688.013201,-9622.677246,-518.144159,689.485948
3688.013531,-10436.903782,-296.082377,1149.143247
3688.013861,-9474.636058,-370.102971,536.266849
3688.014191,-7698.141797,-370.102971,0.000000
3688.014521,-8438.347739,0.000000,995.924147
3688.014851,-9326.594869,296.082377,1608.800546
3688.015181,-10436.903782,814.226536,1225.752797
3688.015510,-10955.047942,1036.288319,0.000000
3688.015840,-9548.656652,592.164754,-919.314598
3688.016170,-9770.718434,74.020594,459.657299
3688.016500,-9400.615463,0.000000,1455.581446
3688.016830,-10288.862594,0.000000,766.095498
3688.017160,-10140.821405,74.020594,0.000000
3688.017490,-9400.615463,74.020594,-383.047749
3688.017820,-9104.533087,-296.082377,1149.143247
3688.018150,-8734.430116,74.020594,2681.334243
3688.018480,-8808.450710,296.082377,2221.676944
3688.018810,-10140.821405,592.164754,459.657299
3688.019140,-10584.944971,444.123565,-919.314598
3688.019469,-10658.965565,0.000000,-459.657299
3688.019799,-9770.718434,0.000000,919.314598
3688.020129,-9844.739029,0.000000,1225.752797
3688.020459,-10362.883188,-74.020594,919.314598
3688.020789,-9400.615463,-74.020594,0.000000
3688.021119,-9178.553681,-222.061783,842.705048
3688.021449,-9400.615463,0.000000,1838.629195
3688.021779,-9548.656652,370.102971,2528.115143
3688.022109,-11843.295072,962.267725,919.314598
3688.022439,-11251.130318,1036.288319,0.000000
3688.022769,-10658.965565,74.020594,-76.609550
3688.023098,-10214.842000,-222.061783,229.828649
3688.023428,-9622.677246,-370.102971,-536.266849
3688.023758,-9844.739029,-222.061783,-459.657299
3688.024088,-9326.594869,-74.020594,0.000000
3688.024418,-8586.388927,-148.041188,383.047749
3688.024748,-9030.512492,0.000000,842.705048
3688.025078,-9178.553681,296.082377,229.828649
3688.025408,-10510.924376,444.123565,-612.876398
3688.025738,-10881.027347,370.102971,-1455.581446
3688.026068,-10584.944971,0.000000,-1378.971896
3688.026398,-9992.780217,-1036.288319,-153.219100
3688.026727,-8808.450710,-666.185348,0.000000
3688.027057,-9474.636058,-740.205942,-689.485948
3688.027387,-10732.986159,0.000000,-689.485948
3688.027717,-9252.574275,-370.102971,-689.485948
3688.028047,-8290.306550,-740.205942,612.876398
3688.028377,-8068.244768,0.000000,2068.457845
3688.028707,-10362.883188,444.123565,1225.752797
3688.029037,-11991.336260,740.205942,-536.266849
3688.029367,-10732.986159,222.061783,-2451.505594
3688.029697,-9844.739029,-962.267725,-1915.238745
3688.030027,-9030.512492,-888.247130,-919.314598
3688.030356,-8956.491898,-814.226536,766.095498
3688.030686,-10066.800811,-444.123565,1072.533697
3688.031016,-8142.265362,-666.185348,-229.828649
3688.031346,-8142.265362,-814.226536,153.219100
3688.031676,-8660.409521,148.041188,1149.143247
3688.032006,-10436.903782,592.164754,2298.286494
3688.032336,-11547.212695,888.247130,1762.019645
3688.032666,-10658.965565,666.185348,0.000000
3688.032996,-9696.697840,0.000000,-383.047749
3688.033326,-10362.883188,0.000000,-459.657299
3688.033656,-11325.150913,0.000000,-459.657299
3688.033985,-11251.130318,0.000000,-459.657299
3688.034315,-8660.409521,-296.082377,-383.047749
3688.034645,-7031.956449,-888.247130,1072.533697
3688.034975,-7698.141797,-148.041188,2757.943793
3688.035305,-8660.409521,370.102971,2681.334243
3688.035635,-11029.068536,1036.288319,612.876398
3688.035965,-10362.883188,962.267725,-1608.800546
3688.036295,-10214.842000,0.000000,0.000000
3688.036625,-10732.986159,0.000000,1915.238745
3688.036955,-10732.986159,-74.020594,2451.505594
3688.037285,-10807.006753,-518.144159,766.095498
3688.037615,-9326.594869,0.000000,-766.095498
3688.037944,-8438.347739,-740.205942,0.000000
3688.038274,-8734.430116,-370.102971,2068.457845
3688.038604,-8512.368333,444.123565,3064.381992
3688.038934,-10658.965565,1332.370696,2068.457845
3688.039264,-10732.986159,1258.350101,0.000000
3688.039594,-10732.986159,296.082377,-1838.629195
3688.039924,-10807.006753,0.000000,-1072.533697
3688.040254,-10436.903782,74.020594,153.219100
3688.040584,-10510.924376,0.000000,76.609550
3688.040914,-9622.677246,0.000000,-306.438199
3688.041244,-8808.450710,-222.061783,153.219100
3688.041573,-9104.533087,0.000000,995.924147
3688.041903,-9474.636058,444.123565,766.095498
3688.042233,-10584.944971,444.123565,459.657299
3688.042563,-10955.047942,592.164754,-306.438199
3688.042893,-9696.697840,296.082377,-459.657299
3688.043223,-9992.780217,-296.082377,0.000000
3688.043553,-9474.636058,0.000000,-383.047749
3688.043883,-10510.924376,74.020594,-2298.286494
3688.044213,-10807.006753,370.102971,-2068.457845
3688.044543,-9548.656652,74.020594,-919.314598
3688.044873,-9400.615463,-518.144159,766.095498
3688.045202,-8068.244768,-74.020594,1685.410096
3688.045532,-9252.574275,74.020594,689.485948
3688.045862,-10658.965565,1184.329507,-459.657299
3688.046192,-10066.800811,518.144159,-1532.190996
3688.046522,-10214.842000,0.000000,-459.657299
3688.046852,-9770.718434,0.000000,0.000000
3688.047182,-10288.862594,0.000000,459.657299
3688.047512,-10955.047942,-296.082377,76.609550
3688.047842,-9252.574275,-222.061783,-612.876398
3688.048172,-8290.306550,-962.267725,0.000000
3688.048502,-7698.141797,-888.247130,842.705048
3688.048831,-8882.471304,370.102971,1685.410096
3688.049161,-10881.027347,1184.329507,1762.019645
3688.049491,-10955.047942,962.267725,229.828649
3688.049821,-10362.883188,222.061783,76.609550
3688.050151,-10436.903782,222.061783,383.047749
3688.050481,-9992.780217,-74.020594,0.000000
3688.050811,-10584.944971,-296.082377,-229.828649
3688.051141,-8956.491898,-296.082377,-459.657299
3688.051471,-8438.347739,-444.123565,995.924147
3688.051801,-8142.265362,-222.061783,2145.067394
3688.052131,-8808.450710,0.000000,2145.067394
3688.052460,-11843.295072,444.123565,1608.800546
3688.052790,-11251.130318,740.205942,76.609550
3688.053120,-9844.739029,-222.061783,0.000000
3688.053450,-9696.697840,-444.123565,383.047749
3688.053780,-9696.697840,-222.061783,1608.800546
3688.054110,-10436.903782,-222.061783,1608.800546
3688.054440,-9918.759623,-370.102971,612.876398
3688.054770,-8660.409521,-592.164754,153.219100
3688.055100,-9030.512492,-370.102971,1455.581446
3688.055430,-8808.450710,0.000000,1991.848295
3688.055760,-11103.089130,962.267725,1915.238745
3688.056090,-10955.047942,1406.391290,536.266849
3688.056419,-10140.821405,814.226536,-842.705048
3688.056749,-10140.821405,518.144159,-995.924147
3688.057079,-10140.821405,444.123565,-1225.752797
3688.057409,-11473.192101,370.102971,-995.924147
3688.057739,-10807.006753,296.082377,-995.924147
3688.058069,-9326.594869,-148.041188,-689.485948
3688.058399,-8808.450710,0.000000,766.095498
3688.058729,-8364.327145,0.000000,1072.533697
3688.059059,-9918.759623,518.144159,842.705048
3688.059389,-11399.171507,888.247130,229.828649
3688.059719,-11029.068536,518.144159,-306.438199
3688.060048,-11399.171507,222.061783,536.266849
3688.060378,-9696.697840,-148.041188,0.000000
3688.060708,-10214.842000,-666.185348,-459.657299
3688.061038,-10436.903782,-592.164754,-1455.581446
3688.061368,-8956.491898,-814.226536,-1302.362347
3688.061698,-7772.162391,-1332.370696,0.000000
3688.062028,-7179.997637,0.000000,995.924147
3688.062358,-8956.491898,74.020594,1378.971896
3688.062688,-10807.006753,1110.308913,229.828649
3688.063018,-10436.903782,1036.288319,-1455.581446
3688.063348,-10510.924376,0.000000,-1149.143247
3688.063677,-9992.780217,0.000000,-612.876398
3688.064007,-10510.924376,-592.164754,0.000000
3688.064337,-10881.027347,-370.102971,0.000000
3688.064667,-8660.409521,-666.185348,-689.485948
3688.064997,-8216.285956,-962.267725,229.828649
3688.065327,-8290.306550,-666.185348,842.705048
3688.065657,-9622.677246,370.102971,1608.800546
3688.065987,-10436.903782,518.144159,842.705048
3688.066317,-9696.697840,1110.308913,0.000000
3688.066647,-9844.739029,296.082377,76.609550
3688.066977,-10214.842000,370.102971,153.219100
3688.067306,-10732.986159,0.000000,229.828649
3688.067636,-11547.212695,-296.082377,-459.657299
3688.067966,-9844.739029,-370.102971,-919.314598
3688.068296,-8290.306550,-962.267725,0.000000
3688.068626,-8290.306550,-518.144159,1532.190996
3688.068956,-8734.430116,0.000000,2145.067394
3688.069286,-10658.965565,222.061783,1072.533697
3688.069616,-9918.759623,592.164754,0.000000
3688.069946,-9696.697840,0.000000,306.438199
3688.070276,-10214.842000,74.020594,1608.800546
3688.070606,-10214.842000,0.000000,1685.410096
3688.070935,-11473.192101,-222.061783,536.266849
3688.071265,-9770.718434,74.020594,0.000000
3688.071595,-9326.594869,-518.144159,-153.219100
3688.071925,-9178.553681,-444.123565,1608.800546
3688.072255,-9030.512492,222.061783,2451.505594
3688.072585,-10362.883188,740.205942,2451.505594
3688.072915,-11103.089130,1258.350101,536.266849
3688.073245,-10214.842000,592.164754,-1149.143247
3688.073575,-10436.903782,74.020594,-612.876398
3688.073905,-10436.903782,222.061783,-459.657299
3688.074235,-11029.068536,-592.164754,229.828649
3688.074565,-10362.883188,74.020594,-612.876398
3688.074894,-8660.409521,-518.144159,-842.705048
3688.075224,-8660.409521,-592.164754,306.438199
3688.075554,-8438.347739,0.000000,1532.190996
3688.075884,-10140.821405,0.000000,1149.143247
3688.076214,-11177.109724,666.185348,689.485948
3688.076544,-9844.739029,0.000000,0.000000
3688.076874,-9770.718434,-592.164754,459.657299
3688.077204,-9918.759623,-444.123565,-536.266849
3688.077534,-10214.842000,-666.185348,-612.876398
3688.077864,-10584.944971,-296.082377,-1378.971896
3688.078194,-9178.553681,-518.144159,-1532.190996
3688.078523,-9104.533087,-666.185348,0.000000
3688.078853,-8290.306550,-814.226536,842.705048
3688.079183,-8956.491898,-148.041188,536.266849
3688.079513,-10066.800811,222.061783,-536.266849
3688.079843,-9252.574275,370.102971,-1149.143247
3688.080173,-9474.636058,-74.020594,-536.266849
3688.080503,-9474.636058,222.061783,76.609550
3688.080833,-10510.924376,0.000000,306.438199
3688.081163,-11621.233289,0.000000,-383.047749
3688.081493,-9696.697840,0.000000,-1302.362347
3688.081823,-8956.491898,-740.205942,-612.876398
3688.082152,-8512.368333,-222.061783,1149.143247
3688.082482,-9548.656652,148.041188,2451.505594
3688.082812,-10362.883188,888.247130,1991.848295
3688.083142,-9696.697840,1184.329507,-229.828649
3688.083472,-9918.759623,740.205942,-842.705048
3688.083802,-9770.718434,444.123565,0.000000
3688.084132,-10214.842000,592.164754,306.438199
3688.084462,-11177.109724,592.164754,76.609550
3688.084792,-9844.739029,222.061783,-306.438199
3688.085122,-8660.409521,-370.102971,459.657299
3688.085452,-8882.471304,0.000000,2298.286494
3688.085782,-9178.553681,0.000000,1838.629195
3688.086111,-10955.047942,518.144159,1532.190996
3688.086441,-10066.800811,444.123565,76.609550
3688.086771,-9474.636058,0.000000,842.705048
3688.087101,-9474.636058,0.000000,1762.019645
3688.087431,-9548.656652,296.082377,2221.676944
3688.087761,-10881.027347,518.144159,1072.533697
3688.088091,-10881.027347,444.123565,0.000000
3688.088421,-9622.677246,-296.082377,-459.657299
3688.088751,-9548.656652,-370.102971,1225.752797
3688.089081,-9030.512492,0.000000,1532.190996
3688.089411,-9844.739029,0.000000,1072.533697
3688.089741,-9696.697840,814.226536,-383.047749
3688.090070,-9474.636058,814.226536,-1608.800546
3688.090400,-9770.718434,444.123565,-76.609550
3688.090730,-10140.821405,518.144159,306.438199
3688.091060,-11103.089130,74.020594,76.609550
3688.091390,-11029.068536,222.061783,-1149.143247
3688.091720,-9474.636058,222.061783,-1915.238745
3688.092050,-9400.615463,-370.102971,-766.095498
3688.092380,-8808.450710,-296.082377,459.657299
3688.092710,-9844.739029,-148.041188,306.438199
3688.093040,-10066.800811,370.102971,-383.047749
3688.093370,-8808.450710,444.123565,-1225.752797
3688.093699,-9252.574275,-148.041188,0.000000
3688.094029,-9770.718434,444.123565,0.000000
3688.094359,-10732.986159,0.000000,-1072.533697
3688.094689,-11547.212695,296.082377,-1608.800546
3688.095019,-9696.697840,-222.061783,-1532.190996
3688.095349,-9474.636058,-1110.308913,229.828649
3688.095679,-8882.471304,-814.226536,1532.190996
3688.096009,-9252.574275,-592.164754,919.314598
3688.096339,-9918.759623,-148.041188,76.609550
3688.096669,-8956.491898,0.000000,-766.095498
3688.096999,-9622.677246,-740.205942,459.657299
3688.097329,-9696.697840,74.020594,2068.457845
3688.097658,-9844.739029,0.000000,1532.190996
3688.097988,-10881.027347,74.020594,76.609550
3688.098318,-9844.739029,222.061783,-919.314598
3688.098648,-9252.574275,-962.267725,0.000000
3688.098978,-9030.512492,-888.247130,1762.019645
3688.099308,-9104.533087,-296.082377,2221.676944
3688.099638,-10362.883188,222.061783,2604.724693
3688.099968,-9548.656652,444.123565,919.314598
3688.100298,-9474.636058,0.000000,919.314598
3688.100628,-9548.656652,296.082377,1072.533697
3688.100958,-10214.842000,592.164754,612.876398
3688.101287,-11695.253884,666.185348,306.438199
3688.101617,-10807.006753,666.185348,-536.266849
3688.101947,-9326.594869,-370.102971,76.609550
3688.102277,-8882.471304,-222.061783,1072.533697
3688.102607,-8882.471304,370.102971,842.705048
3688.102937,-10436.903782,74.020594,612.876398
3688.103267,-9696.697840,444.123565,76.609550
3688.103597,-9030.512492,-296.082377,995.924147
3688.103927,-10732.986159,444.123565,2681.334243
3688.104257,-10140.821405,444.123565,1991.848295
3688.104587,-11177.109724,296.082377,689.485948
3688.104917,-10362.883188,740.205942,-1225.752797
3688.105246,-9474.636058,296.082377,-995.924147
3688.105576,-9918.759623,74.020594,689.485948
3688.105906,-9104.533087,666.185348,1532.190996
3688.106236,-10288.862594,740.205942,612.876398
3688.106566,-10510.924376,1258.350101,-1149.143247
3688.106896,-9622.677246,814.226536,-1915.238745
3688.107226,-9548.656652,370.102971,-842.705048
3688.107556,-9030.512492,666.185348,306.438199
3688.107886,-10658.965565,666.185348,153.219100
3688.108216,-11103.089130,666.185348,-76.609550
3688.108546,-9844.739029,74.020594,-689.485948
3688.108875,-9696.697840,-370.102971,-153.219100
3688.109205,-9104.533087,0.000000,766.095498
3688.109535,-9844.739029,222.061783,1149.143247
3688.109865,-10214.842000,444.123565,153.219100
3688.110195,-9178.553681,148.041188,-995.924147
3688.110525,-9474.636058,-296.082377,0.000000
3688.110855,-9252.574275,148.041188,0.000000
3688.111185,-9696.697840,74.020594,-536.266849
3688.111515,-10584.944971,444.123565,-1149.143247
3688.111845,-9400.615463,-222.061783,-995.924147
3688.112175,-9474.636058,-1110.308913,76.609550
3688.112505,-8734.430116,74.020594,1532.190996
3688.112834,-9474.636058,0.000000,1149.143247
3688.113164,-10362.883188,0.000000,0.000000
3688.113494,-9326.594869,0.000000,-612.876398
3688.113824,-9030.512492,-222.061783,842.705048
3688.114154,-9178.553681,0.000000,1455.581446
3688.114484,-10066.800811,148.041188,919.314598
3688.114814,-11251.130318,370.102971,-459.657299
3688.115144,-10140.821405,222.061783,-1149.143247
3688.115474,-9548.656652,-444.123565,0.000000
3688.115804,-9326.594869,74.020594,1455.581446
3688.116134,-9326.594869,222.061783,1302.362347
3688.116463,-10584.944971,444.123565,919.314598
3688.116793,-9474.636058,1110.308913,383.047749
3688.117123,-9326.594869,148.041188,306.438199
3688.117453,-10288.862594,370.102971,995.924147
3688.117783,-10214.842000,370.102971,459.657299
3688.118113,-11103.089130,0.000000,459.657299
3688.118443,-10214.842000,222.061783,0.000000
3688.118773,-9474.636058,-444.123565,1225.752797
3688.119103,-9326.594869,-370.102971,1915.238745
3688.119433,-8734.430116,-74.020594,1378.971896
3688.119763,-10214.842000,0.000000,689.485948
3688.120093,-10214.842000,444.123565,306.438199
3688.120422,-9622.677246,0.000000,612.876398
3688.120752,-9622.677246,-148.041188,1455.581446
3688.121082,-8808.450710,148.041188,995.924147
3688.121412,-10214.842000,296.082377,919.314598
3688.121742,-10288.862594,592.164754,-76.609550
3688.122072,-9474.636058,74.020594,76.609550
3688.122402,-9696.697840,148.041188,76.609550
3688.122732,-9918.759623,296.082377,766.095498
3688.123062,-10510.924376,-370.102971,306.438199
3688.123392,-10584.944971,296.082377,-153.219100
3688.123722,-8882.471304,296.082377,-459.657299
3688.124051,-9178.553681,-222.061783,-153.219100
3688.124381,-8660.409521,370.102971,-459.657299
3688.124711,-10584.944971,370.102971,-842.705048
3688.125041,-11695.253884,592.164754,-919.314598
3688.125371,-10584.944971,222.061783,-1378.971896
3688.125701,-10362.883188,-666.185348,-1072.533697
3688.126031,-8956.491898,-666.185348,-229.828649
3688.126361,-9178.553681,-518.144159,153.219100
3688.126691,-10288.862594,0.000000,229.828649
3688.127021,-9474.636058,0.000000,76.609550
3688.127351,-9770.718434,-592.164754,76.609550
3688.127681,-9696.697840,0.000000,229.828649
3688.128010,-10214.842000,222.061783,0.000000
3688.128340,-11251.130318,0.000000,0.000000
3688.128670,-9622.677246,0.000000,-612.876398
3688.129000,-9400.615463,-666.185348,-153.219100
3688.129330,-8956.491898,-444.123565,-306.438199
3688.129660,-9326.594869,-222.061783,-383.047749
3688.129990,-10955.047942,296.082377,-229.828649
3688.130320,-9844.739029,370.102971,-459.657299
3688.130650,-9030.512492,-888.247130,383.047749
3688.130980,-9104.533087,-296.082377,1072.533697
3688.131310,-9992.780217,-222.061783,1302.362347
3688.131639,-11103.089130,-148.041188,1608.800546
3688.131969,-9844.739029,-148.041188,842.705048
3688.132299,-9104.533087,-592.164754,306.438199
3688.132629,-9178.553681,-444.123565,1378.971896
3688.132959,-9252.574275,0.000000,1762.019645
3688.133289,-11103.089130,370.102971,1225.752797
3688.133619,-9548.656652,592.164754,-153.219100
3688.133949,-8734.430116,-370.102971,-995.924147
3688.134279,-8956.491898,0.000000,229.828649
3688.134609,-9178.553681,296.082377,612.876398
3688.134939,-10658.965565,148.041188,536.266849
3688.135269,-9770.718434,444.123565,153.219100
3688.135598,-8956.491898,-222.061783,-689.485948
3688.135928,-9992.780217,0.000000,76.609550
3688.136258,-9474.636058,74.020594,229.828649
3688.136588,-10658.965565,0.000000,766.095498
3688.136918,-10066.800811,370.102971,766.095498
3688.137248,-8882.471304,-370.102971,842.705048
3688.137578,-9918.759623,74.020594,1991.848295
3688.137908,-8956.491898,0.000000,1532.190996
3688.138238,-10584.944971,148.041188,0.000000
3688.138568,-10510.924376,444.123565,-459.657299
3688.138898,-9992.780217,0.000000,-229.828649
3688.139227,-10140.821405,0.000000,1072.533697
3688.139557,-9474.636058,222.061783,1378.971896
3688.139887,-10436.903782,74.020594,536.266849
3688.140217,-11177.109724,666.185348,-766.095498
3688.140547,-9474.636058,0.000000,-1685.410096
3688.140877,-8956.491898,-962.267725,-766.095498
3688.141207,-9178.553681,518.144159,766.095498
3688.141537,-10214.842000,296.082377,689.485948
3688.141867,-10658.965565,370.102971,-153.219100
3688.142197,-9474.636058,148.041188,-1149.143247
3688.142527,-10066.800811,-296.082377,-1072.533697
3688.142857,-9474.636058,296.082377,0.000000
3688.143186,-9992.780217,148.041188,919.314598
3688.143516,-11029.068536,296.082377,1072.533697
3688.143846,-9548.656652,148.041188,229.828649
3688.144176,-9548.656652,-740.205942,-153.219100
3688.144506,-9178.553681,0.000000,-229.828649
3688.144836,-9474.636058,-296.082377,0.000000
3688.145166,-10436.903782,0.000000,536.266849
3688.145496,-9474.636058,74.020594,0.000000
3688.145826,-9252.574275,-296.082377,153.219100
3688.146156,-8882.471304,-148.041188,76.609550
3688.146486,-9474.636058,74.020594,-689.485948
3688.146815,-11177.109724,370.102971,-306.438199
3688.147145,-9770.718434,296.082377,-76.609550
3688.147475,-8882.471304,-592.164754,229.828649
3688.147805,-8734.430116,74.020594,1378.971896
3688.148135,-9696.697840,74.020594,1072.533697
3688.148465,-10584.944971,74.020594,612.876398
3688.148795,-9474.636058,518.144159,-306.438199
3688.149125,-9030.512492,0.000000,-153.219100
3688.149455,-9030.512492,0.000000,766.095498
3688.149785,-9178.553681,740.205942,995.924147
3688.150115,-10362.883188,888.247130,459.657299
3688.150445,-10066.800811,1110.308913,-459.657299
3688.150774,-9844.739029,518.144159,-536.266849
3688.151104,-10436.903782,148.041188,229.828649
3688.151434,-9696.697840,296.082377,995.924147
3688.151764,-10362.883188,148.041188,1225.752797
3688.152094,-9326.594869,1184.329507,919.314598
3688.152424,-8660.409521,0.000000,229.828649
3688.152754,-9770.718434,296.082377,1302.362347
3688.153084,-9844.739029,592.164754,1455.581446
3688.153414,-11251.130318,740.205942,842.705048
3688.153744,-10732.986159,444.123565,153.219100
3688.154074,-9992.780217,-74.020594,-229.828649
3688.154403,-9918.759623,-222.061783,995.924147
3688.154733,-9548.656652,-370.102971,1455.581446
3688.155063,-10214.842000,-296.082377,842.705048
3688.155393,-9696.697840,0.000000,153.219100
3688.155723,-9178.553681,-148.041188,76.609550
3688.156053,-10066.800811,-444.123565,1225.752797
3688.156383,-10066.800811,370.102971,2145.067394
3688.156713,-10658.965565,-296.082377,919.314598
3688.157043,-10436.903782,0.000000,-459.657299
3688.157373,-9548.656652,-444.123565,-1225.752797
3688.157703,-9770.718434,-592.164754,153.219100
3688.158033,-9548.656652,-370.102971,842.705048
3688.158362,-10584.944971,-148.041188,689.485948
3688.158692,-10584.944971,0.000000,0.000000
3688.159022,-8956.491898,-518.144159,-1608.800546
3688.159352,-9252.574275,-518.144159,-612.876398
3688.159682,-9252.574275,-592.164754,766.095498
3688.160012,-10436.903782,-370.102971,383.047749
3688.160342,-10288.862594,-296.082377,-459.657299
3688.160672,-8808.450710,-592.164754,-1455.581446
3688.161002,-9622.677246,-666.185348,-842.705048
3688.161332,-9326.594869,0.000000,-459.657299
3688.161662,-9844.739029,-296.082377,-1072.533697
3688.161991,-10214.842000,222.061783,-1225.752797
3688.162321,-9178.553681,0.000000,-1838.629195
3688.162651,-9252.574275,-666.185348,-612.876398
3688.162981,-8956.491898,-592.164754,459.657299
3688.163311,-9548.656652,-370.102971,1072.533697
3688.163641,-10807.006753,148.041188,459.657299
3688.163971,-9918.759623,296.082377,-612.876398
3688.164301,-9252.574275,-444.123565,-306.438199
3688.164631,-9104.533087,0.000000,766.095498
3688.164961,-8956.491898,370.102971,1532.190996
3688.165291,-10436.903782,592.164754,766.095498
3688.165621,-9548.656652,592.164754,0.000000
3688.165950,-9104.533087,74.020594,0.000000
3688.166280,-9326.594869,222.061783,919.314598
3688.166610,-9918.759623,148.041188,842.705048
3688.166940,-11029.068536,518.144159,689.485948
3688.167270,-9844.739029,814.226536,919.314598
3688.167600,-9326.594869,74.020594,689.485948
3688.167930,-9992.780217,74.020594,1455.581446
3688.168260,-9844.739029,222.061783,1149.143247
3688.168590,-10807.006753,444.123565,1455.581446
3688.168920,-9844.739029,888.247130,919.314598
3688.169250,-9400.615463,0.000000,766.095498
3688.169579,-9326.594869,148.041188,1302.362347
3688.169909,-8734.430116,222.061783,919.314598
3688.170239,-10362.883188,370.102971,689.485948
3688.170569,-10732.986159,1036.288319,-919.314598
3688.170899,-9400.615463,222.061783,-306.438199
3688.171229,-9326.594869,0.000000,612.876398
3688.171559,-9178.553681,222.061783,1378.971896
3688.171889,-10510.924376,666.185348,1302.362347
3688.172219,-10807.006753,814.226536,306.438199
3688.172549,-9474.636058,444.123565,-306.438199
3688.172879,-9178.553681,222.061783,1072.533697
3688.173209,-9622.677246,888.247130,919.314598
3688.173538,-11251.130318,1332.370696,459.657299
3688.173868,-11325.150913,888.247130,-536.266849
3688.174198,-9548.656652,148.041188,-1455.581446
3688.174528,-9474.636058,74.020594,-612.876398
3688.174858,-9030.512492,740.205942,-459.657299
3688.175188,-10584.944971,370.102971,0.000000
3688.175518,-10658.965565,666.185348,-306.438199
3688.175848,-9474.636058,222.061783,-536.266849
3688.176178,-9696.697840,296.082377,229.828649
3688.176508,-9992.780217,222.061783,919.314598
3688.176838,-10807.006753,666.185348,229.828649
3688.177167,-10807.006753,666.185348,-306.438199
3688.177497,-9474.636058,370.102971,-1608.800546
3688.177827,-9548.656652,-444.123565,-842.705048
3688.178157,-9696.697840,0.000000,0.000000
3688.178487,-10288.862594,-370.102971,153.219100
3688.178817,-10362.883188,-592.164754,-612.876398
3688.179147,-8586.388927,-370.102971,-1149.143247
3688.179476,-8068.244768,-1332.370696,0.000000
3688.179806,-7920.203579,-888.247130,1455.581446
3688.180136,-9178.553681,0.000000,1838.629195
3688.180466,-11103.089130,222.061783,1072.533697
3688.180796,-10658.965565,222.061783,-459.657299
3688.181126,-10288.862594,-296.082377,-76.609550
3688.181455,-10140.821405,-444.123565,536.266849
3688.181785,-9918.759623,-518.144159,76.609550
3688.182115,-9918.759623,-370.102971,-229.828649
3688.182445,-8142.265362,-592.164754,-229.828649
3688.182775,-7846.182985,-518.144159,536.266849
3688.183104,-8956.491898,148.041188,1225.752797
3688.183434,-9104.533087,518.144159,459.657299
3688.183764,-11177.109724,518.144159,76.609550
3688.184094,-10658.965565,370.102971,-612.876398
3688.184424,-9918.759623,-296.082377,153.219100
3688.184753,-9844.739029,-1036.288319,2068.457845
3688.185083,-9326.594869,-592.164754,1455.581446
3688.185413,-9992.780217,-592.164754,995.924147
3688.185743,-9622.677246,0.000000,383.047749
3688.186073,-9104.533087,-666.185348,689.485948
3688.186402,-9326.594869,-370.102971,1532.190996
3688.186732,-9252.574275,74.020594,1762.019645
3688.187062,-11177.109724,296.082377,612.876398
3688.187392,-10732.986159,370.102971,-766.095498
3688.187722,-9252.574275,0.000000,-383.047749
3688.188052,-9474.636058,0.000000,766.095498
3688.188381,-9992.780217,148.041188,995.924147
3688.188711,-11547.212695,0.000000,229.828649
3688.189041,-10658.965565,-222.061783,-536.266849
3688.189371,-9252.574275,-666.185348,0.000000
3688.189701,-8956.491898,-592.164754,1302.362347
3688.190030,-8734.430116,-518.144159,1685.410096
3688.190360,-9992.780217,0.000000,1991.848295
3688.190690,-10807.006753,814.226536,306.438199
3688.191020,-10584.944971,296.082377,-612.876398
3688.191350,-10955.047942,0.000000,-306.438199
3688.191679,-10584.944971,0.000000,-306.438199
3688.192009,-10140.821405,-666.185348,-612.876398
3688.192339,-9992.780217,0.000000,-919.314598
3688.192669,-8290.306550,-444.123565,-1225.752797
3688.192999,-8882.471304,-370.102971,-689.485948
3688.193329,-8216.285956,296.082377,536.266849
3688.193658,-9770.718434,518.144159,-229.828649
3688.193988,-11103.089130,1036.288319,-766.095498
3688.194318,-10510.924376,518.144159,-1378.971896
3688.194648,-10362.883188,-296.082377,-306.438199
3688.194978,-9622.677246,-370.102971,-229.828649
3688.195307,-10140.821405,-592.164754,76.609550
3688.195637,-10584.944971,-370.102971,0.000000
3688.195967,-8882.471304,74.020594,0.000000
3688.196297,-7994.224174,-666.185348,306.438199
3688.196627,-8660.409521,370.102971,919.314598
3688.196956,-9622.677246,370.102971,0.000000
3688.197286,-10881.027347,740.205942,-766.095498
3688.197616,-10140.821405,1332.370696,-1532.190996
3688.197946,-9474.636058,148.041188,-306.438199
3688.198276,-9474.636058,296.082377,842.705048
3688.198605,-9104.533087,148.041188,459.657299
3688.198935,-10658.965565,444.123565,229.828649
3688.199265,-9474.636058,370.102971,-459.657299
3688.199595,-8882.471304,0.000000,306.438199
3688.199925,-8882.471304,296.082377,1838.629195
3688.200255,-9030.512492,814.226536,2451.505594
3688.200584,-10510.924376,1036.288319,1915.238745
3688.200914,-10955.047942,1628.453072,0.000000
3688.201244,-10214.842000,740.205942,-766.095498
3688.201574,-10066.800811,370.102971,76.609550
3688.201904,-9252.574275,666.185348,766.095498
3688.202233,-10584.944971,370.102971,1455.581446
3688.202563,-10214.842000,370.102971,1225.752797
3688.202893,-8808.450710,0.000000,919.314598
3688.203223,-8586.388927,222.061783,1762.019645
3688.203553,-9030.512492,370.102971,1149.143247
3688.203882,-11029.068536,814.226536,1608.800546
3688.204212,-11251.130318,1110.308913,995.924147
3688.204542,-9992.780217,814.226536,536.266849
3688.204872,-10436.903782,0.000000,1302.362347
3688.205202,-10436.903782,74.020594,612.876398
3688.205531,-10807.006753,-222.061783,-383.047749
3688.205861,-9992.780217,0.000000,0.000000
3688.206191,-7920.203579,-592.164754,76.609550
3688.206521,-8290.306550,-444.123565,1378.971896
3688.206851,-8512.368333,0.000000,1532.190996
3688.207181,-10658.965565,148.041188,536.266849
3688.207510,-11399.171507,814.226536,-919.314598
3688.207840,-9992.780217,296.082377,-1915.238745
3688.208170,-10288.862594,-370.102971,-919.314598
3688.208500,-9844.739029,0.000000,459.657299
3688.208830,-10214.842000,-518.144159,842.705048
3688.209159,-10584.944971,-518.144159,-383.047749
3688.209489,-8956.491898,-592.164754,-1072.533697
3688.209819,-9252.574275,-740.205942,76.609550
3688.210149,-8660.409521,-296.082377,536.266849
3688.210479,-9178.553681,0.000000,689.485948
3688.210808,-10658.965565,444.123565,-229.828649
3688.211138,-9844.739029,666.185348,-1685.410096
3688.211468,-10066.800811,0.000000,-1149.143247
3688.211798,-9992.780217,-148.041188,-1072.533697
3688.212128,-10362.883188,-74.020594,-842.705048
3688.212458,-11769.274478,-222.061783,-919.314598
3688.212787,-9696.697840,-148.041188,-612.876398
3688.213117,-8068.244768,-1702.473667,383.047749
3688.213447,-7772.162391,-370.102971,919.314598
3688.213777,-8734.430116,0.000000,919.314598
3688.214107,-11473.192101,666.185348,383.047749
3688.214436,-10807.006753,444.123565,-76.609550
3688.214766,-9770.718434,0.000000,0.000000
3688.215096,-10214.842000,0.000000,919.314598
3688.215426,-10362.883188,-444.123565,536.266849
3688.215756,-10584.944971,-518.144159,229.828649
3688.216085,-8956.491898,-296.082377,-383.047749
3688.216415,-7698.141797,-962.267725,0.000000
3688.216745,-8586.388927,-222.061783,1608.800546
3688.217075,-9252.574275,370.102971,2374.896044
3688.217405,-10955.047942,370.102971,1838.629195
3688.217734,-10807.006753,814.226536,1149.143247
3688.218064,-9918.759623,0.000000,153.219100
3688.218394,-10140.821405,0.000000,-153.219100
3688.218724,-9696.697840,-148.041188,0.000000
3688.219054,-10140.821405,-370.102971,536.266849
3688.219384,-9474.636058,-296.082377,383.047749
3688.219713,-8438.347739,-370.102971,689.485948
3688.220043,-9030.512492,-148.041188,1302.362347
3688.220373,-8512.368333,0.000000,1072.533697
3688.220703,-9918.759623,148.041188,689.485948
3688.221033,-10362.883188,740.205942,536.266849
3688.221362,-9474.636058,222.061783,383.047749
3688.221692,-9992.780217,-370.102971,1149.143247
3688.222022,-9770.718434,296.082377,689.485948
3688.222352,-10510.924376,0.000000,-766.095498
3688.222682,-10881.027347,0.000000,-1149.143247
3688.223011,-9844.739029,0.000000,0.000000
3688.223341,-9178.553681,-296.082377,1455.581446
3688.223671,-8512.368333,148.041188,1608.800546
3688.224001,-9474.636058,592.164754,689.485948
3688.224331,-10881.027347,1332.370696,-459.657299
3688.224660,-10510.924376,888.247130,-1149.143247
3688.224990,-11177.109724,370.102971,-1149.143247
3688.225320,-10362.883188,222.061783,-459.657299
3688.225650,-10732.986159,74.020594,-306.438199
3688.225980,-11029.068536,-296.082377,-689.485948
3688.226310,-9104.533087,-370.102971,-1455.581446
3688.226639,-7994.224174,-740.205942,-689.485948
3688.226969,-8216.285956,148.041188,536.266849
3688.227299,-9252.574275,-222.061783,1149.143247
3688.227629,-11177.109724,740.205942,1991.848295
3688.227959,-10362.883188,888.247130,766.095498
3688.228288,-10140.821405,-518.144159,0.000000
3688.228618,-10214.842000,-222.061783,-612.876398
3688.228948,-10214.842000,-666.185348,-842.705048
3688.229278,-10658.965565,-814.226536,-612.876398
3688.229608,-9104.533087,-592.164754,-689.485948
3688.229937,-8216.285956,-1406.391290,383.047749
3688.230267,-7994.224174,-740.205942,1685.410096
3688.230597,-8882.471304,-222.061783,919.314598
3688.230927,-10066.800811,0.000000,536.266849
3688.231257,-9844.739029,592.164754,-612.876398
3688.231587,-9474.636058,-222.061783,76.609550
3688.231916,-9548.656652,-370.102971,459.657299
3688.232246,-9770.718434,-444.123565,995.924147
3688.232576,-11399.171507,-296.082377,459.657299
3688.232906,-10066.800811,148.041188,0.000000
3688.233236,-8216.285956,-296.082377,-1149.143247
3688.233565,-7920.203579,-296.082377,306.438199
3688.233895,-8512.368333,518.144159,1685.410096
3688.234225,-10658.965565,1036.288319,1915.238745
3688.234555,-10658.965565,1184.329507,689.485948
3688.234885,-9844.739029,592.164754,-306.438199
3688.235214,-10510.924376,0.000000,0.000000
3688.235544,-10362.883188,370.102971,1072.533697
3688.235874,-10955.047942,370.102971,919.314598
3688.236204,-10732.986159,666.185348,229.828649
3688.236534,-9178.553681,0.000000,383.047749
3688.236863,-9326.594869,222.061783,1225.752797
3688.237193,-8808.450710,222.061783,1378.971896
3688.237523,-9844.739029,592.164754,1455.581446
3688.237853,-10436.903782,1184.329507,689.485948
3688.238183,-9696.697840,592.164754,-536.266849
3688.238513,-10436.903782,148.041188,0.000000
3688.238842,-9918.759623,0.000000,229.828649
3688.239172,-11177.109724,0.000000,459.657299
3688.239502,-11029.068536,148.041188,919.314598
3688.239832,-8956.491898,222.061783,229.828649
3688.240162,-8216.285956,-518.144159,919.314598
3688.240491,-8142.265362,0.000000,1838.629195
3688.240821,-10436.903782,518.144159,1762.019645
3688.241151,-11325.150913,518.144159,1072.533697
3688.241481,-9400.615463,370.102971,-842.705048
3688.241811,-9400.615463,-296.082377,-766.095498
3688.242140,-9622.677246,0.000000,-459.657299
3688.242470,-10288.862594,-518.144159,-919.314598
3688.242800,-10140.821405,-740.205942,-1225.752797
3688.243130,-8142.265362,-888.247130,-919.314598
3688.243460,-8364.327145,-888.247130,459.657299
3688.243789,-8808.450710,-370.102971,1838.629195
3688.244119,-9400.615463,-222.061783,1072.533697
3688.244449,-9844.739029,148.041188,153.219100
3688.244779,-10140.821405,222.061783,-1072.533697
3688.245109,-10955.047942,-222.061783,-842.705048
3688.245439,-10214.842000,-148.041188,0.000000
3688.245768,-9400.615463,-74.020594,-612.876398
3688.246098,-10658.965565,0.000000,-1532.190996
3688.246428,-10288.862594,296.082377,-1991.848295
3688.246758,-9474.636058,-814.226536,-1915.238745
3688.247088,-8808.450710,74.020594,-229.828649
3688.247417,-8734.430116,74.020594,153.219100
3688.247747,-10807.006753,222.061783,1072.533697
3688.248077,-10140.821405,444.123565,689.485948
3688.248407,-9622.677246,0.000000,229.828649
3688.248737,-9696.697840,222.061783,689.485948
3688.249066,-10807.006753,222.061783,766.095498
3688.249396,-11991.336260,148.041188,229.828649
3688.249726,-10807.006753,296.082377,0.000000
3688.250056,-9474.636058,74.020594,153.219100
3688.250386,-9030.512492,-222.061783,1149.143247
3688.250716,-8290.306550,0.000000,995.924147
3688.251045,-9030.512492,222.061783,536.266849
3688.251375,-9696.697840,740.205942,0.000000
3688.251705,-9474.636058,148.041188,153.219100
3688.252035,-9622.677246,0.000000,1302.362347
3688.252365,-9326.594869,148.041188,1762.019645
3688.252694,-11251.130318,148.041188,1608.800546
3688.253024,-10955.047942,370.102971,612.876398
3688.253354,-9400.615463,-444.123565,612.876398
3688.253684,-9178.553681,-518.144159,1532.190996
3688.254014,-8586.388927,0.000000,2451.505594
3688.254343,-10140.821405,666.185348,1991.848295
3688.254673,-10214.842000,666.185348,919.314598
3688.255003,-9030.512492,592.164754,-536.266849
3688.255333,-8882.471304,-222.061783,0.000000
3688.255663,-9400.615463,444.123565,0.000000
3688.255992,-10362.883188,370.102971,306.438199
3688.256322,-10510.924376,444.123565,0.000000
3688.256652,-9622.677246,0.000000,-612.876398
3688.256982,-10066.800811,-740.205942,229.828649
3688.257312,-9548.656652,-222.061783,995.924147
3688.257642,-9844.739029,-148.041188,995.924147
3688.257971,-10658.965565,962.267725,76.609550
3688.258301,-9178.553681,370.102971,-383.047749
3688.258631,-9622.677246,74.020594,0.000000
3688.258961,-9918.759623,592.164754,536.266849
3688.259291,-11251.130318,444.123565,-306.438199
3688.259620,-11843.295072,222.061783,-1838.629195
3688.259950,-10584.944971,370.102971,-2757.943793
3688.260280,-9178.553681,-1036.288319,-1378.971896
3688.260610,-8216.285956,-666.185348,306.438199
3688.260940,-8734.430116,-370.102971,919.314598
3688.261269,-10436.903782,296.082377,1072.533697
3688.261599,-9548.656652,222.061783,-919.314598
3688.261929,-10436.903782,-148.041188,-689.485948
3688.262259,-10732.986159,0.000000,689.485948
3688.262589,-10436.903782,0.000000,306.438199
3688.262918,-10510.924376,0.000000,-766.095498
3688.263248,-8660.409521,-444.123565,-1762.019645
3688.263578,-8512.368333,-1036.288319,-919.314598
3688.263908,-9104.533087,-518.144159,689.485948
3688.264238,-9918.759623,222.061783,1072.533697
3688.264568,-10807.006753,74.020594,76.609550
3688.264897,-9474.636058,222.061783,-383.047749
3688.265227,-9030.512492,-296.082377,76.609550
3688.265557,-9844.739029,-74.020594,1455.581446
3688.265887,-9696.697840,74.020594,1991.848295
3688.266217,-10955.047942,-222.061783,766.095498
3688.266546,-9992.780217,0.000000,-536.266849
3688.266876,-9104.533087,-740.205942,-536.266849
3688.267206,-9104.533087,-814.226536,842.705048
3688.267536,-8734.430116,-518.144159,1838.629195
3688.267866,-9992.780217,74.020594,2145.067394
3688.268195,-10066.800811,666.185348,612.876398
3688.268525,-8956.491898,74.020594,842.705048
3688.268855,-9622.677246,148.041188,1378.971896
3688.269185,-9918.759623,370.102971,1225.752797
3688.269515,-11399.171507,370.102971,229.828649
3688.269845,-11325.150913,370.102971,-383.047749
3688.270174,-9548.656652,-296.082377,-459.657299
3688.270504,-8882.471304,-444.123565,766.095498
3688.270834,-8290.306550,0.000000,689.485948
3688.271164,-9104.533087,74.020594,842.705048
3688.271494,-9696.697840,962.267725,153.219100
3688.271823,-9104.533087,814.226536,76.609550
3688.272153,-9992.780217,296.082377,919.314598
3688.272483,-10288.862594,592.164754,1838.629195
3688.272813,-11325.150913,370.102971,766.095498
3688.273143,-11843.295072,370.102971,76.609550
3688.273472,-10140.821405,296.082377,0.000000
3688.273802,-9622.677246,-222.061783,919.314598
3688.274132,-8142.265362,222.061783,995.924147
3688.274462,-9400.615463,518.144159,1072.533697
3688.274792,-10807.006753,888.247130,153.219100
3688.275121,-9696.697840,518.144159,-995.924147
3688.275451,-8882.471304,0.000000,-76.609550
3688.275781,-9030.512492,222.061783,536.266849
3688.276111,-10214.842000,296.082377,536.266849
3688.276441,-11399.171507,370.102971,229.828649
3688.276771,-10140.821405,0.000000,-766.095498
3688.277100,-9474.636058,-666.185348,-229.828649
3688.277430,-9326.594869,-518.144159,0.000000
3688.277760,-9548.656652,-148.041188,153.219100
3688.278090,-10288.862594,148.041188,76.609550
3688.278420,-8956.491898,518.144159,-536.266849
3688.278750,-8956.491898,0.000000,-919.314598
