#time,accel_x,accel_y,accel_z
3699.669953,-10362.883188,-1998.556043,-1532.190996
3699.670283,-9178.553681,-2368.659014,-1532.190996
3699.670613,-8586.388927,-1998.556043,-1991.848295
3699.670943,-9918.759623,-1628.453072,-1532.190996
3699.671274,-10288.862594,-666.185348,-2221.676944
3699.671604,-9178.553681,-1184.329507,-2987.772442
3699.671934,-8808.450710,-370.102971,-2451.505594
3699.672264,-9400.615463,-814.226536,-1838.629195
3699.672594,-10066.800811,-740.205942,-1762.019645
3699.672924,-9696.697840,-1258.350101,-1685.410096
3699.673254,-10362.883188,-1406.391290,-1378.971896
3699.673584,-10214.842000,-888.247130,-229.828649
3699.673914,-10807.006753,-1184.329507,0.000000
3699.674244,-10140.821405,-962.267725,-459.657299
3699.674574,-8956.491898,-592.164754,-1608.800546
3699.674905,-9030.512492,-296.082377,-1532.190996
3699.675235,-9770.718434,0.000000,-1762.019645
3699.675565,-9844.739029,148.041188,-1532.190996
3699.675895,-9474.636058,444.123565,-1915.238745
3699.676225,-9548.656652,592.164754,-2221.676944
3699.676555,-9992.780217,-296.082377,-1685.410096
3699.676885,-9844.739029,-222.061783,-1532.190996
3699.677215,-9844.739029,-1110.308913,-459.657299
3699.677545,-9474.636058,-2294.638420,-612.876398
3699.677875,-10732.986159,-1998.556043,689.485948
3699.678205,-8882.471304,-148.041188,1685.410096
3699.678536,-9400.615463,296.082377,0.000000
3699.678866,-11251.130318,1332.370696,-995.924147
3699.679196,-9844.739029,444.123565,-1685.410096
3699.679526,-10288.862594,370.102971,-3447.429741
3699.679856,-11399.171507,-518.144159,-4519.963438
3699.680186,-11251.130318,-1110.308913,-2987.772442
3699.680516,-9326.594869,-1776.494261,-1915.238745
3699.680846,-7920.203579,-3034.844362,-1915.238745
3699.681176,-7031.956449,-3182.885551,-995.924147
3699.681506,-7550.100608,-2368.659014,-459.657299
3699.681836,-9474.636058,-1480.411884,-306.438199
3699.682166,-10881.027347,-666.185348,-536.266849
3699.682497,-11843.295072,-592.164754,-1225.752797
3699.682827,-12139.377449,-962.267725,-2221.676944
3699.683157,-12361.439231,-1924.535449,-2681.334243
3699.683487,-11769.274478,-2886.803174,-3217.601092
3699.683817,-9918.759623,-3701.029710,-3907.087040
3699.684147,-8586.388927,-4071.132681,-4903.011187
3699.684477,-7550.100608,-3923.091493,-4903.011187
3699.684807,-7920.203579,-4219.173869,-4519.963438
3699.685137,-8142.265362,-3997.112087,-2987.772442
3699.685467,-8586.388927,-3701.029710,-1762.019645
3699.685797,-9918.759623,-2442.679609,-1149.143247
3699.686128,-10288.862594,-3256.906145,-2757.943793
3699.686458,-9992.780217,-4367.215058,-4060.306139
3699.686788,-10436.903782,-4219.173869,-3294.210641
3699.687118,-11843.295072,-4515.256246,-1915.238745
3699.687448,-12065.356855,-4737.318029,-1608.800546
3699.687778,-10584.944971,-5181.441594,-3140.991542
3699.688108,-8734.430116,-5773.606348,-5209.449386
3699.688438,-8438.347739,-5403.503377,-4903.011187
3699.688768,-8364.327145,-5033.400406,-3140.991542
3699.689098,-8290.306550,-4441.235652,-1915.238745
3699.689428,-7994.224174,-4071.132681,-1149.143247
3699.689759,-8438.347739,-3404.947333,-1149.143247
3699.690089,-10807.006753,-2442.679609,-2604.724693
3699.690419,-12213.398043,-2812.782580,-5132.839837
3699.690749,-12583.501014,-4367.215058,-5515.887586
3699.691079,-11695.253884,-5551.544565,-3370.820191
3699.691409,-10288.862594,-6587.832884,-995.924147
3699.691739,-8882.471304,-7105.977043,919.314598
3699.692069,-7772.162391,-6217.729913,1762.019645
3699.692399,-7550.100608,-4441.235652,0.000000
3699.692729,-7994.224174,-2812.782580,-2834.553343
3699.693058,-8586.388927,-2220.617826,-3983.696590
3699.693388,-9844.739029,-1702.473667,-2987.772442
3699.693718,-11251.130318,-1406.391290,-842.705048
3699.694048,-11103.089130,-2072.576638,229.828649
3699.694377,-10955.047942,-2664.741391,-1991.848295
3699.694707,-11399.171507,-3256.906145,-3677.258390
3699.695037,-10510.924376,-4071.132681,-3677.258390
3699.695367,-9770.718434,-3775.050304,-2374.896044
3699.695696,-9030.512492,-3627.009116,383.047749
3699.696026,-8068.244768,-2886.803174,2145.067394
3699.696356,-7994.224174,-1184.329507,2374.896044
3699.696686,-8882.471304,-592.164754,76.609550
3699.697015,-8882.471304,0.000000,-2145.067394
3699.697345,-9178.553681,-148.041188,-1915.238745
3699.697675,-10584.944971,0.000000,0.000000
3699.698005,-11843.295072,-370.102971,2604.724693
3699.698334,-12953.603985,0.000000,2374.896044
3699.698664,-10955.047942,-888.247130,-1532.190996
3699.698994,-9474.636058,-1036.288319,-4443.353888
3699.699324,-9400.615463,-814.226536,-3677.258390
3699.699653,-9696.697840,-444.123565,76.609550
3699.699983,-8956.491898,1258.350101,3524.039291
3699.700313,-9030.512492,1998.556043,3830.477490
3699.700643,-8216.285956,2368.659014,76.609550
3699.700972,-8956.491898,1702.473667,-2604.724693
3699.701302,-10288.862594,1850.514855,-3907.087040
3699.701632,-11325.150913,1850.514855,-1072.533697
3699.701962,-11769.274478,1258.350101,919.314598
3699.702291,-9844.739029,1480.411884,995.924147
3699.702621,-8586.388927,370.102971,153.219100
3699.702951,-10140.821405,444.123565,-1608.800546
3699.703281,-11399.171507,740.205942,-1608.800546
3699.703610,-11325.150913,666.185348,-1378.971896
3699.703940,-7994.224174,1406.391290,-1762.019645
3699.704270,-5921.647536,1628.453072,-612.876398
3699.704599,-7476.080014,1406.391290,766.095498
3699.704929,-8734.430116,2368.659014,0.000000
3699.705259,-11251.130318,2220.617826,-2451.505594
3699.705589,-11251.130318,2072.576638,-3447.429741
3699.705918,-10807.006753,1406.391290,-2451.505594
3699.706248,-10732.986159,148.041188,0.000000
3699.706578,-10881.027347,444.123565,842.705048
3699.706908,-11029.068536,0.000000,-229.828649
3699.707237,-9178.553681,-444.123565,-3064.381992
3699.707567,-6957.935855,-148.041188,-3370.820191
3699.707897,-7550.100608,74.020594,0.000000
3699.708227,-9918.759623,1406.391290,2374.896044
3699.708556,-12213.398043,1850.514855,1838.629195
3699.708886,-10881.027347,1258.350101,-1378.971896
3699.709216,-9548.656652,148.041188,-4596.572988
3699.709546,-10140.821405,0.000000,-3983.696590
3699.709875,-11177.109724,-296.082377,-766.095498
3699.710205,-11621.233289,-814.226536,919.314598
3699.710535,-8586.388927,-1628.453072,76.609550
3699.710865,-7328.038826,-2368.659014,-459.657299
3699.711194,-8512.368333,-1850.514855,0.000000
3699.711524,-10288.862594,-2072.576638,995.924147
3699.711854,-10584.944971,-814.226536,1915.238745
3699.712184,-9474.636058,-1258.350101,1072.533697
3699.712513,-8290.306550,-1554.432478,1072.533697
3699.712843,-9326.594869,-1258.350101,1455.581446
3699.713173,-10955.047942,-1406.391290,1302.362347
3699.713503,-10362.883188,-1924.535449,153.219100
3699.713832,-9918.759623,-1924.535449,153.219100
3699.714162,-9770.718434,-1924.535449,1608.800546
3699.714492,-10881.027347,-1702.473667,2298.286494
3699.714822,-10658.965565,-1406.391290,1302.362347
3699.715151,-8660.409521,-1776.494261,-919.314598
3699.715481,-7550.100608,-1702.473667,-1915.238745
3699.715811,-8290.306550,-740.205942,612.876398
3699.716141,-11251.130318,-814.226536,2757.943793
3699.716470,-11473.192101,-444.123565,2451.505594
3699.716800,-8660.409521,-1628.453072,612.876398
3699.717130,-8882.471304,-1184.329507,689.485948
3699.717460,-10436.903782,-1258.350101,2451.505594
3699.717789,-12953.603985,-1258.350101,4136.915689
3699.718119,-11103.089130,-962.267725,2528.115143
3699.718449,-7846.182985,-1258.350101,229.828649
3699.718779,-8290.306550,-1110.308913,76.609550
3699.719108,-10658.965565,-518.144159,1455.581446
3699.719438,-12435.459826,222.061783,2528.115143
3699.719768,-9030.512492,148.041188,459.657299
3699.720097,-6291.750507,148.041188,-1532.190996
3699.720427,-7698.141797,592.164754,0.000000
3699.720757,-11843.295072,1332.370696,2604.724693
3699.721087,-12879.583391,1850.514855,2221.676944
3699.721416,-10881.027347,1258.350101,-1378.971896
3699.721746,-9474.636058,518.144159,-3447.429741
3699.722076,-9696.697840,296.082377,-1685.410096
3699.722406,-11695.253884,592.164754,1072.533697
3699.722735,-10214.842000,1184.329507,229.828649
3699.723065,-7476.080014,740.205942,-2145.067394
3699.723395,-5773.606348,1036.288319,-3064.381992
3699.723725,-8586.388927,1332.370696,-1302.362347
3699.724054,-11991.336260,2146.597232,0.000000
3699.724384,-10955.047942,1776.494261,-383.047749
3699.724714,-8734.430116,888.247130,-2681.334243
3699.725044,-7402.059420,814.226536,-2528.115143
3699.725373,-10881.027347,592.164754,-459.657299
3699.725703,-12361.439231,1036.288319,1072.533697
3699.726033,-9770.718434,148.041188,-919.314598
3699.726363,-5995.668130,-222.061783,-2451.505594
3699.726692,-6735.874072,444.123565,-612.876398
3699.727022,-9918.759623,814.226536,1378.971896
3699.727352,-11103.089130,1850.514855,1762.019645
3699.727682,-9548.656652,1110.308913,-1378.971896
3699.728011,-6883.915261,962.267725,-1991.848295
3699.728341,-9548.656652,1110.308913,0.000000
3699.728671,-13101.645173,1850.514855,2451.505594
3699.729001,-11029.068536,1258.350101,766.095498
3699.729330,-8216.285956,222.061783,-2451.505594
3699.729660,-7846.182985,296.082377,-2374.896044
3699.729990,-9844.739029,296.082377,1685.410096
3699.730320,-11991.336260,1036.288319,3600.648841
3699.730649,-10362.883188,814.226536,1072.533697
3699.730979,-7031.956449,814.226536,-919.314598
3699.731309,-8956.491898,1184.329507,-842.705048
3699.731639,-11843.295072,2072.576638,1455.581446
3699.731968,-12287.418637,1998.556043,2451.505594
3699.732298,-11547.212695,1332.370696,383.047749
3699.732628,-8364.327145,148.041188,-689.485948
3699.732958,-9992.780217,-518.144159,1225.752797
3699.733287,-12213.398043,148.041188,2681.334243
3699.733617,-10362.883188,-222.061783,1991.848295
3699.733947,-7994.224174,-1184.329507,0.000000
3699.734277,-6587.832884,-888.247130,229.828649
3699.734606,-9992.780217,-592.164754,2987.772442
3699.734936,-11991.336260,814.226536,4749.792088
3699.735266,-10288.862594,74.020594,1915.238745
3699.735596,-8290.306550,-74.020594,-1991.848295
3699.735925,-8290.306550,-222.061783,-1838.629195
3699.736255,-11251.130318,0.000000,1532.190996
3699.736585,-12287.418637,148.041188,3140.991542
3699.736914,-10807.006753,-370.102971,0.000000
3699.737244,-7994.224174,-1184.329507,-2681.334243
3699.737574,-9326.594869,-888.247130,-1532.190996
3699.737904,-11547.212695,-592.164754,1455.581446
3699.738233,-10510.924376,0.000000,1991.848295
3699.738563,-8290.306550,-518.144159,383.047749
3699.738893,-7624.121203,-1184.329507,-1072.533697
3699.739223,-9844.739029,-740.205942,-76.609550
3699.739552,-11547.212695,-296.082377,536.266849
3699.739882,-10732.986159,-666.185348,-689.485948
3699.740212,-8734.430116,-1036.288319,-2757.943793
3699.740542,-8734.430116,-1332.370696,-1378.971896
3699.740871,-10955.047942,-1184.329507,1225.752797
3699.741201,-11177.109724,-370.102971,1762.019645
3699.741531,-9474.636058,-1554.432478,-76.609550
3699.741861,-6513.812290,-1554.432478,-1838.629195
3699.742190,-9030.512492,-1184.329507,-612.876398
3699.742520,-11399.171507,74.020594,1991.848295
3699.742850,-10732.986159,0.000000,2528.115143
3699.743180,-8290.306550,-1184.329507,-689.485948
3699.743509,-6735.874072,-666.185348,-2451.505594
3699.743839,-9992.780217,-370.102971,-689.485948
3699.744169,-11991.336260,296.082377,1225.752797
3699.744499,-10436.903782,-592.164754,612.876398
3699.744828,-7846.182985,-1036.288319,-1378.971896
3699.745158,-8364.327145,-1110.308913,-1149.143247
3699.745488,-11029.068536,-740.205942,1608.800546
3699.745818,-11103.089130,74.020594,2451.505594
3699.746147,-8586.388927,-222.061783,536.266849
3699.746477,-7698.141797,0.000000,-1225.752797
3699.746807,-9548.656652,-370.102971,0.000000
3699.747137,-13323.706956,666.185348,1838.629195
3699.747466,-11991.336260,740.205942,1072.533697
3699.747796,-8956.491898,-296.082377,-1685.410096
3699.748126,-7179.997637,-592.164754,-1838.629195
3699.748456,-9326.594869,-222.061783,612.876398
3699.748785,-11769.274478,666.185348,2911.162892
3699.749115,-9770.718434,444.123565,1532.190996
3699.749445,-8290.306550,296.082377,-1149.143247
3699.749775,-9474.636058,370.102971,-1378.971896
3699.750104,-12139.377449,666.185348,919.314598
3699.750434,-11251.130318,888.247130,2298.286494
3699.750764,-8438.347739,444.123565,383.047749
3699.751094,-7698.141797,0.000000,-1915.238745
3699.751423,-9918.759623,518.144159,-383.047749
3699.751753,-12213.398043,518.144159,1762.019645
3699.752083,-10955.047942,888.247130,1532.190996
3699.752413,-8290.306550,0.000000,-1378.971896
3699.752742,-7550.100608,518.144159,-1685.410096
3699.753072,-10066.800811,148.041188,0.000000
3699.753402,-11843.295072,1184.329507,1072.533697
3699.753731,-9696.697840,962.267725,0.000000
3699.754061,-7920.203579,814.226536,-1762.019645
3699.754391,-8808.450710,592.164754,-1302.362347
3699.754721,-11695.253884,888.247130,842.705048
3699.755050,-11473.192101,1110.308913,1378.971896
3699.755380,-9030.512492,0.000000,-383.047749
3699.755710,-8290.306550,148.041188,-2451.505594
3699.756040,-9622.677246,222.061783,-383.047749
3699.756369,-11769.274478,1036.288319,1915.238745
3699.756699,-10436.903782,518.144159,1608.800546
3699.757029,-7994.224174,296.082377,-842.705048
3699.757359,-7624.121203,444.123565,-1455.581446
3699.757688,-10362.883188,444.123565,306.438199
3699.758018,-11325.150913,444.123565,2374.896044
3699.758348,-9326.594869,740.205942,1838.629195
3699.758678,-7254.018232,370.102971,-153.219100
3699.759007,-8290.306550,370.102971,-766.095498
3699.759337,-12287.418637,888.247130,1149.143247
3699.759667,-12287.418637,1110.308913,766.095498
3699.759997,-9474.636058,74.020594,-383.047749
3699.760326,-7105.977043,-444.123565,-842.705048
3699.760656,-8808.450710,74.020594,306.438199
3699.760986,-11621.233289,592.164754,1915.238745
3699.761316,-10807.006753,222.061783,1915.238745
3699.761645,-8956.491898,148.041188,-153.219100
3699.761975,-7846.182985,518.144159,-766.095498
3699.762305,-11029.068536,0.000000,1455.581446
3699.762635,-12139.377449,444.123565,2834.553343
3699.762964,-9770.718434,-740.205942,1072.533697
3699.763294,-7698.141797,-1036.288319,-1149.143247
3699.763624,-9474.636058,-888.247130,-536.266849
3699.763954,-11103.089130,-666.185348,2145.067394
3699.764283,-10066.800811,-518.144159,2987.772442
3699.764613,-7920.203579,-814.226536,995.924147
3699.764943,-6365.771101,-592.164754,-459.657299
3699.765273,-10436.903782,-370.102971,306.438199
3699.765602,-13027.624579,666.185348,1838.629195
3699.765932,-11103.089130,-296.082377,995.924147
3699.766262,-9326.594869,-814.226536,-842.705048
3699.766592,-8808.450710,-962.267725,-1149.143247
3699.766921,-10436.903782,-1184.329507,612.876398
3699.767251,-11325.150913,0.000000,1225.752797
3699.767581,-10140.821405,-370.102971,-689.485948
3699.767911,-9104.533087,-74.020594,-2374.896044
3699.768240,-9326.594869,0.000000,-1302.362347
3699.768570,-12139.377449,74.020594,689.485948
3699.768900,-11325.150913,148.041188,612.876398
3699.769229,-8438.347739,-888.247130,-2451.505594
3699.769559,-7772.162391,-1036.288319,-3907.087040
3699.769889,-9474.636058,-666.185348,-1302.362347
3699.770219,-11843.295072,-296.082377,1991.848295
3699.770548,-11473.192101,-222.061783,1149.143247
3699.770878,-7920.203579,-814.226536,-2145.067394
3699.771208,-8438.347739,-1110.308913,-2068.457845
3699.771538,-12065.356855,-148.041188,76.609550
3699.771867,-11843.295072,296.082377,1455.581446
3699.772197,-9770.718434,0.000000,-229.828649
3699.772527,-6883.915261,-1036.288319,-1991.848295
3699.772857,-7772.162391,-1110.308913,-612.876398
3699.773186,-11399.171507,-592.164754,1455.581446
3699.773516,-10732.986159,-148.041188,1532.190996
3699.773846,-7698.141797,-1036.288319,383.047749
3699.774176,-6513.812290,-592.164754,-459.657299
3699.774505,-9844.739029,0.000000,1225.752797
3699.774835,-12879.583391,370.102971,3217.601092
3699.775165,-10288.862594,74.020594,1915.238745
3699.775495,-7846.182985,-296.082377,-1225.752797
3699.775824,-8808.450710,0.000000,-1225.752797
3699.776154,-10584.944971,0.000000,1072.533697
3699.776484,-10288.862594,962.267725,2298.286494
3699.776814,-8660.409521,444.123565,919.314598
3699.777143,-7920.203579,518.144159,-1302.362347
3699.777473,-8808.450710,814.226536,-459.657299
3699.777803,-12435.459826,1332.370696,1608.800546
3699.778133,-11769.274478,1406.391290,1991.848295
3699.778462,-9178.553681,0.000000,-459.657299
3699.778792,-7550.100608,-222.061783,-766.095498
3699.779122,-9622.677246,-296.082377,995.924147
3699.779452,-11103.089130,592.164754,3140.991542
3699.779781,-10214.842000,740.205942,2604.724693
3699.780111,-8216.285956,74.020594,-459.657299
3699.780441,-7994.224174,666.185348,-689.485948
3699.780771,-10066.800811,1702.473667,766.095498
3699.781100,-12583.501014,1924.535449,2604.724693
3699.781430,-11103.089130,1850.514855,306.438199
3699.781760,-8290.306550,592.164754,-2451.505594
3699.782090,-10066.800811,1184.329507,-1915.238745
3699.782419,-12213.398043,888.247130,383.047749
3699.782749,-10510.924376,1184.329507,1149.143247
3699.783079,-9104.533087,222.061783,-766.095498
3699.783409,-7105.977043,888.247130,-1762.019645
3699.783738,-9770.718434,444.123565,612.876398
3699.784068,-12287.418637,1406.391290,1915.238745
3699.784398,-10881.027347,962.267725,459.657299
3699.784728,-8586.388927,0.000000,-1685.410096
3699.785057,-8808.450710,222.061783,-1225.752797
3699.785387,-11029.068536,0.000000,766.095498
3699.785717,-11103.089130,296.082377,2221.676944
3699.786046,-10066.800811,-592.164754,76.609550
3699.786376,-7179.997637,-1110.308913,-1915.238745
3699.786706,-7994.224174,-370.102971,-842.705048
3699.787036,-11251.130318,296.082377,995.924147
3699.787365,-11251.130318,666.185348,1378.971896
3699.787695,-9622.677246,-370.102971,-1455.581446
3699.788025,-7402.059420,-814.226536,-2298.286494
3699.788355,-9844.739029,-592.164754,-612.876398
3699.788684,-12287.418637,222.061783,1608.800546
3699.789014,-10362.883188,-148.041188,1532.190996
3699.789344,-7994.224174,-740.205942,-689.485948
3699.789674,-6957.935855,-444.123565,-536.266849
3699.790003,-10436.903782,-370.102971,1378.971896
3699.790333,-12509.480420,296.082377,2451.505594
3699.790663,-10066.800811,0.000000,1072.533697
3699.790993,-8290.306550,-592.164754,-995.924147
3699.791322,-9104.533087,-296.082377,-459.657299
3699.791652,-11103.089130,-74.020594,1149.143247
3699.791982,-9992.780217,74.020594,1378.971896
3699.792311,-8512.368333,-888.247130,-1378.971896
3699.792641,-7031.956449,-296.082377,-1608.800546
3699.792971,-10510.924376,148.041188,153.219100
3699.793300,-13323.706956,888.247130,2221.676944
3699.793630,-10658.965565,740.205942,1302.362347
3699.793960,-9474.636058,-740.205942,-1302.362347
3699.794289,-7920.203579,-1036.288319,-306.438199
3699.794619,-10807.006753,-1036.288319,2298.286494
3699.794949,-10214.842000,0.000000,3447.429741
3699.795278,-8364.327145,-1036.288319,1532.190996
3699.795608,-7402.059420,-222.061783,-383.047749
3699.795938,-9178.553681,-370.102971,76.609550
3699.796268,-12139.377449,518.144159,1915.238745
3699.796597,-11103.089130,518.144159,1991.848295
3699.796927,-9400.615463,0.000000,0.000000
3699.797257,-8734.430116,518.144159,-995.924147
3699.797586,-10362.883188,0.000000,-459.657299
3699.797916,-12361.439231,518.144159,1378.971896
3699.798246,-10362.883188,74.020594,536.266849
3699.798575,-8290.306550,-296.082377,-1608.800546
3699.798905,-7920.203579,0.000000,-1225.752797
3699.799235,-11029.068536,370.102971,1149.143247
3699.799564,-11399.171507,1110.308913,1991.848295
3699.799894,-9992.780217,740.205942,0.000000
3699.800224,-9104.533087,444.123565,-2374.896044
3699.800553,-9918.759623,0.000000,-1225.752797
3699.800883,-12805.562797,592.164754,536.266849
3699.801213,-11547.212695,296.082377,1149.143247
3699.801542,-8660.409521,-592.164754,-1378.971896
3699.801872,-6291.750507,-296.082377,-2298.286494
3699.802202,-9326.594869,-444.123565,-229.828649
3699.802531,-11843.295072,666.185348,1762.019645
3699.802861,-9992.780217,666.185348,919.314598
3699.803191,-9030.512492,370.102971,-1302.362347
3699.803520,-8586.388927,74.020594,-1149.143247
3699.803850,-11029.068536,0.000000,1378.971896
3699.804180,-10955.047942,222.061783,2451.505594
3699.804510,-9178.553681,-1036.288319,536.266849
3699.804839,-6957.935855,-592.164754,-1149.143247
3699.805169,-8364.327145,0.000000,0.000000
3699.805499,-11103.089130,296.082377,2221.676944
3699.805828,-10955.047942,592.164754,2145.067394
3699.806158,-8660.409521,592.164754,-383.047749
3699.806488,-8586.388927,444.123565,-1608.800546
3699.806817,-10214.842000,666.185348,0.000000
3699.807147,-11769.274478,444.123565,1685.410096
3699.807477,-10214.842000,296.082377,1455.581446
3699.807806,-7698.141797,148.041188,-536.266849
3699.808136,-8068.244768,592.164754,0.000000
3699.808466,-11103.089130,666.185348,1225.752797
3699.808795,-11769.274478,1184.329507,2145.067394
3699.809125,-9326.594869,740.205942,383.047749
3699.809455,-8586.388927,444.123565,-766.095498
3699.809784,-9918.759623,444.123565,0.000000
3699.810114,-12361.439231,740.205942,2604.724693
3699.810444,-11325.150913,296.082377,2068.457845
3699.810773,-8142.265362,-740.205942,-919.314598
3699.811103,-6883.915261,-518.144159,-1072.533697
3699.811433,-9992.780217,74.020594,1532.190996
3699.811762,-12435.459826,814.226536,3447.429741
3699.812092,-11029.068536,518.144159,1455.581446
3699.812422,-8956.491898,222.061783,-919.314598
3699.812752,-8956.491898,0.000000,-995.924147
3699.813081,-12065.356855,222.061783,766.095498
3699.813411,-11473.192101,444.123565,1838.629195
3699.813741,-9178.553681,-74.020594,689.485948
3699.814070,-7254.018232,-518.144159,-1685.410096
3699.814400,-8586.388927,-74.020594,-766.095498
3699.814730,-12139.377449,518.144159,919.314598
3699.815059,-11103.089130,518.144159,1072.533697
3699.815389,-9104.533087,0.000000,-1455.581446
3699.815719,-7920.203579,0.000000,-2451.505594
3699.816048,-10510.924376,-444.123565,-766.095498
3699.816378,-12213.398043,0.000000,842.705048
3699.816708,-10140.821405,-370.102971,0.000000
3699.817037,-8586.388927,-740.205942,-2221.676944
3699.817367,-8142.265362,-962.267725,-1378.971896
3699.817697,-11251.130318,-666.185348,383.047749
3699.818026,-11325.150913,-148.041188,2068.457845
3699.818356,-9400.615463,-1036.288319,-459.657299
3699.818686,-7179.997637,-1110.308913,-2374.896044
3699.819015,-9622.677246,-518.144159,-536.266849
3699.819345,-11917.315666,-444.123565,3140.991542
3699.819675,-11103.089130,-222.061783,1991.848295
3699.820004,-8586.388927,-814.226536,-1072.533697
3699.820334,-7179.997637,-518.144159,-1915.238745
3699.820664,-9252.574275,0.000000,766.095498
3699.820994,-11547.212695,148.041188,2221.676944
3699.821323,-10214.842000,148.041188,995.924147
3699.821653,-7624.121203,-148.041188,-1532.190996
3699.821983,-8956.491898,0.000000,-1378.971896
3699.822312,-12065.356855,592.164754,1302.362347
3699.822642,-11843.295072,222.061783,2374.896044
3699.822972,-9770.718434,-444.123565,536.266849
3699.823301,-6957.935855,-370.102971,-766.095498
3699.823631,-8364.327145,-1036.288319,1378.971896
3699.823961,-11251.130318,0.000000,2451.505594
3699.824290,-10807.006753,444.123565,1838.629195
3699.824620,-8586.388927,-222.061783,-766.095498
3699.824950,-8216.285956,0.000000,-919.314598
3699.825279,-10658.965565,222.061783,919.314598
3699.825609,-11769.274478,592.164754,2834.553343
3699.825939,-9622.677246,-444.123565,842.705048
3699.826268,-6587.832884,-888.247130,-1225.752797
3699.826598,-7698.141797,-666.185348,0.000000
3699.826928,-11399.171507,444.123565,2451.505594
3699.827257,-11843.295072,1036.288319,3447.429741
3699.827587,-10658.965565,1110.308913,1225.752797
3699.827917,-9252.574275,148.041188,-689.485948
3699.828246,-10510.924376,0.000000,-919.314598
3699.828576,-11769.274478,296.082377,1225.752797
3699.828906,-10288.862594,666.185348,1149.143247
3699.829236,-8512.368333,0.000000,-1302.362347
3699.829565,-7550.100608,296.082377,-1455.581446
3699.829895,-10955.047942,444.123565,76.609550
3699.830225,-12435.459826,888.247130,1762.019645
3699.830554,-10436.903782,0.000000,0.000000
3699.830884,-7402.059420,-296.082377,-2145.067394
3699.831214,-9030.512492,296.082377,-1455.581446
3699.831543,-11695.253884,296.082377,612.876398
3699.831873,-11843.295072,370.102971,1378.971896
3699.832203,-9918.759623,-518.144159,-1838.629195
3699.832532,-7476.080014,-592.164754,-3294.210641
3699.832862,-9474.636058,-444.123565,-1455.581446
3699.833192,-11547.212695,222.061783,1225.752797
3699.833521,-9252.574275,-518.144159,1532.190996
3699.833851,-7402.059420,-740.205942,-1225.752797
3699.834181,-7846.182985,-444.123565,-1762.019645
3699.834510,-10436.903782,-148.041188,0.000000
3699.834840,-12213.398043,222.061783,1685.410096
3699.835170,-10288.862594,-740.205942,-229.828649
3699.835499,-7105.977043,-740.205942,-1685.410096
3699.835829,-7846.182985,-814.226536,-995.924147
3699.836159,-10658.965565,-370.102971,1915.238745
3699.836488,-10510.924376,0.000000,2987.772442
3699.836818,-8734.430116,-518.144159,1225.752797
3699.837148,-7772.162391,0.000000,0.000000
3699.837478,-10436.903782,74.020594,229.828649
3699.837807,-12509.480420,444.123565,2451.505594
3699.838137,-11177.109724,666.185348,995.924147
3699.838467,-9030.512492,74.020594,-1302.362347
3699.838796,-7328.038826,296.082377,-1532.190996
3699.839126,-10214.842000,222.061783,536.266849
3699.839456,-11325.150913,1110.308913,1838.629195
3699.839785,-9622.677246,814.226536,995.924147
3699.840115,-8808.450710,592.164754,-842.705048
3699.840445,-9400.615463,444.123565,-459.657299
3699.840774,-11917.315666,74.020594,1838.629195
3699.841104,-11103.089130,0.000000,2221.676944
3699.841434,-8512.368333,-888.247130,766.095498
3699.841763,-7328.038826,-518.144159,-383.047749
3699.842093,-9252.574275,-518.144159,1838.629195
3699.842423,-11473.192101,666.185348,3753.867940
3699.842752,-10436.903782,814.226536,2911.162892
3699.843082,-9104.533087,518.144159,229.828649
3699.843412,-8808.450710,296.082377,0.000000
3699.843741,-11621.233289,296.082377,459.657299
3699.844071,-11917.315666,740.205942,1225.752797
3699.844401,-9844.739029,370.102971,-153.219100
3699.844730,-7476.080014,-222.061783,-2068.457845
3699.845060,-7772.162391,296.082377,-1149.143247
3699.845390,-10807.006753,444.123565,842.705048
3699.845720,-10881.027347,1406.391290,1225.752797
3699.846049,-10362.883188,444.123565,0.000000
3699.846379,-8734.430116,370.102971,-1378.971896
3699.846709,-10955.047942,0.000000,-459.657299
3699.847038,-11473.192101,148.041188,995.924147
3699.847368,-9622.677246,-518.144159,0.000000
3699.847698,-7550.100608,-814.226536,-1838.629195
3699.848027,-7476.080014,0.000000,-1838.629195
3699.848357,-10584.944971,0.000000,0.000000
3699.848687,-11399.171507,666.185348,842.705048
3699.849016,-9622.677246,148.041188,-766.095498
3699.849346,-8364.327145,-518.144159,-2374.896044
3699.849676,-8808.450710,-370.102971,-1072.533697
3699.850005,-11251.130318,-444.123565,1378.971896
3699.850335,-11103.089130,0.000000,1762.019645
3699.850665,-9400.615463,-1110.308913,-612.876398
3699.850994,-6883.915261,-888.247130,-1532.190996
3699.851324,-9400.615463,-740.205942,536.266849
3699.851654,-11325.150913,0.000000,2681.334243
3699.851983,-9696.697840,296.082377,2374.896044
3699.852313,-8512.368333,0.000000,-306.438199
3699.852643,-8142.265362,0.000000,-766.095498
3699.852972,-10732.986159,74.020594,306.438199
3699.853302,-11621.233289,888.247130,919.314598
3699.853632,-9696.697840,0.000000,-536.266849
3699.853962,-7476.080014,-296.082377,-1762.019645
3699.854291,-10214.842000,444.123565,-229.828649
3699.854621,-12657.521608,518.144159,1225.752797
3699.854951,-11029.068536,370.102971,1455.581446
3699.855280,-8660.409521,296.082377,-919.314598
3699.855610,-7846.182985,0.000000,-153.219100
3699.855940,-9770.718434,0.000000,1991.848295
3699.856269,-11917.315666,0.000000,3140.991542
3699.856599,-10436.903782,0.000000,1991.848295
3699.856929,-7846.182985,-370.102971,-459.657299
3699.857258,-8512.368333,-296.082377,-383.047749
3699.857588,-11177.109724,74.020594,1915.238745
3699.857918,-10807.006753,370.102971,3677.258390
3699.858247,-10066.800811,0.000000,1608.800546
3699.858577,-7920.203579,-148.041188,-842.705048
3699.858907,-9992.780217,0.000000,-612.876398
3699.859236,-11621.233289,888.247130,919.314598
3699.859566,-10140.821405,1110.308913,1225.752797
3699.859896,-9326.594869,518.144159,-919.314598
3699.860225,-7476.080014,148.041188,-1532.190996
3699.860555,-10436.903782,0.000000,-76.609550
3699.860885,-12509.480420,666.185348,1225.752797
3699.861214,-10066.800811,-74.020594,0.000000
3699.861544,-7476.080014,-592.164754,-1455.581446
3699.861874,-7994.224174,-666.185348,-842.705048
3699.862204,-10510.924376,0.000000,2068.457845
3699.862533,-11177.109724,148.041188,1838.629195
3699.862863,-10436.903782,-518.144159,-459.657299
3699.863193,-8068.244768,-888.247130,-2451.505594
3699.863522,-9030.512492,-592.164754,-1378.971896
3699.863852,-11103.089130,222.061783,1149.143247
3699.864182,-10288.862594,74.020594,1532.190996
3699.864511,-9252.574275,-444.123565,-1838.629195
3699.864841,-7846.182985,-592.164754,-2834.553343
3699.865171,-9918.759623,-666.185348,-612.876398
3699.865500,-11473.192101,592.164754,1762.019645
3699.865830,-10584.944971,222.061783,1149.143247
3699.866160,-8290.306550,-370.102971,-766.095498
3699.866489,-8660.409521,-444.123565,-689.485948
3699.866819,-11103.089130,-296.082377,459.657299
3699.867149,-11399.171507,222.061783,1991.848295
3699.867478,-10140.821405,0.000000,766.095498
3699.867808,-7772.162391,-148.041188,-459.657299
3699.868138,-8586.388927,0.000000,536.266849
3699.868467,-11325.150913,444.123565,1608.800546
3699.868797,-11547.212695,592.164754,1378.971896
3699.869127,-9918.759623,-148.041188,-1225.752797
3699.869456,-8068.244768,222.061783,-1532.190996
3699.869786,-9770.718434,296.082377,689.485948
3699.870116,-11325.150913,740.205942,2528.115143
3699.870446,-10066.800811,370.102971,1225.752797
3699.870775,-8364.327145,-370.102971,-1225.752797
3699.871105,-7846.182985,-222.061783,-842.705048
3699.871435,-10436.903782,-74.020594,1685.410096
3699.871764,-11621.233289,740.205942,3447.429741
3699.872094,-9474.636058,222.061783,2145.067394
3699.872424,-7994.224174,74.020594,-612.876398
3699.872753,-8586.388927,222.061783,-306.438199
3699.873083,-11843.295072,592.164754,1915.238745
3699.873413,-11917.315666,1184.329507,2451.505594
3699.873742,-9918.759623,222.061783,229.828649
3699.874072,-7254.018232,148.041188,-766.095498
3699.874402,-9770.718434,0.000000,306.438199
3699.874731,-11547.212695,740.205942,1378.971896
3699.875061,-10362.883188,888.247130,153.219100
3699.875391,-8438.347739,444.123565,-1838.629195
3699.875720,-8290.306550,296.082377,-1991.848295
3699.876050,-11473.192101,370.102971,612.876398
3699.876380,-11843.295072,814.226536,2145.067394
3699.876709,-10584.944971,148.041188,0.000000
3699.877039,-7994.224174,0.000000,-1991.848295
3699.877369,-9252.574275,-518.144159,-995.924147
3699.877698,-11399.171507,0.000000,1532.190996
3699.878028,-11251.130318,666.185348,2221.676944
3699.878358,-9770.718434,-222.061783,-229.828649
3699.878688,-7772.162391,-296.082377,-2068.457845
3699.879017,-10140.821405,-370.102971,-766.095498
3699.879347,-12509.480420,518.144159,919.314598
3699.879677,-10436.903782,-370.102971,76.609550
3699.880006,-7624.121203,-888.247130,-1532.190996
3699.880336,-6957.935855,-666.185348,-1685.410096
3699.880666,-9844.739029,0.000000,995.924147
3699.880995,-11399.171507,370.102971,1991.848295
3699.881325,-10066.800811,-370.102971,0.000000
3699.881655,-8216.285956,-370.102971,-1915.238745
3699.881984,-9474.636058,-296.082377,-919.314598
3699.882314,-11843.295072,-370.102971,1991.848295
3699.882644,-10955.047942,-370.102971,1991.848295
3699.882973,-8734.430116,-814.226536,0.000000
3699.883303,-7772.162391,-296.082377,-1455.581446
3699.883633,-9844.739029,-222.061783,229.828649
3699.883962,-11769.274478,148.041188,2068.457845
3699.884292,-10510.924376,370.102971,1378.971896
3699.884622,-8364.327145,0.000000,-689.485948
3699.884951,-8290.306550,-296.082377,-612.876398
3699.885281,-11029.068536,-444.123565,766.095498
3699.885611,-11325.150913,222.061783,2221.676944
3699.885940,-9548.656652,-222.061783,383.047749
3699.886270,-7920.203579,-592.164754,-1455.581446
3699.886600,-8734.430116,0.000000,76.609550
3699.886930,-10807.006753,148.041188,2298.286494
3699.887259,-11325.150913,740.205942,2451.505594
3699.887589,-9474.636058,148.041188,0.000000
3699.887919,-8290.306550,296.082377,-1302.362347
3699.888248,-9992.780217,296.082377,612.876398
3699.888578,-12065.356855,1332.370696,2911.162892
3699.888908,-11621.233289,814.226536,2451.505594
3699.889237,-8808.450710,222.061783,-459.657299
3699.889567,-8068.244768,148.041188,-1149.143247
3699.889897,-10288.862594,74.020594,459.657299
3699.890226,-11325.150913,1184.329507,1608.800546
3699.890556,-9992.780217,296.082377,383.047749
3699.890886,-7550.100608,222.061783,-1302.362347
3699.891215,-9326.594869,518.144159,-1072.533697
3699.891545,-11399.171507,814.226536,766.095498
3699.891875,-11473.192101,962.267725,1302.362347
3699.892204,-9770.718434,74.020594,-766.095498
3699.892534,-8586.388927,0.000000,-1915.238745
3699.892864,-10066.800811,-444.123565,0.000000
3699.893193,-10732.986159,0.000000,2374.896044
3699.893523,-9696.697840,-74.020594,1685.410096
3699.893853,-7920.203579,-444.123565,-1532.190996
3699.894183,-8142.265362,148.041188,-1532.190996
3699.894513,-11029.068536,74.020594,536.266849
3699.894843,-12583.501014,1184.329507,1838.629195
3699.895173,-10288.862594,148.041188,-842.705048
3699.895502,-7772.162391,-444.123565,-2374.896044
3699.895832,-8216.285956,-518.144159,-1072.533697
3699.896162,-10436.903782,0.000000,1149.143247
3699.896492,-10658.965565,370.102971,1608.800546
3699.896822,-9252.574275,-222.061783,-766.095498
3699.897152,-7550.100608,148.041188,-1838.629195
3699.897482,-10658.965565,296.082377,0.000000
3699.897811,-12509.480420,1110.308913,1915.238745
3699.898141,-11547.212695,148.041188,842.705048
3699.898471,-8290.306550,-962.267725,-1608.800546
3699.898801,-7624.121203,-740.205942,-1685.410096
3699.899131,-10362.883188,-518.144159,1149.143247
3699.899461,-10732.986159,0.000000,2987.772442
3699.899791,-9474.636058,-518.144159,1378.971896
3699.900120,-6883.915261,148.041188,-612.876398
3699.900450,-9030.512492,296.082377,153.219100
3699.900780,-12287.418637,592.164754,1685.410096
3699.901110,-11325.150913,518.144159,1685.410096
3699.901440,-9548.656652,-370.102971,-612.876398
3699.901770,-8216.285956,-296.082377,-995.924147
3699.902100,-10066.800811,-296.082377,306.438199
3699.902429,-10807.006753,296.082377,2451.505594
3699.902759,-9548.656652,0.000000,1838.629195
3699.903089,-8142.265362,0.000000,0.000000
3699.903419,-8290.306550,518.144159,153.219100
3699.903749,-12139.377449,814.226536,1762.019645
3699.904079,-12509.480420,1110.308913,1991.848295
3699.904409,-10288.862594,296.082377,383.047749
3699.904738,-8216.285956,148.041188,-1762.019645
3699.905068,-9474.636058,-370.102971,-1378.971896
3699.905398,-10881.027347,0.000000,1072.533697
3699.905728,-10140.821405,0.000000,1762.019645
3699.906058,-8068.244768,-370.102971,-459.657299
3699.906388,-7846.182985,74.020594,-1532.190996
3699.906718,-10881.027347,222.061783,0.000000
3699.907047,-12287.418637,666.185348,1608.800546
3699.907377,-10807.006753,222.061783,689.485948
3699.907707,-8586.388927,-222.061783,-1455.581446
3699.908037,-8142.265362,-740.205942,-1302.362347
3699.908367,-11177.109724,0.000000,383.047749
3699.908697,-11177.109724,148.041188,1608.800546
3699.909027,-8808.450710,-74.020594,-383.047749
3699.909356,-7402.059420,148.041188,-2145.067394
3699.909686,-9326.594869,74.020594,-1378.971896
3699.910016,-12065.356855,666.185348,459.657299
3699.910346,-11399.171507,222.061783,536.266849
3699.910676,-9178.553681,-888.247130,-2145.067394
3699.911006,-7402.059420,-1406.391290,-2068.457845
3699.911336,-10066.800811,-740.205942,0.000000
3699.911665,-10955.047942,-518.144159,1915.238745
3699.911995,-8734.430116,-518.144159,1072.533697
3699.912325,-7105.977043,-74.020594,-995.924147
3699.912655,-8660.409521,0.000000,-383.047749
3699.912985,-12583.501014,518.144159,1685.410096
3699.913315,-12879.583391,1036.288319,2145.067394
3699.913644,-9696.697840,-222.061783,76.609550
3699.913974,-7698.141797,-740.205942,-1685.410096
3699.914304,-8956.491898,-518.144159,-766.095498
3699.914634,-10436.903782,-592.164754,1915.238745
3699.914964,-9474.636058,74.020594,1838.629195
3699.915294,-8512.368333,222.061783,76.609550
3699.915624,-7624.121203,518.144159,0.000000
3699.915953,-11621.233289,592.164754,1302.362347
3699.916283,-12731.542202,1332.370696,2221.676944
3699.916613,-10436.903782,74.020594,919.314598
3699.916943,-8290.306550,-148.041188,-919.314598
3699.917273,-9030.512492,-296.082377,-153.219100
3699.917603,-10807.006753,0.000000,842.705048
3699.917933,-10214.842000,666.185348,2145.067394
3699.918262,-8364.327145,222.061783,689.485948
3699.918592,-7402.059420,370.102971,0.000000
3699.918922,-10436.903782,1406.391290,1685.410096
3699.919252,-12953.603985,1184.329507,2604.724693
3699.919582,-11695.253884,1184.329507,1532.190996
3699.919912,-9030.512492,518.144159,-1378.971896
3699.920242,-8512.368333,0.000000,-1991.848295
3699.920571,-10881.027347,0.000000,229.828649
3699.920901,-11177.109724,666.185348,2145.067394
3699.921231,-8956.491898,0.000000,919.314598
3699.921561,-7031.956449,148.041188,-689.485948
3699.921891,-7624.121203,0.000000,-766.095498
3699.922221,-11917.315666,296.082377,1302.362347
3699.922551,-11473.192101,814.226536,1838.629195
3699.922880,-9844.739029,0.000000,-536.266849
3699.923210,-8438.347739,296.082377,-1762.019645
3699.923540,-9918.759623,-148.041188,-919.314598
3699.923870,-11399.171507,148.041188,229.828649
3699.924200,-10362.883188,0.000000,229.828649
3699.924530,-8216.285956,-592.164754,-1762.019645
3699.924860,-6809.894666,0.000000,-1532.190996
3699.925189,-10510.924376,370.102971,0.000000
3699.925519,-11917.315666,888.247130,1378.971896
3699.925849,-11029.068536,222.061783,-536.266849
3699.926179,-8956.491898,148.041188,-2221.676944
3699.926509,-9696.697840,-370.102971,-1302.362347
3699.926839,-11769.274478,-444.123565,1225.752797
3699.927169,-10510.924376,-444.123565,2451.505594
3699.927498,-8364.327145,-1036.288319,459.657299
3699.927828,-6587.832884,-74.020594,-1378.971896
3699.928158,-9400.615463,0.000000,536.266849
3699.928488,-12435.459826,888.247130,2068.457845
3699.928818,-11473.192101,1036.288319,1838.629195
3699.929148,-9696.697840,-518.144159,-1378.971896
3699.929478,-8660.409521,-592.164754,-1991.848295
3699.929807,-11325.150913,-1406.391290,383.047749
3699.930137,-11103.089130,-444.123565,2145.067394
3699.930467,-8808.450710,-1110.308913,1072.533697
3699.930797,-6291.750507,-370.102971,-612.876398
3699.931127,-8216.285956,0.000000,612.876398
3699.931457,-12065.356855,740.205942,2068.457845
3699.931787,-11621.233289,1258.350101,1072.533697
3699.932116,-10288.862594,0.000000,-1302.362347
3699.932446,-8734.430116,-592.164754,-2145.067394
3699.932776,-10140.821405,-1406.391290,0.000000
3699.933106,-10955.047942,-666.185348,2604.724693
3699.933436,-8586.388927,-1184.329507,2068.457845
3699.933766,-6217.729913,-1258.350101,-383.047749
3699.934096,-6809.894666,-296.082377,-689.485948
3699.934425,-11325.150913,740.205942,1762.019645
3699.934755,-12361.439231,1332.370696,2681.334243
3699.935085,-11843.295072,814.226536,689.485948
3699.935415,-9844.739029,74.020594,-1532.190996
3699.935745,-9696.697840,0.000000,-1685.410096
3699.936075,-10807.006753,-74.020594,536.266849
3699.936405,-9622.677246,74.020594,1149.143247
3699.936734,-8364.327145,0.000000,-459.657299
3699.937064,-7994.224174,518.144159,-1762.019645
3699.937394,-10066.800811,1036.288319,0.000000
3699.937724,-12509.480420,1702.473667,1762.019645
3699.938054,-11843.295072,962.267725,919.314598
3699.938384,-9548.656652,444.123565,-1455.581446
3699.938714,-8512.368333,296.082377,-1838.629195
3699.939043,-10955.047942,-222.061783,-306.438199
3699.939373,-11621.233289,444.123565,1149.143247
3699.939703,-9844.739029,-518.144159,459.657299
3699.940033,-7328.038826,-370.102971,-995.924147
3699.940363,-8142.265362,-592.164754,306.438199
3699.940693,-11029.068536,444.123565,2145.067394
3699.941022,-11251.130318,444.123565,1915.238745
3699.941352,-9696.697840,0.000000,-766.095498
3699.941682,-8068.244768,0.000000,-1915.238745
3699.942012,-10140.821405,-296.082377,153.219100
3699.942342,-11325.150913,592.164754,2068.457845
3699.942672,-9622.677246,0.000000,1072.533697
3699.943002,-7698.141797,-74.020594,-2451.505594
3699.943331,-7328.038826,-444.123565,-1302.362347
3699.943661,-10807.006753,222.061783,1762.019645
3699.943991,-11769.274478,1258.350101,2757.943793
3699.944321,-9548.656652,296.082377,1378.971896
3699.944651,-8290.306550,444.123565,-1302.362347
3699.944981,-9326.594869,74.020594,-1455.581446
3699.945311,-11769.274478,444.123565,536.266849
3699.945640,-11103.089130,592.164754,1149.143247
3699.945970,-9030.512492,-148.041188,-536.266849
3699.946300,-7179.997637,0.000000,-459.657299
3699.946630,-9770.718434,296.082377,995.924147
3699.946960,-11029.068536,740.205942,2221.676944
3699.947290,-10436.903782,740.205942,383.047749
3699.947620,-8956.491898,74.020594,-842.705048
3699.947949,-8956.491898,0.000000,-842.705048
3699.948279,-11103.089130,74.020594,1378.971896
3699.948609,-11177.109724,444.123565,2681.334243
3699.948939,-9104.533087,-296.082377,1149.143247
3699.949269,-7476.080014,0.000000,-459.657299
3699.949599,-8364.327145,370.102971,0.000000
3699.949929,-11325.150913,1110.308913,1685.410096
3699.950258,-11473.192101,1480.411884,1991.848295
3699.950588,-10584.944971,814.226536,0.000000
3699.950918,-9548.656652,222.061783,-1378.971896
3699.951248,-11325.150913,-370.102971,-995.924147
3699.951578,-11473.192101,0.000000,1149.143247
3699.951908,-9178.553681,-592.164754,459.657299
3699.952238,-7105.977043,-1036.288319,-689.485948
3699.952567,-7179.997637,-370.102971,-153.219100
3699.952897,-9992.780217,0.000000,1838.629195
3699.953227,-12139.377449,1110.308913,1915.238745
3699.953557,-10584.944971,222.061783,-689.485948
3699.953887,-9030.512492,0.000000,-2451.505594
3699.954217,-10288.862594,-666.185348,-1455.581446
3699.954547,-12139.377449,-370.102971,842.705048
3699.954876,-10436.903782,-888.247130,1072.533697
3699.955206,-7846.182985,-1702.473667,-995.924147
3699.955536,-6735.874072,-888.247130,-1378.971896
3699.955866,-9696.697840,-444.123565,1225.752797
3699.956196,-12361.439231,444.123565,2298.286494
3699.956526,-10881.027347,74.020594,0.000000
3699.956856,-8364.327145,-518.144159,-1991.848295
3699.957185,-7476.080014,-888.247130,-1455.581446
3699.957515,-11177.109724,-518.144159,842.705048
3699.957845,-11473.192101,0.000000,1991.848295
3699.958175,-9696.697840,-1110.308913,-229.828649
3699.958505,-7105.977043,-962.267725,-2221.676944
3699.958835,-8512.368333,-962.267725,-689.485948
3699.959165,-11621.233289,0.000000,2757.943793
3699.959494,-11177.109724,148.041188,2911.162892
3699.959824,-9622.677246,0.000000,0.000000
3699.960154,-7624.121203,-370.102971,-1685.410096
3699.960484,-9770.718434,-370.102971,-536.266849
3699.960814,-11103.089130,74.020594,1149.143247
3699.961144,-9992.780217,-444.123565,536.266849
3699.961474,-7179.997637,-518.144159,-1378.971896
3699.961803,-7624.121203,-222.061783,-766.095498
3699.962133,-10584.944971,0.000000,1532.190996
3699.962463,-11325.150913,592.164754,2145.067394
3699.962793,-9400.615463,296.082377,-536.266849
3699.963123,-8586.388927,740.205942,-1149.143247
3699.963453,-9622.677246,296.082377,76.609550
3699.963783,-12361.439231,666.185348,1838.629195
3699.964112,-11621.233289,962.267725,1991.848295
3699.964442,-9326.594869,222.061783,-1072.533697
3699.964772,-6439.791695,0.000000,-919.314598
3699.965102,-9400.615463,222.061783,766.095498
3699.965432,-11621.233289,1628.453072,2451.505594
3699.965762,-9770.718434,1406.391290,1149.143247
3699.966092,-9326.594869,962.267725,-919.314598
3699.966421,-9474.636058,518.144159,-1225.752797
3699.966751,-11843.295072,296.082377,1149.143247
3699.967081,-11991.336260,666.185348,1608.800546
3699.967411,-8586.388927,-666.185348,306.438199
3699.967741,-6587.832884,-444.123565,-1838.629195
3699.968071,-7624.121203,296.082377,-766.095498
3699.968400,-11399.171507,1036.288319,1685.410096
3699.968730,-11695.253884,1480.411884,1838.629195
3699.969060,-9548.656652,814.226536,-995.924147
3699.969390,-9178.553681,592.164754,-1991.848295
3699.969720,-11991.336260,518.144159,-689.485948
3699.970050,-12509.480420,444.123565,842.705048
3699.970380,-10288.862594,-888.247130,689.485948
3699.970709,-6661.853478,-1332.370696,-1762.019645
3699.971039,-6587.832884,-888.247130,-1532.190996
3699.971369,-9770.718434,0.000000,612.876398
3699.971699,-10658.965565,666.185348,2068.457845
3699.972029,-9474.636058,518.144159,0.000000
3699.972359,-8956.491898,592.164754,-1378.971896
3699.972689,-9770.718434,-370.102971,-229.828649
3699.973018,-12657.521608,-148.041188,995.924147
3699.973348,-10881.027347,-740.205942,383.047749
3699.973678,-7994.224174,-1110.308913,-919.314598
3699.974008,-6809.894666,-814.226536,-1455.581446
3699.974338,-8808.450710,0.000000,919.314598
3699.974668,-11251.130318,888.247130,2451.505594
3699.974998,-10658.965565,592.164754,1225.752797
3699.975327,-9326.594869,296.082377,-1455.581446
3699.975657,-9770.718434,0.000000,-536.266849
3699.975987,-11695.253884,296.082377,1302.362347
3699.976317,-11251.130318,222.061783,2068.457845
3699.976647,-8956.491898,-740.205942,0.000000
3699.976977,-6587.832884,-370.102971,-1378.971896
3699.977307,-8364.327145,-444.123565,306.438199
3699.977636,-11991.336260,370.102971,2221.676944
3699.977966,-11103.089130,814.226536,2451.505594
3699.978296,-9326.594869,0.000000,383.047749
3699.978626,-7254.018232,0.000000,0.000000
3699.978956,-11621.233289,370.102971,1532.190996
3699.979286,-12509.480420,1110.308913,2911.162892
3699.979616,-10140.821405,296.082377,1532.190996
3699.979945,-7772.162391,0.000000,-995.924147
3699.980275,-7402.059420,-148.041188,-612.876398
3699.980605,-11103.089130,518.144159,1608.800546
3699.980935,-11325.150913,888.247130,2681.334243
3699.981265,-9696.697840,666.185348,-76.609550
3699.981595,-8660.409521,370.102971,-1378.971896
3699.981925,-9770.718434,148.041188,-383.047749
3699.982254,-12435.459826,666.185348,1532.190996
3699.982584,-11029.068536,148.041188,1532.190996
3699.982914,-8586.388927,-444.123565,-383.047749
3699.983244,-7105.977043,-518.144159,-1532.190996
3699.983574,-9178.553681,-74.020594,0.000000
3699.983904,-10955.047942,592.164754,1532.190996
3699.984234,-9992.780217,370.102971,1072.533697
3699.984563,-9252.574275,74.020594,-995.924147
3699.984893,-9548.656652,148.041188,-1378.971896
3699.985223,-12583.501014,296.082377,-153.219100
3699.985553,-12213.398043,518.144159,0.000000
3699.985883,-8882.471304,-962.267725,-1685.410096
3699.986213,-6735.874072,-888.247130,-2528.115143
3699.986543,-7772.162391,-666.185348,-1225.752797
3699.986872,-11251.130318,296.082377,689.485948
3699.987202,-10362.883188,148.041188,612.876398
3699.987532,-7846.182985,-370.102971,-1991.848295
3699.987862,-8808.450710,74.020594,-2068.457845
3699.988192,-11621.233289,-222.061783,0.000000
3699.988522,-12361.439231,0.000000,2068.457845
3699.988852,-9992.780217,-1258.350101,0.000000
3699.989181,-6143.709319,-1702.473667,-2451.505594
3699.989511,-7698.141797,-962.267725,-1838.629195
3699.989841,-12139.377449,222.061783,919.314598
3699.990171,-11621.233289,444.123565,2298.286494
3699.990501,-9104.533087,-222.061783,76.609550
3699.990831,-7179.997637,-296.082377,-1302.362347
3699.991161,-10214.842000,-296.082377,-306.438199
3699.991490,-12139.377449,222.061783,995.924147
3699.991820,-10288.862594,-518.144159,1149.143247
3699.992150,-8512.368333,-1110.308913,-612.876398
3699.992480,-7105.977043,-740.205942,-306.438199
3699.992810,-11325.150913,-444.123565,1532.190996
3699.993140,-12287.418637,592.164754,3064.381992
3699.993470,-9252.574275,0.000000,1378.971896
3699.993799,-8808.450710,0.000000,-612.876398
3699.994129,-7994.224174,-592.164754,689.485948
3699.994459,-11399.171507,74.020594,2374.896044
3699.994789,-11399.171507,296.082377,2681.334243
3699.995119,-8586.388927,-444.123565,0.000000
3699.995449,-8068.244768,0.000000,-995.924147
3699.995778,-10362.883188,296.082377,229.828649
3699.996108,-12139.377449,518.144159,2451.505594
3699.996438,-10658.965565,370.102971,2298.286494
3699.996768,-8216.285956,0.000000,-153.219100
3699.997098,-8216.285956,0.000000,-689.485948
3699.997427,-11325.150913,518.144159,459.657299
3699.997757,-12139.377449,962.267725,1608.800546
3699.998087,-9992.780217,0.000000,76.609550
3699.998417,-7550.100608,0.000000,-1608.800546
3699.998746,-8586.388927,0.000000,-766.095498
3699.999076,-11251.130318,370.102971,1608.800546
3699.999406,-11399.171507,740.205942,1302.362347
3699.999736,-8808.450710,222.061783,-306.438199
3700.000065,-7179.997637,222.061783,-2068.457845
3700.000395,-10214.842000,222.061783,-459.657299
3700.000725,-12435.459826,814.226536,1532.190996
3700.001055,-10584.944971,518.144159,383.047749
3700.001385,-8808.450710,0.000000,-2528.115143
3700.001714,-7920.203579,0.000000,-2068.457845
3700.002044,-10140.821405,0.000000,0.000000
3700.002374,-11473.192101,592.164754,1302.362347
3700.002704,-8660.409521,0.000000,0.000000
3700.003033,-7920.203579,0.000000,-1378.971896
3700.003363,-9178.553681,222.061783,-1149.143247
3700.003693,-11695.253884,518.144159,919.314598
3700.004023,-11621.233289,740.205942,1532.190996
3700.004353,-8586.388927,-222.061783,-766.095498
3700.004682,-7698.141797,-444.123565,-1838.629195
3700.005012,-9622.677246,-518.144159,-612.876398
3700.005342,-10807.006753,-370.102971,995.924147
3700.005672,-9622.677246,222.061783,1378.971896
3700.006001,-8068.244768,0.000000,-536.266849
3700.006331,-8068.244768,0.000000,-995.924147
3700.006661,-10140.821405,0.000000,1072.533697
3700.006991,-11769.274478,888.247130,2757.943793
3700.007321,-10807.006753,-148.041188,459.657299
3700.007650,-8068.244768,0.000000,-1532.190996
3700.007980,-8808.450710,0.000000,0.000000
3700.008310,-11547.212695,518.144159,1685.410096
3700.008640,-10881.027347,592.164754,1762.019645
3700.008969,-8808.450710,-666.185348,-306.438199
3700.009299,-7254.018232,0.000000,-1378.971896
3700.009629,-8808.450710,518.144159,459.657299
3700.009959,-12657.521608,888.247130,3294.210641
3700.010288,-11991.336260,814.226536,2298.286494
3700.010618,-9178.553681,148.041188,-919.314598
3700.010948,-7994.224174,148.041188,-1072.533697
3700.011278,-11029.068536,0.000000,1455.581446
3700.011608,-11695.253884,592.164754,2834.553343
3700.011937,-8512.368333,296.082377,1455.581446
3700.012267,-7328.038826,296.082377,-383.047749
3700.012597,-9844.739029,518.144159,459.657299
3700.012927,-12805.562797,962.267725,1685.410096
3700.013256,-11843.295072,1258.350101,1532.190996
3700.013586,-9844.739029,0.000000,-689.485948
3700.013916,-8068.244768,74.020594,-1149.143247
3700.014246,-10066.800811,-296.082377,0.000000
3700.014576,-11251.130318,370.102971,919.314598
3700.014905,-9844.739029,74.020594,0.000000
3700.015235,-8364.327145,-518.144159,-2145.067394
3700.015565,-8068.244768,0.000000,-2221.676944
3700.015895,-10807.006753,0.000000,842.705048
3700.016224,-10732.986159,148.041188,2298.286494
3700.016554,-10288.862594,-962.267725,0.000000
3700.016884,-7994.224174,-962.267725,-2068.457845
3700.017214,-8364.327145,-962.267725,-919.314598
3700.017543,-11029.068536,-296.082377,1225.752797
3700.017873,-10732.986159,148.041188,2068.457845
3700.018203,-9474.636058,-518.144159,-612.876398
3700.018533,-7920.203579,-518.144159,-1532.190996
3700.018863,-9696.697840,-444.123565,-306.438199
3700.019192,-12361.439231,592.164754,1378.971896
3700.019522,-10510.924376,222.061783,995.924147
3700.019852,-8290.306550,-444.123565,-1149.143247
3700.020182,-6587.832884,-370.102971,-1762.019645
3700.020511,-10436.903782,-370.102971,459.657299
3700.020841,-11621.233289,666.185348,2145.067394
3700.021171,-9844.739029,0.000000,383.047749
3700.021501,-8438.347739,-518.144159,-1072.533697
3700.021831,-8364.327145,-888.247130,229.828649
3700.022160,-11473.192101,0.000000,2451.505594
3700.022490,-11251.130318,296.082377,2528.115143
3700.022820,-9030.512492,-370.102971,-383.047749
3700.023150,-7772.162391,0.000000,-995.924147
3700.023479,-9844.739029,148.041188,536.266849
3700.023809,-11917.315666,592.164754,2221.676944
3700.024139,-10584.944971,740.205942,1225.752797
3700.024469,-8364.327145,-296.082377,-1532.190996
3700.024799,-7846.182985,-370.102971,-1608.800546
3700.025128,-10955.047942,-222.061783,536.266849
3700.025458,-11251.130318,518.144159,2145.067394
3700.025788,-9326.594869,-666.185348,1072.533697
3700.026118,-7550.100608,-296.082377,-689.485948
3700.026447,-8512.368333,-74.020594,229.828649
3700.026777,-11991.336260,444.123565,2374.896044
3700.027107,-11621.233289,962.267725,2374.896044
3700.027437,-9326.594869,-296.082377,0.000000
3700.027766,-8216.285956,-444.123565,-1685.410096
3700.028096,-9992.780217,-444.123565,0.000000
3700.028426,-11399.171507,592.164754,2298.286494
3700.028756,-9548.656652,-148.041188,536.266849
3700.029086,-8290.306550,74.020594,-2068.457845
3700.029415,-7476.080014,222.061783,-2068.457845
3700.029745,-11103.089130,444.123565,-153.219100
3700.030075,-12435.459826,1554.432478,1378.971896
3700.030405,-10881.027347,296.082377,0.000000
3700.030734,-9178.553681,0.000000,-1685.410096
3700.031064,-9400.615463,-518.144159,-995.924147
3700.031394,-11029.068536,0.000000,995.924147
3700.031724,-9918.759623,370.102971,1685.410096
3700.032054,-8364.327145,-148.041188,-536.266849
3700.032383,-8068.244768,518.144159,-1608.800546
3700.032713,-10955.047942,1110.308913,459.657299
3700.033043,-12953.603985,1628.453072,1838.629195
3700.033373,-11251.130318,666.185348,766.095498
3700.033702,-8882.471304,-740.205942,-1532.190996
3700.034032,-7550.100608,0.000000,-919.314598
3700.034362,-9548.656652,-814.226536,1302.362347
3700.034692,-10807.006753,222.061783,2681.334243
3700.035022,-9252.574275,0.000000,919.314598
3700.035351,-7328.038826,0.000000,-1378.971896
3700.035681,-8364.327145,0.000000,-306.438199
3700.036011,-12361.439231,814.226536,1762.019645
3700.036341,-11843.295072,814.226536,2604.724693
3700.036670,-9178.553681,-222.061783,459.657299
3700.037000,-7920.203579,0.000000,-306.438199
3700.037330,-9400.615463,-296.082377,612.876398
3700.037660,-11251.130318,444.123565,2145.067394
3700.037989,-10881.027347,74.020594,766.095498
3700.038319,-7550.100608,518.144159,-612.876398
3700.038649,-7624.121203,222.061783,-383.047749
3700.038979,-11325.150913,740.205942,1378.971896
3700.039309,-11473.192101,1184.329507,1762.019645
3700.039638,-9844.739029,888.247130,306.438199
3700.039968,-8586.388927,592.164754,-2221.676944
3700.040298,-9400.615463,222.061783,-1455.581446
3700.040628,-11843.295072,444.123565,1302.362347
3700.040957,-10658.965565,296.082377,1378.971896
3700.041287,-8956.491898,-296.082377,0.000000
3700.041617,-8068.244768,148.041188,-383.047749
3700.041947,-10362.883188,0.000000,766.095498
3700.042277,-12139.377449,814.226536,2451.505594
3700.042606,-10436.903782,0.000000,1762.019645
3700.042936,-7624.121203,-518.144159,-306.438199
3700.043266,-7994.224174,-444.123565,-306.438199
3700.043596,-10807.006753,0.000000,919.314598
3700.043925,-10510.924376,296.082377,1225.752797
3700.044255,-9770.718434,-74.020594,-459.657299
3700.044585,-8956.491898,370.102971,-2068.457845
3700.044915,-9622.677246,0.000000,-689.485948
3700.045245,-12509.480420,370.102971,1302.362347
3700.045574,-10955.047942,148.041188,612.876398
3700.045904,-8438.347739,-370.102971,-1532.190996
3700.046234,-7179.997637,-222.061783,-2374.896044
3700.046564,-10066.800811,-222.061783,76.609550
3700.046893,-12065.356855,740.205942,2221.676944
3700.047223,-10955.047942,0.000000,766.095498
3700.047553,-8808.450710,-222.061783,-1838.629195
3700.047883,-8956.491898,-370.102971,-1532.190996
3700.048212,-11251.130318,-444.123565,383.047749
3700.048542,-11473.192101,0.000000,1762.019645
3700.048872,-9326.594869,-1258.350101,0.000000
3700.049202,-7476.080014,-814.226536,-1532.190996
3700.049532,-9030.512492,-962.267725,-229.828649
3700.049861,-11843.295072,0.000000,2068.457845
3700.050191,-10362.883188,-444.123565,1685.410096
3700.050521,-7772.162391,-1110.308913,-306.438199
3700.050851,-7105.977043,-518.144159,-1072.533697
3700.051180,-10436.903782,-74.020594,842.705048
3700.051510,-11917.315666,296.082377,1762.019645
3700.051840,-10510.924376,-296.082377,995.924147
3700.052170,-8512.368333,-666.185348,-689.485948
3700.052500,-8734.430116,-444.123565,0.000000
3700.052829,-11251.130318,-296.082377,1762.019645
3700.053159,-10732.986159,222.061783,1991.848295
3700.053489,-8586.388927,-370.102971,-76.609550
3700.053819,-6957.935855,148.041188,-995.924147
3700.054148,-9252.574275,148.041188,76.609550
3700.054478,-12139.377449,1036.288319,1532.190996
3700.054808,-10732.986159,888.247130,766.095498
3700.055138,-8290.306550,-444.123565,-1455.581446
3700.055468,-8142.265362,148.041188,-1838.629195
3700.055797,-11251.130318,-74.020594,766.095498
3700.056127,-11399.171507,296.082377,2911.162892
3700.056457,-10214.842000,0.000000,1762.019645
3700.056787,-7550.100608,222.061783,-153.219100
3700.057116,-8438.347739,74.020594,-383.047749
3700.057446,-12065.356855,740.205942,1532.190996
3700.057776,-11325.150913,1184.329507,1991.848295
3700.058106,-9696.697840,1036.288319,-153.219100
3700.058435,-7920.203579,592.164754,-1991.848295
3700.058765,-10140.821405,592.164754,76.609550
3700.059095,-12139.377449,1406.391290,1838.629195
3700.059425,-10955.047942,1184.329507,1302.362347
3700.059755,-9844.739029,740.205942,-1378.971896
3700.060084,-7624.121203,592.164754,-1302.362347
3700.060414,-10881.027347,592.164754,689.485948
3700.060744,-11917.315666,1406.391290,1532.190996
3700.061074,-9548.656652,370.102971,229.828649
3700.061403,-9030.512492,-222.061783,-2451.505594
3700.061733,-9178.553681,-148.041188,-919.314598
3700.062063,-11473.192101,0.000000,2068.457845
3700.062393,-10288.862594,518.144159,3064.381992
3700.062723,-8438.347739,-74.020594,0.000000
3700.063052,-7476.080014,0.000000,-1225.752797
3700.063382,-9474.636058,148.041188,-536.266849
3700.063712,-12879.583391,666.185348,1149.143247
3700.064042,-11843.295072,592.164754,995.924147
3700.064371,-8956.491898,-962.267725,-1072.533697
3700.064701,-6883.915261,-814.226536,-1532.190996
3700.065031,-9400.615463,-666.185348,0.000000
3700.065361,-10807.006753,222.061783,1455.581446
3700.065691,-8882.471304,-74.020594,0.000000
3700.066020,-6809.894666,0.000000,-1378.971896
3700.066350,-9252.574275,740.205942,0.000000
3700.066680,-13249.686362,1480.411884,2374.896044
3700.067010,-12065.356855,814.226536,2068.457845
3700.067339,-9992.780217,-592.164754,-1455.581446
3700.067669,-7402.059420,-740.205942,-2528.115143
3700.067999,-9252.574275,-518.144159,0.000000
3700.068329,-11177.109724,296.082377,2757.943793
3700.068658,-9400.615463,148.041188,2451.505594
3700.068988,-7994.224174,-370.102971,-766.095498
3700.069318,-7254.018232,148.041188,-1532.190996
3700.069648,-11547.212695,148.041188,612.876398
3700.069978,-12805.562797,962.267725,1838.629195
3700.070307,-9992.780217,-296.082377,459.657299
3700.070637,-7550.100608,-666.185348,-1608.800546
3700.070967,-9178.553681,-814.226536,-766.095498
3700.071297,-11473.192101,-370.102971,1072.533697
3700.071626,-10214.842000,-148.041188,2145.067394
3700.071956,-9252.574275,-1110.308913,0.000000
3700.072286,-7698.141797,-370.102971,76.609550
3700.072616,-9326.594869,-370.102971,1915.238745
3700.072946,-12287.418637,444.123565,3524.039291
3700.073275,-11029.068536,370.102971,1532.190996
3700.073605,-9622.677246,-518.144159,-1838.629195
3700.073935,-8586.388927,-148.041188,-2068.457845
3700.074265,-11547.212695,-592.164754,229.828649
3700.074594,-11547.212695,444.123565,2451.505594
3700.074924,-9474.636058,-666.185348,612.876398
3700.075254,-7179.997637,-592.164754,-1455.581446
3700.075584,-8734.430116,74.020594,-995.924147
3700.075914,-12287.418637,518.144159,459.657299
3700.076243,-11769.274478,814.226536,383.047749
3700.076573,-9548.656652,-74.020594,-766.095498
3700.076903,-8512.368333,-444.123565,-1991.848295
3700.077233,-9622.677246,-888.247130,-459.657299
3700.077562,-11177.109724,-222.061783,1838.629195
3700.077892,-9770.718434,-592.164754,919.314598
3700.078222,-7772.162391,-888.247130,-1915.238745
3700.078552,-7254.018232,-370.102971,-1685.410096
3700.078881,-11399.171507,-148.041188,919.314598
3700.079211,-11695.253884,370.102971,2145.067394
3700.079541,-9770.718434,-962.267725,0.000000
3700.079871,-7920.203579,-888.247130,-1991.848295
3700.080201,-8438.347739,-592.164754,-1838.629195
3700.080530,-11177.109724,0.000000,766.095498
3700.080860,-10510.924376,518.144159,1455.581446
3700.081190,-8586.388927,-148.041188,-766.095498
3700.081520,-7254.018232,222.061783,-995.924147
3700.081849,-9548.656652,74.020594,919.314598
3700.082179,-13101.645173,1036.288319,2681.334243
3700.082509,-10658.965565,370.102971,842.705048
3700.082839,-7994.224174,222.061783,-1455.581446
3700.083169,-8438.347739,592.164754,-1149.143247
3700.083498,-11547.212695,370.102971,1072.533697
3700.083828,-11621.233289,740.205942,2528.115143
3700.084158,-9400.615463,-296.082377,612.876398
3700.084488,-6883.915261,-74.020594,-1455.581446
3700.084817,-9030.512492,222.061783,76.609550
3700.085147,-12657.521608,1110.308913,2374.896044
3700.085477,-10658.965565,1110.308913,2451.505594
3700.085807,-8808.450710,518.144159,0.000000
3700.086137,-8808.450710,296.082377,-612.876398
3700.086466,-10436.903782,-444.123565,1225.752797
3700.086796,-11547.212695,592.164754,2528.115143
3700.087126,-8956.491898,74.020594,1149.143247
3700.087456,-7402.059420,-444.123565,-995.924147
3700.087785,-7550.100608,666.185348,0.000000
3700.088115,-11769.274478,814.226536,2681.334243
3700.088445,-11991.336260,1776.494261,3447.429741
3700.088775,-9844.739029,740.205942,995.924147
3700.089104,-9104.533087,444.123565,-1532.190996
3700.089434,-10881.027347,296.082377,-612.876398
3700.089764,-12287.418637,592.164754,1685.410096
3700.090094,-9918.759623,740.205942,1532.190996
3700.090424,-7846.182985,-518.144159,-1532.190996
3700.090753,-7031.956449,592.164754,-1991.848295
3700.091083,-9696.697840,370.102971,-306.438199
3700.091413,-12213.398043,1406.391290,459.657299
3700.091743,-10436.903782,814.226536,-612.876398
3700.092072,-8660.409521,-296.082377,-2298.286494
3700.092402,-8734.430116,-148.041188,-842.705048
3700.092732,-11991.336260,0.000000,1302.362347
3700.093062,-11695.253884,0.000000,2451.505594
3700.093392,-9326.594869,-1110.308913,-229.828649
3700.093721,-8364.327145,-592.164754,-1991.848295
3700.094051,-8586.388927,-888.247130,306.438199
3700.094381,-11843.295072,0.000000,2987.772442
3700.094711,-10955.047942,518.144159,2681.334243
3700.095040,-8882.471304,-74.020594,-1225.752797
3700.095370,-8142.265362,-148.041188,-3447.429741
3700.095700,-11029.068536,0.000000,-1378.971896
3700.096030,-12435.459826,222.061783,1225.752797
3700.096359,-10140.821405,-444.123565,1149.143247
3700.096689,-7031.956449,-370.102971,-689.485948
3700.097019,-7105.977043,-444.123565,-689.485948
3700.097349,-10436.903782,-296.082377,536.266849
3700.097679,-11695.253884,740.205942,1762.019645
3700.098008,-9844.739029,0.000000,153.219100
3700.098338,-7698.141797,0.000000,-383.047749
3700.098668,-10288.862594,0.000000,306.438199
3700.098998,-11547.212695,-222.061783,1762.019645
3700.099327,-10881.027347,0.000000,1302.362347
3700.099657,-7698.141797,-888.247130,-1072.533697
3700.099987,-6809.894666,-592.164754,-1762.019645
3700.100317,-9104.533087,0.000000,766.095498
3700.100646,-11029.068536,1332.370696,2528.115143
3700.100976,-10510.924376,592.164754,459.657299
3700.101306,-8142.265362,0.000000,-2757.943793
3700.101636,-8956.491898,-222.061783,-2298.286494
3700.101966,-11917.315666,-370.102971,612.876398
3700.102295,-11325.150913,222.061783,2987.772442
3700.102625,-8068.244768,-740.205942,1149.143247
3700.102955,-6439.791695,0.000000,-1149.143247
3700.103285,-8438.347739,0.000000,459.657299
3700.103614,-12805.562797,888.247130,2681.334243
3700.103944,-11917.315666,1332.370696,2604.724693
3700.104274,-9696.697840,296.082377,-536.266849
3700.104604,-7772.162391,74.020594,-1455.581446
3700.104933,-11103.089130,74.020594,-153.219100
3700.105263,-13101.645173,666.185348,1302.362347
3700.105593,-10510.924376,74.020594,76.609550
3700.105923,-8512.368333,0.000000,-2451.505594
3700.106253,-6365.771101,0.000000,-1455.581446
3700.106582,-9770.718434,0.000000,1532.190996
3700.106912,-11769.274478,962.267725,2451.505594
3700.107242,-10362.883188,74.020594,-306.438199
3700.107572,-8808.450710,-518.144159,-2145.067394
3700.107901,-9252.574275,-592.164754,-1149.143247
3700.108231,-12287.418637,-74.020594,1762.019645
3700.108561,-10807.006753,-148.041188,2221.676944
3700.108891,-8882.471304,-1924.535449,-536.266849
3700.109220,-7254.018232,-666.185348,-1762.019645
3700.109550,-10066.800811,-592.164754,229.828649
3700.109880,-12361.439231,0.000000,2374.896044
3700.110210,-10658.965565,0.000000,1302.362347
3700.110539,-8290.306550,148.041188,-1072.533697
3700.110869,-7846.182985,-296.082377,-1225.752797
3700.111199,-10955.047942,-444.123565,-459.657299
3700.111529,-10881.027347,-74.020594,306.438199
3700.111859,-9030.512492,-962.267725,-1149.143247
3700.112188,-7105.977043,-592.164754,-1532.190996
3700.112518,-8290.306550,-518.144159,0.000000
3700.112848,-11547.212695,444.123565,2221.676944
3700.113178,-11029.068536,814.226536,2451.505594
3700.113507,-9548.656652,-370.102971,-919.314598
3700.113837,-8142.265362,-222.061783,-1608.800546
3700.114167,-9992.780217,-444.123565,612.876398
3700.114497,-11029.068536,740.205942,2604.724693
3700.114826,-9696.697840,444.123565,1072.533697
3700.115156,-8142.265362,-222.061783,-1991.848295
3700.115486,-7772.162391,370.102971,-1532.190996
3700.115816,-10807.006753,592.164754,995.924147
3700.116146,-11769.274478,1554.432478,2221.676944
3700.116475,-9992.780217,222.061783,0.000000
3700.116805,-7994.224174,148.041188,-1915.238745
3700.117135,-8734.430116,74.020594,-536.266849
3700.117465,-11917.315666,296.082377,1991.848295
3700.117794,-11399.171507,518.144159,2451.505594
3700.118124,-8882.471304,-296.082377,689.485948
3700.118454,-6217.729913,592.164754,-229.828649
3700.118784,-9622.677246,296.082377,1455.581446
3700.119113,-12805.562797,1628.453072,3140.991542
3700.119443,-11399.171507,740.205942,2068.457845
3700.119773,-9400.615463,0.000000,-1302.362347
3700.120103,-8290.306550,0.000000,-1455.581446
3700.120433,-11177.109724,370.102971,1302.362347
3700.120762,-10881.027347,888.247130,2068.457845
3700.121092,-9400.615463,-518.144159,-153.219100
3700.121422,-7476.080014,0.000000,-1378.971896
3700.121752,-9252.574275,-222.061783,-459.657299
3700.122081,-12361.439231,888.247130,1608.800546
3700.122411,-10584.944971,1036.288319,1378.971896
3700.122741,-9622.677246,740.205942,-1149.143247
3700.123071,-8512.368333,296.082377,-2451.505594
3700.123400,-9992.780217,-148.041188,-1225.752797
3700.123730,-11695.253884,148.041188,995.924147
3700.124060,-10584.944971,-296.082377,459.657299
3700.124390,-8882.471304,-592.164754,-1072.533697
3700.124720,-7624.121203,-592.164754,0.000000
3700.125049,-10658.965565,0.000000,1302.362347
3700.125379,-11251.130318,962.267725,2145.067394
3700.125709,-9326.594869,74.020594,0.000000
3700.126039,-7846.182985,-148.041188,-1915.238745
3700.126368,-9326.594869,0.000000,-1149.143247
3700.126698,-12139.377449,296.082377,1225.752797
3700.127028,-11177.109724,296.082377,1225.752797
3700.127358,-8734.430116,-370.102971,-1455.581446
3700.127687,-6809.894666,0.000000,-1685.410096
3700.128017,-9252.574275,-370.102971,0.000000
3700.128347,-11917.315666,1036.288319,2298.286494
3700.128677,-10362.883188,222.061783,1838.629195
3700.129007,-8438.347739,296.082377,0.000000
3700.129336,-9252.574275,148.041188,-612.876398
3700.129666,-12361.439231,444.123565,1378.971896
3700.129996,-11177.109724,592.164754,2374.896044
3700.130326,-9770.718434,-444.123565,1225.752797
3700.130655,-7105.977043,-222.061783,-229.828649
3700.130985,-9104.533087,-148.041188,766.095498
3700.131315,-11843.295072,666.185348,2221.676944
3700.131645,-10436.903782,518.144159,1838.629195
3700.131974,-9030.512492,-518.144159,-536.266849
3700.132304,-7624.121203,-74.020594,-536.266849
3700.132634,-11399.171507,-370.102971,919.314598
3700.132964,-12139.377449,444.123565,2221.676944
3700.133293,-9030.512492,-592.164754,1532.190996
3700.133623,-6957.935855,-888.247130,0.000000
3700.133953,-7994.224174,-370.102971,306.438199
3700.134283,-11251.130318,0.000000,2068.457845
3700.134613,-11177.109724,592.164754,2604.724693
3700.134942,-9548.656652,74.020594,383.047749
3700.135272,-8956.491898,370.102971,-1685.410096
3700.135602,-9622.677246,222.061783,-766.095498
3700.135932,-11695.253884,518.144159,842.705048
3700.136261,-10732.986159,888.247130,766.095498
3700.136591,-9030.512492,0.000000,-1608.800546
3700.136921,-7105.977043,0.000000,-1685.410096
3700.137251,-10955.047942,222.061783,-153.219100
3700.137580,-11991.336260,1332.370696,1608.800546
3700.137910,-9770.718434,0.000000,306.438199
3700.138240,-7994.224174,-296.082377,-1762.019645
3700.138570,-9622.677246,-444.123565,-1378.971896
3700.138900,-12361.439231,296.082377,842.705048
3700.139229,-10955.047942,0.000000,1302.362347
3700.139559,-8882.471304,-962.267725,-689.485948
3700.139889,-6735.874072,-444.123565,-1838.629195
3700.140219,-8882.471304,-592.164754,-536.266849
3700.140548,-11769.274478,0.000000,1378.971896
3700.140878,-10362.883188,74.020594,1072.533697
3700.141208,-8882.471304,-518.144159,-1762.019645
3700.141538,-7402.059420,-592.164754,-1762.019645
3700.141867,-11399.171507,-370.102971,153.219100
3700.142197,-12213.398043,148.041188,1915.238745
3700.142527,-9696.697840,-666.185348,306.438199
3700.142857,-7105.977043,-814.226536,-1378.971896
3700.143187,-8068.244768,-666.185348,-919.314598
3700.143516,-11029.068536,0.000000,1915.238745
3700.143846,-10510.924376,518.144159,2221.676944
3700.144176,-9178.553681,0.000000,229.828649
3700.144506,-7772.162391,74.020594,-1455.581446
3700.144835,-10436.903782,0.000000,76.609550
3700.145165,-12879.583391,740.205942,1378.971896
3700.145495,-11103.089130,222.061783,76.609550
3700.145825,-9030.512492,-444.123565,-1838.629195
3700.146154,-7254.018232,-444.123565,-766.095498
3700.146484,-10288.862594,-444.123565,1762.019645
3700.146814,-11399.171507,518.144159,2757.943793
3700.147144,-8734.430116,74.020594,919.314598
3700.147474,-8216.285956,-296.082377,-1225.752797
3700.147803,-9178.553681,0.000000,-76.609550
3700.148133,-13249.686362,0.000000,2298.286494
3700.148463,-11695.253884,370.102971,2604.724693
3700.148793,-9252.574275,-962.267725,459.657299
3700.149122,-6735.874072,-222.061783,-919.314598
3700.149452,-9844.739029,-148.041188,-153.219100
3700.149782,-12065.356855,592.164754,1685.410096
3700.150112,-8882.471304,370.102971,1455.581446
3700.150441,-7624.121203,-518.144159,-306.438199
3700.150771,-9252.574275,370.102971,-153.219100
3700.151101,-11695.253884,222.061783,995.924147
3700.151431,-11473.192101,962.267725,1225.752797
3700.151761,-10066.800811,222.061783,-689.485948
3700.152090,-8364.327145,0.000000,-2298.286494
3700.152420,-9252.574275,-222.061783,-306.438199
3700.152750,-11473.192101,296.082377,1915.238745
3700.153080,-10436.903782,666.185348,2145.067394
3700.153409,-8290.306550,0.000000,-1378.971896
3700.153739,-8216.285956,444.123565,-2451.505594
3700.154069,-9918.759623,-148.041188,-459.657299
3700.154399,-12287.418637,518.144159,2911.162892
3700.154728,-11473.192101,296.082377,2145.067394
3700.155058,-8956.491898,-1110.308913,-842.705048
3700.155388,-7402.059420,-592.164754,-1302.362347
3700.155718,-10510.924376,-740.205942,153.219100
3700.156048,-10881.027347,74.020594,1378.971896
3700.156377,-8956.491898,-222.061783,0.000000
3700.156707,-7402.059420,-296.082377,-1991.848295
3700.157037,-8734.430116,-74.020594,-1072.533697
3700.157367,-11399.171507,148.041188,995.924147
3700.157696,-10732.986159,296.082377,995.924147
3700.158026,-9252.574275,-518.144159,-1762.019645
3700.158356,-7179.997637,-592.164754,-2068.457845
3700.158686,-10214.842000,-592.164754,689.485948
3700.159015,-11325.150913,148.041188,2604.724693
3700.159345,-9548.656652,222.061783,1225.752797
3700.159675,-8290.306550,-148.041188,-1149.143247
3700.160005,-9178.553681,592.164754,-459.657299
3700.160334,-12139.377449,370.102971,1685.410096
3700.160664,-12139.377449,592.164754,2451.505594
3700.160994,-9474.636058,-518.144159,0.000000
3700.161324,-7624.121203,-666.185348,-2145.067394
3700.161654,-7698.141797,0.000000,-689.485948
3700.161983,-10658.965565,0.000000,1225.752797
3700.162313,-11251.130318,1110.308913,1915.238745
3700.162643,-9992.780217,0.000000,0.000000
3700.162973,-8734.430116,148.041188,-459.657299
3700.163302,-11029.068536,-444.123565,919.314598
3700.163632,-11917.315666,296.082377,2528.115143
3700.163962,-9326.594869,-296.082377,1915.238745
3700.164292,-7179.997637,-888.247130,229.828649
3700.164621,-7402.059420,-296.082377,-383.047749
3700.164951,-10214.842000,-592.164754,1608.800546
3700.165281,-11029.068536,962.267725,2528.115143
3700.165611,-9844.739029,370.102971,612.876398
3700.165941,-9030.512492,222.061783,-995.924147
3700.166270,-9326.594869,370.102971,-306.438199
3700.166600,-11621.233289,444.123565,1762.019645
3700.166930,-11029.068536,518.144159,1455.581446
3700.167260,-9326.594869,74.020594,-919.314598
3700.167589,-8068.244768,222.061783,-2221.676944
3700.167919,-10288.862594,592.164754,-459.657299
3700.168249,-11917.315666,888.247130,1532.190996
3700.168579,-10140.821405,888.247130,1225.752797
3700.168908,-7698.141797,74.020594,-1072.533697
3700.169238,-8068.244768,148.041188,-1072.533697
3700.169568,-11621.233289,222.061783,459.657299
3700.169898,-12065.356855,888.247130,919.314598
3700.170228,-10066.800811,-296.082377,-842.705048
3700.170557,-8438.347739,-296.082377,-2068.457845
3700.170887,-8660.409521,-370.102971,-689.485948
3700.171217,-11399.171507,-222.061783,1225.752797
3700.171547,-10807.006753,518.144159,1225.752797
3700.171876,-8882.471304,-518.144159,-766.095498
3700.172206,-7698.141797,-444.123565,-1455.581446
3700.172536,-9770.718434,-370.102971,0.000000
3700.172866,-11695.253884,740.205942,2528.115143
3700.173195,-9770.718434,0.000000,1072.533697
3700.173525,-8512.368333,-370.102971,-2145.067394
3700.173855,-7624.121203,-296.082377,-1532.190996
3700.174185,-10732.986159,0.000000,1149.143247
3700.174515,-12065.356855,888.247130,2451.505594
3700.174844,-10436.903782,0.000000,1072.533697
3700.175174,-8216.285956,-296.082377,-1302.362347
3700.175504,-8660.409521,-592.164754,-383.047749
3700.175834,-10732.986159,0.000000,1532.190996
3700.176163,-10214.842000,74.020594,2145.067394
3700.176493,-8660.409521,-296.082377,0.000000
3700.176823,-7402.059420,296.082377,-689.485948
3700.177153,-9992.780217,666.185348,0.000000
3700.177482,-12657.521608,592.164754,1532.190996
3700.177812,-10436.903782,148.041188,766.095498
3700.178142,-8290.306550,-592.164754,-995.924147
3700.178472,-7994.224174,0.000000,0.000000
3700.178802,-10510.924376,-370.102971,2145.067394
3700.179131,-11251.130318,296.082377,3370.820191
3700.179461,-9696.697840,-518.144159,995.924147
3700.179791,-7772.162391,0.000000,-1149.143247
3700.180121,-8808.450710,0.000000,612.876398
3700.180450,-11991.336260,1036.288319,2681.334243
3700.180780,-10955.047942,1110.308913,2834.553343
3700.181110,-9548.656652,74.020594,-536.266849
3700.181440,-9252.574275,148.041188,-2221.676944
3700.181769,-10362.883188,0.000000,-1149.143247
3700.182099,-11695.253884,444.123565,1302.362347
3700.182429,-9770.718434,296.082377,995.924147
3700.182759,-8068.244768,0.000000,-536.266849
3700.183088,-7772.162391,222.061783,-1532.190996
3700.183418,-11621.233289,296.082377,-229.828649
3700.183748,-12361.439231,666.185348,689.485948
3700.184078,-10214.842000,0.000000,-229.828649
3700.184408,-8586.388927,-222.061783,-1302.362347
3700.184737,-8364.327145,-740.205942,-76.609550
3700.185067,-11621.233289,0.000000,1532.190996
3700.185397,-10584.944971,148.041188,1149.143247
3700.185727,-8512.368333,-592.164754,-1608.800546
3700.186056,-7698.141797,-370.102971,-2068.457845
3700.186386,-10510.924376,0.000000,76.609550
3700.186716,-12805.562797,518.144159,1991.848295
3700.187046,-10436.903782,0.000000,766.095498
3700.187375,-7846.182985,-1036.288319,-2528.115143
3700.187705,-7179.997637,-518.144159,-2221.676944
3700.188035,-10066.800811,-592.164754,0.000000
3700.188365,-10436.903782,296.082377,3217.601092
3700.188695,-9918.759623,0.000000,1378.971896
3700.189024,-8142.265362,148.041188,-459.657299
3700.189354,-9548.656652,222.061783,-306.438199
3700.189684,-12509.480420,222.061783,1072.533697
3700.190014,-11621.233289,222.061783,1455.581446
3700.190343,-9326.594869,-740.205942,-536.266849
3700.190673,-7105.977043,-518.144159,-1072.533697
3700.191003,-9030.512492,-666.185348,306.438199
3700.191333,-11251.130318,444.123565,1991.848295
3700.191662,-10510.924376,74.020594,1302.362347
3700.191992,-9104.533087,222.061783,-1072.533697
3700.192322,-8438.347739,370.102971,-1072.533697
3700.192652,-11029.068536,370.102971,1532.190996
3700.192982,-11399.171507,814.226536,2298.286494
3700.193311,-9548.656652,-296.082377,153.219100
3700.193641,-8216.285956,0.000000,-1532.190996
3700.193971,-9030.512492,0.000000,-459.657299
3700.194301,-11399.171507,74.020594,1762.019645
3700.194630,-10436.903782,740.205942,2221.676944
3700.194960,-8512.368333,-148.041188,0.000000
3700.195290,-7328.038826,148.041188,-689.485948
3700.195620,-9844.739029,0.000000,1072.533697
3700.195949,-12509.480420,1110.308913,2834.553343
3700.196279,-11251.130318,444.123565,1762.019645
3700.196609,-9030.512492,74.020594,-459.657299
3700.196939,-8586.388927,-148.041188,-612.876398
3700.197269,-11325.150913,0.000000,1378.971896
3700.197599,-10881.027347,740.205942,2068.457845
3700.197929,-9104.533087,-444.123565,229.828649
3700.198259,-7920.203579,222.061783,-1455.581446
3700.198588,-9104.533087,74.020594,-612.876398
3700.198918,-12065.356855,592.164754,459.657299
3700.199248,-10955.047942,444.123565,536.266849
3700.199578,-8808.450710,-296.082377,-2374.896044
3700.199908,-7624.121203,-222.061783,-2451.505594
3700.200238,-10510.924376,-592.164754,0.000000
3700.200568,-10807.006753,-444.123565,2221.676944
3700.200898,-9326.594869,-370.102971,2068.457845
3700.201228,-8660.409521,-444.123565,-306.438199
3700.201558,-8438.347739,-296.082377,-1149.143247
3700.201888,-11621.233289,0.000000,0.000000
3700.202217,-11917.315666,740.205942,1149.143247
3700.202547,-10436.903782,148.041188,306.438199
3700.202877,-8512.368333,-444.123565,-1302.362347
3700.203207,-8216.285956,-518.144159,-766.095498
3700.203537,-10214.842000,0.000000,995.924147
3700.203867,-9992.780217,444.123565,1225.752797
3700.204197,-8808.450710,-666.185348,-766.095498
3700.204527,-7846.182985,0.000000,-1149.143247
3700.204857,-10214.842000,666.185348,536.266849
3700.205187,-12435.459826,740.205942,1838.629195
3700.205517,-10807.006753,148.041188,995.924147
3700.205846,-8586.388927,-666.185348,-1225.752797
3700.206176,-8216.285956,-370.102971,-153.219100
3700.206506,-11103.089130,0.000000,2068.457845
3700.206836,-11621.233289,518.144159,3524.039291
3700.207166,-8882.471304,-592.164754,842.705048
3700.207496,-7402.059420,296.082377,-842.705048
3700.207826,-9474.636058,814.226536,153.219100
3700.208156,-12287.418637,888.247130,1378.971896
3700.208486,-11029.068536,814.226536,919.314598
3700.208816,-9104.533087,-148.041188,-842.705048
3700.209146,-7476.080014,-444.123565,-1225.752797
3700.209475,-10807.006753,-740.205942,766.095498
3700.209805,-11621.233289,296.082377,2528.115143
3700.210135,-8290.306550,-370.102971,1378.971896
3700.210465,-7772.162391,74.020594,-766.095498
3700.210795,-7550.100608,444.123565,-536.266849
3700.211125,-11843.295072,888.247130,2145.067394
3700.211455,-12361.439231,1258.350101,2757.943793
3700.211785,-10436.903782,444.123565,383.047749
3700.212115,-8956.491898,-222.061783,-1532.190996
3700.212445,-9548.656652,-666.185348,-1072.533697
3700.212775,-11251.130318,0.000000,1532.190996
3700.213104,-9770.718434,0.000000,1762.019645
3700.213434,-7772.162391,-370.102971,-1302.362347
3700.213764,-7402.059420,444.123565,-1608.800546
3700.214094,-10140.821405,592.164754,-229.828649
3700.214424,-13027.624579,1406.391290,1072.533697
3700.214754,-11473.192101,444.123565,0.000000
3700.215084,-9770.718434,-148.041188,-2374.896044
3700.215414,-8586.388927,-222.061783,-1608.800546
3700.215744,-11177.109724,-296.082377,995.924147
3700.216074,-10955.047942,0.000000,2145.067394
3700.216404,-8808.450710,-592.164754,383.047749
3700.216733,-7328.038826,-814.226536,-1455.581446
3700.217063,-9918.759623,148.041188,-1225.752797
3700.217393,-12583.501014,1110.308913,995.924147
3700.217723,-10881.027347,444.123565,612.876398
3700.218053,-9030.512492,-148.041188,-1072.533697
3700.218383,-8290.306550,-666.185348,-1685.410096
3700.218713,-9474.636058,-1110.308913,-383.047749
3700.219043,-10214.842000,0.000000,1838.629195
3700.219373,-9252.574275,-1258.350101,229.828649
3700.219703,-7402.059420,-962.267725,-1302.362347
3700.220033,-8216.285956,148.041188,383.047749
3700.220362,-11843.295072,148.041188,2374.896044
3700.220692,-12287.418637,1110.308913,2451.505594
3700.221022,-10140.821405,-888.247130,229.828649
3700.221352,-7550.100608,-814.226536,-459.657299
3700.221682,-10362.883188,-370.102971,153.219100
3700.222012,-12213.398043,370.102971,2451.505594
3700.222342,-9918.759623,222.061783,1991.848295
3700.222672,-8290.306550,-222.061783,-1302.362347
3700.223002,-6513.812290,518.144159,-2451.505594
3700.223332,-10955.047942,518.144159,-1149.143247
3700.223662,-12805.562797,1554.432478,1149.143247
3700.223991,-9770.718434,74.020594,306.438199
3700.224321,-7698.141797,-444.123565,-995.924147
3700.224651,-9030.512492,-444.123565,-459.657299
3700.224981,-10807.006753,-592.164754,2298.286494
3700.225311,-11029.068536,0.000000,3677.258390
3700.225641,-9474.636058,-740.205942,1762.019645
3700.225971,-7550.100608,148.041188,842.705048
3700.226301,-9992.780217,518.144159,1838.629195
3700.226631,-12805.562797,1110.308913,2451.505594
3700.226961,-10807.006753,1036.288319,1532.190996
3700.227291,-8660.409521,0.000000,-1838.629195
3700.227620,-8512.368333,296.082377,-2221.676944
3700.227950,-10066.800811,0.000000,-766.095498
3700.228280,-11029.068536,444.123565,689.485948
3700.228610,-9548.656652,0.000000,-153.219100
3700.228940,-8512.368333,0.000000,-1072.533697
3700.229270,-8586.388927,0.000000,-842.705048
3700.229600,-10732.986159,296.082377,1455.581446
3700.229930,-11029.068536,1110.308913,2374.896044
3700.230260,-10584.944971,148.041188,383.047749
3700.230590,-9178.553681,-148.041188,-459.657299
3700.230920,-10955.047942,-444.123565,536.266849
3700.231250,-11695.253884,0.000000,1762.019645
3700.231579,-9326.594869,-814.226536,842.705048
3700.231909,-7476.080014,-1258.350101,-1225.752797
3700.232239,-7031.956449,-296.082377,-1608.800546
3700.232569,-9844.739029,370.102971,153.219100
3700.232899,-11843.295072,1110.308913,842.705048
3700.233229,-10584.944971,444.123565,-995.924147
3700.233559,-9474.636058,0.000000,-3217.601092
3700.233889,-9474.636058,-444.123565,-1991.848295
3700.234219,-11103.089130,-592.164754,766.095498
3700.234549,-9992.780217,0.000000,1915.238745
3700.234879,-8660.409521,-1184.329507,-153.219100
3700.235208,-7254.018232,-296.082377,-766.095498
3700.235538,-9400.615463,-222.061783,536.266849
3700.235868,-12287.418637,814.226536,1991.848295
3700.236198,-11251.130318,370.102971,1378.971896
3700.236528,-9178.553681,-370.102971,-995.924147
3700.236858,-8734.430116,0.000000,-1915.238745
3700.237188,-10955.047942,-592.164754,0.000000
3700.237518,-10955.047942,-222.061783,689.485948
3700.237848,-9030.512492,-592.164754,153.219100
3700.238178,-7105.977043,-518.144159,-1838.629195
3700.238508,-7772.162391,0.000000,0.000000
3700.238837,-11399.171507,518.144159,1149.143247
3700.239167,-11325.150913,888.247130,1838.629195
3700.239497,-9178.553681,-370.102971,306.438199
3700.239827,-9178.553681,74.020594,-612.876398
3700.240157,-11325.150913,222.061783,689.485948
3700.240487,-11695.253884,148.041188,2145.067394
3700.240817,-9474.636058,0.000000,2068.457845
3700.241147,-7179.997637,-814.226536,-612.876398
3700.241477,-7031.956449,-296.082377,-459.657299
3700.241807,-10584.944971,518.144159,995.924147
3700.242137,-11695.253884,1258.350101,2068.457845
3700.242466,-10066.800811,666.185348,612.876398
3700.242796,-9252.574275,370.102971,-1762.019645
3700.243126,-9992.780217,0.000000,-1302.362347
3700.243456,-11251.130318,-296.082377,1149.143247
3700.243786,-9474.636058,-148.041188,2298.286494
3700.244116,-8290.306550,-962.267725,536.266849
3700.244446,-7994.224174,0.000000,-383.047749
3700.244776,-9622.677246,0.000000,842.705048
3700.245106,-12065.356855,1480.411884,3140.991542
3700.245436,-11325.150913,888.247130,1149.143247
3700.245766,-9844.739029,0.000000,-1378.971896
3700.246095,-9104.533087,0.000000,-1149.143247
3700.246425,-11103.089130,-222.061783,153.219100
3700.246755,-11251.130318,74.020594,383.047749
3700.247085,-9030.512492,-962.267725,-612.876398
3700.247415,-7254.018232,-740.205942,-1915.238745
3700.247745,-7698.141797,222.061783,-995.924147
3700.248075,-11695.253884,1184.329507,689.485948
3700.248405,-11177.109724,1184.329507,766.095498
3700.248735,-9474.636058,148.041188,-1532.190996
3700.249065,-8808.450710,0.000000,-2681.334243
3700.249395,-9992.780217,-296.082377,306.438199
3700.249724,-11843.295072,-592.164754,2068.457845
3700.250054,-9844.739029,-296.082377,1762.019645
3700.250384,-7476.080014,-1036.288319,-1072.533697
3700.250714,-7179.997637,0.000000,-919.314598
3700.251044,-10362.883188,0.000000,383.047749
3700.251374,-11473.192101,1332.370696,2374.896044
3700.251704,-9918.759623,1184.329507,689.485948
3700.252034,-9770.718434,592.164754,-1225.752797
3700.252364,-9696.697840,370.102971,-1225.752797
3700.252694,-11473.192101,0.000000,383.047749
3700.253024,-10510.924376,0.000000,536.266849
3700.253353,-8290.306550,-962.267725,-612.876398
3700.253683,-7105.977043,74.020594,0.000000
3700.254013,-9474.636058,370.102971,1838.629195
3700.254343,-11621.233289,1036.288319,2987.772442
3700.254673,-10807.006753,1184.329507,2068.457845
3700.255003,-9844.739029,74.020594,-689.485948
3700.255333,-8882.471304,148.041188,-766.095498
3700.255663,-10658.965565,-222.061783,1378.971896
3700.255993,-11399.171507,74.020594,2681.334243
3700.256323,-8586.388927,-740.205942,1225.752797
3700.256653,-7105.977043,-370.102971,-229.828649
3700.256982,-7994.224174,0.000000,153.219100
3700.257312,-11473.192101,1036.288319,2145.067394
3700.257642,-11251.130318,1406.391290,2221.676944
3700.257972,-9992.780217,444.123565,76.609550
3700.258302,-9104.533087,518.144159,-919.314598
3700.258632,-10510.924376,0.000000,0.000000
3700.258962,-12065.356855,444.123565,1455.581446
3700.259292,-9918.759623,-148.041188,153.219100
3700.259622,-7846.182985,-592.164754,-1762.019645
3700.259952,-6883.915261,-296.082377,-612.876398
3700.260282,-10362.883188,666.185348,1455.581446
3700.260611,-11991.336260,1184.329507,1991.848295
3700.260941,-11029.068536,592.164754,-306.438199
3700.261271,-9326.594869,0.000000,-2068.457845
3700.261601,-9696.697840,0.000000,-1378.971896
3700.261931,-11399.171507,0.000000,766.095498
3700.262261,-10658.965565,0.000000,1149.143247
3700.262591,-9030.512492,-740.205942,-459.657299
3700.262921,-7846.182985,-222.061783,-1532.190996
3700.263251,-9992.780217,0.000000,-919.314598
3700.263581,-11547.212695,370.102971,689.485948
3700.263911,-9770.718434,0.000000,229.828649
3700.264240,-7994.224174,-296.082377,-1149.143247
3700.264570,-8364.327145,0.000000,-1378.971896
3700.264900,-11399.171507,222.061783,153.219100
3700.265230,-11473.192101,222.061783,842.705048
3700.265560,-9992.780217,-518.144159,-229.828649
3700.265890,-7698.141797,-370.102971,-689.485948
3700.266220,-8438.347739,-444.123565,459.657299
3700.266550,-11029.068536,0.000000,2604.724693
3700.266880,-9992.780217,666.185348,2298.286494
3700.267210,-9104.533087,296.082377,-766.095498
3700.267540,-9400.615463,296.082377,-1991.848295
3700.267869,-10807.006753,148.041188,-153.219100
3700.268199,-11695.253884,444.123565,1838.629195
3700.268529,-9400.615463,-370.102971,1378.971896
3700.268859,-7550.100608,-814.226536,-995.924147
3700.269189,-7772.162391,-148.041188,-689.485948
3700.269519,-10658.965565,148.041188,919.314598
3700.269849,-11251.130318,814.226536,1991.848295
3700.270179,-9844.739029,296.082377,1072.533697
3700.270509,-9104.533087,592.164754,-76.609550
3700.270839,-9844.739029,370.102971,229.828649
3700.271169,-11843.295072,148.041188,2068.457845
3700.271498,-10510.924376,0.000000,1608.800546
3700.271828,-8882.471304,-1110.308913,-459.657299
3700.272158,-7328.038826,-962.267725,-229.828649
3700.272488,-9696.697840,-518.144159,1532.190996
3700.272818,-11029.068536,592.164754,3294.210641
3700.273148,-9474.636058,592.164754,1302.362347
3700.273478,-8512.368333,370.102971,-1072.533697
3700.273808,-9326.594869,666.185348,-1149.143247
3700.274138,-12361.439231,444.123565,919.314598
3700.274468,-12213.398043,444.123565,1532.190996
3700.274798,-9548.656652,-740.205942,-612.876398
3700.275127,-7402.059420,-740.205942,-1991.848295
3700.275457,-7994.224174,-814.226536,-995.924147
3700.275787,-10584.944971,-296.082377,689.485948
3700.276117,-9548.656652,74.020594,1149.143247
3700.276447,-8808.450710,74.020594,-1378.971896
3700.276777,-9030.512492,518.144159,-1838.629195
3700.277107,-11325.150913,370.102971,-153.219100
3700.277437,-12213.398043,444.123565,919.314598
3700.277767,-10881.027347,74.020594,76.609550
3700.278097,-7698.141797,-1258.350101,-2145.067394
3700.278427,-7402.059420,-962.267725,-1149.143247
3700.278756,-9548.656652,-296.082377,612.876398
3700.279086,-10658.965565,740.205942,2221.676944
3700.279416,-9622.677246,148.041188,0.000000
3700.279746,-9326.594869,518.144159,-1915.238745
3700.280076,-10436.903782,148.041188,-919.314598
3700.280406,-12435.459826,148.041188,1072.533697
3700.280736,-11029.068536,0.000000,1532.190996
3700.281066,-8364.327145,-1184.329507,-306.438199
3700.281396,-6513.812290,-592.164754,-919.314598
3700.281726,-9696.697840,0.000000,1149.143247
3700.282056,-12213.398043,962.267725,2221.676944
3700.282386,-10436.903782,962.267725,1149.143247
3700.282715,-8660.409521,222.061783,-842.705048
3700.283045,-9178.553681,592.164754,-306.438199
3700.283375,-12361.439231,444.123565,1685.410096
3700.283705,-11547.212695,518.144159,1915.238745
3700.284035,-8660.409521,-814.226536,-459.657299
3700.284365,-7402.059420,-370.102971,-1608.800546
3700.284695,-8586.388927,-370.102971,-229.828649
3700.285025,-11103.089130,296.082377,2221.676944
3700.285355,-9770.718434,0.000000,2374.896044
3700.285685,-8586.388927,-592.164754,306.438199
3700.286015,-8438.347739,296.082377,0.000000
3700.286344,-10584.944971,-296.082377,1532.190996
3700.286674,-11695.253884,222.061783,3064.381992
3700.287004,-9844.739029,-518.144159,2145.067394
3700.287334,-8142.265362,-814.226536,229.828649
3700.287664,-7846.182985,-370.102971,1149.143247
3700.287994,-10658.965565,222.061783,995.924147
3700.288324,-10510.924376,1036.288319,459.657299
3700.288654,-8956.491898,592.164754,-1532.190996
3700.288984,-8808.450710,814.226536,-2528.115143
3700.289314,-9992.780217,1036.288319,-919.314598
3700.289644,-12287.418637,1110.308913,1072.533697
3700.289973,-10584.944971,666.185348,459.657299
3700.290303,-8808.450710,-814.226536,-1608.800546
3700.290633,-7179.997637,-296.082377,-1378.971896
3700.290963,-10140.821405,-592.164754,612.876398
3700.291293,-11917.315666,666.185348,2834.553343
3700.291623,-9992.780217,222.061783,1991.848295
3700.291953,-9178.553681,0.000000,-1378.971896
3700.292283,-9400.615463,370.102971,-995.924147
3700.292613,-11621.233289,0.000000,0.000000
3700.292943,-11251.130318,592.164754,536.266849
3700.293273,-8882.471304,-740.205942,-1608.800546
3700.293602,-7772.162391,-370.102971,-1838.629195
3700.293932,-8586.388927,-444.123565,-459.657299
3700.294262,-11473.192101,222.061783,766.095498
3700.294592,-9770.718434,370.102971,383.047749
3700.294922,-8142.265362,-74.020594,-1302.362347
3700.295252,-8142.265362,222.061783,-842.705048
3700.295582,-11177.109724,-148.041188,1225.752797
3700.295912,-12361.439231,222.061783,2528.115143
3700.296242,-10066.800811,-814.226536,842.705048
3700.296571,-7994.224174,-814.226536,-1302.362347
3700.296901,-7920.203579,-370.102971,0.000000
3700.297231,-10510.924376,-740.205942,2528.115143
3700.297561,-10362.883188,74.020594,3907.087040
3700.297891,-9622.677246,222.061783,1302.362347
3700.298221,-7994.224174,222.061783,-1302.362347
3700.298551,-9770.718434,74.020594,-842.705048
3700.298880,-12287.418637,1036.288319,0.000000
3700.299210,-10436.903782,666.185348,842.705048
3700.299540,-8290.306550,-370.102971,-612.876398
3700.299870,-8142.265362,74.020594,-842.705048
3700.300200,-10362.883188,0.000000,1072.533697
3700.300530,-11177.109724,592.164754,2528.115143
3700.300860,-9844.739029,74.020594,1302.362347
3700.301189,-7772.162391,148.041188,76.609550
3700.301519,-9696.697840,888.247130,1149.143247
3700.301849,-12509.480420,1184.329507,2298.286494
3700.302179,-11917.315666,814.226536,2145.067394
3700.302509,-9326.594869,0.000000,-229.828649
3700.302839,-8068.244768,0.000000,-1991.848295
3700.303169,-8956.491898,222.061783,-689.485948
3700.303498,-11399.171507,888.247130,1302.362347
3700.303828,-9844.739029,444.123565,689.485948
3700.304158,-7179.997637,-296.082377,-1532.190996
3700.304488,-9252.574275,518.144159,-1762.019645
3700.304818,-12361.439231,814.226536,0.000000
3700.305148,-11547.212695,740.205942,1608.800546
3700.305478,-9548.656652,74.020594,612.876398
3700.305807,-8142.265362,-666.185348,-1225.752797
3700.306137,-8808.450710,-1184.329507,-536.266849
3700.306467,-11843.295072,74.020594,766.095498
3700.306797,-10362.883188,444.123565,1455.581446
3700.307127,-9104.533087,-518.144159,-689.485948
3700.307457,-8216.285956,444.123565,-1608.800546
3700.307787,-10066.800811,-370.102971,-536.266849
3700.308116,-11917.315666,370.102971,1149.143247
3700.308446,-10140.821405,0.000000,459.657299
3700.308776,-8364.327145,-1184.329507,-2068.457845
3700.309106,-7698.141797,-148.041188,-2145.067394
3700.309436,-9992.780217,-148.041188,0.000000
3700.309766,-10732.986159,222.061783,1072.533697
3700.310096,-9400.615463,-148.041188,-383.047749
3700.310425,-8660.409521,-370.102971,-1838.629195
3700.310755,-8808.450710,-518.144159,0.000000
3700.311085,-11991.336260,0.000000,1838.629195
3700.311415,-11177.109724,148.041188,1838.629195
3700.311745,-8290.306550,-666.185348,-995.924147
3700.312075,-7402.059420,-370.102971,-1302.362347
3700.312405,-9696.697840,-444.123565,612.876398
3700.312734,-12065.356855,444.123565,2374.896044
3700.313064,-9548.656652,0.000000,919.314598
3700.313394,-7772.162391,0.000000,-612.876398
3700.313724,-8956.491898,0.000000,-229.828649
3700.314054,-11769.274478,444.123565,919.314598
3700.314384,-11843.295072,444.123565,1685.410096
3700.314714,-9918.759623,-74.020594,-306.438199
3700.315043,-8290.306550,-222.061783,-536.266849
3700.315373,-9548.656652,222.061783,995.924147
3700.315703,-11695.253884,74.020594,2604.724693
3700.316033,-10584.944971,962.267725,1762.019645
3700.316363,-8808.450710,296.082377,-306.438199
3700.316693,-8808.450710,74.020594,-995.924147
3700.317023,-9696.697840,222.061783,1149.143247
3700.317352,-11547.212695,518.144159,2528.115143
3700.317682,-10510.924376,370.102971,995.924147
3700.318012,-8956.491898,-518.144159,-766.095498
3700.318342,-8364.327145,74.020594,-842.705048
3700.318672,-11029.068536,370.102971,1378.971896
3700.319002,-11103.089130,888.247130,1991.848295
3700.319332,-9178.553681,0.000000,536.266849
3700.319661,-8438.347739,148.041188,-1225.752797
3700.319991,-9474.636058,74.020594,-689.485948
3700.320321,-11843.295072,740.205942,919.314598
3700.320651,-10658.965565,518.144159,229.828649
3700.320981,-8438.347739,-296.082377,-1991.848295
3700.321311,-8216.285956,296.082377,-2451.505594
3700.321641,-10288.862594,888.247130,-689.485948
3700.321970,-11991.336260,962.267725,766.095498
3700.322300,-10584.944971,888.247130,0.000000
3700.322630,-7846.182985,-370.102971,-2145.067394
3700.322960,-8660.409521,0.000000,-1838.629195
3700.323290,-11695.253884,74.020594,612.876398
3700.323620,-11843.295072,666.185348,1762.019645
3700.323950,-9178.553681,-444.123565,-229.828649
3700.324279,-8068.244768,-666.185348,-2451.505594
3700.324609,-9474.636058,148.041188,-1608.800546
3700.324939,-11103.089130,-444.123565,689.485948
3700.325269,-10288.862594,296.082377,1532.190996
3700.325599,-7624.121203,-444.123565,-153.219100
3700.325929,-8290.306550,-74.020594,-919.314598
3700.326259,-10362.883188,0.000000,689.485948
3700.326588,-11695.253884,0.000000,2298.286494
3700.326918,-10288.862594,-74.020594,766.095498
3700.327248,-9178.553681,-666.185348,-1302.362347
3700.327578,-8438.347739,-518.144159,0.000000
3700.327908,-10510.924376,-666.185348,1838.629195
3700.328238,-10955.047942,0.000000,2604.724693
3700.328568,-8808.450710,-444.123565,383.047749
3700.328897,-8586.388927,0.000000,-1149.143247
3700.329227,-9474.636058,222.061783,76.609550
3700.329557,-11399.171507,74.020594,1762.019645
3700.329887,-10658.965565,518.144159,1685.410096
3700.330217,-9400.615463,-296.082377,-1225.752797
3700.330547,-7920.203579,-592.164754,-1685.410096
3700.330877,-9770.718434,-444.123565,0.000000
3700.331206,-11769.274478,0.000000,1685.410096
3700.331536,-9548.656652,0.000000,842.705048
3700.331866,-7772.162391,-592.164754,-612.876398
3700.332196,-8438.347739,222.061783,76.609550
3700.332526,-11251.130318,222.061783,1838.629195
3700.332856,-11843.295072,518.144159,2451.505594
3700.333186,-9622.677246,-296.082377,459.657299
3700.333515,-8660.409521,-518.144159,-1455.581446
3700.333845,-9400.615463,222.061783,0.000000
3700.334175,-11843.295072,296.082377,1608.800546
3700.334505,-10584.944971,518.144159,919.314598
3700.334835,-9030.512492,0.000000,-1225.752797
3700.335165,-8808.450710,296.082377,-1685.410096
3700.335495,-10066.800811,444.123565,229.828649
3700.335824,-11399.171507,666.185348,1072.533697
3700.336154,-10066.800811,296.082377,689.485948
3700.336484,-8586.388927,-222.061783,-1838.629195
3700.336814,-8142.265362,74.020594,-1685.410096
3700.337144,-10584.944971,592.164754,536.266849
3700.337474,-11399.171507,814.226536,1762.019645
3700.337804,-10066.800811,148.041188,0.000000
3700.338133,-9104.533087,74.020594,-1532.190996
3700.338463,-9474.636058,0.000000,-229.828649
3700.338793,-11029.068536,-222.061783,1302.362347
3700.339123,-10658.965565,296.082377,1072.533697
3700.339453,-8438.347739,-666.185348,-995.924147
3700.339783,-7254.018232,0.000000,-1608.800546
3700.340113,-9474.636058,370.102971,-383.047749
3700.340442,-11843.295072,592.164754,1225.752797
3700.340772,-9770.718434,148.041188,842.705048
3700.341102,-8512.368333,-296.082377,-919.314598
3700.341432,-8142.265362,592.164754,-306.438199
3700.341762,-10658.965565,0.000000,1149.143247
3700.342092,-10807.006753,296.082377,1685.410096
3700.342422,-8882.471304,-370.102971,0.000000
3700.342751,-7920.203579,-222.061783,-1072.533697
3700.343081,-9696.697840,444.123565,306.438199
3700.343411,-11695.253884,222.061783,1991.848295
3700.343741,-10584.944971,888.247130,1378.971896
3700.344071,-8586.388927,0.000000,-1225.752797
3700.344401,-8364.327145,222.061783,-1685.410096
3700.344731,-9918.759623,74.020594,459.657299
3700.345060,-11695.253884,666.185348,2757.943793
3700.345390,-9992.780217,296.082377,1915.238745
3700.345720,-8808.450710,666.185348,-536.266849
3700.346050,-8956.491898,444.123565,-153.219100
3700.346380,-10881.027347,592.164754,995.924147
3700.346710,-11843.295072,1184.329507,1838.629195
3700.347040,-9844.739029,148.041188,459.657299
3700.347369,-8364.327145,74.020594,-306.438199
3700.347699,-9474.636058,296.082377,536.266849
3700.348029,-11325.150913,444.123565,1915.238745
3700.348359,-10807.006753,666.185348,1149.143247
3700.348689,-9252.574275,0.000000,-1225.752797
3700.349019,-8808.450710,148.041188,-842.705048
3700.349349,-10584.944971,74.020594,1455.581446
3700.349678,-12213.398043,370.102971,2451.505594
3700.350008,-9770.718434,222.061783,1685.410096
3700.350338,-8216.285956,-592.164754,-1532.190996
3700.350668,-8068.244768,-296.082377,-1532.190996
3700.350998,-10362.883188,0.000000,842.705048
3700.351328,-10658.965565,222.061783,1302.362347
3700.351658,-9030.512492,-148.041188,-306.438199
3700.351987,-9326.594869,-222.061783,-1532.190996
3700.352317,-10510.924376,-148.041188,-229.828649
3700.352647,-12065.356855,-296.082377,766.095498
3700.352977,-10436.903782,-148.041188,689.485948
3700.353307,-8290.306550,-888.247130,-995.924147
3700.353637,-8290.306550,-444.123565,-919.314598
3700.353967,-10288.862594,-444.123565,306.438199
3700.354296,-10807.006753,-148.041188,1685.410096
3700.354626,-9178.553681,0.000000,-76.609550
3700.354956,-8364.327145,-296.082377,-2221.676944
3700.355286,-8660.409521,-370.102971,-1532.190996
3700.355616,-11473.192101,0.000000,766.095498
3700.355946,-11547.212695,74.020594,919.314598
3700.356276,-9030.512492,-888.247130,-766.095498
3700.356605,-8216.285956,-888.247130,-1532.190996
3700.356935,-9104.533087,-518.144159,-76.609550
3700.357265,-11177.109724,0.000000,2145.067394
3700.357595,-10140.821405,0.000000,1915.238745
3700.357925,-8142.265362,-666.185348,-76.609550
3700.358255,-7550.100608,0.000000,-612.876398
3700.358585,-10732.986159,592.164754,1532.190996
3700.358914,-12287.418637,592.164754,1685.410096
3700.359244,-9622.677246,-148.041188,153.219100
3700.359574,-8586.388927,-592.164754,-1991.848295
3700.359904,-9104.533087,0.000000,-459.657299
3700.360234,-11103.089130,-222.061783,842.705048
3700.360564,-10658.965565,296.082377,1685.410096
3700.360894,-7994.224174,-148.041188,-459.657299
3700.361223,-7846.182985,-148.041188,-766.095498
3700.361553,-10214.842000,518.144159,919.314598
3700.361883,-12435.459826,518.144159,2298.286494
3700.362213,-10584.944971,74.020594,2298.286494
3700.362543,-8216.285956,-296.082377,76.609550
3700.362873,-8882.471304,0.000000,76.609550
3700.363203,-10955.047942,74.020594,1532.190996
3700.363532,-11769.274478,888.247130,1762.019645
3700.363862,-9696.697840,296.082377,0.000000
3700.364192,-8364.327145,370.102971,-689.485948
3700.364522,-9326.594869,1036.288319,0.000000
3700.364852,-11473.192101,592.164754,1685.410096
3700.365182,-11177.109724,740.205942,1072.533697
3700.365512,-9104.533087,148.041188,-1149.143247
3700.365841,-7698.141797,-518.144159,-2451.505594
3700.366171,-9252.574275,296.082377,-459.657299
3700.366501,-11473.192101,592.164754,2374.896044
3700.366831,-10510.924376,962.267725,1225.752797
3700.367161,-8660.409521,296.082377,-1532.190996
3700.367491,-9104.533087,222.061783,-1685.410096
3700.367821,-11103.089130,296.082377,0.000000
3700.368150,-12731.542202,592.164754,1302.362347
3700.368480,-9326.594869,148.041188,-459.657299
3700.368810,-7550.100608,-888.247130,-1762.019645
3700.369140,-8142.265362,-148.041188,-1072.533697
3700.369470,-10510.924376,0.000000,536.266849
3700.369800,-10510.924376,592.164754,995.924147
3700.370130,-8660.409521,-296.082377,-1149.143247
3700.370459,-7846.182985,0.000000,-842.705048
3700.370789,-9918.759623,296.082377,689.485948
3700.371119,-12509.480420,592.164754,2145.067394
3700.371449,-10140.821405,148.041188,612.876398
3700.371779,-8586.388927,-518.144159,-1838.629195
3700.372109,-8142.265362,74.020594,-1532.190996
3700.372439,-10584.944971,0.000000,842.705048
3700.372768,-11695.253884,888.247130,2374.896044
3700.373098,-8956.491898,0.000000,306.438199
3700.373428,-7328.038826,-592.164754,-1302.362347
3700.373758,-8438.347739,74.020594,0.000000
3700.374088,-11843.295072,518.144159,1915.238745
3700.374418,-11695.253884,370.102971,2068.457845
3700.374748,-9104.533087,-444.123565,-76.609550
3700.375077,-9030.512492,74.020594,-383.047749
3700.375407,-10214.842000,-444.123565,842.705048
3700.375737,-12287.418637,148.041188,2451.505594
3700.376067,-9548.656652,0.000000,2068.457845
3700.376397,-8142.265362,-666.185348,-459.657299
3700.376727,-8068.244768,148.041188,0.000000
3700.377057,-10955.047942,0.000000,1685.410096
3700.377386,-12065.356855,518.144159,1915.238745
3700.377716,-8882.471304,0.000000,153.219100
3700.378046,-7846.182985,-666.185348,-1685.410096
3700.378376,-9474.636058,0.000000,612.876398
3700.378706,-11325.150913,-222.061783,2298.286494
3700.379036,-10510.924376,222.061783,2298.286494
3700.379366,-7846.182985,-814.226536,-306.438199
3700.379695,-7179.997637,-370.102971,-842.705048
3700.380025,-9696.697840,222.061783,229.828649
3700.380355,-12287.418637,592.164754,1608.800546
3700.380685,-10955.047942,74.020594,689.485948
3700.381015,-8660.409521,-888.247130,-1838.629195
3700.381345,-8882.471304,-370.102971,-1302.362347
3700.381675,-10362.883188,-370.102971,536.266849
3700.382004,-10807.006753,444.123565,1149.143247
3700.382334,-9252.574275,74.020594,-306.438199
3700.382664,-8586.388927,-444.123565,-2221.676944
3700.382994,-8660.409521,-296.082377,-766.095498
3700.383324,-12213.398043,0.000000,1685.410096
3700.383654,-11325.150913,592.164754,1762.019645
3700.383984,-9548.656652,-444.123565,-612.876398
3700.384313,-8068.244768,-814.226536,-2298.286494
3700.384643,-9696.697840,-888.247130,-1072.533697
3700.384973,-11547.212695,-222.061783,536.266849
3700.385303,-9400.615463,0.000000,842.705048
3700.385633,-9178.553681,-1110.308913,-766.095498
3700.385963,-8290.306550,0.000000,-612.876398
3700.386293,-10807.006753,74.020594,919.314598
3700.386622,-11695.253884,370.102971,1455.581446
3700.386952,-9326.594869,-296.082377,0.000000
3700.387282,-8290.306550,-222.061783,-1608.800546
3700.387612,-9622.677246,0.000000,-229.828649
3700.387942,-11991.336260,148.041188,1072.533697
3700.388272,-9474.636058,296.082377,842.705048
3700.388602,-7624.121203,-962.267725,-842.705048
3700.388931,-7846.182985,0.000000,-612.876398
3700.389261,-10214.842000,296.082377,1455.581446
3700.389591,-11843.295072,740.205942,2987.772442
3700.389921,-9918.759623,296.082377,1225.752797
3700.390251,-8734.430116,-296.082377,-842.705048
3700.390581,-9400.615463,-222.061783,-995.924147
3700.390911,-11029.068536,-148.041188,1378.971896
3700.391240,-10214.842000,296.082377,2757.943793
3700.391570,-8882.471304,0.000000,1608.800546
3700.391900,-7698.141797,0.000000,-919.314598
3700.392230,-8512.368333,518.144159,0.000000
3700.392560,-11695.253884,814.226536,1225.752797
3700.392890,-11399.171507,1036.288319,1762.019645
3700.393220,-10140.821405,296.082377,0.000000
3700.393549,-8660.409521,0.000000,0.000000
3700.393879,-10066.800811,-518.144159,2068.457845
3700.394209,-11695.253884,518.144159,2451.505594
3700.394539,-9622.677246,296.082377,1378.971896
3700.394869,-7994.224174,222.061783,-689.485948
3700.395199,-7920.203579,1184.329507,-459.657299
3700.395529,-10955.047942,1554.432478,1378.971896
3700.395858,-11769.274478,2072.576638,1532.190996
3700.396188,-10214.842000,1332.370696,-689.485948
3700.396518,-9548.656652,370.102971,-2298.286494
3700.396848,-9918.759623,666.185348,-995.924147
3700.397178,-11547.212695,0.000000,1532.190996
3700.397508,-9548.656652,296.082377,1532.190996
3700.397838,-8660.409521,-148.041188,-536.266849
3700.398167,-7846.182985,592.164754,-919.314598
3700.398497,-9992.780217,370.102971,229.828649
3700.398827,-12509.480420,1110.308913,1915.238745
3700.399157,-10066.800811,740.205942,842.705048
3700.399487,-8956.491898,0.000000,-1685.410096
3700.399817,-9474.636058,518.144159,-1072.533697
3700.400147,-10510.924376,-222.061783,0.000000
3700.400477,-10214.842000,444.123565,306.438199
3700.400807,-8808.450710,-518.144159,-689.485948
3700.401137,-7550.100608,0.000000,-1378.971896
3700.401467,-9104.533087,296.082377,76.609550
3700.401797,-12065.356855,296.082377,1225.752797
3700.402126,-10955.047942,222.061783,76.609550
3700.402456,-9104.533087,-222.061783,-1225.752797
3700.402786,-8512.368333,-370.102971,-1225.752797
3700.403116,-9844.739029,0.000000,995.924147
3700.403446,-11547.212695,148.041188,2374.896044
3700.403776,-9326.594869,0.000000,995.924147
3700.404106,-8068.244768,-592.164754,-1225.752797
3700.404436,-8438.347739,74.020594,0.000000
3700.404766,-11695.253884,148.041188,1915.238745
3700.405096,-12213.398043,814.226536,2451.505594
3700.405426,-9622.677246,-296.082377,153.219100
3700.405756,-8438.347739,-518.144159,-1532.190996
3700.406086,-9696.697840,-296.082377,-612.876398
3700.406415,-11991.336260,0.000000,1455.581446
3700.406745,-9992.780217,74.020594,766.095498
3700.407075,-7105.977043,-1184.329507,-306.438199
3700.407405,-7698.141797,-370.102971,-689.485948
3700.407735,-10066.800811,148.041188,1302.362347
3700.408065,-12139.377449,296.082377,2757.943793
3700.408395,-9992.780217,-370.102971,1302.362347
3700.408725,-8956.491898,-1036.288319,-229.828649
3700.409055,-8808.450710,-592.164754,306.438199
3700.409385,-11103.089130,-666.185348,1378.971896
3700.409715,-11547.212695,-222.061783,1378.971896
3700.410045,-9104.533087,-888.247130,-383.047749
3700.410374,-7920.203579,-1110.308913,-1685.410096
3700.410704,-8586.388927,-296.082377,0.000000
3700.411034,-10362.883188,0.000000,1838.629195
3700.411364,-10362.883188,592.164754,1072.533697
3700.411694,-9104.533087,-740.205942,-1685.410096
3700.412024,-9030.512492,-370.102971,-2757.943793
3700.412354,-10658.965565,-222.061783,-919.314598
3700.412684,-12509.480420,0.000000,1378.971896
3700.413014,-9918.759623,-518.144159,919.314598
3700.413344,-8142.265362,-1258.350101,-1378.971896
3700.413674,-7624.121203,-444.123565,-1225.752797
3700.414004,-10362.883188,-296.082377,689.485948
3700.414334,-11399.171507,0.000000,995.924147
3700.414663,-9030.512492,-444.123565,-459.657299
3700.414993,-8586.388927,-74.020594,-1149.143247
3700.415323,-9844.739029,0.000000,0.000000
3700.415653,-12287.418637,0.000000,459.657299
3700.415983,-10436.903782,-296.082377,-612.876398
3700.416313,-8438.347739,-1110.308913,-2221.676944
3700.416643,-6439.791695,-370.102971,-919.314598
3700.416973,-9474.636058,370.102971,1072.533697
3700.417303,-11547.212695,1036.288319,1991.848295
3700.417633,-9696.697840,666.185348,229.828649
3700.417963,-8808.450710,0.000000,-2145.067394
3700.418293,-9918.759623,74.020594,-995.924147
3700.418622,-11843.295072,0.000000,2298.286494
3700.418952,-9992.780217,148.041188,3064.381992
3700.419282,-7402.059420,-592.164754,1225.752797
3700.419612,-7920.203579,0.000000,-536.266849
3700.419942,-9252.574275,1258.350101,76.609550
3700.420272,-11843.295072,1258.350101,2221.676944
3700.420602,-11177.109724,1850.514855,1762.019645
3700.420932,-9770.718434,814.226536,0.000000
3700.421262,-8290.306550,444.123565,-766.095498
3700.421592,-9474.636058,444.123565,459.657299
3700.421922,-11769.274478,592.164754,1991.848295
3700.422252,-9844.739029,222.061783,1149.143247
3700.422582,-7994.224174,-296.082377,-689.485948
3700.422911,-8438.347739,666.185348,536.266849
3700.423241,-11325.150913,1332.370696,3447.429741
3700.423571,-11991.336260,1628.453072,3294.210641
3700.423901,-9622.677246,592.164754,612.876398
3700.424231,-8734.430116,518.144159,-1685.410096
3700.424561,-9400.615463,592.164754,229.828649
3700.424891,-12213.398043,666.185348,2528.115143
3700.425221,-11177.109724,1110.308913,2145.067394
3700.425551,-8882.471304,74.020594,-1225.752797
3700.425881,-7254.018232,592.164754,-1991.848295
3700.426211,-10214.842000,740.205942,-76.609550
3700.426541,-11843.295072,1554.432478,1302.362347
3700.426870,-9326.594869,740.205942,842.705048
3700.427200,-8734.430116,222.061783,-1149.143247
3700.427530,-9252.574275,592.164754,-306.438199
3700.427860,-11695.253884,666.185348,1072.533697
3700.428190,-11325.150913,444.123565,1149.143247
3700.428520,-8586.388927,-592.164754,-766.095498
3700.428850,-7624.121203,-296.082377,-2145.067394
3700.429180,-9252.574275,296.082377,153.219100
3700.429510,-11843.295072,814.226536,1302.362347
3700.429840,-10510.924376,666.185348,536.266849
3700.430170,-9474.636058,0.000000,-2451.505594
3700.430500,-8068.244768,-444.123565,-3064.381992
3700.430829,-10066.800811,-444.123565,-2068.457845
3700.431159,-11103.089130,0.000000,536.266849
3700.431489,-9400.615463,-592.164754,0.000000
3700.431819,-7772.162391,-1332.370696,-1915.238745
3700.432149,-8216.285956,-370.102971,-1149.143247
3700.432479,-11177.109724,-370.102971,1532.190996
3700.432809,-11103.089130,222.061783,2451.505594
3700.433139,-9844.739029,-296.082377,689.485948
3700.433469,-8142.265362,-296.082377,-459.657299
3700.433799,-8734.430116,-814.226536,689.485948
3700.434129,-11991.336260,-296.082377,1378.971896
3700.434459,-10955.047942,-296.082377,919.314598
3700.434789,-9030.512492,-1184.329507,-1608.800546
3700.435118,-7179.997637,-296.082377,-1378.971896
3700.435448,-9474.636058,-370.102971,459.657299
3700.435778,-11547.212695,444.123565,2145.067394
3700.436108,-9696.697840,-222.061783,689.485948
3700.436438,-8512.368333,-518.144159,-1225.752797
3700.436768,-9844.739029,0.000000,-76.609550
3700.437098,-12139.377449,-296.082377,2451.505594
3700.437428,-11621.233289,148.041188,2834.553343
3700.437758,-8956.491898,-888.247130,919.314598
3700.438088,-7994.224174,-666.185348,-766.095498
3700.438418,-8808.450710,-444.123565,153.219100
3700.438748,-11251.130318,148.041188,1455.581446
3700.439077,-10140.821405,518.144159,1608.800546
3700.439407,-8808.450710,-370.102971,-306.438199
3700.439737,-8438.347739,-370.102971,-536.266849
3700.440067,-10732.986159,-296.082377,995.924147
3700.440397,-11843.295072,0.000000,1991.848295
3700.440727,-8956.491898,370.102971,995.924147
3700.441057,-8586.388927,-370.102971,-1225.752797
3700.441387,-8290.306550,0.000000,0.000000
3700.441717,-11177.109724,222.061783,1685.410096
3700.442047,-11843.295072,1110.308913,1915.238745
3700.442377,-9474.636058,296.082377,-76.609550
3700.442707,-8290.306550,222.061783,-1532.190996
3700.443037,-9770.718434,444.123565,-536.266849
3700.443366,-12287.418637,592.164754,1149.143247
3700.443696,-10140.821405,1036.288319,689.485948
3700.444026,-8734.430116,0.000000,-1762.019645
3700.444356,-8216.285956,740.205942,-1762.019645
3700.444686,-11103.089130,592.164754,306.438199
3700.445016,-12139.377449,1258.350101,1915.238745
3700.445346,-9104.533087,666.185348,536.266849
3700.445676,-8216.285956,148.041188,-2068.457845
3700.446006,-9252.574275,444.123565,-1762.019645
3700.446336,-11917.315666,592.164754,-459.657299
3700.446666,-10140.821405,518.144159,842.705048
3700.446996,-8808.450710,-518.144159,-842.705048
3700.447325,-7328.038826,-296.082377,-1378.971896
3700.447655,-9104.533087,-518.144159,153.219100
3700.447985,-11621.233289,0.000000,1838.629195
3700.448315,-10066.800811,592.164754,995.924147
3700.448645,-8882.471304,0.000000,-689.485948
3700.448975,-9104.533087,518.144159,-459.657299
3700.449305,-10436.903782,222.061783,-229.828649
3700.449635,-11103.089130,888.247130,1608.800546
3700.449965,-9400.615463,296.082377,-766.095498
3700.450295,-8734.430116,-296.082377,-1608.800546
3700.450625,-8068.244768,740.205942,-766.095498
3700.450955,-11547.212695,888.247130,2221.676944
3700.451285,-10658.965565,962.267725,1685.410096
3700.451614,-7476.080014,444.123565,-229.828649
3700.451944,-8660.409521,814.226536,-1378.971896
3700.452274,-10510.924376,962.267725,0.000000
3700.452604,-12731.542202,592.164754,1915.238745
3700.452934,-10807.006753,370.102971,1225.752797
3700.453264,-8512.368333,-888.247130,-919.314598
3700.453594,-8290.306550,0.000000,-689.485948
3700.453924,-10362.883188,0.000000,995.924147
3700.454254,-11251.130318,444.123565,1991.848295
3700.454584,-8438.347739,-74.020594,689.485948
3700.454914,-7846.182985,222.061783,-1378.971896
3700.455244,-9400.615463,222.061783,995.924147
3700.455573,-12805.562797,296.082377,2604.724693
3700.455903,-11473.192101,740.205942,1915.238745
3700.456233,-8216.285956,-1036.288319,-842.705048
3700.456563,-8438.347739,-666.185348,-919.314598
3700.456893,-9104.533087,-666.185348,1149.143247
3700.457223,-11251.130318,0.000000,2757.943793
3700.457553,-9770.718434,0.000000,1685.410096
3700.457883,-8068.244768,-296.082377,-689.485948
3700.458213,-8438.347739,518.144159,-1608.800546
3700.458543,-11695.253884,296.082377,0.000000
3700.458873,-11917.315666,444.123565,1685.410096
3700.459203,-9918.759623,-518.144159,-612.876398
3700.459533,-8512.368333,-1110.308913,-2068.457845
3700.459862,-9030.512492,-666.185348,-842.705048
3700.460192,-11399.171507,-666.185348,1302.362347
3700.460522,-10436.903782,-296.082377,1915.238745
3700.460852,-9178.553681,-962.267725,-153.219100
3700.461182,-7624.121203,-962.267725,-1225.752797
3700.461512,-10732.986159,-592.164754,76.609550
3700.461842,-12139.377449,0.000000,1455.581446
3700.462172,-9696.697840,-444.123565,536.266849
3700.462502,-9104.533087,-1036.288319,-1608.800546
3700.462832,-7624.121203,-962.267725,-1455.581446
3700.463162,-9622.677246,-666.185348,689.485948
3700.463492,-11029.068536,370.102971,1838.629195
3700.463821,-9622.677246,-148.041188,-842.705048
3700.464151,-8660.409521,-444.123565,-2145.067394
3700.464481,-9992.780217,370.102971,-1225.752797
3700.464811,-10955.047942,74.020594,1378.971896
3700.465141,-9770.718434,444.123565,1149.143247
3700.465471,-8956.491898,0.000000,-1149.143247
3700.465801,-7846.182985,0.000000,-1915.238745
3700.466131,-9622.677246,592.164754,-919.314598
3700.466461,-12065.356855,888.247130,1225.752797
3700.466791,-9770.718434,814.226536,1072.533697
3700.467121,-8438.347739,74.020594,-459.657299
3700.467451,-9252.574275,888.247130,153.219100
3700.467781,-11325.150913,592.164754,1608.800546
3700.468110,-11473.192101,1036.288319,2221.676944
3700.468440,-8882.471304,74.020594,-306.438199
3700.468770,-8512.368333,74.020594,-1072.533697
3700.469100,-9474.636058,666.185348,153.219100
3700.469430,-11103.089130,0.000000,2068.457845
3700.469760,-9770.718434,1036.288319,2298.286494
3700.470090,-8142.265362,0.000000,0.000000
3700.470420,-8512.368333,740.205942,-1762.019645
3700.470750,-10288.862594,370.102971,1455.581446
3700.471080,-11843.295072,666.185348,3140.991542
3700.471410,-9992.780217,296.082377,2604.724693
3700.471740,-9030.512492,-370.102971,-306.438199
3700.472069,-8586.388927,74.020594,-612.876398
3700.472399,-10066.800811,148.041188,995.924147
3700.472729,-11103.089130,666.185348,2221.676944
3700.473059,-9178.553681,222.061783,383.047749
3700.473389,-8808.450710,370.102971,-1378.971896
3700.473719,-9326.594869,592.164754,-229.828649
3700.474049,-11251.130318,444.123565,766.095498
3700.474379,-10732.986159,518.144159,612.876398
3700.474709,-9252.574275,-148.041188,-2374.896044
3700.475039,-8586.388927,0.000000,-1915.238745
3700.475369,-9178.553681,-74.020594,0.000000
3700.475699,-11399.171507,222.061783,1302.362347
3700.476028,-10066.800811,222.061783,1608.800546
3700.476358,-9622.677246,0.000000,-536.266849
3700.476688,-9548.656652,0.000000,-1072.533697
3700.477018,-10658.965565,74.020594,383.047749
3700.477348,-10584.944971,296.082377,1149.143247
3700.477678,-9178.553681,-148.041188,-383.047749
3700.478008,-9474.636058,-518.144159,-1149.143247
3700.478338,-9326.594869,0.000000,-536.266849
3700.478668,-11547.212695,74.020594,536.266849
3700.478998,-10066.800811,370.102971,842.705048
3700.479328,-8512.368333,-814.226536,-1455.581446
3700.479658,-8586.388927,74.020594,-1149.143247
3700.479988,-9918.759623,0.000000,919.314598
3700.480317,-11769.274478,222.061783,2145.067394
3700.480647,-10584.944971,148.041188,1072.533697
3700.480977,-9548.656652,-740.205942,-1149.143247
3700.481307,-8586.388927,0.000000,-76.609550
3700.481637,-10214.842000,0.000000,1455.581446
3700.481967,-10658.965565,666.185348,2451.505594
3700.482297,-9030.512492,-222.061783,459.657299
3700.482627,-8142.265362,74.020594,-1302.362347
3700.482957,-9326.594869,222.061783,-536.266849
3700.483287,-11473.192101,296.082377,1608.800546
3700.483617,-10732.986159,666.185348,1608.800546
3700.483947,-8734.430116,-666.185348,-766.095498
3700.484276,-7994.224174,-296.082377,-536.266849
3700.484606,-9104.533087,-148.041188,919.314598
3700.484936,-11029.068536,370.102971,2221.676944
3700.485266,-9622.677246,74.020594,1378.971896
3700.485596,-9030.512492,0.000000,383.047749
3700.485926,-9326.594869,74.020594,536.266849
