#time,accel_x,accel_y,accel_z
4237.713186,-9770.718434,0.000000,153.219100
4237.713516,-9474.636058,74.020594,0.000000
4237.713845,-9548.656652,296.082377,0.000000
4237.714175,-9844.739029,0.000000,0.000000
4237.714504,-9844.739029,0.000000,229.828649
4237.714834,-9992.780217,74.020594,229.828649
4237.715163,-9918.759623,0.000000,536.266849
4237.715493,-9622.677246,0.000000,766.095498
4237.715822,-9696.697840,148.041188,459.657299
4237.716152,-9696.697840,0.000000,536.266849
4237.716481,-9770.718434,222.061783,0.000000
4237.716811,-9770.718434,0.000000,0.000000
4237.717140,-9844.739029,148.041188,306.438199
4237.717469,-9844.739029,222.061783,0.000000
4237.717799,-9696.697840,0.000000,0.000000
4237.718128,-9622.677246,0.000000,0.000000
4237.718458,-9400.615463,296.082377,-766.095498
4237.718787,-9992.780217,148.041188,153.219100
4237.719117,-10066.800811,148.041188,383.047749
4237.719446,-9844.739029,74.020594,459.657299
4237.719776,-9696.697840,592.164754,612.876398
4237.720105,-10066.800811,296.082377,459.657299
4237.720435,-10066.800811,222.061783,229.828649
4237.720764,-9770.718434,0.000000,153.219100
4237.721094,-9770.718434,0.000000,306.438199
4237.721423,-9548.656652,444.123565,383.047749
4237.721753,-9770.718434,74.020594,153.219100
4237.722082,-9548.656652,74.020594,229.828649
4237.722412,-9770.718434,0.000000,229.828649
4237.722741,-9696.697840,370.102971,-153.219100
4237.723071,-9474.636058,0.000000,0.000000
4237.723400,-9696.697840,74.020594,76.609550
4237.723730,-10214.842000,296.082377,153.219100
4237.724059,-9770.718434,0.000000,0.000000
4237.724389,-9696.697840,0.000000,0.000000
4237.724718,-9474.636058,-74.020594,306.438199
4237.725048,-9696.697840,-148.041188,766.095498
4237.725377,-9548.656652,-370.102971,919.314598
4237.725707,-9918.759623,-74.020594,995.924147
4237.726036,-9770.718434,-222.061783,919.314598
4237.726365,-9696.697840,0.000000,383.047749
4237.726695,-9844.739029,148.041188,153.219100
4237.727024,-9918.759623,296.082377,612.876398
4237.727354,-9992.780217,0.000000,689.485948
4237.727683,-9474.636058,-370.102971,1149.143247
4237.728013,-9548.656652,-444.123565,1532.190996
4237.728342,-9548.656652,0.000000,1915.238745
4237.728672,-9992.780217,-370.102971,1072.533697
4237.729001,-10066.800811,-148.041188,612.876398
4237.729331,-9548.656652,-666.185348,-383.047749
4237.729660,-9548.656652,-740.205942,0.000000
4237.729990,-9770.718434,-148.041188,689.485948
4237.730319,-10214.842000,-370.102971,1378.971896
4237.730649,-9844.739029,-518.144159,2145.067394
4237.730978,-9104.533087,-888.247130,2528.115143
4237.731308,-9178.553681,-1036.288319,1915.238745
4237.731637,-9696.697840,-1110.308913,2068.457845
4237.731967,-10140.821405,-1406.391290,2374.896044
4237.732296,-9844.739029,-1406.391290,2834.553343
4237.732626,-10066.800811,-962.267725,2911.162892
4237.732955,-10214.842000,-1258.350101,2987.772442
4237.733285,-9844.739029,-1554.432478,3294.210641
4237.733614,-9918.759623,-1184.329507,2298.286494
4237.733944,-9844.739029,-888.247130,1762.019645
4237.734273,-10510.924376,-888.247130,1608.800546
4237.734603,-9992.780217,-1406.391290,1302.362347
4237.734932,-9844.739029,-1850.514855,1915.238745
4237.735261,-10214.842000,-2294.638420,2681.334243
4237.735591,-9918.759623,-2960.823768,3064.381992
4237.735920,-9696.697840,-3256.906145,2987.772442
4237.736250,-8660.409521,-3552.988522,2681.334243
4237.736579,-8438.347739,-3627.009116,3217.601092
4237.736909,-8290.306550,-3552.988522,3600.648841
4237.737238,-9548.656652,-2738.761985,3907.087040
4237.737568,-10214.842000,-2886.803174,3907.087040
4237.737897,-10510.924376,-2664.741391,3600.648841
4237.738227,-11029.068536,-2738.761985,2681.334243
4237.738556,-10955.047942,-2738.761985,1532.190996
4237.738886,-10214.842000,-2664.741391,689.485948
4237.739215,-9474.636058,-2516.700203,536.266849
4237.739545,-8734.430116,-2960.823768,612.876398
4237.739874,-9252.574275,-2886.803174,1149.143247
4237.740204,-9326.594869,-3182.885551,2528.115143
4237.740533,-10140.821405,-3849.070898,3524.039291
4237.740863,-10066.800811,-4071.132681,3064.381992
4237.741192,-10214.842000,-3997.112087,2757.943793
4237.741522,-9844.739029,-4219.173869,3217.601092
4237.741851,-9252.574275,-4219.173869,3983.696590
4237.742181,-9696.697840,-3182.885551,4596.572988
4237.742510,-10362.883188,-2368.659014,2681.334243
4237.742840,-10955.047942,-1628.453072,1149.143247
4237.743169,-10732.986159,-1776.494261,1072.533697
4237.743499,-10510.924376,-1924.535449,1225.752797
4237.743828,-10288.862594,-2738.761985,2604.724693
4237.744157,-9918.759623,-3108.864956,2298.286494
4237.744487,-9474.636058,-3330.926739,1838.629195
4237.744816,-8882.471304,-3182.885551,1225.752797
4237.745146,-8660.409521,-3627.009116,1378.971896
4237.745475,-9326.594869,-2664.741391,2757.943793
4237.745805,-10362.883188,-1924.535449,4136.915689
4237.746134,-11029.068536,-1702.473667,4443.353888
4237.746464,-10140.821405,-1702.473667,2911.162892
4237.746793,-9844.739029,-1776.494261,2681.334243
4237.747123,-9696.697840,-1924.535449,1915.238745
4237.747452,-10510.924376,-2294.638420,2068.457845
4237.747782,-9918.759623,-1702.473667,2451.505594
4237.748111,-8882.471304,-1554.432478,2604.724693
4237.748441,-8734.430116,-1480.411884,2068.457845
4237.748770,-9918.759623,-814.226536,919.314598
4237.749100,-11029.068536,-1036.288319,0.000000
4237.749429,-10066.800811,-518.144159,1072.533697
4237.749759,-9474.636058,-740.205942,1991.848295
4237.750088,-9326.594869,-1628.453072,2451.505594
4237.750418,-9178.553681,-1258.350101,3370.820191
4237.750747,-10140.821405,-814.226536,3294.210641
4237.751077,-10955.047942,-1258.350101,2374.896044
4237.751406,-10362.883188,-962.267725,1149.143247
4237.751736,-9474.636058,-962.267725,1608.800546
4237.752065,-9400.615463,-1110.308913,2451.505594
4237.752395,-9770.718434,-962.267725,3677.258390
4237.752724,-9992.780217,-814.226536,2528.115143
4237.753053,-9548.656652,-1036.288319,1225.752797
4237.753383,-9548.656652,-1184.329507,459.657299
4237.753712,-9326.594869,-962.267725,919.314598
4237.754042,-9844.739029,-1332.370696,2221.676944
4237.754371,-10140.821405,-666.185348,2528.115143
4237.754701,-9770.718434,-1406.391290,2681.334243
4237.755030,-10288.862594,-1110.308913,1991.848295
4237.755360,-10658.965565,-814.226536,1762.019645
4237.755689,-9918.759623,-1480.411884,1991.848295
4237.756019,-9474.636058,-1776.494261,2298.286494
4237.756348,-9400.615463,-1480.411884,2911.162892
4237.756678,-9252.574275,-1184.329507,3294.210641
4237.757007,-10066.800811,-1406.391290,2451.505594
4237.757337,-10140.821405,-1850.514855,995.924147
4237.757666,-9622.677246,-2368.659014,1149.143247
4237.757996,-9622.677246,-1924.535449,1762.019645
4237.758325,-9770.718434,-1924.535449,3294.210641
4237.758655,-9844.739029,-2368.659014,3217.601092
4237.758984,-10066.800811,-2516.700203,2604.724693
4237.759314,-9474.636058,-2590.720797,2221.676944
4237.759643,-9770.718434,-3108.864956,2374.896044
4237.759973,-10140.821405,-2664.741391,2604.724693
4237.760302,-9622.677246,-2960.823768,3447.429741
4237.760632,-9326.594869,-2960.823768,3140.991542
4237.760961,-8290.306550,-2442.679609,2374.896044
4237.761291,-9844.739029,-2664.741391,3064.381992
4237.761620,-11325.150913,-2220.617826,2681.334243
4237.761949,-10955.047942,-2812.782580,2145.067394
4237.762279,-9918.759623,-3182.885551,2145.067394
4237.762608,-9326.594869,-3552.988522,2221.676944
4237.762938,-9844.739029,-3034.844362,3370.820191
4237.763267,-9770.718434,-3330.926739,4060.306139
4237.763597,-9252.574275,-3775.050304,2374.896044
4237.763926,-8364.327145,-3552.988522,2221.676944
4237.764256,-9474.636058,-3330.926739,2528.115143
4237.764585,-10732.986159,-2738.761985,3370.820191
4237.764915,-10436.903782,-3330.926739,3524.039291
4237.765244,-8882.471304,-3182.885551,2374.896044
4237.765574,-9474.636058,-2442.679609,2451.505594
4237.765903,-10140.821405,-2368.659014,2451.505594
4237.766233,-11251.130318,-2886.803174,2451.505594
4237.766562,-11029.068536,-1554.432478,2834.553343
4237.766892,-10140.821405,-2516.700203,2681.334243
4237.767221,-10140.821405,-2590.720797,1532.190996
4237.767551,-9622.677246,-2960.823768,1072.533697
4237.767880,-9252.574275,-2886.803174,1532.190996
4237.768210,-9104.533087,-2960.823768,2451.505594
4237.768539,-9252.574275,-2886.803174,2834.553343
4237.768869,-9326.594869,-2368.659014,2757.943793
4237.769198,-10362.883188,-2146.597232,3294.210641
4237.769528,-10436.903782,-1924.535449,2987.772442
4237.769857,-10584.944971,-2368.659014,2681.334243
4237.770187,-10362.883188,-2072.576638,2604.724693
4237.770516,-9770.718434,-1924.535449,2834.553343
4237.770845,-9474.636058,-1702.473667,3064.381992
4237.771175,-9474.636058,-1776.494261,2681.334243
4237.771504,-9326.594869,-1554.432478,2068.457845
4237.771834,-9622.677246,-1998.556043,1532.190996
4237.772163,-9770.718434,-1480.411884,1532.190996
4237.772493,-9918.759623,-1332.370696,2374.896044
4237.772823,-9326.594869,-1480.411884,2528.115143
4237.773152,-9252.574275,-1184.329507,2374.896044
4237.773482,-8956.491898,-1184.329507,2604.724693
4237.773811,-10362.883188,-962.267725,2987.772442
4237.774141,-10658.965565,-666.185348,2757.943793
4237.774470,-10140.821405,-1332.370696,2374.896044
4237.774800,-10658.965565,-1110.308913,1991.848295
4237.775130,-9992.780217,-1184.329507,2528.115143
4237.775459,-9030.512492,-1776.494261,2528.115143
4237.775789,-8586.388927,-888.247130,1838.629195
4237.776118,-9474.636058,-1110.308913,1072.533697
4237.776448,-10066.800811,-814.226536,1991.848295
4237.776778,-10140.821405,-518.144159,1302.362347
4237.777107,-9770.718434,-592.164754,1149.143247
4237.777437,-9918.759623,-666.185348,1838.629195
4237.777766,-10436.903782,-740.205942,2145.067394
4237.778096,-10436.903782,-1406.391290,1991.848295
4237.778425,-9622.677246,-1258.350101,1608.800546
4237.778755,-9104.533087,-1554.432478,1762.019645
4237.779085,-10510.924376,-1554.432478,2451.505594
4237.779414,-10881.027347,-1332.370696,2528.115143
4237.779744,-8882.471304,-1480.411884,1991.848295
4237.780073,-9400.615463,-1702.473667,1455.581446
4237.780403,-10362.883188,-1332.370696,2221.676944
4237.780733,-10362.883188,-1998.556043,2757.943793
4237.781062,-10066.800811,-1850.514855,2451.505594
4237.781392,-10066.800811,-1332.370696,2451.505594
4237.781721,-10362.883188,-1702.473667,2451.505594
4237.782051,-10510.924376,-1776.494261,1455.581446
4237.782380,-10214.842000,-2072.576638,842.705048
4237.782710,-8808.450710,-2072.576638,1608.800546
4237.783040,-9548.656652,-2368.659014,2757.943793
4237.783369,-10140.821405,-2146.597232,3753.867940
4237.783699,-9696.697840,-2516.700203,4060.306139
4237.784028,-9992.780217,-2072.576638,2757.943793
4237.784358,-10288.862594,-2442.679609,1225.752797
4237.784687,-10658.965565,-2442.679609,1225.752797
4237.785017,-9178.553681,-2442.679609,1608.800546
4237.785347,-9326.594869,-2220.617826,2221.676944
4237.785676,-9178.553681,-1776.494261,2681.334243
4237.786006,-9474.636058,-1628.453072,2757.943793
4237.786335,-10436.903782,-1702.473667,2451.505594
4237.786665,-10658.965565,-2294.638420,1225.752797
4237.786995,-10066.800811,-2294.638420,229.828649
4237.787324,-8956.491898,-3182.885551,1838.629195
4237.787654,-8216.285956,-2886.803174,3370.820191
4237.787983,-8956.491898,-1776.494261,4749.792088
4237.788313,-10881.027347,-1850.514855,3524.039291
4237.788642,-10510.924376,-1850.514855,1532.190996
4237.788972,-9992.780217,-1406.391290,1225.752797
4237.789302,-10288.862594,-2146.597232,1072.533697
4237.789631,-11325.150913,-1924.535449,2528.115143
4237.789961,-9474.636058,-1924.535449,3907.087040
4237.790290,-8142.265362,-2812.782580,2834.553343
4237.790620,-9178.553681,-1628.453072,2451.505594
4237.790950,-10658.965565,-2442.679609,2834.553343
4237.791279,-11177.109724,-2220.617826,2221.676944
4237.791609,-9992.780217,-1850.514855,2068.457845
4237.791938,-10214.842000,-2146.597232,2834.553343
4237.792268,-10288.862594,-2294.638420,3370.820191
4237.792597,-9178.553681,-2146.597232,3600.648841
4237.792927,-9252.574275,-2146.597232,2451.505594
4237.793257,-9474.636058,-1554.432478,1532.190996
4237.793586,-10140.821405,-814.226536,459.657299
4237.793916,-10510.924376,-1924.535449,-229.828649
4237.794245,-8882.471304,-2146.597232,76.609550
4237.794575,-9030.512492,-2220.617826,1991.848295
4237.794904,-9696.697840,-1998.556043,2528.115143
4237.795234,-8734.430116,-2220.617826,1762.019645
4237.795564,-8882.471304,-2220.617826,995.924147
4237.795893,-9474.636058,-2220.617826,1072.533697
4237.796223,-10214.842000,-1924.535449,1532.190996
4237.796552,-10214.842000,-1184.329507,2451.505594
4237.796882,-9770.718434,-1406.391290,1915.238745
4237.797212,-9548.656652,-1406.391290,1685.410096
4237.797541,-9178.553681,-1406.391290,2068.457845
4237.797871,-9918.759623,-814.226536,1991.848295
4237.798200,-10214.842000,-666.185348,1072.533697
4237.798530,-10214.842000,-518.144159,0.000000
4237.798859,-9844.739029,-592.164754,0.000000
4237.799189,-9992.780217,296.082377,0.000000
4237.799519,-10658.965565,-222.061783,-1532.190996
4237.799848,-10510.924376,-370.102971,-2221.676944
4237.800178,-8438.347739,-222.061783,-1072.533697
4237.800507,-7772.162391,-518.144159,229.828649
4237.800837,-9474.636058,74.020594,1378.971896
4237.801166,-11547.212695,518.144159,2068.457845
4237.801496,-11769.274478,0.000000,612.876398
4237.801826,-10066.800811,296.082377,-383.047749
4237.802155,-10584.944971,0.000000,-536.266849
4237.802485,-10955.047942,370.102971,-306.438199
4237.802814,-10436.903782,-296.082377,-459.657299
4237.803144,-7994.224174,-74.020594,-842.705048
4237.803474,-7846.182985,444.123565,-76.609550
4237.803803,-9548.656652,1184.329507,-229.828649
4237.804133,-10584.944971,1110.308913,-612.876398
4237.804462,-10436.903782,1258.350101,-1302.362347
4237.804792,-8734.430116,518.144159,-383.047749
4237.805121,-9326.594869,814.226536,-919.314598
4237.805451,-10732.986159,740.205942,306.438199
4237.805781,-10510.924376,370.102971,612.876398
4237.806110,-9400.615463,370.102971,306.438199
4237.806440,-8512.368333,370.102971,-689.485948
4237.806769,-9178.553681,444.123565,-306.438199
4237.807099,-9844.739029,1110.308913,1608.800546
4237.807429,-9548.656652,1480.411884,1532.190996
4237.807758,-9252.574275,666.185348,0.000000
4237.808088,-8882.471304,1480.411884,-612.876398
4237.808417,-10214.842000,1702.473667,-229.828649
4237.808747,-11473.192101,1628.453072,-766.095498
4237.809076,-10214.842000,1110.308913,-1762.019645
4237.809406,-9030.512492,1036.288319,-2681.334243
4237.809736,-9030.512492,1110.308913,-2374.896044
4237.810065,-9622.677246,1036.288319,-459.657299
4237.810395,-10436.903782,1332.370696,612.876398
4237.810724,-9474.636058,1184.329507,76.609550
4237.811054,-9030.512492,740.205942,0.000000
4237.811383,-9474.636058,592.164754,459.657299
4237.811713,-10362.883188,1036.288319,1608.800546
4237.812043,-10732.986159,592.164754,1532.190996
4237.812372,-9844.739029,666.185348,459.657299
4237.812702,-8882.471304,444.123565,-919.314598
4237.813031,-9252.574275,296.082377,-536.266849
4237.813361,-10140.821405,296.082377,0.000000
4237.813691,-10436.903782,962.267725,689.485948
4237.814020,-10510.924376,-740.205942,-1915.238745
4237.814350,-8290.306550,962.267725,-612.876398
4237.814679,-9770.718434,296.082377,2221.676944
4237.815009,-11399.171507,1036.288319,2451.505594
4237.815338,-10881.027347,-518.144159,1378.971896
4237.815668,-10288.862594,0.000000,-229.828649
4237.815998,-9548.656652,-962.267725,-383.047749
4237.816327,-9770.718434,-518.144159,842.705048
4237.816657,-10214.842000,-444.123565,2221.676944
4237.816986,-9178.553681,-814.226536,2221.676944
4237.817316,-9030.512492,-1036.288319,842.705048
4237.817646,-8586.388927,-1480.411884,612.876398
4237.817975,-9178.553681,-888.247130,536.266849
4237.818305,-9474.636058,-1036.288319,229.828649
4237.818634,-9696.697840,-1702.473667,459.657299
4237.818964,-9844.739029,-2146.597232,1838.629195
4237.819293,-9104.533087,-814.226536,1838.629195
4237.819623,-9844.739029,-1332.370696,1378.971896
4237.819953,-10955.047942,-518.144159,229.828649
4237.820282,-10807.006753,-74.020594,229.828649
4237.820612,-9918.759623,0.000000,-612.876398
4237.820941,-9474.636058,0.000000,-229.828649
4237.821271,-9548.656652,-518.144159,153.219100
4237.821600,-9992.780217,-962.267725,995.924147
4237.821930,-9104.533087,-1628.453072,766.095498
4237.822260,-9474.636058,-1480.411884,76.609550
4237.822589,-10288.862594,-666.185348,842.705048
4237.822919,-10658.965565,-814.226536,153.219100
4237.823248,-9326.594869,-592.164754,-306.438199
4237.823578,-9622.677246,148.041188,-995.924147
4237.823908,-10732.986159,148.041188,-842.705048
4237.824237,-10955.047942,740.205942,0.000000
4237.824567,-10732.986159,962.267725,0.000000
4237.824896,-9622.677246,0.000000,-995.924147
4237.825226,-8734.430116,444.123565,-1762.019645
4237.825555,-9474.636058,-370.102971,-536.266849
4237.825885,-9918.759623,-444.123565,689.485948
4237.826215,-9178.553681,-1258.350101,229.828649
4237.826544,-8734.430116,0.000000,76.609550
4237.826874,-9030.512492,-74.020594,0.000000
4237.827203,-9918.759623,592.164754,306.438199
4237.827533,-9918.759623,296.082377,1685.410096
4237.827863,-10436.903782,1036.288319,1225.752797
4237.828192,-10288.862594,666.185348,1072.533697
4237.828522,-9918.759623,888.247130,689.485948
4237.828851,-9252.574275,592.164754,-459.657299
4237.829181,-9622.677246,1184.329507,-1455.581446
4237.829510,-9992.780217,1258.350101,-1838.629195
4237.829840,-9844.739029,666.185348,-2068.457845
4237.830170,-8808.450710,592.164754,-612.876398
4237.830499,-8290.306550,444.123565,919.314598
4237.830829,-9104.533087,592.164754,383.047749
4237.831158,-9992.780217,1110.308913,0.000000
4237.831488,-10140.821405,592.164754,-1685.410096
4237.831817,-9696.697840,370.102971,-459.657299
4237.832147,-9844.739029,1036.288319,919.314598
4237.832477,-10732.986159,888.247130,1608.800546
4237.832806,-10214.842000,888.247130,459.657299
4237.833136,-10214.842000,1184.329507,536.266849
4237.833465,-9622.677246,962.267725,153.219100
4237.833795,-9770.718434,592.164754,-306.438199
4237.834125,-9474.636058,444.123565,-919.314598
4237.834454,-8734.430116,74.020594,-766.095498
4237.834784,-8734.430116,592.164754,-536.266849
4237.835113,-9030.512492,0.000000,229.828649
4237.835443,-9844.739029,0.000000,842.705048
4237.835772,-10732.986159,592.164754,1608.800546
4237.836102,-10510.924376,0.000000,383.047749
4237.836432,-9474.636058,-444.123565,153.219100
4237.836761,-9030.512492,666.185348,153.219100
4237.837091,-10214.842000,666.185348,689.485948
4237.837420,-11399.171507,518.144159,-383.047749
4237.837750,-10362.883188,0.000000,-1532.190996
4237.838079,-9030.512492,74.020594,-919.314598
4237.838409,-9030.512492,0.000000,-612.876398
4237.838739,-9844.739029,74.020594,-689.485948
4237.839068,-9326.594869,222.061783,-1149.143247
4237.839398,-9252.574275,296.082377,-1149.143247
4237.839727,-9770.718434,74.020594,-612.876398
4237.840057,-11029.068536,592.164754,153.219100
4237.840387,-11547.212695,592.164754,842.705048
4237.840716,-9844.739029,0.000000,153.219100
4237.841046,-8808.450710,-888.247130,76.609550
4237.841375,-10510.924376,-370.102971,1149.143247
4237.841705,-11029.068536,-1036.288319,3600.648841
4237.842034,-8734.430116,-1036.288319,1915.238745
4237.842364,-8290.306550,-1850.514855,459.657299
4237.842694,-8660.409521,-1036.288319,459.657299
4237.843023,-10362.883188,-1332.370696,1762.019645
4237.843353,-9992.780217,-370.102971,2145.067394
4237.843682,-8808.450710,-1110.308913,1378.971896
4237.844012,-9918.759623,-74.020594,995.924147
4237.844342,-11029.068536,0.000000,536.266849
4237.844671,-11621.233289,0.000000,0.000000
4237.845001,-11251.130318,-296.082377,-306.438199
4237.845330,-9030.512492,-222.061783,-76.609550
4237.845660,-8956.491898,-740.205942,536.266849
4237.845989,-9252.574275,-666.185348,1532.190996
4237.846319,-9548.656652,-888.247130,1149.143247
4237.846649,-10955.047942,-518.144159,229.828649
4237.846978,-9548.656652,-1036.288319,-919.314598
4237.847308,-8586.388927,-1850.514855,-919.314598
4237.847637,-8660.409521,-814.226536,1685.410096
4237.847967,-10140.821405,-740.205942,3217.601092
4237.848296,-9992.780217,-370.102971,2145.067394
4237.848626,-9178.553681,-444.123565,229.828649
4237.848956,-9992.780217,-370.102971,-766.095498
4237.849285,-11843.295072,0.000000,459.657299
4237.849615,-11177.109724,74.020594,1608.800546
4237.849944,-9474.636058,-592.164754,306.438199
4237.850274,-7698.141797,-444.123565,-842.705048
4237.850604,-8364.327145,0.000000,-766.095498
4237.850933,-9622.677246,74.020594,-1302.362347
4237.851263,-9030.512492,444.123565,-1378.971896
4237.851592,-9622.677246,-296.082377,-306.438199
4237.851922,-10510.924376,296.082377,1532.190996
4237.852251,-10807.006753,592.164754,1915.238745
4237.852581,-10140.821405,222.061783,0.000000
4237.852911,-9400.615463,-222.061783,-1838.629195
4237.853240,-9178.553681,-222.061783,-1915.238745
4237.853570,-9918.759623,1332.370696,-383.047749
4237.853899,-10288.862594,888.247130,995.924147
4237.854229,-9992.780217,666.185348,842.705048
4237.854559,-9326.594869,518.144159,306.438199
4237.854888,-10140.821405,888.247130,-842.705048
4237.855218,-10510.924376,0.000000,-1991.848295
4237.855547,-9918.759623,444.123565,-766.095498
4237.855877,-9474.636058,444.123565,459.657299
4237.856206,-9770.718434,814.226536,1532.190996
4237.856536,-9992.780217,148.041188,1302.362347
4237.856866,-10214.842000,666.185348,306.438199
4237.857195,-10066.800811,814.226536,0.000000
4237.857525,-9844.739029,962.267725,-689.485948
4237.857854,-9696.697840,148.041188,0.000000
4237.858184,-9548.656652,-148.041188,1225.752797
4237.858513,-9252.574275,666.185348,1838.629195
4237.858843,-9918.759623,1110.308913,1915.238745
4237.859173,-10362.883188,444.123565,-383.047749
4237.859502,-9178.553681,-148.041188,-995.924147
4237.859832,-9030.512492,444.123565,-306.438199
4237.860161,-9696.697840,518.144159,1302.362347
4237.860491,-10140.821405,222.061783,1762.019645
4237.860821,-9474.636058,0.000000,459.657299
4237.861150,-9104.533087,0.000000,-612.876398
4237.861480,-10140.821405,148.041188,0.000000
4237.861809,-9918.759623,0.000000,0.000000
4237.862139,-9400.615463,0.000000,459.657299
4237.862468,-9770.718434,222.061783,766.095498
4237.862798,-10510.924376,222.061783,919.314598
4237.863128,-10584.944971,814.226536,0.000000
4237.863457,-10140.821405,-518.144159,-1072.533697
4237.863787,-8734.430116,-592.164754,-1225.752797
4237.864116,-9622.677246,444.123565,459.657299
4237.864446,-9844.739029,444.123565,459.657299
4237.864775,-8956.491898,0.000000,-1072.533697
4237.865105,-9548.656652,0.000000,-919.314598
4237.865435,-10807.006753,222.061783,-689.485948
4237.865764,-10807.006753,-370.102971,-842.705048
4237.866094,-9770.718434,-518.144159,-689.485948
4237.866423,-8216.285956,-962.267725,536.266849
4237.866753,-9104.533087,-444.123565,1149.143247
4237.867083,-9844.739029,-962.267725,1072.533697
4237.867412,-10362.883188,-962.267725,919.314598
4237.867742,-10214.842000,222.061783,1072.533697
4237.868071,-9622.677246,-666.185348,0.000000
4237.868401,-9548.656652,-666.185348,-766.095498
4237.868730,-9400.615463,0.000000,-919.314598
4237.869060,-9474.636058,148.041188,919.314598
4237.869390,-9548.656652,0.000000,1225.752797
4237.869719,-10066.800811,74.020594,0.000000
4237.870049,-9696.697840,-296.082377,-612.876398
4237.870378,-10955.047942,-296.082377,-612.876398
4237.870708,-10066.800811,-814.226536,76.609550
4237.871038,-9918.759623,-444.123565,842.705048
4237.871367,-9104.533087,-370.102971,1072.533697
4237.871697,-8882.471304,-1036.288319,1149.143247
4237.872026,-8586.388927,-222.061783,1225.752797
4237.872356,-9474.636058,296.082377,842.705048
4237.872685,-10807.006753,296.082377,-459.657299
4237.873015,-10807.006753,148.041188,-1225.752797
4237.873345,-9474.636058,148.041188,-306.438199
4237.873674,-9178.553681,-592.164754,76.609550
4237.874004,-9030.512492,148.041188,383.047749
4237.874333,-9326.594869,0.000000,383.047749
4237.874663,-9918.759623,296.082377,153.219100
4237.874993,-10140.821405,666.185348,-153.219100
4237.875322,-10362.883188,1036.288319,-612.876398
4237.875652,-10288.862594,1036.288319,-689.485948
4237.875981,-9918.759623,962.267725,-153.219100
4237.876311,-9326.594869,296.082377,-383.047749
4237.876641,-9326.594869,518.144159,0.000000
4237.876970,-10066.800811,814.226536,-229.828649
4237.877300,-9474.636058,0.000000,229.828649
4237.877629,-9622.677246,666.185348,1302.362347
4237.877959,-10584.944971,814.226536,1991.848295
4237.878289,-10807.006753,222.061783,1149.143247
4237.878618,-10436.903782,370.102971,612.876398
4237.878948,-9770.718434,74.020594,0.000000
4237.879277,-9252.574275,814.226536,-153.219100
4237.879607,-9548.656652,1036.288319,-842.705048
4237.879937,-10510.924376,1184.329507,-76.609550
4237.880266,-10214.842000,592.164754,612.876398
4237.880596,-9548.656652,1332.370696,76.609550
4237.880926,-9844.739029,444.123565,-919.314598
4237.881255,-10658.965565,74.020594,-1149.143247
4237.881585,-10066.800811,-518.144159,-459.657299
4237.881914,-8956.491898,-296.082377,919.314598
4237.882244,-8808.450710,148.041188,1685.410096
4237.882574,-9326.594869,-222.061783,919.314598
4237.882903,-9622.677246,370.102971,1149.143247
4237.883233,-10066.800811,666.185348,612.876398
4237.883562,-9992.780217,222.061783,-383.047749
4237.883892,-9844.739029,0.000000,306.438199
4237.884222,-9696.697840,74.020594,1838.629195
4237.884551,-9548.656652,-148.041188,1685.410096
4237.884881,-8956.491898,-518.144159,383.047749
4237.885210,-9474.636058,-444.123565,-536.266849
4237.885540,-9548.656652,-592.164754,-842.705048
4237.885870,-9030.512492,0.000000,76.609550
4237.886199,-9030.512492,-296.082377,76.609550
4237.886529,-9992.780217,0.000000,536.266849
4237.886859,-10362.883188,0.000000,153.219100
4237.887188,-9548.656652,222.061783,-1149.143247
4237.887518,-9992.780217,222.061783,-2221.676944
4237.887847,-9622.677246,0.000000,-2374.896044
4237.888177,-9474.636058,-74.020594,-229.828649
4237.888507,-9992.780217,0.000000,1762.019645
4237.888836,-10436.903782,-222.061783,995.924147
4237.889166,-10510.924376,-1332.370696,995.924147
4237.889495,-9622.677246,-1184.329507,-76.609550
4237.889825,-9252.574275,-592.164754,383.047749
4237.890155,-9474.636058,-296.082377,842.705048
4237.890484,-10140.821405,-444.123565,1532.190996
4237.890814,-9770.718434,-370.102971,766.095498
4237.891143,-9844.739029,0.000000,-383.047749
4237.891473,-10807.006753,666.185348,-1072.533697
4237.891803,-11991.336260,222.061783,-229.828649
4237.892132,-11399.171507,444.123565,76.609550
4237.892462,-9178.553681,-518.144159,0.000000
4237.892791,-9178.553681,0.000000,0.000000
4237.893121,-9030.512492,-1110.308913,-153.219100
4237.893451,-9918.759623,-296.082377,0.000000
4237.893780,-9474.636058,-296.082377,0.000000
4237.894110,-9400.615463,-148.041188,76.609550
4237.894440,-9918.759623,-296.082377,76.609550
4237.894769,-9474.636058,-444.123565,689.485948
4237.895099,-9844.739029,222.061783,842.705048
4237.895428,-9696.697840,-74.020594,-383.047749
4237.895758,-8882.471304,-518.144159,-1072.533697
4237.896088,-9326.594869,148.041188,0.000000
4237.896417,-10214.842000,0.000000,1225.752797
4237.896747,-10658.965565,370.102971,766.095498
4237.897076,-9622.677246,370.102971,76.609550
4237.897406,-8216.285956,-296.082377,-306.438199
4237.897736,-8068.244768,444.123565,0.000000
4237.898065,-10436.903782,962.267725,76.609550
4237.898395,-11251.130318,888.247130,229.828649
4237.898724,-9770.718434,1406.391290,-383.047749
4237.899054,-9326.594869,1184.329507,-842.705048
4237.899384,-10881.027347,1406.391290,-842.705048
4237.899713,-11769.274478,1628.453072,-766.095498
4237.900043,-10066.800811,592.164754,153.219100
4237.900373,-8882.471304,740.205942,229.828649
4237.900702,-9400.615463,1406.391290,153.219100
4237.901032,-10288.862594,666.185348,842.705048
4237.901361,-9918.759623,1332.370696,-689.485948
4237.901691,-8808.450710,222.061783,-689.485948
4237.902021,-9844.739029,148.041188,0.000000
4237.902350,-10807.006753,666.185348,919.314598
4237.902680,-10436.903782,222.061783,689.485948
4237.903009,-9474.636058,0.000000,842.705048
4237.903339,-9030.512492,0.000000,76.609550
4237.903669,-10214.842000,74.020594,-76.609550
4237.903998,-10288.862594,370.102971,612.876398
4237.904328,-9548.656652,0.000000,536.266849
4237.904657,-8586.388927,0.000000,612.876398
4237.904987,-9326.594869,370.102971,306.438199
4237.905317,-9548.656652,222.061783,76.609550
4237.905646,-10066.800811,-740.205942,0.000000
4237.905976,-9696.697840,-444.123565,536.266849
4237.906305,-9844.739029,-962.267725,1685.410096
4237.906635,-9992.780217,-444.123565,1455.581446
4237.906965,-8290.306550,-222.061783,76.609550
4237.907294,-9030.512492,0.000000,76.609550
4237.907624,-9400.615463,370.102971,383.047749
4237.907954,-10510.924376,814.226536,-459.657299
4237.908283,-10510.924376,296.082377,-229.828649
4237.908613,-10140.821405,0.000000,-153.219100
4237.908942,-9548.656652,0.000000,612.876398
4237.909272,-9548.656652,0.000000,0.000000
4237.909602,-10436.903782,-74.020594,-1532.190996
4237.909931,-9030.512492,-740.205942,-1378.971896
4237.910261,-9030.512492,222.061783,76.609550
4237.910590,-9696.697840,-444.123565,1225.752797
4237.910920,-10881.027347,74.020594,1532.190996
4237.911250,-10584.944971,1184.329507,919.314598
4237.911579,-9844.739029,0.000000,0.000000
4237.911909,-10658.965565,444.123565,-306.438199
4237.912238,-10955.047942,222.061783,0.000000
4237.912568,-10658.965565,518.144159,842.705048
4237.912898,-9326.594869,296.082377,1378.971896
4237.913227,-8956.491898,592.164754,1072.533697
4237.913557,-9770.718434,148.041188,306.438199
4237.913887,-10584.944971,0.000000,-1378.971896
4237.914216,-10066.800811,0.000000,-766.095498
4237.914546,-9918.759623,-148.041188,536.266849
4237.914875,-10214.842000,0.000000,1225.752797
4237.915205,-9474.636058,-74.020594,1378.971896
4237.915535,-9326.594869,148.041188,76.609550
4237.915864,-10140.821405,-148.041188,-766.095498
4237.916194,-9844.739029,222.061783,76.609550
4237.916523,-10066.800811,-222.061783,1149.143247
4237.916853,-9622.677246,-444.123565,1685.410096
4237.917183,-9548.656652,-370.102971,1378.971896
4237.917512,-9252.574275,-296.082377,766.095498
4237.917842,-9104.533087,-1110.308913,-766.095498
4237.918171,-8512.368333,-444.123565,-766.095498
4237.918501,-8586.388927,0.000000,0.000000
4237.918831,-8586.388927,222.061783,76.609550
4237.919160,-9770.718434,222.061783,612.876398
4237.919490,-9992.780217,444.123565,383.047749
4237.919819,-9696.697840,-592.164754,-383.047749
4237.920149,-9696.697840,148.041188,-459.657299
4237.920479,-9252.574275,0.000000,-383.047749
4237.920808,-10362.883188,0.000000,0.000000
4237.921138,-9252.574275,0.000000,1149.143247
4237.921468,-9104.533087,222.061783,612.876398
4237.921797,-10140.821405,1554.432478,306.438199
4237.922127,-10881.027347,296.082377,-612.876398
4237.922456,-10881.027347,592.164754,-1072.533697
4237.922786,-9770.718434,0.000000,229.828649
4237.923116,-9844.739029,148.041188,1762.019645
4237.923445,-10436.903782,0.000000,2145.067394
4237.923775,-10066.800811,-592.164754,76.609550
4237.924104,-10584.944971,296.082377,-995.924147
4237.924434,-10214.842000,-518.144159,-1225.752797
4237.924764,-10362.883188,-592.164754,383.047749
4237.925093,-10288.862594,-1184.329507,2068.457845
4237.925423,-9474.636058,-814.226536,2451.505594
4237.925752,-8586.388927,-1110.308913,1532.190996
4237.926082,-9178.553681,-962.267725,383.047749
4237.926412,-10140.821405,-1480.411884,536.266849
4237.926741,-10807.006753,-1332.370696,1455.581446
4237.927071,-10436.903782,-1110.308913,1302.362347
4237.927401,-9326.594869,-1480.411884,2451.505594
4237.927730,-8660.409521,-814.226536,2298.286494
4237.928060,-9178.553681,-814.226536,766.095498
4237.928389,-9622.677246,-518.144159,-306.438199
4237.928719,-10066.800811,-296.082377,-919.314598
4237.929049,-9474.636058,-592.164754,-919.314598
4237.929378,-9696.697840,-148.041188,459.657299
4237.929708,-8660.409521,-666.185348,842.705048
4237.930037,-8956.491898,-814.226536,-612.876398
4237.930367,-8956.491898,222.061783,-2068.457845
4237.930697,-9770.718434,-518.144159,-2604.724693
4237.931026,-9844.739029,814.226536,-2068.457845
4237.931356,-9400.615463,444.123565,0.000000
4237.931685,-9918.759623,-148.041188,1225.752797
4237.932015,-10436.903782,666.185348,1608.800546
4237.932345,-10807.006753,740.205942,383.047749
4237.932674,-10584.944971,-370.102971,-1378.971896
4237.933004,-9844.739029,148.041188,-1915.238745
4237.933333,-9400.615463,-518.144159,-536.266849
4237.933663,-9548.656652,370.102971,1072.533697
4237.933993,-10214.842000,1110.308913,2298.286494
4237.934322,-10288.862594,962.267725,536.266849
4237.934652,-10362.883188,592.164754,-1378.971896
4237.934982,-9992.780217,1406.391290,-1838.629195
4237.935311,-9844.739029,1184.329507,-1149.143247
4237.935641,-10510.924376,1776.494261,-153.219100
4237.935970,-10066.800811,1406.391290,919.314598
4237.936300,-9696.697840,1110.308913,689.485948
4237.936630,-9104.533087,814.226536,-1225.752797
4237.936959,-9400.615463,296.082377,-459.657299
4237.937289,-9992.780217,962.267725,306.438199
4237.937618,-10955.047942,1110.308913,536.266849
4237.937948,-9252.574275,740.205942,-536.266849
4237.938278,-8808.450710,1110.308913,-1225.752797
4237.938607,-9474.636058,1184.329507,-919.314598
4237.938937,-9992.780217,962.267725,153.219100
4237.939266,-9400.615463,888.247130,76.609550
4237.939596,-8216.285956,962.267725,-153.219100
4237.939926,-8956.491898,740.205942,306.438199
4237.940255,-10066.800811,370.102971,995.924147
4237.940585,-10584.944971,222.061783,842.705048
4237.940915,-9770.718434,592.164754,842.705048
4237.941244,-8956.491898,222.061783,306.438199
4237.941574,-8882.471304,740.205942,153.219100
4237.941903,-9104.533087,296.082377,0.000000
4237.942233,-10140.821405,1036.288319,-153.219100
4237.942563,-10288.862594,1036.288319,0.000000
4237.942892,-10140.821405,814.226536,-229.828649
4237.943222,-10066.800811,814.226536,-306.438199
4237.943551,-10436.903782,518.144159,0.000000
4237.943881,-10288.862594,518.144159,-1378.971896
4237.944211,-9326.594869,-148.041188,-2374.896044
4237.944540,-9770.718434,370.102971,-1149.143247
4237.944870,-10140.821405,-444.123565,612.876398
4237.945199,-11251.130318,74.020594,1838.629195
4237.945529,-9918.759623,-444.123565,1378.971896
4237.945859,-9252.574275,-1036.288319,-153.219100
4237.946188,-8586.388927,-1110.308913,-306.438199
4237.946518,-9770.718434,-666.185348,383.047749
4237.946847,-10807.006753,-814.226536,2298.286494
4237.947177,-10658.965565,-1184.329507,2451.505594
4237.947507,-10510.924376,-1110.308913,2221.676944
4237.947836,-10066.800811,-1110.308913,919.314598
4237.948166,-9770.718434,-1776.494261,0.000000
4237.948496,-9104.533087,-2368.659014,76.609550
4237.948825,-8512.368333,-1702.473667,919.314598
4237.949155,-9104.533087,-1406.391290,2145.067394
4237.949484,-9548.656652,-1554.432478,3064.381992
4237.949814,-11103.089130,-1110.308913,2145.067394
4237.950144,-10362.883188,-1036.288319,842.705048
4237.950473,-9326.594869,-962.267725,-1532.190996
4237.950803,-9400.615463,-814.226536,-1838.629195
4237.951132,-9696.697840,-740.205942,229.828649
4237.951462,-9548.656652,-962.267725,1685.410096
4237.951792,-9400.615463,-74.020594,995.924147
4237.952121,-9178.553681,-592.164754,-1455.581446
4237.952451,-9992.780217,-444.123565,-1225.752797
4237.952780,-9992.780217,-1110.308913,-612.876398
4237.953110,-9548.656652,-1184.329507,612.876398
4237.953440,-9622.677246,-444.123565,1762.019645
4237.953769,-9326.594869,-148.041188,1762.019645
4237.954099,-9548.656652,-444.123565,459.657299
4237.954429,-9992.780217,888.247130,-306.438199
4237.954758,-10658.965565,1258.350101,-612.876398
4237.955088,-11177.109724,1480.411884,-919.314598
4237.955417,-10288.862594,962.267725,-842.705048
4237.955747,-10214.842000,1110.308913,0.000000
4237.956077,-10288.862594,740.205942,459.657299
4237.956406,-9474.636058,1110.308913,-306.438199
4237.956736,-8956.491898,666.185348,-2068.457845
4237.957065,-8660.409521,444.123565,-2298.286494
4237.957395,-9104.533087,518.144159,0.000000
4237.957725,-11473.192101,1110.308913,2451.505594
4237.958054,-11177.109724,1258.350101,2451.505594
4237.958384,-10066.800811,444.123565,1149.143247
4237.958713,-8364.327145,962.267725,-306.438199
4237.959043,-9548.656652,740.205942,-306.438199
4237.959373,-9918.759623,1332.370696,306.438199
4237.959702,-9178.553681,814.226536,459.657299
4237.960032,-9326.594869,1110.308913,0.000000
4237.960362,-8882.471304,814.226536,229.828649
4237.960691,-9326.594869,1332.370696,-383.047749
4237.961021,-9548.656652,888.247130,-1149.143247
4237.961350,-9548.656652,740.205942,-1302.362347
4237.961680,-9622.677246,1184.329507,0.000000
4237.962010,-9474.636058,666.185348,842.705048
4237.962339,-9104.533087,1258.350101,1072.533697
4237.962669,-9770.718434,740.205942,0.000000
4237.962998,-10658.965565,1406.391290,-1455.581446
4237.963328,-10510.924376,814.226536,-1762.019645
4237.963658,-9326.594869,222.061783,-1608.800546
4237.963987,-8660.409521,814.226536,153.219100
4237.964317,-9252.574275,740.205942,1072.533697
4237.964646,-9548.656652,0.000000,0.000000
4237.964976,-9844.739029,518.144159,-1608.800546
4237.965306,-10584.944971,1036.288319,-1302.362347
4237.965635,-10510.924376,444.123565,-689.485948
4237.965965,-10732.986159,444.123565,459.657299
4237.966294,-9844.739029,0.000000,995.924147
4237.966624,-9474.636058,0.000000,0.000000
4237.966954,-8956.491898,-296.082377,229.828649
4237.967283,-9844.739029,444.123565,306.438199
4237.967613,-10510.924376,148.041188,383.047749
4237.967943,-9696.697840,444.123565,-229.828649
4237.968272,-9918.759623,-444.123565,612.876398
4237.968602,-10510.924376,-148.041188,1378.971896
4237.968931,-10658.965565,-1332.370696,1838.629195
4237.969261,-9400.615463,-1480.411884,919.314598
4237.969591,-9252.574275,-1332.370696,919.314598
4237.969920,-9474.636058,-1036.288319,919.314598
4237.970250,-10066.800811,-296.082377,536.266849
4237.970579,-10584.944971,-296.082377,153.219100
4237.970909,-10807.006753,-888.247130,306.438199
4237.971239,-10658.965565,-814.226536,1149.143247
4237.971568,-9992.780217,0.000000,1838.629195
4237.971898,-9844.739029,-1850.514855,1302.362347
4237.972227,-8660.409521,-2146.597232,-76.609550
4237.972557,-8660.409521,-2220.617826,0.000000
4237.972887,-9844.739029,-1406.391290,153.219100
4237.973216,-9474.636058,-1850.514855,1149.143247
4237.973544,-9178.553681,-1480.411884,1762.019645
4237.973874,-9326.594869,-1036.288319,1685.410096
4237.974204,-8438.347739,-1184.329507,766.095498
4237.974533,-9104.533087,-592.164754,76.609550
4237.974863,-9252.574275,0.000000,306.438199
4237.975193,-10732.986159,-518.144159,1302.362347
4237.975522,-11251.130318,-444.123565,2221.676944
4237.975852,-10732.986159,-592.164754,1225.752797
4237.976181,-9844.739029,-740.205942,153.219100
4237.976511,-8734.430116,-666.185348,-1225.752797
4237.976841,-9326.594869,-888.247130,-919.314598
4237.977170,-9474.636058,-222.061783,-383.047749
4237.977500,-9548.656652,370.102971,766.095498
4237.977829,-9326.594869,222.061783,1915.238745
4237.978159,-10066.800811,888.247130,153.219100
4237.978489,-10732.986159,962.267725,-1225.752797
4237.978818,-10807.006753,370.102971,-842.705048
4237.979148,-11177.109724,296.082377,-229.828649
4237.979477,-9474.636058,-222.061783,842.705048
4237.979807,-8734.430116,-74.020594,1532.190996
4237.980137,-9326.594869,-370.102971,1455.581446
4237.980466,-9992.780217,296.082377,1072.533697
4237.980796,-8882.471304,888.247130,-459.657299
4237.981125,-9178.553681,814.226536,-1685.410096
4237.981455,-9474.636058,1776.494261,-1072.533697
4237.981785,-10214.842000,2072.576638,306.438199
4237.982114,-10214.842000,1628.453072,766.095498
4237.982444,-9622.677246,666.185348,76.609550
4237.982773,-10140.821405,1406.391290,-1532.190996
4237.983103,-10510.924376,444.123565,-1608.800546
4237.983433,-9844.739029,962.267725,-1378.971896
4237.983762,-8660.409521,370.102971,-229.828649
4237.984092,-8290.306550,148.041188,0.000000
4237.984421,-9622.677246,814.226536,1608.800546
4237.984751,-9992.780217,1406.391290,1532.190996
4237.985081,-10214.842000,1110.308913,-536.266849
4237.985410,-9622.677246,1702.473667,-1455.581446
4237.985740,-9992.780217,814.226536,-995.924147
4237.986070,-10955.047942,1036.288319,-306.438199
4237.986399,-10510.924376,518.144159,842.705048
4237.986729,-9326.594869,148.041188,76.609550
4237.987058,-9104.533087,0.000000,-536.266849
4237.987388,-9326.594869,148.041188,-1378.971896
4237.987718,-9252.574275,296.082377,-229.828649
4237.988047,-9326.594869,444.123565,612.876398
4237.988377,-9474.636058,592.164754,1455.581446
4237.988706,-10807.006753,222.061783,1072.533697
4237.989036,-10066.800811,296.082377,689.485948
4237.989366,-9992.780217,0.000000,153.219100
4237.989695,-10066.800811,74.020594,229.828649
4237.990025,-9326.594869,-666.185348,-153.219100
4237.990354,-9400.615463,148.041188,-153.219100
4237.990684,-8586.388927,222.061783,766.095498
4237.991014,-9326.594869,222.061783,-383.047749
4237.991343,-10288.862594,0.000000,0.000000
4237.991673,-10584.944971,-814.226536,-383.047749
4237.992002,-10362.883188,370.102971,-306.438199
4237.992332,-9770.718434,-592.164754,459.657299
4237.992662,-9992.780217,-518.144159,536.266849
4237.992991,-9326.594869,-814.226536,689.485948
4237.993321,-9696.697840,444.123565,76.609550
4237.993650,-10436.903782,-148.041188,0.000000
4237.993980,-10362.883188,74.020594,612.876398
4237.994310,-10510.924376,0.000000,612.876398
4237.994639,-10362.883188,0.000000,383.047749
4237.994969,-9326.594869,-1332.370696,306.438199
4237.995298,-9400.615463,-1184.329507,383.047749
4237.995628,-9178.553681,-1184.329507,536.266849
4237.995958,-9474.636058,-962.267725,1072.533697
4237.996287,-9696.697840,-518.144159,536.266849
4237.996617,-10214.842000,-444.123565,919.314598
4237.996947,-10362.883188,-222.061783,995.924147
4237.997276,-10955.047942,-518.144159,1225.752797
4237.997606,-10288.862594,-518.144159,842.705048
4237.997935,-9400.615463,-1998.556043,1762.019645
4237.998265,-8660.409521,-962.267725,2604.724693
4237.998595,-9770.718434,-1554.432478,2298.286494
4237.998924,-10584.944971,-962.267725,995.924147
4237.999254,-9474.636058,-1110.308913,0.000000
4237.999583,-9696.697840,-962.267725,0.000000
4237.999913,-9400.615463,-222.061783,0.000000
4238.000243,-9770.718434,-740.205942,459.657299
4238.000572,-9696.697840,0.000000,1225.752797
4238.000902,-9918.759623,-518.144159,919.314598
4238.001231,-10288.862594,0.000000,229.828649
4238.001561,-9548.656652,-592.164754,-76.609550
4238.001891,-9474.636058,0.000000,-842.705048
4238.002220,-9918.759623,-444.123565,306.438199
4238.002550,-9770.718434,0.000000,536.266849
4238.002879,-9696.697840,-296.082377,76.609550
4238.003209,-9104.533087,592.164754,0.000000
4238.003539,-9622.677246,592.164754,-689.485948
4238.003868,-10510.924376,740.205942,-612.876398
4238.004198,-9844.739029,814.226536,-766.095498
4238.004527,-10362.883188,444.123565,-842.705048
4238.004857,-9548.656652,1036.288319,459.657299
4238.005187,-9770.718434,0.000000,229.828649
4238.005516,-10214.842000,444.123565,0.000000
4238.005846,-9770.718434,-222.061783,-383.047749
4238.006175,-10066.800811,1110.308913,-689.485948
4238.006505,-9844.739029,-296.082377,-153.219100
4238.006835,-9252.574275,444.123565,766.095498
4238.007164,-8956.491898,296.082377,1991.848295
4238.007494,-9252.574275,1184.329507,1302.362347
4238.007824,-10288.862594,1184.329507,-612.876398
4238.008153,-10955.047942,962.267725,-1532.190996
4238.008483,-9474.636058,814.226536,-2221.676944
4238.008812,-8956.491898,888.247130,-1149.143247
4238.009142,-9474.636058,1850.514855,-612.876398
4238.009472,-10214.842000,592.164754,229.828649
4238.009801,-10288.862594,888.247130,0.000000
4238.010131,-9844.739029,74.020594,-383.047749
4238.010460,-10362.883188,888.247130,-689.485948
4238.010790,-9474.636058,74.020594,383.047749
4238.011120,-8956.491898,74.020594,1072.533697
4238.011449,-8142.265362,666.185348,919.314598
4238.011779,-9548.656652,1924.535449,306.438199
4238.012108,-11325.150913,1036.288319,-1225.752797
4238.012438,-10732.986159,1110.308913,-1532.190996
4238.012768,-9474.636058,518.144159,-689.485948
4238.013097,-9474.636058,888.247130,459.657299
4238.013427,-10066.800811,888.247130,1225.752797
4238.013756,-9252.574275,-222.061783,842.705048
4238.014086,-8956.491898,-296.082377,-306.438199
4238.014416,-9252.574275,74.020594,-689.485948
4238.014745,-11177.109724,0.000000,459.657299
4238.015075,-10436.903782,74.020594,1149.143247
4238.015404,-8142.265362,0.000000,1149.143247
4238.015734,-9252.574275,1036.288319,76.609550
4238.016064,-10881.027347,296.082377,-76.609550
4238.016393,-12139.377449,666.185348,-306.438199
4238.016723,-10510.924376,296.082377,459.657299
4238.017053,-10066.800811,0.000000,536.266849
4238.017382,-9400.615463,-370.102971,766.095498
4238.017712,-8660.409521,-1258.350101,995.924147
4238.018041,-9252.574275,-592.164754,1302.362347
4238.018371,-9400.615463,-370.102971,612.876398
4238.018701,-10288.862594,-444.123565,-612.876398
4238.019030,-9770.718434,-666.185348,-229.828649
4238.019360,-10140.821405,0.000000,1838.629195
4238.019689,-11251.130318,-148.041188,2145.067394
4238.020019,-10436.903782,-888.247130,459.657299
4238.020349,-8956.491898,-1480.411884,0.000000
4238.020678,-7698.141797,-1036.288319,-229.828649
4238.021008,-9918.759623,0.000000,-229.828649
4238.021337,-10140.821405,-1258.350101,-842.705048
4238.021667,-9252.574275,-814.226536,0.000000
4238.021997,-9400.615463,-740.205942,153.219100
4238.022326,-11621.233289,-1258.350101,306.438199
4238.022656,-9770.718434,-1850.514855,919.314598
4238.022985,-7920.203579,-1332.370696,1608.800546
4238.023315,-8734.430116,-370.102971,1378.971896
4238.023645,-10214.842000,-296.082377,1072.533697
4238.023974,-11695.253884,74.020594,536.266849
4238.024304,-10732.986159,74.020594,0.000000
4238.024633,-10955.047942,0.000000,-919.314598
4238.024963,-10288.862594,-222.061783,-1378.971896
4238.025293,-9400.615463,-444.123565,-612.876398
4238.025622,-8068.244768,0.000000,459.657299
4238.025952,-8290.306550,-740.205942,0.000000
4238.026281,-9992.780217,-666.185348,-459.657299
4238.026611,-10732.986159,-296.082377,-612.876398
4238.026941,-9918.759623,-222.061783,0.000000
4238.027270,-9844.739029,-222.061783,1378.971896
4238.027600,-9622.677246,0.000000,1302.362347
4238.027930,-9992.780217,444.123565,842.705048
4238.028259,-9400.615463,370.102971,76.609550
4238.028589,-9918.759623,296.082377,-76.609550
4238.028918,-10288.862594,1184.329507,229.828649
4238.029248,-11029.068536,1036.288319,689.485948
4238.029578,-10140.821405,370.102971,76.609550
4238.029907,-8660.409521,0.000000,-919.314598
4238.030237,-8956.491898,592.164754,-1072.533697
4238.030566,-10066.800811,370.102971,0.000000
4238.030896,-9770.718434,666.185348,0.000000
4238.031226,-9474.636058,74.020594,-842.705048
4238.031555,-9474.636058,888.247130,153.219100
4238.031885,-9992.780217,1110.308913,459.657299
4238.032214,-10658.965565,814.226536,153.219100
4238.032544,-10288.862594,1036.288319,229.828649
4238.032874,-10288.862594,370.102971,612.876398
4238.033203,-9474.636058,370.102971,383.047749
4238.033533,-9474.636058,444.123565,1608.800546
4238.033862,-9548.656652,0.000000,1225.752797
4238.034192,-9622.677246,740.205942,842.705048
4238.034522,-9770.718434,666.185348,-919.314598
4238.034851,-9844.739029,592.164754,-1685.410096
4238.035181,-9474.636058,444.123565,-1378.971896
4238.035510,-9326.594869,444.123565,766.095498
4238.035840,-8586.388927,962.267725,1762.019645
4238.036170,-10214.842000,1480.411884,459.657299
4238.036499,-10436.903782,370.102971,-689.485948
4238.036829,-9770.718434,740.205942,-689.485948
4238.037158,-10214.842000,74.020594,-995.924147
4238.037488,-9696.697840,370.102971,0.000000
4238.037818,-9770.718434,-370.102971,2298.286494
4238.038147,-8956.491898,0.000000,2451.505594
4238.038477,-9030.512492,666.185348,459.657299
4238.038807,-10288.862594,1258.350101,-1378.971896
4238.039136,-11029.068536,296.082377,-2298.286494
4238.039466,-10214.842000,518.144159,-459.657299
4238.039795,-10066.800811,1332.370696,1532.190996
4238.040125,-10140.821405,370.102971,2221.676944
4238.040455,-9548.656652,0.000000,0.000000
4238.040784,-9844.739029,-148.041188,-1149.143247
4238.041114,-10214.842000,296.082377,-1608.800546
4238.041443,-10955.047942,-592.164754,-612.876398
4238.041773,-9992.780217,-296.082377,612.876398
4238.042103,-8586.388927,0.000000,1302.362347
4238.042432,-8586.388927,0.000000,153.219100
4238.042762,-9252.574275,-888.247130,-919.314598
4238.043091,-9548.656652,-1110.308913,-1608.800546
4238.043421,-10436.903782,-1406.391290,459.657299
4238.043751,-9474.636058,-1258.350101,2451.505594
4238.044080,-8734.430116,-1184.329507,2987.772442
4238.044410,-9030.512492,-444.123565,766.095498
4238.044739,-9400.615463,-1110.308913,-766.095498
4238.045069,-11103.089130,-962.267725,-612.876398
4238.045399,-11399.171507,-370.102971,153.219100
4238.045728,-9474.636058,-666.185348,1455.581446
4238.046058,-8882.471304,74.020594,2451.505594
4238.046387,-9992.780217,-148.041188,612.876398
4238.046717,-10362.883188,-148.041188,-1072.533697
4238.047047,-10732.986159,666.185348,-2834.553343
4238.047376,-10214.842000,-296.082377,-2987.772442
4238.047706,-10955.047942,74.020594,153.219100
4238.048035,-9178.553681,74.020594,2145.067394
4238.048365,-9474.636058,74.020594,1302.362347
4238.048695,-9918.759623,0.000000,-229.828649
4238.049024,-9992.780217,-444.123565,-1915.238745
4238.049354,-9844.739029,-518.144159,-766.095498
4238.049684,-9178.553681,-74.020594,1149.143247
4238.050013,-9770.718434,0.000000,3140.991542
4238.050343,-9770.718434,-370.102971,3217.601092
4238.050672,-9918.759623,0.000000,1685.410096
4238.051002,-9844.739029,-222.061783,-919.314598
4238.051332,-9326.594869,296.082377,-1991.848295
4238.051661,-10584.944971,962.267725,-842.705048
4238.051991,-10214.842000,592.164754,842.705048
4238.052320,-8882.471304,666.185348,306.438199
4238.052650,-8808.450710,444.123565,-842.705048
4238.052980,-9474.636058,148.041188,-1608.800546
4238.053309,-10732.986159,148.041188,-689.485948
4238.053639,-10881.027347,888.247130,383.047749
4238.053968,-9992.780217,-444.123565,1302.362347
4238.054298,-9030.512492,666.185348,1225.752797
4238.054628,-8586.388927,-592.164754,842.705048
4238.054957,-9622.677246,370.102971,766.095498
4238.055287,-10214.842000,222.061783,459.657299
4238.055616,-9844.739029,666.185348,459.657299
4238.055946,-10140.821405,740.205942,153.219100
4238.056276,-9770.718434,1110.308913,0.000000
4238.056605,-10362.883188,888.247130,-1225.752797
4238.056935,-9622.677246,1110.308913,-1838.629195
4238.057264,-8586.388927,592.164754,-1225.752797
4238.057594,-9474.636058,740.205942,153.219100
4238.057924,-9918.759623,888.247130,612.876398
4238.058253,-10066.800811,-296.082377,0.000000
4238.058583,-9030.512492,888.247130,-842.705048
4238.058912,-9326.594869,444.123565,612.876398
4238.059242,-11029.068536,666.185348,995.924147
4238.059572,-10732.986159,518.144159,766.095498
4238.059901,-9844.739029,1184.329507,459.657299
4238.060231,-9474.636058,888.247130,383.047749
4238.060561,-9770.718434,740.205942,153.219100
4238.060890,-11473.192101,666.185348,306.438199
4238.061220,-10288.862594,666.185348,-689.485948
4238.061549,-8956.491898,592.164754,-1532.190996
4238.061879,-9696.697840,74.020594,-1302.362347
4238.062209,-10214.842000,-296.082377,-153.219100
4238.062538,-9844.739029,-444.123565,689.485948
4238.062868,-7846.182985,-222.061783,-842.705048
4238.063197,-8808.450710,0.000000,-229.828649
4238.063527,-10140.821405,148.041188,919.314598
4238.063857,-11103.089130,222.061783,1685.410096
4238.064186,-10140.821405,0.000000,2374.896044
4238.064516,-9696.697840,-370.102971,1302.362347
4238.064845,-9992.780217,74.020594,919.314598
4238.065175,-10214.842000,-296.082377,0.000000
4238.065505,-9474.636058,-296.082377,-1225.752797
4238.065834,-8586.388927,-666.185348,-1378.971896
4238.066164,-9326.594869,-74.020594,0.000000
4238.066493,-10436.903782,-592.164754,612.876398
4238.066823,-9548.656652,-296.082377,919.314598
4238.067153,-8660.409521,74.020594,1072.533697
4238.067482,-9992.780217,148.041188,-459.657299
4238.067812,-9918.759623,222.061783,-536.266849
4238.068141,-10510.924376,444.123565,229.828649
4238.068471,-10584.944971,148.041188,995.924147
4238.068801,-9844.739029,0.000000,689.485948
4238.069130,-9844.739029,-370.102971,0.000000
4238.069460,-8882.471304,-814.226536,-229.828649
4238.069789,-9252.574275,-1184.329507,0.000000
4238.070119,-9696.697840,0.000000,919.314598
4238.070449,-9770.718434,-444.123565,153.219100
4238.070778,-8882.471304,-370.102971,383.047749
4238.071108,-8882.471304,296.082377,229.828649
4238.071438,-11399.171507,222.061783,842.705048
4238.071767,-11843.295072,-370.102971,76.609550
4238.072097,-8734.430116,-592.164754,-536.266849
4238.072426,-8882.471304,-296.082377,612.876398
4238.072756,-11029.068536,0.000000,1838.629195
4238.073086,-11621.233289,-962.267725,1762.019645
4238.073415,-9104.533087,-740.205942,536.266849
4238.073745,-6587.832884,-370.102971,-1225.752797
4238.074074,-8660.409521,0.000000,-1532.190996
4238.074404,-10881.027347,-740.205942,76.609550
4238.074734,-10732.986159,-592.164754,1532.190996
4238.075063,-9400.615463,-296.082377,766.095498
4238.075393,-9104.533087,-1110.308913,0.000000
4238.075722,-10066.800811,-518.144159,0.000000
4238.076052,-9252.574275,-1332.370696,1378.971896
4238.076382,-9474.636058,-592.164754,2145.067394
4238.076711,-10436.903782,-74.020594,2298.286494
4238.077041,-10584.944971,-592.164754,766.095498
4238.077370,-8956.491898,-518.144159,-689.485948
4238.077700,-8734.430116,370.102971,-1149.143247
4238.078029,-9918.759623,888.247130,-919.314598
4238.078359,-10436.903782,0.000000,-612.876398
4238.078689,-10436.903782,518.144159,-383.047749
4238.079018,-9548.656652,296.082377,536.266849
4238.079348,-10955.047942,370.102971,612.876398
4238.079677,-10510.924376,-222.061783,-995.924147
4238.080007,-8586.388927,-370.102971,-1685.410096
4238.080336,-9104.533087,0.000000,76.609550
4238.080666,-9844.739029,444.123565,1685.410096
4238.080996,-10658.965565,592.164754,2298.286494
4238.081325,-9992.780217,148.041188,919.314598
4238.081655,-9474.636058,518.144159,-306.438199
4238.081984,-10288.862594,444.123565,-919.314598
4238.082314,-10955.047942,444.123565,-383.047749
4238.082644,-9844.739029,0.000000,306.438199
4238.082973,-8290.306550,-444.123565,0.000000
4238.083303,-8734.430116,0.000000,0.000000
4238.083632,-10436.903782,296.082377,612.876398
4238.083962,-10436.903782,0.000000,459.657299
4238.084291,-9326.594869,296.082377,0.000000
4238.084621,-10066.800811,296.082377,0.000000
4238.084951,-11029.068536,0.000000,1455.581446
4238.085280,-10510.924376,370.102971,2145.067394
4238.085610,-8808.450710,222.061783,536.266849
4238.085939,-9992.780217,814.226536,-306.438199
4238.086269,-10362.883188,814.226536,-842.705048
4238.086599,-10140.821405,296.082377,-1072.533697
4238.086928,-9326.594869,222.061783,0.000000
4238.087258,-9104.533087,74.020594,-459.657299
4238.087587,-9104.533087,-296.082377,-76.609550
4238.087917,-8216.285956,-148.041188,-842.705048
4238.088246,-8882.471304,0.000000,-536.266849
4238.088576,-9474.636058,0.000000,0.000000
4238.088906,-9622.677246,0.000000,153.219100
4238.089235,-10584.944971,296.082377,995.924147
4238.089565,-9844.739029,0.000000,995.924147
4238.089894,-9622.677246,1110.308913,842.705048
4238.090224,-9622.677246,666.185348,-459.657299
4238.090553,-9992.780217,370.102971,-995.924147
4238.090883,-9622.677246,666.185348,-1302.362347
4238.091213,-9770.718434,814.226536,-536.266849
4238.091542,-10140.821405,814.226536,-689.485948
4238.091872,-9104.533087,370.102971,-383.047749
4238.092201,-8586.388927,370.102971,-1455.581446
4238.092531,-9178.553681,370.102971,-1302.362347
4238.092861,-10807.006753,1184.329507,-153.219100
4238.093190,-10436.903782,148.041188,229.828649
4238.093520,-10732.986159,666.185348,0.000000
4238.093849,-10214.842000,222.061783,-153.219100
4238.094179,-9770.718434,0.000000,919.314598
4238.094508,-9696.697840,518.144159,1838.629195
4238.094838,-9622.677246,-370.102971,1302.362347
4238.095168,-10584.944971,-222.061783,766.095498
4238.095497,-9918.759623,74.020594,1225.752797
4238.095827,-9474.636058,222.061783,1378.971896
4238.096156,-9992.780217,0.000000,1225.752797
4238.096486,-9622.677246,74.020594,153.219100
4238.096815,-9770.718434,-74.020594,-153.219100
4238.097145,-9178.553681,0.000000,383.047749
4238.097475,-9548.656652,0.000000,766.095498
4238.097804,-10584.944971,222.061783,1685.410096
4238.098134,-10214.842000,74.020594,1991.848295
4238.098463,-9474.636058,-370.102971,536.266849
4238.098793,-9474.636058,-444.123565,689.485948
4238.099123,-10658.965565,-962.267725,919.314598
4238.099452,-10436.903782,-666.185348,1762.019645
4238.099782,-9252.574275,-814.226536,1302.362347
4238.100111,-8660.409521,-962.267725,383.047749
4238.100441,-8512.368333,74.020594,995.924147
4238.100770,-9474.636058,148.041188,-76.609550
4238.101100,-9104.533087,-222.061783,-1532.190996
4238.101430,-9326.594869,-222.061783,-919.314598
4238.101759,-10807.006753,-222.061783,0.000000
4238.102089,-10288.862594,-518.144159,536.266849
4238.102418,-8882.471304,-962.267725,-459.657299
4238.102748,-8586.388927,-1110.308913,0.000000
4238.103078,-10066.800811,-888.247130,-306.438199
4238.103407,-10436.903782,-666.185348,0.000000
4238.103737,-9548.656652,-148.041188,0.000000
4238.104066,-9178.553681,148.041188,383.047749
4238.104396,-10436.903782,148.041188,1378.971896
4238.104725,-10807.006753,-148.041188,689.485948
4238.105055,-10362.883188,-444.123565,0.000000
4238.105385,-9622.677246,-148.041188,-536.266849
4238.105714,-9696.697840,-444.123565,-459.657299
4238.106044,-9696.697840,-888.247130,1072.533697
4238.106373,-9030.512492,-296.082377,1608.800546
4238.106703,-9474.636058,518.144159,919.314598
4238.107032,-11103.089130,444.123565,689.485948
4238.107362,-11547.212695,518.144159,153.219100
4238.107692,-10510.924376,0.000000,0.000000
4238.108021,-9474.636058,740.205942,0.000000
4238.108351,-10066.800811,222.061783,0.000000
4238.108680,-9992.780217,518.144159,612.876398
4238.109010,-9474.636058,-222.061783,-995.924147
4238.109340,-9474.636058,-222.061783,-2145.067394
4238.109669,-9770.718434,222.061783,-459.657299
4238.109999,-11251.130318,592.164754,1149.143247
4238.110328,-9696.697840,-444.123565,2451.505594
4238.110658,-8438.347739,-296.082377,2221.676944
4238.110987,-9252.574275,0.000000,1455.581446
4238.111317,-10288.862594,444.123565,1991.848295
4238.111647,-10510.924376,592.164754,-76.609550
4238.111976,-8660.409521,0.000000,-995.924147
4238.112306,-8808.450710,1110.308913,-383.047749
4238.112635,-9696.697840,888.247130,0.000000
4238.112965,-10436.903782,888.247130,-306.438199
4238.113294,-9252.574275,148.041188,-1225.752797
4238.113624,-8438.347739,74.020594,-1378.971896
4238.113954,-9252.574275,370.102971,-919.314598
4238.114283,-10658.965565,444.123565,459.657299
4238.114613,-10066.800811,-222.061783,995.924147
4238.114942,-8660.409521,74.020594,383.047749
4238.115272,-9696.697840,296.082377,-612.876398
4238.115602,-10658.965565,1184.329507,0.000000
4238.115931,-11029.068536,888.247130,0.000000
4238.116261,-9844.739029,814.226536,306.438199
4238.116590,-9548.656652,740.205942,229.828649
4238.116920,-10732.986159,888.247130,-689.485948
4238.117249,-9844.739029,-222.061783,-2068.457845
4238.117579,-8956.491898,0.000000,-1608.800546
4238.117909,-8142.265362,0.000000,-229.828649
4238.118238,-9400.615463,296.082377,383.047749
4238.118568,-11251.130318,1036.288319,842.705048
4238.118897,-10362.883188,148.041188,842.705048
4238.119227,-9474.636058,740.205942,-689.485948
4238.119557,-10066.800811,0.000000,-995.924147
4238.119886,-11103.089130,592.164754,76.609550
4238.120216,-10214.842000,0.000000,2145.067394
4238.120545,-8808.450710,0.000000,1532.190996
4238.120875,-9474.636058,0.000000,612.876398
4238.121204,-10658.965565,-222.061783,-229.828649
4238.121534,-10066.800811,222.061783,-536.266849
4238.121864,-8734.430116,592.164754,-1455.581446
4238.122193,-9400.615463,148.041188,-229.828649
4238.122523,-10658.965565,296.082377,766.095498
4238.122852,-10066.800811,74.020594,995.924147
4238.123182,-8956.491898,-518.144159,0.000000
4238.123511,-8586.388927,74.020594,153.219100
4238.123841,-11621.233289,-296.082377,459.657299
4238.124171,-10807.006753,444.123565,612.876398
4238.124500,-9030.512492,-222.061783,1149.143247
4238.124830,-8586.388927,-148.041188,1455.581446
4238.125159,-9474.636058,-592.164754,1225.752797
4238.125489,-11251.130318,-74.020594,1225.752797
4238.125819,-10140.821405,-592.164754,995.924147
4238.126148,-9104.533087,-666.185348,76.609550
4238.126478,-8364.327145,-518.144159,-306.438199
4238.126807,-9548.656652,0.000000,383.047749
4238.127137,-10066.800811,0.000000,1072.533697
4238.127466,-9104.533087,296.082377,1149.143247
4238.127796,-9622.677246,296.082377,229.828649
4238.128126,-10881.027347,0.000000,-229.828649
4238.128455,-10584.944971,-592.164754,-1378.971896
4238.128785,-9474.636058,-740.205942,-306.438199
4238.129114,-9030.512492,0.000000,612.876398
4238.129444,-9548.656652,-222.061783,1072.533697
4238.129773,-9030.512492,148.041188,-229.828649
4238.130103,-9252.574275,-370.102971,229.828649
4238.130433,-11251.130318,74.020594,919.314598
4238.130762,-11103.089130,666.185348,1225.752797
4238.131092,-10807.006753,0.000000,459.657299
4238.131421,-9400.615463,-740.205942,536.266849
4238.131751,-9104.533087,-444.123565,1225.752797
4238.132081,-9844.739029,-74.020594,689.485948
4238.132410,-10066.800811,-740.205942,-766.095498
4238.132740,-9622.677246,74.020594,-1378.971896
4238.133069,-9400.615463,-74.020594,459.657299
4238.133399,-10584.944971,0.000000,766.095498
4238.133728,-10881.027347,222.061783,919.314598
4238.134058,-9548.656652,-592.164754,-766.095498
4238.134388,-9252.574275,-296.082377,-153.219100
4238.134717,-9326.594869,-666.185348,-153.219100
4238.135047,-10362.883188,-74.020594,459.657299
4238.135376,-9548.656652,-148.041188,306.438199
4238.135706,-8512.368333,-370.102971,459.657299
4238.136036,-8734.430116,-444.123565,76.609550
4238.136365,-9474.636058,-148.041188,0.000000
4238.136695,-9992.780217,-74.020594,0.000000
4238.137024,-9474.636058,-518.144159,-536.266849
4238.137354,-8586.388927,-148.041188,-612.876398
4238.137683,-10066.800811,-444.123565,689.485948
4238.138013,-10955.047942,148.041188,2068.457845
4238.138343,-10362.883188,370.102971,383.047749
4238.138672,-9474.636058,74.020594,-1378.971896
4238.139002,-8290.306550,-592.164754,-1378.971896
4238.139331,-9326.594869,74.020594,-612.876398
4238.139661,-10584.944971,888.247130,383.047749
4238.139990,-10436.903782,0.000000,1225.752797
4238.140320,-9252.574275,592.164754,1378.971896
4238.140650,-8216.285956,0.000000,153.219100
4238.140979,-9104.533087,666.185348,-1608.800546
4238.141309,-10362.883188,740.205942,-1149.143247
4238.141638,-10584.944971,888.247130,229.828649
4238.141968,-10140.821405,444.123565,229.828649
4238.142298,-10658.965565,814.226536,536.266849
4238.142627,-10140.821405,222.061783,383.047749
4238.142957,-10732.986159,296.082377,-153.219100
4238.143286,-9474.636058,740.205942,-842.705048
4238.143616,-9696.697840,444.123565,-689.485948
4238.143945,-10288.862594,1332.370696,1149.143247
4238.144275,-9992.780217,444.123565,1072.533697
4238.144605,-9844.739029,1036.288319,306.438199
4238.144934,-9252.574275,740.205942,-1762.019645
4238.145264,-9918.759623,592.164754,-2221.676944
4238.145593,-11547.212695,444.123565,-459.657299
4238.145923,-9326.594869,592.164754,459.657299
4238.146252,-9326.594869,-222.061783,1685.410096
4238.146582,-9548.656652,148.041188,1225.752797
4238.146912,-9992.780217,148.041188,842.705048
4238.147241,-9844.739029,0.000000,0.000000
4238.147571,-9326.594869,0.000000,-383.047749
4238.147900,-9844.739029,74.020594,0.000000
4238.148230,-9696.697840,518.144159,1915.238745
4238.148560,-9178.553681,74.020594,2068.457845
4238.148889,-9400.615463,888.247130,995.924147
4238.149219,-9400.615463,148.041188,-1608.800546
4238.149548,-10066.800811,222.061783,-2145.067394
4238.149878,-9400.615463,-148.041188,-1072.533697
4238.150207,-8956.491898,148.041188,0.000000
4238.150537,-8364.327145,74.020594,1225.752797
4238.150867,-10362.883188,222.061783,1532.190996
4238.151196,-10140.821405,444.123565,153.219100
4238.151526,-9178.553681,0.000000,-1225.752797
4238.151855,-9326.594869,1184.329507,-1762.019645
4238.152185,-10066.800811,592.164754,-459.657299
4238.152515,-11547.212695,1850.514855,536.266849
4238.152844,-9844.739029,148.041188,766.095498
4238.153174,-9474.636058,74.020594,-383.047749
4238.153503,-9918.759623,148.041188,0.000000
4238.153833,-10066.800811,-74.020594,536.266849
4238.154162,-9918.759623,-370.102971,0.000000
4238.154492,-9622.677246,-74.020594,919.314598
4238.154822,-10584.944971,-370.102971,1685.410096
4238.155151,-9992.780217,-814.226536,1685.410096
4238.155481,-9252.574275,370.102971,919.314598
4238.155810,-9918.759623,0.000000,76.609550
4238.156140,-11695.253884,370.102971,536.266849
4238.156469,-11621.233289,444.123565,1685.410096
4238.156799,-10510.924376,-740.205942,536.266849
4238.157129,-9326.594869,-222.061783,0.000000
4238.157458,-9474.636058,-888.247130,1072.533697
4238.157788,-10510.924376,-444.123565,229.828649
4238.158117,-8882.471304,-1184.329507,306.438199
4238.158447,-7920.203579,-1554.432478,-306.438199
4238.158777,-8068.244768,-1480.411884,612.876398
4238.159106,-9400.615463,-370.102971,1608.800546
4238.159436,-11103.089130,0.000000,1378.971896
4238.159765,-10214.842000,0.000000,76.609550
4238.160095,-10362.883188,-370.102971,-1455.581446
4238.160424,-9844.739029,-1036.288319,-1532.190996
4238.160754,-9992.780217,-740.205942,689.485948
4238.161084,-9104.533087,-1184.329507,1685.410096
4238.161413,-7402.059420,-666.185348,1225.752797
4238.161743,-8512.368333,-888.247130,459.657299
4238.162072,-10066.800811,0.000000,-842.705048
4238.162402,-9918.759623,-1110.308913,-766.095498
4238.162731,-10584.944971,-592.164754,229.828649
4238.163061,-10214.842000,0.000000,1915.238745
4238.163391,-9474.636058,74.020594,995.924147
4238.163720,-8808.450710,-148.041188,-153.219100
4238.164050,-9770.718434,74.020594,-1072.533697
4238.164379,-11917.315666,444.123565,-383.047749
4238.164709,-11325.150913,0.000000,536.266849
4238.165039,-9548.656652,148.041188,1225.752797
4238.165368,-9252.574275,740.205942,766.095498
4238.165698,-10510.924376,444.123565,459.657299
4238.166027,-10955.047942,222.061783,-1149.143247
4238.166357,-9178.553681,370.102971,-1762.019645
4238.166686,-9326.594869,0.000000,-1455.581446
4238.167016,-10066.800811,740.205942,1762.019645
4238.167346,-10436.903782,74.020594,2834.553343
4238.167675,-9844.739029,444.123565,1685.410096
4238.168005,-9252.574275,-222.061783,-766.095498
4238.168334,-10214.842000,-296.082377,-229.828649
4238.168664,-10140.821405,74.020594,1149.143247
4238.168994,-9474.636058,740.205942,1838.629195
4238.169323,-9474.636058,518.144159,2145.067394
4238.169653,-8956.491898,444.123565,612.876398
4238.169982,-9992.780217,962.267725,-919.314598
4238.170312,-10955.047942,666.185348,-1762.019645
4238.170641,-9696.697840,74.020594,-2374.896044
4238.170971,-7772.162391,0.000000,0.000000
4238.171301,-8882.471304,814.226536,1378.971896
4238.171630,-9770.718434,0.000000,1608.800546
4238.171960,-9844.739029,0.000000,383.047749
4238.172289,-9474.636058,0.000000,-612.876398
4238.172619,-9770.718434,148.041188,-612.876398
4238.172948,-9474.636058,148.041188,0.000000
4238.173278,-9548.656652,370.102971,536.266849
4238.173608,-10066.800811,666.185348,1455.581446
4238.173937,-9770.718434,444.123565,0.000000
4238.174267,-9400.615463,74.020594,-2298.286494
4238.174596,-9400.615463,444.123565,-1991.848295
4238.174926,-10436.903782,518.144159,-76.609550
4238.175256,-10066.800811,74.020594,76.609550
4238.175585,-10066.800811,0.000000,0.000000
4238.175915,-9104.533087,0.000000,-459.657299
4238.176244,-9474.636058,-444.123565,0.000000
4238.176574,-10955.047942,444.123565,0.000000
4238.176904,-10955.047942,888.247130,766.095498
4238.177233,-10288.862594,148.041188,459.657299
4238.177563,-9548.656652,0.000000,612.876398
4238.177893,-9918.759623,148.041188,306.438199
4238.178222,-10140.821405,0.000000,1149.143247
4238.178552,-10140.821405,0.000000,-995.924147
4238.178881,-9844.739029,-370.102971,-1762.019645
4238.179211,-9548.656652,-444.123565,153.219100
4238.179541,-9696.697840,740.205942,1225.752797
4238.179870,-9696.697840,74.020594,1378.971896
4238.180200,-9474.636058,518.144159,383.047749
4238.180529,-10436.903782,0.000000,0.000000
4238.180859,-11029.068536,888.247130,-229.828649
4238.181189,-10436.903782,-444.123565,-459.657299
4238.181518,-9622.677246,0.000000,229.828649
4238.181848,-8068.244768,-666.185348,1685.410096
4238.182177,-8660.409521,74.020594,1608.800546
4238.182507,-9178.553681,-444.123565,766.095498
4238.182837,-10288.862594,0.000000,-229.828649
4238.183166,-9844.739029,-296.082377,0.000000
4238.183496,-9770.718434,-222.061783,689.485948
4238.183826,-9548.656652,0.000000,919.314598
4238.184155,-9252.574275,-296.082377,766.095498
4238.184485,-8956.491898,-222.061783,153.219100
4238.184814,-9622.677246,-148.041188,153.219100
4238.185144,-9844.739029,74.020594,76.609550
4238.185474,-10584.944971,-74.020594,536.266849
4238.185803,-8882.471304,-370.102971,1072.533697
4238.186133,-8956.491898,-592.164754,1455.581446
4238.186462,-9844.739029,-444.123565,0.000000
4238.186792,-10732.986159,-888.247130,-229.828649
4238.187122,-10510.924376,-222.061783,306.438199
4238.187451,-8956.491898,-444.123565,919.314598
4238.187781,-9400.615463,296.082377,1991.848295
4238.188110,-10732.986159,296.082377,1762.019645
4238.188440,-11251.130318,222.061783,229.828649
4238.188770,-10807.006753,0.000000,-689.485948
4238.189099,-9770.718434,0.000000,-536.266849
4238.189429,-10362.883188,296.082377,-306.438199
4238.189759,-10214.842000,518.144159,76.609550
4238.190088,-9178.553681,0.000000,-995.924147
4238.190418,-9030.512492,-74.020594,-1225.752797
4238.190747,-9474.636058,-370.102971,-995.924147
4238.191077,-10362.883188,-814.226536,0.000000
4238.191407,-10214.842000,-814.226536,1685.410096
4238.191736,-9178.553681,-370.102971,1685.410096
4238.192066,-9178.553681,-814.226536,1072.533697
4238.192395,-9696.697840,-1036.288319,612.876398
4238.192725,-9770.718434,-740.205942,383.047749
4238.193055,-9252.574275,0.000000,1072.533697
4238.193384,-10140.821405,740.205942,766.095498
4238.193714,-10436.903782,1036.288319,919.314598
4238.194043,-9844.739029,592.164754,-1225.752797
4238.194373,-9844.739029,592.164754,-1915.238745
4238.194703,-10140.821405,0.000000,-842.705048
4238.195032,-10066.800811,-370.102971,383.047749
4238.195362,-9104.533087,-148.041188,1149.143247
4238.195692,-8364.327145,-444.123565,1149.143247
4238.196021,-8808.450710,0.000000,153.219100
4238.196351,-10584.944971,592.164754,0.000000
4238.196680,-11325.150913,592.164754,1225.752797
4238.197010,-11177.109724,888.247130,1838.629195
4238.197340,-9992.780217,888.247130,2068.457845
4238.197669,-10510.924376,888.247130,1302.362347
4238.197999,-10066.800811,74.020594,-306.438199
4238.198328,-9918.759623,0.000000,-1685.410096
4238.198658,-9178.553681,592.164754,-1302.362347
4238.198988,-9326.594869,518.144159,-229.828649
4238.199317,-9178.553681,444.123565,842.705048
4238.199647,-8956.491898,0.000000,1225.752797
4238.199976,-9844.739029,0.000000,306.438199
4238.200306,-10510.924376,-740.205942,-306.438199
4238.200636,-9770.718434,-370.102971,-76.609550
4238.200965,-9622.677246,0.000000,1149.143247
4238.201295,-9548.656652,0.000000,2145.067394
4238.201625,-8882.471304,222.061783,1838.629195
4238.201954,-10066.800811,666.185348,306.438199
4238.202284,-10066.800811,296.082377,-689.485948
4238.202613,-10140.821405,592.164754,-1532.190996
4238.202943,-10510.924376,666.185348,-1685.410096
4238.203273,-9400.615463,222.061783,-306.438199
4238.203602,-9104.533087,-222.061783,919.314598
4238.203932,-9030.512492,-444.123565,919.314598
4238.204261,-8734.430116,-370.102971,-1225.752797
4238.204591,-8882.471304,-370.102971,-2834.553343
4238.204921,-9474.636058,296.082377,-2757.943793
4238.205250,-10807.006753,740.205942,-229.828649
4238.205580,-10510.924376,592.164754,1608.800546
4238.205909,-9696.697840,666.185348,612.876398
4238.206239,-9400.615463,148.041188,-842.705048
4238.206569,-10658.965565,814.226536,-2145.067394
4238.206898,-9918.759623,-296.082377,-1838.629195
4238.207228,-9030.512492,-222.061783,-383.047749
4238.207558,-9400.615463,296.082377,1455.581446
4238.207887,-9474.636058,296.082377,1455.581446
4238.208217,-9400.615463,-370.102971,0.000000
4238.208546,-8142.265362,-222.061783,-1685.410096
4238.208876,-9770.718434,0.000000,-1838.629195
4238.209206,-10658.965565,0.000000,1225.752797
4238.209535,-9918.759623,296.082377,2757.943793
4238.209865,-9992.780217,592.164754,2757.943793
4238.210194,-10214.842000,296.082377,1762.019645
4238.210524,-11325.150913,592.164754,-76.609550
4238.210854,-10658.965565,740.205942,-2068.457845
4238.211183,-9104.533087,444.123565,-1685.410096
4238.211513,-9252.574275,370.102971,0.000000
4238.211842,-9844.739029,148.041188,2068.457845
4238.212172,-9770.718434,888.247130,842.705048
4238.212502,-9326.594869,814.226536,-459.657299
4238.212831,-9400.615463,0.000000,-1991.848295
4238.213161,-10140.821405,74.020594,-842.705048
4238.213491,-10584.944971,962.267725,1608.800546
4238.213820,-9548.656652,0.000000,2298.286494
4238.214150,-8438.347739,-370.102971,1532.190996
4238.214479,-9326.594869,0.000000,1532.190996
4238.214809,-11843.295072,444.123565,306.438199
4238.215139,-11843.295072,666.185348,-383.047749
4238.215468,-9252.574275,-74.020594,-383.047749
4238.215798,-8290.306550,370.102971,0.000000
4238.216127,-8734.430116,0.000000,766.095498
4238.216457,-10436.903782,0.000000,919.314598
4238.216787,-10807.006753,222.061783,-1225.752797
4238.217116,-9918.759623,0.000000,-1532.190996
4238.217446,-9696.697840,-222.061783,-1225.752797
4238.217775,-10584.944971,148.041188,766.095498
4238.218105,-10288.862594,74.020594,1915.238745
4238.218435,-9326.594869,444.123565,1838.629195
4238.218764,-9992.780217,222.061783,689.485948
4238.219094,-9770.718434,-666.185348,-919.314598
4238.219424,-9696.697840,-370.102971,-766.095498
4238.219753,-10362.883188,518.144159,766.095498
4238.220083,-10066.800811,-444.123565,-1608.800546
4238.220412,-8956.491898,222.061783,-536.266849
4238.220742,-8216.285956,0.000000,536.266849
4238.221072,-9770.718434,-444.123565,689.485948
4238.221401,-10288.862594,0.000000,0.000000
4238.221731,-9326.594869,74.020594,459.657299
4238.222060,-8956.491898,-666.185348,536.266849
4238.222390,-9844.739029,0.000000,383.047749
4238.222720,-11103.089130,74.020594,612.876398
4238.223049,-10881.027347,518.144159,459.657299
4238.223379,-8438.347739,-740.205942,-306.438199
4238.223708,-7328.038826,-222.061783,-536.266849
4238.224038,-9992.780217,-518.144159,1072.533697
4238.224368,-10362.883188,296.082377,1685.410096
4238.224697,-8586.388927,592.164754,-229.828649
4238.225027,-8586.388927,740.205942,-2528.115143
4238.225357,-10732.986159,888.247130,-1838.629195
4238.225686,-11547.212695,592.164754,842.705048
4238.226016,-11103.089130,148.041188,766.095498
4238.226345,-9326.594869,0.000000,76.609550
4238.226675,-9622.677246,370.102971,-612.876398
4238.227005,-8660.409521,-148.041188,-842.705048
4238.227334,-9104.533087,518.144159,229.828649
4238.227664,-10362.883188,666.185348,-229.828649
4238.227993,-10436.903782,518.144159,-612.876398
4238.228323,-9918.759623,1036.288319,-459.657299
4238.228653,-9400.615463,370.102971,-459.657299
4238.228982,-11029.068536,888.247130,76.609550
4238.229312,-10881.027347,444.123565,766.095498
4238.229641,-10066.800811,148.041188,-842.705048
4238.229971,-8586.388927,74.020594,-1762.019645
4238.230301,-8734.430116,296.082377,-612.876398
4238.230630,-10288.862594,370.102971,919.314598
4238.230960,-9918.759623,888.247130,76.609550
4238.231290,-8882.471304,1258.350101,-1608.800546
4238.231619,-8512.368333,666.185348,-1762.019645
4238.231949,-9992.780217,1776.494261,-995.924147
4238.232278,-10881.027347,1776.494261,-306.438199
4238.232608,-10807.006753,1924.535449,-1149.143247
4238.232938,-9178.553681,888.247130,-2528.115143
4238.233267,-10140.821405,1924.535449,-2068.457845
4238.233597,-10362.883188,1332.370696,-2374.896044
4238.233926,-9622.677246,1554.432478,-2911.162892
4238.234256,-8660.409521,888.247130,-3830.477490
4238.234586,-8512.368333,962.267725,-1915.238745
4238.234915,-9844.739029,2294.638420,0.000000
4238.235245,-10436.903782,1702.473667,153.219100
4238.235574,-9104.533087,1850.514855,-1225.752797
4238.235904,-9252.574275,1850.514855,-2451.505594
4238.236234,-9548.656652,2072.576638,-1915.238745
4238.236563,-11251.130318,1776.494261,-1838.629195
4238.236893,-10436.903782,2072.576638,-2681.334243
4238.237223,-8438.347739,2294.638420,-2987.772442
4238.237552,-8216.285956,1924.535449,-3370.820191
4238.237882,-8882.471304,2886.803174,-2681.334243
4238.238211,-8808.450710,3034.844362,-1991.848295
4238.238541,-10955.047942,4293.194464,-1685.410096
4238.238871,-10881.027347,3849.070898,-2987.772442
4238.239200,-10807.006753,3182.885551,-4136.915689
4238.239530,-10436.903782,3849.070898,-3447.429741
4238.239859,-11103.089130,2960.823768,-2681.334243
4238.240189,-11325.150913,2960.823768,-1915.238745
4238.240519,-8068.244768,2590.720797,-3217.601092
4238.240848,-7550.100608,2368.659014,-3677.258390
4238.241178,-8586.388927,2886.803174,-2757.943793
4238.241507,-10288.862594,3404.947333,-995.924147
4238.241837,-10510.924376,3478.967927,-766.095498
4238.242167,-8882.471304,2886.803174,-1915.238745
4238.242496,-8882.471304,3182.885551,-3447.429741
4238.242826,-10214.842000,3034.844362,-3217.601092
4238.243156,-11177.109724,2664.741391,-2604.724693
4238.243485,-9548.656652,1776.494261,-2911.162892
4238.243815,-7846.182985,2146.597232,-2604.724693
4238.244144,-8734.430116,2516.700203,-1455.581446
4238.244474,-8808.450710,2368.659014,-995.924147
4238.244804,-9696.697840,3478.967927,-2145.067394
4238.245133,-10288.862594,3108.864956,-2757.943793
4238.245463,-11177.109724,3256.906145,-2374.896044
4238.245792,-11399.171507,3034.844362,-1455.581446
4238.246122,-10436.903782,3034.844362,-1302.362347
4238.246452,-9252.574275,2812.782580,-1302.362347
4238.246781,-9548.656652,1850.514855,-2374.896044
4238.247111,-9474.636058,1850.514855,-2451.505594
4238.247441,-8438.347739,1702.473667,-1991.848295
4238.247770,-9548.656652,1924.535449,-2298.286494
4238.248100,-9030.512492,1332.370696,-1532.190996
4238.248429,-9030.512492,1776.494261,-1302.362347
4238.248759,-9030.512492,2442.679609,-1378.971896
4238.249089,-10436.903782,2442.679609,-1685.410096
4238.249418,-11769.274478,2960.823768,-2221.676944
4238.249748,-11103.089130,1480.411884,-3370.820191
4238.250077,-11103.089130,1702.473667,-2987.772442
4238.250407,-8068.244768,1628.453072,-1915.238745
4238.250737,-10362.883188,2072.576638,-766.095498
4238.251066,-10658.965565,1480.411884,-919.314598
4238.251396,-6883.915261,1184.329507,-919.314598
4238.251725,-7772.162391,1480.411884,-2068.457845
4238.252055,-10140.821405,1702.473667,-2451.505594
4238.252385,-10955.047942,2072.576638,-1455.581446
4238.252714,-10066.800811,2886.803174,-689.485948
4238.253044,-10807.006753,2220.617826,-1838.629195
4238.253374,-11029.068536,2294.638420,-2911.162892
4238.253703,-10066.800811,1998.556043,-3217.601092
4238.254033,-9622.677246,962.267725,-2834.553343
4238.254362,-9030.512492,1110.308913,-2528.115143
4238.254692,-8586.388927,814.226536,-1378.971896
4238.255022,-8882.471304,1036.288319,-842.705048
4238.255351,-9104.533087,1184.329507,-919.314598
4238.255681,-9400.615463,1184.329507,-1225.752797
4238.256010,-9622.677246,2072.576638,-2068.457845
4238.256340,-10658.965565,1776.494261,-2068.457845
4238.256670,-10436.903782,1924.535449,-1532.190996
4238.256999,-9696.697840,2146.597232,-1838.629195
4238.257329,-9696.697840,1776.494261,-1149.143247
4238.257658,-9696.697840,1628.453072,-1302.362347
4238.257988,-9992.780217,1776.494261,-1532.190996
4238.258318,-9548.656652,1554.432478,-2451.505594
4238.258647,-9030.512492,1480.411884,-3064.381992
4238.258977,-9252.574275,1776.494261,-1915.238745
4238.259307,-9104.533087,1998.556043,-1838.629195
4238.259636,-9844.739029,1850.514855,-2145.067394
4238.259966,-9696.697840,2590.720797,-1762.019645
4238.260295,-9770.718434,2146.597232,-2298.286494
4238.260625,-10140.821405,2294.638420,-2528.115143
4238.260955,-9770.718434,2368.659014,-1608.800546
4238.261284,-9696.697840,2368.659014,-383.047749
4238.261614,-9400.615463,1850.514855,-919.314598
4238.261943,-9474.636058,1924.535449,-1608.800546
4238.262273,-9844.739029,2072.576638,-2681.334243
4238.262603,-9400.615463,2294.638420,-2298.286494
4238.262932,-9696.697840,2664.741391,-2221.676944
4238.263262,-10140.821405,2590.720797,-2298.286494
4238.263591,-10214.842000,2738.761985,-1915.238745
4238.263921,-10584.944971,2886.803174,-2604.724693
4238.264251,-9400.615463,2590.720797,-2911.162892
4238.264580,-9844.739029,2738.761985,-2221.676944
4238.264910,-10066.800811,2664.741391,-1378.971896
4238.265240,-9548.656652,2146.597232,-1532.190996
4238.265569,-8956.491898,2220.617826,-1302.362347
4238.265899,-9622.677246,2516.700203,-766.095498
4238.266228,-10214.842000,2368.659014,-1685.410096
4238.266558,-10066.800811,2368.659014,-1762.019645
4238.266888,-9474.636058,2146.597232,-1915.238745
4238.267217,-9844.739029,2368.659014,-1455.581446
4238.267547,-9696.697840,2590.720797,-1455.581446
4238.267876,-9696.697840,2738.761985,-1915.238745
4238.268206,-9548.656652,2960.823768,-2834.553343
4238.268536,-9992.780217,2960.823768,-3140.991542
4238.268865,-10066.800811,2812.782580,-1915.238745
4238.269195,-9992.780217,2442.679609,-1302.362347
4238.269524,-9918.759623,2072.576638,-2221.676944
4238.269854,-8808.450710,1480.411884,-2757.943793
4238.270184,-8290.306550,1258.350101,-2221.676944
4238.270513,-8734.430116,2146.597232,-2451.505594
4238.270843,-9474.636058,2220.617826,-1532.190996
4238.271173,-10807.006753,2368.659014,-689.485948
4238.271502,-10510.924376,2738.761985,-459.657299
4238.271832,-10214.842000,2368.659014,-2068.457845
4238.272161,-10881.027347,2516.700203,-2528.115143
4238.272491,-10658.965565,2294.638420,-2221.676944
4238.272821,-10288.862594,2294.638420,-1532.190996
4238.273150,-9400.615463,2072.576638,-2298.286494
4238.273480,-9104.533087,1258.350101,-2528.115143
4238.273809,-9030.512492,1628.453072,-2604.724693
4238.274139,-9104.533087,1332.370696,-2374.896044
4238.274469,-9178.553681,1406.391290,-2757.943793
4238.274798,-9770.718434,1702.473667,-1838.629195
4238.275128,-9844.739029,1776.494261,-842.705048
4238.275457,-10436.903782,2146.597232,-383.047749
4238.275787,-9844.739029,1702.473667,-919.314598
4238.276117,-9992.780217,1702.473667,-1302.362347
4238.276446,-11103.089130,1850.514855,-2221.676944
4238.276776,-10362.883188,1702.473667,-2374.896044
4238.277106,-9400.615463,1184.329507,-1762.019645
4238.277435,-8956.491898,1480.411884,-1455.581446
4238.277765,-9252.574275,1332.370696,-1762.019645
4238.278095,-9696.697840,1258.350101,-2681.334243
4238.278425,-9178.553681,1554.432478,-2987.772442
4238.278754,-9326.594869,2442.679609,-2374.896044
4238.279084,-9770.718434,1850.514855,-1762.019645
4238.279414,-10140.821405,1924.535449,-612.876398
4238.279743,-10732.986159,2146.597232,-383.047749
4238.280073,-10140.821405,1480.411884,-766.095498
4238.280403,-10066.800811,1480.411884,-2068.457845
4238.280733,-9622.677246,1184.329507,-2068.457845
4238.281062,-9104.533087,1480.411884,-1455.581446
4238.281392,-8734.430116,1554.432478,-1455.581446
4238.281722,-9030.512492,2220.617826,-1302.362347
4238.282051,-9992.780217,2590.720797,-2528.115143
4238.282381,-10288.862594,2368.659014,-3447.429741
4238.282711,-10214.842000,2886.803174,-3677.258390
4238.283041,-9844.739029,2146.597232,-2911.162892
4238.283370,-10214.842000,2590.720797,-995.924147
4238.283700,-10362.883188,2294.638420,76.609550
4238.284030,-9770.718434,1998.556043,-1378.971896
4238.284360,-8882.471304,1332.370696,-1991.848295
4238.284689,-9030.512492,1702.473667,-2298.286494
4238.285019,-9474.636058,1702.473667,-2374.896044
4238.285349,-9992.780217,1998.556043,-842.705048
4238.285678,-9844.739029,2368.659014,-306.438199
4238.286008,-9400.615463,2368.659014,-995.924147
4238.286338,-9844.739029,2516.700203,-2298.286494
4238.286668,-10658.965565,2738.761985,-3294.210641
4238.286997,-10362.883188,2664.741391,-3370.820191
4238.287327,-9992.780217,2590.720797,-2221.676944
4238.287657,-9400.615463,2368.659014,-1149.143247
4238.287986,-9252.574275,1924.535449,-766.095498
4238.288316,-9474.636058,1776.494261,-1378.971896
4238.288646,-9622.677246,1850.514855,-2298.286494
4238.288976,-9400.615463,1776.494261,-2987.772442
4238.289305,-9104.533087,2072.576638,-2528.115143
4238.289635,-9030.512492,2146.597232,-1915.238745
4238.289965,-9104.533087,2516.700203,-612.876398
4238.290294,-10362.883188,2516.700203,-1072.533697
4238.290624,-10288.862594,2294.638420,-2068.457845
4238.290954,-10140.821405,1776.494261,-2528.115143
4238.291284,-10140.821405,1628.453072,-2451.505594
4238.291613,-9696.697840,1776.494261,-1455.581446
4238.291943,-9474.636058,1850.514855,-1455.581446
4238.292273,-8364.327145,1776.494261,-2068.457845
4238.292602,-8660.409521,2072.576638,-2221.676944
4238.292932,-9326.594869,2146.597232,-2221.676944
4238.293262,-10658.965565,2368.659014,-2528.115143
4238.293592,-10436.903782,2664.741391,-2451.505594
4238.293921,-9992.780217,2960.823768,-2221.676944
4238.294251,-9918.759623,2590.720797,-2145.067394
4238.294581,-10362.883188,2072.576638,-1302.362347
4238.294910,-9992.780217,1776.494261,-1762.019645
4238.295240,-9474.636058,1406.391290,-1915.238745
4238.295570,-9326.594869,1258.350101,-1532.190996
4238.295900,-9770.718434,1184.329507,-612.876398
4238.296229,-9918.759623,1776.494261,-919.314598
4238.296559,-9918.759623,1554.432478,-2145.067394
4238.296889,-9992.780217,1702.473667,-1838.629195
4238.297218,-10140.821405,1998.556043,-1378.971896
4238.297548,-10584.944971,1998.556043,-689.485948
4238.297878,-10362.883188,1924.535449,-536.266849
4238.298208,-10214.842000,1554.432478,-689.485948
4238.298537,-9696.697840,1332.370696,-1302.362347
4238.298867,-9548.656652,740.205942,-919.314598
4238.299197,-9548.656652,814.226536,-995.924147
4238.299526,-9104.533087,1036.288319,-2068.457845
4238.299856,-8512.368333,1184.329507,-2298.286494
4238.300186,-8660.409521,1036.288319,-2451.505594
4238.300516,-9326.594869,1332.370696,-1608.800546
4238.300845,-9844.739029,1406.391290,-1072.533697
4238.301175,-10066.800811,1776.494261,-1991.848295
4238.301505,-9548.656652,1628.453072,-3370.820191
4238.301835,-9104.533087,1332.370696,-3370.820191
4238.302164,-9548.656652,1110.308913,-2681.334243
4238.302494,-9548.656652,1184.329507,-1072.533697
4238.302824,-9252.574275,1554.432478,-1685.410096
4238.303153,-8882.471304,962.267725,-1762.019645
4238.303483,-8882.471304,1184.329507,-2374.896044
4238.303813,-9474.636058,1702.473667,-2451.505594
4238.304143,-10510.924376,2664.741391,-1915.238745
4238.304472,-10584.944971,2442.679609,-2834.553343
4238.304802,-9844.739029,2590.720797,-2911.162892
4238.305132,-9844.739029,2812.782580,-1762.019645
4238.305461,-10436.903782,2812.782580,-1378.971896
4238.305791,-10807.006753,2590.720797,-1915.238745
4238.306121,-10436.903782,2368.659014,-2451.505594
4238.306451,-10140.821405,2368.659014,-2451.505594
4238.306780,-9770.718434,2368.659014,-2145.067394
4238.307110,-9622.677246,2738.761985,-1762.019645
4238.307440,-9104.533087,3108.864956,-2298.286494
4238.307769,-9326.594869,3256.906145,-2068.457845
4238.308099,-9918.759623,3108.864956,-1991.848295
4238.308429,-10362.883188,3478.967927,-1225.752797
4238.308759,-10658.965565,3775.050304,-1762.019645
4238.309088,-10066.800811,3701.029710,-2221.676944
4238.309418,-9844.739029,3330.926739,-3140.991542
4238.309748,-9548.656652,3108.864956,-2604.724693
4238.310077,-9844.739029,2960.823768,-1225.752797
4238.310407,-9622.677246,3108.864956,-842.705048
4238.310737,-8956.491898,3552.988522,-1991.848295
4238.311067,-8438.347739,3552.988522,-3447.429741
4238.311396,-8734.430116,3849.070898,-3983.696590
4238.311726,-10140.821405,3627.009116,-2681.334243
4238.312056,-10510.924376,3552.988522,-1532.190996
4238.312385,-9474.636058,2812.782580,-1455.581446
4238.312715,-8734.430116,3256.906145,-1225.752797
4238.313045,-9326.594869,2738.761985,-995.924147
4238.313375,-10510.924376,2886.803174,-1685.410096
4238.313704,-9992.780217,2368.659014,-1838.629195
4238.314034,-8882.471304,2664.741391,-2221.676944
4238.314364,-8512.368333,2886.803174,-2681.334243
4238.314693,-9400.615463,2590.720797,-1991.848295
4238.315023,-9622.677246,3182.885551,-2145.067394
4238.315353,-9178.553681,3034.844362,-3064.381992
4238.315683,-9548.656652,3034.844362,-2757.943793
4238.316012,-10140.821405,3034.844362,-1455.581446
4238.316342,-11325.150913,2590.720797,-536.266849
4238.316672,-10732.986159,2220.617826,-995.924147
4238.317002,-9622.677246,1776.494261,-2068.457845
4238.317331,-8882.471304,1110.308913,-2604.724693
4238.317661,-9474.636058,1036.288319,-1762.019645
4238.317991,-9992.780217,1628.453072,-536.266849
4238.318320,-9844.739029,1776.494261,306.438199
4238.318650,-9400.615463,1554.432478,-1225.752797
4238.318980,-10140.821405,1776.494261,-2145.067394
4238.319310,-10807.006753,1924.535449,-2834.553343
4238.319639,-10955.047942,1702.473667,-2681.334243
4238.319969,-10140.821405,1406.391290,-1838.629195
4238.320299,-9474.636058,592.164754,-1532.190996
4238.320628,-8808.450710,888.247130,-1915.238745
4238.320958,-8956.491898,148.041188,-2298.286494
4238.321288,-9400.615463,0.000000,-2221.676944
4238.321618,-9400.615463,296.082377,-1455.581446
4238.321947,-9770.718434,296.082377,-766.095498
4238.322277,-10658.965565,296.082377,0.000000
4238.322607,-10288.862594,592.164754,76.609550
4238.322936,-9696.697840,814.226536,-1072.533697
4238.323266,-9548.656652,888.247130,-2451.505594
4238.323596,-10436.903782,1480.411884,-2604.724693
4238.323926,-11177.109724,1628.453072,-1608.800546
4238.324255,-10658.965565,1480.411884,-1149.143247
4238.324585,-9622.677246,1036.288319,-2604.724693
4238.324915,-8142.265362,296.082377,-3753.867940
4238.325244,-8290.306550,0.000000,-2604.724693
4238.325574,-9474.636058,666.185348,-1762.019645
4238.325904,-9252.574275,814.226536,-919.314598
4238.326234,-9104.533087,1258.350101,-766.095498
4238.326563,-9400.615463,2220.617826,-1455.581446
4238.326893,-10881.027347,2146.597232,-1302.362347
4238.327223,-12509.480420,2368.659014,-536.266849
4238.327552,-11325.150913,2368.659014,-1608.800546
4238.327882,-9178.553681,1628.453072,-2834.553343
4238.328212,-8290.306550,1702.473667,-2757.943793
4238.328542,-9400.615463,2220.617826,-2221.676944
4238.328871,-9918.759623,2368.659014,-2451.505594
4238.329201,-9178.553681,2516.700203,-3830.477490
4238.329531,-8142.265362,2072.576638,-3907.087040
4238.329860,-8734.430116,2368.659014,-2528.115143
4238.330190,-10140.821405,2664.741391,-919.314598
4238.330520,-10658.965565,2960.823768,-383.047749
4238.330850,-10066.800811,3108.864956,-1838.629195
4238.331179,-9474.636058,2664.741391,-2374.896044
4238.331509,-9844.739029,2664.741391,-1608.800546
4238.331839,-10955.047942,3404.947333,-1149.143247
4238.332168,-9992.780217,3034.844362,-1149.143247
4238.332498,-8438.347739,2738.761985,-2145.067394
4238.332828,-8882.471304,2738.761985,-2604.724693
4238.333158,-9178.553681,2960.823768,-2451.505594
4238.333487,-9992.780217,3478.967927,-1915.238745
4238.333817,-9696.697840,3478.967927,-2528.115143
4238.334147,-8734.430116,3034.844362,-3217.601092
4238.334477,-10214.842000,3701.029710,-3753.867940
4238.334806,-9770.718434,3256.906145,-3600.648841
4238.335136,-9326.594869,3330.926739,-1915.238745
4238.335466,-9326.594869,2886.803174,-1608.800546
4238.335795,-9770.718434,2220.617826,-1225.752797
4238.336125,-10288.862594,2886.803174,-1225.752797
4238.336455,-9178.553681,2368.659014,-1455.581446
4238.336785,-9844.739029,2738.761985,-2834.553343
4238.337114,-9622.677246,2368.659014,-2528.115143
4238.337444,-9992.780217,2368.659014,-2528.115143
4238.337774,-9696.697840,2516.700203,-2221.676944
4238.338103,-9548.656652,2960.823768,-2145.067394
4238.338433,-9030.512492,2590.720797,-2757.943793
4238.338763,-9252.574275,2664.741391,-2834.553343
4238.339093,-9696.697840,3108.864956,-3064.381992
4238.339422,-10658.965565,2664.741391,-2068.457845
4238.339752,-10881.027347,2664.741391,-1378.971896
4238.340082,-9696.697840,1924.535449,-2221.676944
4238.340411,-9326.594869,1998.556043,-3217.601092
4238.340741,-9696.697840,1998.556043,-2451.505594
4238.341071,-10362.883188,2146.597232,-1455.581446
4238.341401,-10066.800811,2664.741391,-1149.143247
4238.341730,-9770.718434,2442.679609,-1915.238745
4238.342060,-10066.800811,2368.659014,-2451.505594
4238.342390,-9918.759623,2368.659014,-1838.629195
4238.342719,-10807.006753,2812.782580,-1378.971896
4238.343049,-10732.986159,1776.494261,-2298.286494
4238.343379,-10288.862594,1998.556043,-1991.848295
4238.343709,-9474.636058,888.247130,-1838.629195
4238.344038,-9104.533087,962.267725,-1915.238745
4238.344368,-8882.471304,1554.432478,-842.705048
4238.344698,-10436.903782,1332.370696,-383.047749
4238.345027,-10955.047942,1702.473667,-995.924147
4238.345357,-9622.677246,1628.453072,-842.705048
4238.345687,-10362.883188,1628.453072,-1378.971896
4238.346017,-10140.821405,1924.535449,-919.314598
4238.346346,-10140.821405,1924.535449,-842.705048
4238.346676,-9622.677246,2072.576638,-1915.238745
4238.347006,-9030.512492,1332.370696,-2987.772442
4238.347335,-10288.862594,1110.308913,-2528.115143
4238.347665,-9474.636058,1036.288319,-2451.505594
4238.347995,-8364.327145,296.082377,-1532.190996
4238.348325,-7846.182985,222.061783,-919.314598
4238.348654,-7476.080014,518.144159,-766.095498
4238.348984,-9326.594869,814.226536,0.000000
4238.349314,-10214.842000,888.247130,-919.314598
4238.349643,-9844.739029,1480.411884,-1991.848295
4238.349973,-10066.800811,1184.329507,-1915.238745
4238.350303,-10584.944971,2072.576638,-1225.752797
4238.350633,-10066.800811,2220.617826,-1072.533697
4238.350962,-9474.636058,1702.473667,-1991.848295
4238.351292,-8216.285956,1332.370696,-3447.429741
4238.351622,-8586.388927,1184.329507,-2298.286494
4238.351952,-10881.027347,962.267725,-1302.362347
4238.352281,-9474.636058,1702.473667,-2145.067394
4238.352611,-7994.224174,1406.391290,-4060.306139
4238.352941,-9178.553681,1258.350101,-3907.087040
4238.353270,-10066.800811,2072.576638,-2451.505594
4238.353600,-11325.150913,2072.576638,-689.485948
4238.353930,-11029.068536,1776.494261,-995.924147
4238.354260,-10066.800811,2516.700203,-689.485948
4238.354589,-9548.656652,1480.411884,-459.657299
4238.354919,-10436.903782,2072.576638,-1991.848295
4238.355249,-10288.862594,1036.288319,-995.924147
4238.355578,-9548.656652,666.185348,-1072.533697
4238.355908,-9474.636058,1998.556043,-2451.505594
4238.356238,-10288.862594,2442.679609,-2757.943793
4238.356568,-10362.883188,2812.782580,-2834.553343
4238.356897,-9992.780217,3330.926739,-3524.039291
4238.357227,-10584.944971,3108.864956,-3830.477490
4238.357557,-10584.944971,2960.823768,-2757.943793
4238.357886,-10732.986159,3108.864956,-995.924147
4238.358216,-9548.656652,2368.659014,-229.828649
4238.358546,-9548.656652,3034.844362,-1378.971896
4238.358876,-9918.759623,2220.617826,-2681.334243
4238.359205,-10288.862594,1850.514855,-3600.648841
4238.359535,-9622.677246,2516.700203,-2834.553343
4238.359865,-9104.533087,1628.453072,-689.485948
4238.360194,-8660.409521,2368.659014,153.219100
4238.360524,-8290.306550,1628.453072,-76.609550
4238.360854,-9622.677246,2294.638420,-995.924147
4238.361184,-11029.068536,2294.638420,-995.924147
4238.361513,-10732.986159,2294.638420,-536.266849
4238.361843,-8956.491898,1850.514855,-689.485948
4238.362173,-8808.450710,2220.617826,-536.266849
4238.362502,-9104.533087,1406.391290,0.000000
4238.362832,-9992.780217,1184.329507,0.000000
4238.363162,-10066.800811,1776.494261,-689.485948
4238.363492,-9030.512492,1036.288319,-1149.143247
4238.363821,-8216.285956,518.144159,-766.095498
4238.364151,-8438.347739,1184.329507,842.705048
4238.364481,-10436.903782,1924.535449,612.876398
4238.364810,-10881.027347,1332.370696,-1225.752797
4238.365140,-10066.800811,1628.453072,-1838.629195
4238.365470,-9548.656652,1332.370696,-689.485948
4238.365800,-10066.800811,1258.350101,1302.362347
4238.366129,-10510.924376,1258.350101,2221.676944
4238.366459,-9696.697840,518.144159,536.266849
4238.366789,-8956.491898,148.041188,-612.876398
4238.367119,-9178.553681,74.020594,-995.924147
4238.367448,-10881.027347,0.000000,76.609550
4238.367778,-10584.944971,-1036.288319,995.924147
4238.368108,-8882.471304,0.000000,1608.800546
4238.368437,-7920.203579,-740.205942,766.095498
4238.368767,-9548.656652,-444.123565,0.000000
4238.369097,-11029.068536,444.123565,995.924147
4238.369427,-11029.068536,-518.144159,1532.190996
4238.369756,-10510.924376,-666.185348,995.924147
4238.370086,-9474.636058,-1406.391290,1455.581446
4238.370416,-10288.862594,-1554.432478,766.095498
4238.370745,-9696.697840,-2294.638420,-1072.533697
4238.371075,-9030.512492,-2590.720797,-459.657299
4238.371405,-8734.430116,-2368.659014,383.047749
4238.371735,-9252.574275,-1258.350101,2374.896044
4238.372064,-9770.718434,-814.226536,3370.820191
4238.372394,-10584.944971,-740.205942,2221.676944
4238.372724,-10955.047942,-296.082377,76.609550
4238.373053,-11103.089130,-444.123565,-1302.362347
4238.373383,-11769.274478,-1036.288319,-1608.800546
4238.373713,-9918.759623,-1332.370696,-612.876398
4238.374043,-9030.512492,-1554.432478,842.705048
4238.374372,-8586.388927,-2146.597232,383.047749
4238.374702,-7846.182985,-2516.700203,-383.047749
4238.375032,-8142.265362,-2368.659014,766.095498
4238.375361,-9992.780217,-1628.453072,1838.629195
4238.375691,-11103.089130,-1480.411884,1685.410096
4238.376021,-9622.677246,-1258.350101,1455.581446
4238.376351,-8956.491898,-592.164754,1532.190996
4238.376680,-10658.965565,148.041188,1762.019645
4238.377010,-12287.418637,-296.082377,306.438199
4238.377340,-10732.986159,222.061783,-1378.971896
4238.377670,-9104.533087,222.061783,-1915.238745
4238.377999,-9252.574275,-222.061783,-1378.971896
4238.378329,-9030.512492,-296.082377,-229.828649
4238.378659,-9178.553681,-74.020594,383.047749
4238.378989,-9400.615463,0.000000,-689.485948
4238.379318,-9252.574275,296.082377,-1838.629195
4238.379648,-8660.409521,222.061783,-1072.533697
4238.379978,-9178.553681,222.061783,1225.752797
4238.380307,-10658.965565,962.267725,2451.505594
4238.380637,-11695.253884,814.226536,2298.286494
4238.380967,-11251.130318,1406.391290,459.657299
4238.381297,-10066.800811,1036.288319,-1302.362347
4238.381626,-8956.491898,148.041188,-1302.362347
4238.381956,-9918.759623,740.205942,-76.609550
4238.382286,-8956.491898,888.247130,536.266849
4238.382616,-7179.997637,740.205942,-1072.533697
4238.382945,-7254.018232,1036.288319,-2374.896044
4238.383275,-9400.615463,1332.370696,-1915.238745
4238.383605,-11177.109724,1776.494261,-766.095498
4238.383935,-9770.718434,1258.350101,0.000000
4238.384264,-9622.677246,814.226536,612.876398
4238.384594,-11103.089130,1628.453072,1608.800546
4238.384924,-10807.006753,1036.288319,1685.410096
4238.385254,-9474.636058,962.267725,-766.095498
4238.385583,-8956.491898,1702.473667,0.000000
4238.385913,-10732.986159,592.164754,1455.581446
4238.386243,-9548.656652,148.041188,1838.629195
4238.386573,-8364.327145,1702.473667,459.657299
4238.386902,-9548.656652,1850.514855,-1225.752797
4238.387232,-11621.233289,814.226536,-2757.943793
4238.387562,-12213.398043,1184.329507,-2221.676944
4238.387891,-9844.739029,962.267725,-612.876398
4238.388221,-8438.347739,1406.391290,766.095498
4238.388551,-8586.388927,296.082377,1762.019645
4238.388881,-9400.615463,296.082377,1762.019645
4238.389210,-10955.047942,740.205942,1532.190996
4238.389540,-11325.150913,1036.288319,-689.485948
4238.389870,-11325.150913,370.102971,-689.485948
4238.390200,-10955.047942,1110.308913,536.266849
4238.390529,-8956.491898,370.102971,919.314598
4238.390859,-8512.368333,-222.061783,536.266849
4238.391189,-8808.450710,0.000000,-842.705048
4238.391519,-9622.677246,0.000000,0.000000
4238.391848,-10066.800811,0.000000,-229.828649
4238.392178,-10807.006753,74.020594,153.219100
4238.392508,-10955.047942,148.041188,1455.581446
4238.392838,-10510.924376,-740.205942,1685.410096
4238.393167,-9252.574275,-740.205942,-459.657299
4238.393497,-8438.347739,-814.226536,-459.657299
4238.393827,-9696.697840,-222.061783,-153.219100
4238.394156,-10066.800811,-74.020594,1149.143247
4238.394486,-9474.636058,444.123565,766.095498
4238.394816,-10066.800811,74.020594,76.609550
4238.395146,-9992.780217,0.000000,-1302.362347
4238.395475,-9844.739029,-962.267725,-536.266849
4238.395805,-9696.697840,-1110.308913,-229.828649
4238.396135,-8734.430116,-1332.370696,229.828649
4238.396465,-8660.409521,-1628.453072,536.266849
4238.396794,-9400.615463,-1332.370696,842.705048
4238.397124,-10066.800811,-592.164754,842.705048
4238.397454,-9622.677246,-444.123565,842.705048
4238.397784,-9770.718434,0.000000,689.485948
4238.398113,-10436.903782,296.082377,842.705048
4238.398443,-10955.047942,-296.082377,766.095498
4238.398773,-10214.842000,-518.144159,-306.438199
4238.399103,-9326.594869,-814.226536,-1149.143247
4238.399432,-9992.780217,-592.164754,153.219100
4238.399762,-10214.842000,-1036.288319,1762.019645
4238.400092,-9474.636058,-740.205942,1762.019645
4238.400421,-8512.368333,-518.144159,995.924147
4238.400751,-10214.842000,-888.247130,0.000000
4238.401081,-10955.047942,-296.082377,229.828649
4238.401411,-11399.171507,-296.082377,1072.533697
4238.401740,-9992.780217,0.000000,1072.533697
4238.402070,-9178.553681,-518.144159,1302.362347
4238.402400,-9474.636058,-148.041188,1608.800546
4238.402730,-9696.697840,-518.144159,689.485948
4238.403059,-9326.594869,-148.041188,0.000000
4238.403389,-9474.636058,-518.144159,229.828649
4238.403719,-9918.759623,-296.082377,842.705048
4238.404049,-9400.615463,-740.205942,1532.190996
4238.404378,-9474.636058,-296.082377,1608.800546
4238.404708,-9104.533087,-888.247130,919.314598
4238.405038,-9844.739029,-518.144159,0.000000
4238.405368,-9770.718434,-148.041188,306.438199
4238.405697,-9992.780217,-518.144159,766.095498
4238.406027,-9696.697840,518.144159,995.924147
4238.406357,-10066.800811,74.020594,1072.533697
4238.406687,-9400.615463,888.247130,-1378.971896
4238.407016,-9252.574275,-148.041188,-1302.362347
4238.407346,-8660.409521,814.226536,-1915.238745
4238.407676,-9474.636058,444.123565,-1149.143247
4238.408005,-10362.883188,1702.473667,-459.657299
4238.408335,-9178.553681,0.000000,-459.657299
4238.408665,-8882.471304,-222.061783,-766.095498
4238.408995,-10066.800811,444.123565,919.314598
4238.409324,-11103.089130,0.000000,842.705048
4238.409654,-9622.677246,666.185348,-1072.533697
4238.409984,-8290.306550,1184.329507,-1991.848295
4238.410314,-10362.883188,1628.453072,-1072.533697
4238.410643,-11917.315666,1702.473667,76.609550
4238.410973,-11103.089130,1998.556043,229.828649
4238.411303,-9770.718434,1332.370696,-1302.362347
4238.411633,-9178.553681,814.226536,-1302.362347
4238.411962,-10362.883188,74.020594,0.000000
4238.412292,-9992.780217,666.185348,153.219100
4238.412622,-8586.388927,148.041188,153.219100
4238.412952,-8808.450710,740.205942,0.000000
4238.413281,-9770.718434,962.267725,383.047749
4238.413611,-10362.883188,1480.411884,383.047749
4238.413941,-10140.821405,1184.329507,612.876398
4238.414270,-10658.965565,1332.370696,536.266849
4238.414600,-10510.924376,1258.350101,919.314598
4238.414930,-11399.171507,1332.370696,919.314598
4238.415260,-10066.800811,1110.308913,766.095498
4238.415589,-10066.800811,1110.308913,0.000000
4238.415919,-9030.512492,222.061783,-1455.581446
4238.416249,-7920.203579,-666.185348,-2451.505594
4238.416579,-7624.121203,148.041188,-842.705048
4238.416908,-8512.368333,74.020594,612.876398
4238.417238,-9844.739029,888.247130,1302.362347
4238.417568,-9548.656652,0.000000,1225.752797
4238.417898,-9474.636058,222.061783,766.095498
4238.418227,-10732.986159,370.102971,1455.581446
4238.418557,-10955.047942,518.144159,1915.238745
4238.418887,-9844.739029,-148.041188,919.314598
4238.419217,-9474.636058,-148.041188,306.438199
4238.419546,-9252.574275,-592.164754,383.047749
4238.419876,-10436.903782,-592.164754,536.266849
4238.420206,-10140.821405,0.000000,459.657299
4238.420536,-8660.409521,-888.247130,229.828649
4238.420865,-8068.244768,-370.102971,-612.876398
4238.421195,-8586.388927,-296.082377,612.876398
4238.421525,-11325.150913,-444.123565,1225.752797
4238.421854,-11103.089130,-740.205942,1225.752797
4238.422184,-10214.842000,-740.205942,306.438199
4238.422514,-10140.821405,-1554.432478,0.000000
4238.422844,-10066.800811,-1258.350101,919.314598
4238.423173,-9770.718434,-1110.308913,2068.457845
4238.423503,-10214.842000,-1036.288319,1608.800546
4238.423833,-9400.615463,-1110.308913,1149.143247
4238.424163,-9104.533087,-1184.329507,842.705048
4238.424492,-10732.986159,-444.123565,689.485948
4238.424822,-10362.883188,-1628.453072,689.485948
4238.425152,-9548.656652,-1554.432478,76.609550
4238.425482,-10510.924376,-1036.288319,612.876398
4238.425811,-11103.089130,-1036.288319,995.924147
4238.426141,-10510.924376,-1110.308913,459.657299
4238.426471,-8660.409521,-1184.329507,842.705048
4238.426801,-9474.636058,-1480.411884,459.657299
4238.427130,-10510.924376,-1110.308913,1149.143247
4238.427460,-10214.842000,-1628.453072,612.876398
4238.427790,-9104.533087,-1702.473667,1072.533697
4238.428119,-8216.285956,-1924.535449,459.657299
4238.428449,-8882.471304,-962.267725,459.657299
4238.428779,-9622.677246,-814.226536,383.047749
4238.429109,-9104.533087,-740.205942,-536.266849
4238.429438,-8956.491898,-444.123565,-383.047749
4238.429768,-10362.883188,-296.082377,306.438199
4238.430098,-11177.109724,518.144159,536.266849
4238.430428,-10436.903782,0.000000,0.000000
4238.430757,-8660.409521,148.041188,-1378.971896
4238.431087,-9252.574275,148.041188,-1762.019645
4238.431417,-10066.800811,814.226536,-2221.676944
4238.431747,-10288.862594,0.000000,-536.266849
4238.432076,-8364.327145,518.144159,612.876398
4238.432406,-8660.409521,888.247130,2145.067394
4238.432736,-9400.615463,1628.453072,536.266849
4238.433066,-10732.986159,1036.288319,-1149.143247
4238.433395,-10288.862594,1480.411884,-1455.581446
4238.433725,-9844.739029,888.247130,-229.828649
4238.434055,-9918.759623,1628.453072,1378.971896
4238.434384,-11177.109724,1924.535449,1915.238745
4238.434714,-10658.965565,1702.473667,0.000000
4238.435044,-9252.574275,1406.391290,-995.924147
4238.435374,-9400.615463,1776.494261,-2374.896044
4238.435703,-10066.800811,1258.350101,-1608.800546
4238.436033,-9696.697840,518.144159,919.314598
4238.436363,-8364.327145,666.185348,2604.724693
4238.436693,-9474.636058,1110.308913,1149.143247
4238.437022,-10362.883188,1406.391290,-612.876398
4238.437352,-9622.677246,0.000000,-2451.505594
4238.437682,-10214.842000,1702.473667,-76.609550
4238.438012,-10732.986159,1776.494261,2298.286494
4238.438341,-10881.027347,2368.659014,1991.848295
4238.438671,-9548.656652,1332.370696,-306.438199
4238.439001,-8882.471304,1036.288319,-1608.800546
4238.439331,-9844.739029,814.226536,-1685.410096
4238.439660,-10881.027347,518.144159,-919.314598
4238.439990,-9474.636058,518.144159,153.219100
4238.440320,-7994.224174,0.000000,995.924147
4238.440650,-7402.059420,0.000000,919.314598
4238.440979,-9474.636058,-518.144159,0.000000
4238.441309,-10955.047942,592.164754,-383.047749
4238.441639,-10362.883188,0.000000,153.219100
4238.441968,-9548.656652,1036.288319,995.924147
4238.442298,-9326.594869,740.205942,995.924147
4238.442628,-10436.903782,740.205942,919.314598
4238.442958,-11325.150913,0.000000,612.876398
4238.443287,-9992.780217,0.000000,-612.876398
4238.443617,-9326.594869,-518.144159,-612.876398
4238.443947,-9030.512492,-518.144159,-612.876398
4238.444277,-9104.533087,-592.164754,0.000000
4238.444606,-9252.574275,-592.164754,229.828649
4238.444936,-8956.491898,-74.020594,306.438199
4238.445266,-10510.924376,-370.102971,612.876398
4238.445596,-10955.047942,296.082377,1149.143247
4238.445925,-11029.068536,0.000000,1225.752797
4238.446255,-9474.636058,0.000000,1225.752797
4238.446585,-9992.780217,-740.205942,612.876398
4238.446915,-10955.047942,-888.247130,306.438199
4238.447244,-10658.965565,-1332.370696,1302.362347
4238.447574,-8882.471304,-1036.288319,1225.752797
4238.447904,-8808.450710,-1258.350101,842.705048
4238.448233,-9770.718434,-1036.288319,76.609550
4238.448563,-10881.027347,-814.226536,153.219100
4238.448893,-10066.800811,-222.061783,76.609550
4238.449223,-9252.574275,-518.144159,0.000000
4238.449552,-9770.718434,-370.102971,0.000000
4238.449882,-9992.780217,-296.082377,1302.362347
4238.450212,-10140.821405,-740.205942,1302.362347
4238.450542,-10288.862594,-296.082377,536.266849
4238.450871,-10658.965565,-1332.370696,-536.266849
4238.451201,-10658.965565,-814.226536,-383.047749
4238.451531,-8956.491898,-1332.370696,76.609550
4238.451861,-8808.450710,-1184.329507,842.705048
4238.452190,-7550.100608,-666.185348,383.047749
4238.452520,-9178.553681,-518.144159,842.705048
4238.452850,-8956.491898,-592.164754,76.609550
4238.453180,-9622.677246,-444.123565,306.438199
4238.453509,-11103.089130,74.020594,689.485948
4238.453839,-10658.965565,-814.226536,76.609550
4238.454169,-9474.636058,-296.082377,-995.924147
4238.454498,-8068.244768,-1702.473667,-1608.800546
4238.454828,-7994.224174,0.000000,-766.095498
4238.455158,-10214.842000,-222.061783,1225.752797
4238.455488,-10510.924376,0.000000,1762.019645
4238.455817,-9400.615463,0.000000,1302.362347
4238.456147,-8660.409521,592.164754,766.095498
4238.456477,-9770.718434,1554.432478,-459.657299
4238.456807,-11621.233289,1258.350101,-766.095498
4238.457136,-11251.130318,1036.288319,-995.924147
4238.457466,-10584.944971,1332.370696,-689.485948
4238.457796,-10214.842000,1258.350101,-612.876398
4238.458126,-10807.006753,592.164754,-536.266849
4238.458455,-9400.615463,740.205942,-1072.533697
4238.458785,-8882.471304,814.226536,-689.485948
4238.459115,-9178.553681,296.082377,0.000000
4238.459445,-10436.903782,296.082377,536.266849
4238.459774,-10214.842000,370.102971,995.924147
4238.460104,-9400.615463,518.144159,919.314598
4238.460434,-10510.924376,740.205942,536.266849
4238.460764,-10881.027347,592.164754,612.876398
4238.461093,-10288.862594,1110.308913,1378.971896
4238.461423,-9992.780217,1110.308913,1225.752797
4238.461753,-9252.574275,888.247130,76.609550
4238.462082,-9696.697840,518.144159,-229.828649
4238.462412,-9252.574275,1036.288319,-76.609550
4238.462742,-8808.450710,1110.308913,-153.219100
4238.463072,-9992.780217,666.185348,-536.266849
4238.463401,-10807.006753,666.185348,0.000000
4238.463731,-9104.533087,0.000000,153.219100
4238.464061,-8364.327145,740.205942,383.047749
4238.464391,-9696.697840,666.185348,-306.438199
4238.464720,-11103.089130,740.205942,153.219100
4238.465050,-10066.800811,1110.308913,153.219100
4238.465380,-9918.759623,888.247130,995.924147
4238.465710,-11621.233289,1406.391290,995.924147
4238.466039,-11029.068536,1332.370696,1072.533697
4238.466369,-8882.471304,0.000000,-1072.533697
4238.466699,-8512.368333,148.041188,-1455.581446
4238.467029,-9104.533087,296.082377,-612.876398
4238.467358,-10066.800811,0.000000,689.485948
4238.467688,-9252.574275,-370.102971,766.095498
4238.468018,-7846.182985,-666.185348,995.924147
4238.468347,-9918.759623,-444.123565,1225.752797
4238.468677,-11251.130318,-370.102971,919.314598
4238.469007,-9770.718434,-888.247130,383.047749
4238.469337,-8734.430116,0.000000,306.438199
4238.469666,-9030.512492,74.020594,0.000000
4238.469996,-10807.006753,222.061783,1225.752797
4238.470326,-9548.656652,222.061783,842.705048
4238.470656,-9474.636058,222.061783,-229.828649
4238.470985,-10140.821405,370.102971,-1072.533697
4238.471315,-10510.924376,-444.123565,-306.438199
4238.471645,-9326.594869,-296.082377,-459.657299
4238.471975,-9030.512492,-1332.370696,0.000000
4238.472304,-9104.533087,-962.267725,-536.266849
4238.472634,-8512.368333,-1776.494261,-383.047749
4238.472964,-9992.780217,-74.020594,459.657299
4238.473294,-10288.862594,-1184.329507,1608.800546
4238.473623,-10658.965565,74.020594,2145.067394
4238.473953,-10510.924376,-370.102971,1532.190996
4238.474283,-9918.759623,-296.082377,612.876398
4238.474612,-10658.965565,-1036.288319,612.876398
4238.474942,-11177.109724,-740.205942,536.266849
4238.475272,-9696.697840,-518.144159,689.485948
4238.475602,-8364.327145,-1258.350101,-229.828649
4238.475931,-8512.368333,-740.205942,-383.047749
4238.476261,-10362.883188,-296.082377,919.314598
4238.476591,-10436.903782,-814.226536,842.705048
4238.476921,-8882.471304,-592.164754,76.609550
4238.477250,-8956.491898,-592.164754,459.657299
4238.477580,-10510.924376,-666.185348,919.314598
4238.477910,-11399.171507,-444.123565,1072.533697
4238.478240,-10066.800811,-518.144159,689.485948
4238.478569,-9844.739029,-222.061783,-229.828649
4238.478899,-10584.944971,0.000000,919.314598
4238.479229,-10066.800811,-592.164754,229.828649
4238.479559,-8882.471304,-370.102971,153.219100
4238.479889,-8290.306550,-296.082377,229.828649
4238.480218,-9326.594869,-592.164754,-306.438199
4238.480548,-10584.944971,-296.082377,-306.438199
4238.480878,-9400.615463,0.000000,-766.095498
4238.481208,-9326.594869,74.020594,-689.485948
4238.481538,-9474.636058,592.164754,-689.485948
4238.481867,-10140.821405,0.000000,153.219100
4238.482197,-9918.759623,740.205942,-766.095498
4238.482527,-8808.450710,222.061783,-536.266849
4238.482857,-9844.739029,1036.288319,-153.219100
4238.483186,-10214.842000,444.123565,76.609550
4238.483516,-9400.615463,0.000000,306.438199
4238.483846,-9548.656652,962.267725,-76.609550
4238.484176,-10658.965565,1110.308913,0.000000
4238.484506,-10510.924376,666.185348,-536.266849
4238.484835,-8956.491898,518.144159,-1225.752797
4238.485165,-8808.450710,666.185348,-1225.752797
4238.485495,-9844.739029,1036.288319,459.657299
4238.485825,-10584.944971,1702.473667,306.438199
4238.486155,-9548.656652,740.205942,-229.828649
4238.486484,-9548.656652,1110.308913,-229.828649
4238.486814,-11029.068536,740.205942,459.657299
4238.487144,-11325.150913,370.102971,995.924147
4238.487474,-9326.594869,740.205942,383.047749
4238.487803,-8068.244768,-148.041188,76.609550
4238.488133,-9252.574275,518.144159,842.705048
4238.488463,-10436.903782,888.247130,1532.190996
4238.488793,-11103.089130,592.164754,1149.143247
4238.489123,-9548.656652,888.247130,76.609550
4238.489452,-9178.553681,740.205942,-153.219100
4238.489782,-10658.965565,74.020594,689.485948
4238.490112,-10436.903782,370.102971,1455.581446
4238.490442,-8438.347739,148.041188,1302.362347
4238.490772,-8364.327145,666.185348,0.000000
4238.491101,-10288.862594,740.205942,459.657299
4238.491431,-11029.068536,74.020594,1532.190996
4238.491761,-10732.986159,370.102971,1378.971896
4238.492091,-10140.821405,592.164754,229.828649
4238.492420,-9400.615463,-74.020594,-766.095498
4238.492750,-8586.388927,74.020594,0.000000
4238.493080,-9104.533087,-222.061783,0.000000
4238.493410,-9474.636058,-444.123565,459.657299
4238.493740,-9548.656652,-444.123565,612.876398
4238.494069,-9474.636058,-740.205942,-153.219100
4238.494399,-8956.491898,-444.123565,842.705048
4238.494729,-10362.883188,-592.164754,1302.362347
4238.495059,-11103.089130,-296.082377,1608.800546
4238.495389,-10066.800811,-592.164754,536.266849
4238.495718,-9326.594869,-592.164754,-459.657299
4238.496048,-9400.615463,-740.205942,383.047749
4238.496378,-11547.212695,444.123565,1915.238745
4238.496708,-10732.986159,-296.082377,1378.971896
4238.497037,-9622.677246,148.041188,-383.047749
4238.497367,-9104.533087,-370.102971,-1378.971896
4238.497697,-10140.821405,-592.164754,-995.924147
4238.498027,-9918.759623,-370.102971,0.000000
4238.498357,-9400.615463,-740.205942,153.219100
4238.498686,-10066.800811,-592.164754,842.705048
4238.499016,-9696.697840,-814.226536,612.876398
4238.499346,-10658.965565,-592.164754,766.095498
4238.499676,-10214.842000,-444.123565,842.705048
4238.500006,-9326.594869,-740.205942,76.609550
4238.500335,-9474.636058,-1110.308913,0.000000
4238.500665,-9992.780217,0.000000,1378.971896
4238.500995,-10436.903782,-444.123565,1072.533697
4238.501325,-9992.780217,-296.082377,-459.657299
4238.501654,-9030.512492,-1110.308913,-1378.971896
4238.501984,-9104.533087,-518.144159,-1608.800546
4238.502314,-8586.388927,-962.267725,-459.657299
4238.502644,-9104.533087,-518.144159,229.828649
4238.502974,-9178.553681,-888.247130,1072.533697
4238.503303,-8882.471304,-592.164754,0.000000
4238.503633,-9622.677246,0.000000,0.000000
4238.503963,-9770.718434,-148.041188,-153.219100
4238.504293,-9770.718434,0.000000,919.314598
4238.504623,-10436.903782,444.123565,1685.410096
4238.504952,-9992.780217,1036.288319,306.438199
4238.505282,-10066.800811,518.144159,-689.485948
4238.505612,-9844.739029,888.247130,-1302.362347
4238.505942,-9696.697840,814.226536,-1072.533697
4238.506271,-10214.842000,814.226536,-995.924147
4238.506601,-9770.718434,296.082377,0.000000
4238.506931,-9252.574275,740.205942,536.266849
4238.507261,-9030.512492,666.185348,612.876398
4238.507591,-9104.533087,518.144159,-842.705048
4238.507920,-9992.780217,518.144159,-1378.971896
4238.508250,-10214.842000,888.247130,-612.876398
4238.508580,-9992.780217,1480.411884,76.609550
4238.508910,-10140.821405,1258.350101,383.047749
4238.509240,-10658.965565,1776.494261,306.438199
4238.509569,-10362.883188,666.185348,766.095498
4238.509899,-10214.842000,814.226536,459.657299
4238.510229,-9474.636058,518.144159,153.219100
4238.510559,-9474.636058,222.061783,-153.219100
4238.510888,-8808.450710,296.082377,0.000000
4238.511218,-9326.594869,370.102971,689.485948
4238.511548,-10214.842000,444.123565,1072.533697
4238.511878,-10658.965565,1184.329507,995.924147
4238.512208,-10140.821405,1036.288319,536.266849
4238.512537,-10140.821405,740.205942,0.000000
4238.512867,-9844.739029,1332.370696,-919.314598
4238.513197,-9178.553681,740.205942,-919.314598
4238.513527,-9326.594869,1036.288319,-1302.362347
4238.513857,-9918.759623,518.144159,-536.266849
4238.514186,-10362.883188,370.102971,229.828649
4238.514516,-9326.594869,0.000000,0.000000
4238.514846,-9104.533087,-666.185348,-919.314598
4238.515176,-9178.553681,0.000000,0.000000
4238.515505,-9548.656652,0.000000,536.266849
4238.515835,-9992.780217,74.020594,689.485948
4238.516165,-9178.553681,0.000000,995.924147
4238.516495,-10436.903782,222.061783,766.095498
4238.516825,-10658.965565,518.144159,689.485948
4238.517154,-10140.821405,370.102971,766.095498
4238.517484,-9844.739029,-148.041188,-153.219100
4238.517814,-9622.677246,74.020594,-536.266849
4238.518144,-9770.718434,-74.020594,-306.438199
4238.518474,-8882.471304,-888.247130,-612.876398
4238.518803,-9030.512492,-518.144159,-842.705048
4238.519133,-9474.636058,-296.082377,76.609550
4238.519463,-10436.903782,-814.226536,1302.362347
4238.519793,-10436.903782,-296.082377,1378.971896
4238.520122,-9844.739029,-814.226536,1225.752797
4238.520452,-9548.656652,-74.020594,1608.800546
4238.520782,-10658.965565,-74.020594,1608.800546
4238.521112,-9696.697840,-592.164754,995.924147
4238.521442,-10214.842000,-592.164754,76.609550
4238.521771,-9696.697840,-518.144159,459.657299
4238.522101,-9992.780217,-1036.288319,459.657299
4238.522431,-9548.656652,-370.102971,-306.438199
4238.522761,-9326.594869,-1110.308913,-383.047749
4238.523091,-9548.656652,-962.267725,383.047749
4238.523420,-9030.512492,-370.102971,306.438199
4238.523750,-9918.759623,-1110.308913,612.876398
4238.524080,-10584.944971,-370.102971,995.924147
4238.524410,-9992.780217,-296.082377,1455.581446
4238.524739,-9992.780217,-518.144159,229.828649
4238.525069,-9474.636058,-814.226536,-612.876398
4238.525399,-10214.842000,-222.061783,229.828649
4238.525729,-10214.842000,-1184.329507,1225.752797
4238.526059,-9400.615463,-1110.308913,842.705048
4238.526388,-8512.368333,-1184.329507,1532.190996
4238.526718,-8956.491898,-888.247130,1455.581446
4238.527048,-9844.739029,-814.226536,1302.362347
4238.527378,-10140.821405,-962.267725,612.876398
