#time,accel_x,accel_y,accel_z
3726.493199,-9696.697840,296.082377,383.047749
3726.493529,-9696.697840,148.041188,229.828649
3726.493860,-10066.800811,0.000000,306.438199
3726.494190,-9844.739029,0.000000,153.219100
3726.494520,-9696.697840,0.000000,306.438199
3726.494851,-9548.656652,0.000000,306.438199
3726.495181,-9622.677246,-444.123565,76.609550
3726.495511,-9696.697840,74.020594,76.609550
3726.495841,-9992.780217,222.061783,0.000000
3726.496172,-9622.677246,0.000000,0.000000
3726.496502,-9770.718434,0.000000,153.219100
3726.496832,-9844.739029,370.102971,766.095498
3726.497162,-10140.821405,296.082377,612.876398
3726.497493,-10066.800811,0.000000,0.000000
3726.497823,-9918.759623,74.020594,-536.266849
3726.498153,-9474.636058,0.000000,-689.485948
3726.498484,-9992.780217,-74.020594,-383.047749
3726.498814,-10140.821405,0.000000,-76.609550
3726.499144,-9770.718434,-74.020594,0.000000
3726.499474,-9696.697840,-444.123565,766.095498
3726.499805,-9918.759623,-370.102971,0.000000
3726.500135,-9474.636058,-740.205942,-306.438199
3726.500465,-9400.615463,-592.164754,-459.657299
3726.500795,-9474.636058,-296.082377,-536.266849
3726.501126,-9474.636058,-296.082377,-459.657299
3726.501456,-10066.800811,-74.020594,0.000000
3726.501786,-10288.862594,-148.041188,153.219100
3726.502116,-10584.944971,-296.082377,-153.219100
3726.502447,-9918.759623,-592.164754,-919.314598
3726.502777,-9918.759623,-222.061783,-1685.410096
3726.503107,-9474.636058,-740.205942,-1915.238745
3726.503438,-9474.636058,-592.164754,-1532.190996
3726.503768,-9104.533087,-1332.370696,-1149.143247
3726.504098,-9252.574275,-1036.288319,-383.047749
3726.504428,-9252.574275,-1110.308913,0.000000
3726.504759,-9548.656652,-1036.288319,-229.828649
3726.505089,-10140.821405,-962.267725,-842.705048
3726.505419,-10066.800811,-666.185348,-842.705048
3726.505749,-9992.780217,-962.267725,-1072.533697
3726.506080,-10436.903782,-740.205942,-1378.971896
3726.506410,-10362.883188,-888.247130,-1378.971896
3726.506740,-10066.800811,-1110.308913,-1838.629195
3726.507070,-10140.821405,-1628.453072,-2528.115143
3726.507401,-9844.739029,-1776.494261,-2145.067394
3726.507731,-9770.718434,-1924.535449,-2451.505594
3726.508061,-9178.553681,-2368.659014,-2757.943793
3726.508392,-8956.491898,-2146.597232,-1915.238745
3726.508722,-8364.327145,-1850.514855,-1608.800546
3726.509052,-8808.450710,-1776.494261,-536.266849
3726.509382,-9474.636058,-1628.453072,-76.609550
3726.509713,-10584.944971,-1332.370696,0.000000
3726.510043,-11399.171507,-1258.350101,-229.828649
3726.510373,-11843.295072,-1628.453072,-689.485948
3726.510703,-12139.377449,-2072.576638,-2068.457845
3726.511034,-11251.130318,-2738.761985,-3677.258390
3726.511364,-9252.574275,-3552.988522,-4903.011187
3726.511694,-7476.080014,-3775.050304,-4673.182538
3726.512025,-6957.935855,-3256.906145,-2451.505594
3726.512355,-7772.162391,-2368.659014,-842.705048
3726.512685,-9400.615463,-1702.473667,-1149.143247
3726.513015,-10436.903782,-962.267725,-2757.943793
3726.513346,-10807.006753,-1776.494261,-4979.620737
3726.513676,-11325.150913,-2516.700203,-5209.449386
3726.514006,-11695.253884,-3775.050304,-3447.429741
3726.514336,-10140.821405,-5033.400406,-1915.238745
3726.514667,-8290.306550,-5329.482782,-1915.238745
3726.514997,-6809.894666,-5181.441594,-2451.505594
3726.515327,-7994.224174,-4293.194464,-2068.457845
3726.515657,-9178.553681,-3256.906145,-1608.800546
3726.515988,-9992.780217,-1998.556043,-1072.533697
3726.516318,-10732.986159,-1480.411884,-919.314598
3726.516648,-11251.130318,-1258.350101,-2298.286494
3726.516979,-11695.253884,-2590.720797,-3753.867940
3726.517309,-10362.883188,-4293.194464,-5515.887586
3726.517639,-9326.594869,-5255.462188,-4979.620737
3726.517969,-8586.388927,-5329.482782,-3524.039291
3726.518300,-8290.306550,-4959.379811,-1225.752797
3726.518630,-7846.182985,-4367.215058,229.828649
3726.518960,-8068.244768,-3256.906145,1072.533697
3726.519290,-9844.739029,-1554.432478,0.000000
3726.519621,-12583.501014,-1036.288319,-1072.533697
3726.519951,-13027.624579,-1332.370696,-2834.553343
3726.520281,-11177.109724,-2664.741391,-2987.772442
3726.520612,-9548.656652,-3552.988522,-2681.334243
3726.520942,-9474.636058,-4737.318029,-2221.676944
3726.521272,-9104.533087,-4367.215058,-1378.971896
3726.521602,-8290.306550,-3923.091493,-1532.190996
3726.521933,-7846.182985,-3256.906145,-1225.752797
3726.522263,-8660.409521,-3108.864956,-1378.971896
3726.522593,-11399.171507,-1776.494261,0.000000
3726.522923,-11547.212695,-814.226536,1378.971896
3726.523254,-11991.336260,-1036.288319,0.000000
3726.523584,-10881.027347,-1924.535449,-1225.752797
3726.523914,-8586.388927,-2220.617826,-1378.971896
3726.524244,-9252.574275,-2146.597232,-2298.286494
3726.524575,-10214.842000,-2220.617826,-3064.381992
3726.524905,-9992.780217,-2072.576638,-3140.991542
3726.525235,-9252.574275,-1628.453072,-2681.334243
3726.525566,-9326.594869,-1776.494261,-536.266849
3726.525896,-10510.924376,-1702.473667,919.314598
3726.526226,-10362.883188,-1332.370696,-459.657299
3726.526556,-8956.491898,-1184.329507,-2451.505594
3726.526887,-8734.430116,-1480.411884,-3217.601092
3726.527217,-9326.594869,-1702.473667,-2145.067394
3726.527547,-9918.759623,-1036.288319,0.000000
3726.527877,-10140.821405,-666.185348,76.609550
3726.528208,-10732.986159,-814.226536,-766.095498
3726.528538,-10510.924376,-740.205942,-3524.039291
3726.528868,-10066.800811,-1258.350101,-4903.011187
3726.529199,-9326.594869,-1776.494261,-4366.744339
3726.529529,-9252.574275,-962.267725,-2528.115143
3726.529859,-10066.800811,-518.144159,-1915.238745
3726.530189,-9104.533087,-740.205942,-2604.724693
3726.530520,-7550.100608,-1258.350101,-3524.039291
3726.530850,-7624.121203,-1036.288319,-4213.525239
3726.531180,-9400.615463,-888.247130,-1991.848295
3726.531510,-11177.109724,-74.020594,383.047749
3726.531841,-11029.068536,296.082377,153.219100
3726.532171,-10140.821405,0.000000,-1302.362347
3726.532501,-10658.965565,-666.185348,-3217.601092
3726.532831,-11399.171507,-666.185348,-4826.401637
3726.533162,-12361.439231,-1258.350101,-4366.744339
3726.533492,-9622.677246,-1480.411884,-3370.820191
3726.533822,-7328.038826,-2368.659014,-1455.581446
3726.534153,-6439.791695,-1998.556043,229.828649
3726.534483,-7550.100608,-1702.473667,76.609550
3726.534813,-9992.780217,-814.226536,-1225.752797
3726.535143,-10066.800811,-296.082377,-2528.115143
3726.535474,-9252.574275,-592.164754,-1685.410096
3726.535804,-9770.718434,-592.164754,995.924147
3726.536134,-12065.356855,-1036.288319,2374.896044
3726.536464,-13175.665768,-888.247130,1225.752797
3726.536795,-11029.068536,-2590.720797,-1302.362347
3726.537125,-8290.306550,-2516.700203,-2451.505594
3726.537455,-9030.512492,-2072.576638,-689.485948
3726.537785,-9844.739029,-740.205942,0.000000
3726.538116,-9030.512492,-888.247130,153.219100
3726.538446,-7624.121203,-1036.288319,-995.924147
3726.538776,-9252.574275,-296.082377,-1532.190996
3726.539107,-11991.336260,-666.185348,-2298.286494
3726.539437,-12583.501014,-1258.350101,-995.924147
3726.539767,-10807.006753,-2294.638420,-536.266849
3726.540097,-8808.450710,-2368.659014,-995.924147
3726.540428,-9474.636058,-3182.885551,-229.828649
3726.540758,-10362.883188,-2738.761985,-306.438199
3726.541088,-8586.388927,-3404.947333,-306.438199
3726.541418,-7846.182985,-2516.700203,-306.438199
3726.541749,-9104.533087,-1850.514855,0.000000
3726.542079,-10510.924376,-1702.473667,459.657299
3726.542409,-9770.718434,-1628.453072,689.485948
3726.542740,-8290.306550,-1258.350101,-689.485948
3726.543070,-9474.636058,-814.226536,-2068.457845
3726.543400,-10288.862594,-1406.391290,-2834.553343
3726.543730,-10436.903782,-1776.494261,-995.924147
3726.544061,-10510.924376,-1924.535449,995.924147
3726.544391,-10214.842000,-1184.329507,995.924147
3726.544721,-10584.944971,-2294.638420,-612.876398
3726.545051,-9252.574275,-2072.576638,-1225.752797
3726.545382,-8956.491898,-1628.453072,1149.143247
3726.545712,-9252.574275,-370.102971,1608.800546
3726.546042,-8734.430116,-296.082377,459.657299
3726.546372,-7402.059420,0.000000,-459.657299
3726.546703,-9252.574275,296.082377,1149.143247
3726.547033,-11621.233289,1036.288319,1762.019645
3726.547361,-12657.521608,0.000000,766.095498
3726.547690,-10510.924376,74.020594,-1532.190996
3726.548020,-9474.636058,-666.185348,-995.924147
3726.548350,-9696.697840,-444.123565,842.705048
3726.548680,-9696.697840,-518.144159,1991.848295
3726.549010,-9178.553681,-444.123565,2068.457845
3726.549340,-8438.347739,296.082377,153.219100
3726.549669,-8512.368333,962.267725,-229.828649
3726.549999,-9178.553681,888.247130,76.609550
3726.550329,-9104.533087,1702.473667,2068.457845
3726.550659,-10066.800811,1628.453072,3370.820191
3726.550989,-11251.130318,1998.556043,1685.410096
3726.551319,-10732.986159,962.267725,-842.705048
3726.551648,-10436.903782,962.267725,-842.705048
3726.551978,-10510.924376,1110.308913,-766.095498
3726.552308,-10955.047942,1924.535449,995.924147
3726.552638,-9474.636058,962.267725,689.485948
3726.552968,-7698.141797,1110.308913,0.000000
3726.553298,-9252.574275,2146.597232,153.219100
3726.553628,-10436.903782,2442.679609,306.438199
3726.553957,-10288.862594,1998.556043,-76.609550
3726.554287,-9104.533087,1406.391290,0.000000
3726.554617,-8808.450710,1850.514855,76.609550
3726.554947,-11325.150913,2294.638420,383.047749
3726.555277,-10436.903782,888.247130,-766.095498
3726.555607,-10140.821405,592.164754,-1915.238745
3726.555936,-9548.656652,148.041188,-766.095498
3726.556266,-10214.842000,1332.370696,383.047749
3726.556596,-9770.718434,518.144159,919.314598
3726.556926,-8290.306550,370.102971,383.047749
3726.557256,-8068.244768,1406.391290,0.000000
3726.557586,-9474.636058,1406.391290,-229.828649
3726.557915,-9400.615463,1776.494261,0.000000
3726.558245,-9844.739029,1776.494261,-153.219100
3726.558575,-10584.944971,2368.659014,0.000000
3726.558905,-11399.171507,1998.556043,-612.876398
3726.559235,-10584.944971,1332.370696,-1455.581446
3726.559565,-10510.924376,518.144159,-1838.629195
3726.559894,-10362.883188,888.247130,-1378.971896
3726.560224,-10066.800811,0.000000,842.705048
3726.560554,-8660.409521,0.000000,2298.286494
3726.560884,-9104.533087,148.041188,2298.286494
3726.561214,-9474.636058,888.247130,1149.143247
3726.561544,-10288.862594,592.164754,689.485948
3726.561874,-9400.615463,666.185348,1225.752797
3726.562203,-9548.656652,0.000000,612.876398
3726.562533,-9770.718434,222.061783,1608.800546
3726.562863,-9844.739029,-296.082377,1378.971896
3726.563193,-8882.471304,-222.061783,536.266849
3726.563523,-9622.677246,-740.205942,459.657299
3726.563853,-11177.109724,-148.041188,766.095498
3726.564182,-10436.903782,-518.144159,1685.410096
3726.564512,-8586.388927,-666.185348,1225.752797
3726.564842,-8734.430116,-518.144159,1685.410096
3726.565172,-10362.883188,148.041188,1838.629195
3726.565502,-10362.883188,-518.144159,1072.533697
3726.565832,-9178.553681,74.020594,306.438199
3726.566161,-9474.636058,-148.041188,-76.609550
3726.566491,-11177.109724,444.123565,-689.485948
3726.566821,-10807.006753,-518.144159,76.609550
3726.567151,-10066.800811,-962.267725,306.438199
3726.567481,-9770.718434,-1184.329507,0.000000
3726.567811,-10807.006753,-1184.329507,-766.095498
3726.568141,-10362.883188,-1406.391290,-1225.752797
3726.568470,-8734.430116,-1258.350101,-229.828649
3726.568800,-8142.265362,-962.267725,536.266849
3726.569130,-9104.533087,-444.123565,-229.828649
3726.569460,-9548.656652,-962.267725,-1072.533697
3726.569790,-9548.656652,-888.247130,-1225.752797
3726.570120,-9844.739029,-666.185348,-306.438199
3726.570449,-10955.047942,-1258.350101,-383.047749
3726.570779,-10140.821405,-1332.370696,-229.828649
3726.571109,-9252.574275,-1628.453072,-306.438199
3726.571439,-8734.430116,-1332.370696,-919.314598
3726.571769,-9326.594869,-2220.617826,0.000000
3726.572099,-8882.471304,-962.267725,459.657299
3726.572428,-9104.533087,-1110.308913,153.219100
3726.572758,-9918.759623,222.061783,-229.828649
3726.573088,-10066.800811,-444.123565,-689.485948
3726.573418,-9326.594869,0.000000,-1455.581446
3726.573748,-9030.512492,-370.102971,-842.705048
3726.574078,-9474.636058,0.000000,-536.266849
3726.574408,-9770.718434,-444.123565,383.047749
3726.574737,-10362.883188,0.000000,766.095498
3726.575067,-10140.821405,-296.082377,1149.143247
3726.575397,-10510.924376,-444.123565,766.095498
3726.575727,-10584.944971,-1184.329507,1149.143247
3726.576057,-9474.636058,-444.123565,1762.019645
3726.576387,-8660.409521,-740.205942,2145.067394
3726.576716,-8660.409521,74.020594,2221.676944
3726.577046,-8956.491898,-222.061783,1915.238745
3726.577376,-9548.656652,518.144159,1302.362347
3726.577706,-11251.130318,666.185348,612.876398
3726.578036,-12139.377449,1480.411884,459.657299
3726.578366,-10881.027347,148.041188,76.609550
3726.578695,-9696.697840,444.123565,153.219100
3726.579025,-9622.677246,814.226536,0.000000
3726.579355,-10658.965565,444.123565,-536.266849
3726.579685,-9770.718434,518.144159,-689.485948
3726.580015,-8956.491898,370.102971,-612.876398
3726.580345,-9030.512492,888.247130,0.000000
3726.580675,-9548.656652,666.185348,0.000000
3726.581004,-9918.759623,1036.288319,0.000000
3726.581334,-9474.636058,888.247130,76.609550
3726.581664,-10732.986159,1406.391290,-229.828649
3726.581994,-10955.047942,444.123565,0.000000
3726.582324,-10066.800811,74.020594,0.000000
3726.582654,-9252.574275,296.082377,612.876398
3726.582983,-9326.594869,518.144159,76.609550
3726.583313,-9548.656652,592.164754,-612.876398
3726.583643,-8142.265362,444.123565,-1225.752797
3726.583973,-8734.430116,814.226536,-995.924147
3726.584303,-9178.553681,1258.350101,-536.266849
3726.584633,-10288.862594,1628.453072,766.095498
3726.584962,-9178.553681,1406.391290,842.705048
3726.585292,-8956.491898,1036.288319,0.000000
3726.585622,-10436.903782,1406.391290,-306.438199
3726.585952,-11991.336260,814.226536,0.000000
3726.586282,-10510.924376,1110.308913,0.000000
3726.586612,-9400.615463,740.205942,612.876398
3726.586941,-10214.842000,1110.308913,153.219100
3726.587271,-10066.800811,370.102971,612.876398
3726.587601,-9696.697840,370.102971,612.876398
3726.587931,-9030.512492,0.000000,1072.533697
3726.588261,-9474.636058,814.226536,1991.848295
3726.588591,-10214.842000,74.020594,2604.724693
3726.588921,-9548.656652,370.102971,1378.971896
3726.589250,-10066.800811,0.000000,919.314598
3726.589580,-11325.150913,148.041188,536.266849
3726.589910,-11251.130318,-222.061783,995.924147
3726.590240,-9474.636058,-740.205942,1378.971896
3726.590570,-8586.388927,-518.144159,766.095498
3726.590900,-10066.800811,-148.041188,1072.533697
3726.591229,-11103.089130,-74.020594,842.705048
3726.591559,-9770.718434,-740.205942,0.000000
3726.591889,-8956.491898,-888.247130,-306.438199
3726.592219,-9622.677246,-296.082377,-76.609550
3726.592549,-9548.656652,-1184.329507,306.438199
3726.592879,-9474.636058,-962.267725,306.438199
3726.593208,-9252.574275,-518.144159,0.000000
3726.593538,-10807.006753,-814.226536,-689.485948
3726.593868,-10510.924376,-1332.370696,-1302.362347
3726.594198,-9622.677246,-1332.370696,-306.438199
3726.594528,-9770.718434,-1406.391290,153.219100
3726.594858,-9992.780217,-1332.370696,229.828649
3726.595188,-8660.409521,-1406.391290,-229.828649
3726.595517,-8290.306550,-1554.432478,-1149.143247
3726.595847,-8808.450710,-592.164754,-536.266849
3726.596177,-10288.862594,-740.205942,153.219100
3726.596507,-9770.718434,-296.082377,0.000000
3726.596837,-8882.471304,-592.164754,76.609550
3726.597167,-10140.821405,0.000000,-306.438199
3726.597496,-11843.295072,0.000000,0.000000
3726.597826,-11251.130318,-296.082377,0.000000
3726.598156,-9918.759623,-814.226536,-383.047749
3726.598486,-9400.615463,-222.061783,459.657299
3726.598816,-10658.965565,-370.102971,0.000000
3726.599146,-9326.594869,0.000000,612.876398
3726.599475,-9104.533087,-370.102971,153.219100
3726.599805,-9770.718434,518.144159,-229.828649
3726.600135,-10066.800811,222.061783,0.000000
3726.600465,-9326.594869,370.102971,766.095498
3726.600795,-8882.471304,-296.082377,1378.971896
3726.601125,-10066.800811,370.102971,1762.019645
3726.601455,-11029.068536,0.000000,1915.238745
3726.601784,-10066.800811,148.041188,1072.533697
3726.602114,-9696.697840,74.020594,1455.581446
3726.602444,-10066.800811,740.205942,1225.752797
3726.602774,-9992.780217,74.020594,1302.362347
3726.603104,-8808.450710,370.102971,1149.143247
3726.603434,-8586.388927,444.123565,383.047749
3726.603763,-10140.821405,1036.288319,766.095498
3726.604093,-9844.739029,592.164754,76.609550
3726.604423,-8734.430116,518.144159,-383.047749
3726.604753,-8956.491898,592.164754,-612.876398
3726.605083,-9992.780217,888.247130,-842.705048
3726.605413,-10214.842000,370.102971,0.000000
3726.605742,-9770.718434,666.185348,-229.828649
3726.606072,-9474.636058,814.226536,-689.485948
3726.606402,-10066.800811,74.020594,-383.047749
3726.606732,-8808.450710,148.041188,-153.219100
3726.607062,-8364.327145,370.102971,612.876398
3726.607392,-9104.533087,814.226536,0.000000
3726.607722,-9844.739029,666.185348,-995.924147
3726.608051,-9326.594869,370.102971,-1072.533697
3726.608381,-9252.574275,296.082377,0.000000
3726.608711,-10732.986159,666.185348,229.828649
3726.609041,-11843.295072,666.185348,459.657299
3726.609371,-9474.636058,370.102971,-1072.533697
3726.609701,-8586.388927,222.061783,-1608.800546
3726.610030,-8882.471304,148.041188,-1225.752797
3726.610360,-10362.883188,888.247130,-459.657299
3726.610690,-9770.718434,962.267725,-153.219100
3726.611020,-8956.491898,740.205942,-766.095498
3726.611350,-9918.759623,1406.391290,-766.095498
3726.611680,-11325.150913,666.185348,0.000000
3726.612009,-10658.965565,1036.288319,689.485948
3726.612339,-10066.800811,444.123565,1149.143247
3726.612669,-9770.718434,1110.308913,459.657299
3726.612999,-9992.780217,-222.061783,383.047749
3726.613329,-10066.800811,74.020594,766.095498
3726.613659,-10288.862594,-296.082377,1532.190996
3726.613988,-10881.027347,592.164754,1532.190996
3726.614318,-10510.924376,-888.247130,2221.676944
3726.614648,-8586.388927,-148.041188,1455.581446
3726.614978,-8068.244768,-962.267725,1532.190996
3726.615308,-9030.512492,74.020594,1455.581446
3726.615638,-9918.759623,0.000000,1532.190996
3726.615968,-10214.842000,0.000000,919.314598
3726.616297,-10362.883188,-296.082377,459.657299
3726.616627,-10436.903782,-444.123565,919.314598
3726.616957,-10214.842000,-962.267725,229.828649
3726.617287,-8734.430116,-1258.350101,842.705048
3726.617617,-8882.471304,-814.226536,612.876398
3726.617947,-10066.800811,-370.102971,153.219100
3726.618276,-10214.842000,-222.061783,0.000000
3726.618606,-9030.512492,-888.247130,-459.657299
3726.618936,-9622.677246,-148.041188,-459.657299
3726.619266,-10807.006753,-518.144159,153.219100
3726.619596,-10288.862594,-518.144159,0.000000
3726.619926,-8882.471304,-148.041188,-842.705048
3726.620255,-9918.759623,-370.102971,-1532.190996
3726.620585,-10658.965565,-370.102971,-1991.848295
3726.620915,-9696.697840,-740.205942,-1302.362347
3726.621245,-8882.471304,-962.267725,0.000000
3726.621575,-9400.615463,-518.144159,459.657299
3726.621905,-10362.883188,-888.247130,306.438199
3726.622235,-9252.574275,-518.144159,-306.438199
3726.622564,-8734.430116,-666.185348,-612.876398
3726.622894,-9030.512492,0.000000,-229.828649
3726.623224,-10066.800811,0.000000,383.047749
3726.623554,-9918.759623,0.000000,153.219100
3726.623884,-9770.718434,-370.102971,-459.657299
3726.624214,-10066.800811,962.267725,-1532.190996
3726.624543,-10807.006753,-444.123565,-1149.143247
3726.624873,-9104.533087,-592.164754,-842.705048
3726.625203,-8068.244768,-666.185348,0.000000
3726.625533,-8734.430116,0.000000,995.924147
3726.625863,-10140.821405,148.041188,1685.410096
3726.626193,-10066.800811,0.000000,1378.971896
3726.626522,-9992.780217,-148.041188,536.266849
3726.626852,-10140.821405,148.041188,1225.752797
3726.627182,-10436.903782,-296.082377,1685.410096
3726.627512,-9992.780217,0.000000,2451.505594
3726.627842,-9918.759623,0.000000,2451.505594
3726.628172,-10955.047942,666.185348,1225.752797
3726.628502,-10510.924376,222.061783,76.609550
3726.628831,-9696.697840,444.123565,-153.219100
3726.629161,-9844.739029,444.123565,76.609550
3726.629491,-10584.944971,592.164754,995.924147
3726.629821,-9770.718434,148.041188,76.609550
3726.630151,-9030.512492,148.041188,-306.438199
3726.630481,-9474.636058,518.144159,-842.705048
3726.630810,-10881.027347,814.226536,-842.705048
3726.631140,-10584.944971,1036.288319,-306.438199
3726.631470,-9548.656652,148.041188,0.000000
3726.631800,-9104.533087,296.082377,306.438199
3726.632130,-10584.944971,-148.041188,383.047749
3726.632460,-10140.821405,-222.061783,-76.609550
3726.632789,-9474.636058,-814.226536,-919.314598
3726.633119,-9252.574275,444.123565,-842.705048
3726.633449,-9252.574275,0.000000,153.219100
3726.633779,-9326.594869,518.144159,229.828649
3726.634109,-8660.409521,370.102971,-995.924147
3726.634439,-9178.553681,888.247130,-1302.362347
3726.634768,-10288.862594,444.123565,-1455.581446
3726.635098,-9474.636058,518.144159,-1608.800546
3726.635428,-9178.553681,370.102971,0.000000
3726.635758,-9400.615463,592.164754,76.609550
3726.636088,-9918.759623,666.185348,153.219100
3726.636418,-9548.656652,888.247130,-536.266849
3726.636748,-9918.759623,814.226536,-995.924147
3726.637077,-10658.965565,1258.350101,-229.828649
3726.637407,-10436.903782,148.041188,306.438199
3726.637737,-9326.594869,296.082377,536.266849
3726.638067,-8660.409521,296.082377,919.314598
3726.638397,-9252.574275,444.123565,1225.752797
3726.638727,-9992.780217,148.041188,842.705048
3726.639056,-10140.821405,296.082377,689.485948
3726.639386,-9770.718434,148.041188,919.314598
3726.639716,-10436.903782,666.185348,1991.848295
3726.640046,-10732.986159,0.000000,2757.943793
3726.640376,-10140.821405,0.000000,2068.457845
3726.640706,-9770.718434,0.000000,1225.752797
3726.641035,-9548.656652,74.020594,383.047749
3726.641365,-9178.553681,0.000000,842.705048
3726.641695,-9104.533087,444.123565,1455.581446
3726.642025,-9770.718434,370.102971,1378.971896
3726.642355,-11325.150913,888.247130,1685.410096
3726.642685,-11399.171507,296.082377,612.876398
3726.643015,-10214.842000,-222.061783,-689.485948
3726.643344,-9252.574275,-518.144159,-306.438199
3726.643674,-9622.677246,-148.041188,-383.047749
3726.644004,-9104.533087,-296.082377,76.609550
3726.644334,-9622.677246,-592.164754,153.219100
3726.644664,-9548.656652,-296.082377,0.000000
3726.644994,-10436.903782,-592.164754,-229.828649
3726.645323,-9770.718434,-814.226536,-76.609550
3726.645653,-8956.491898,-740.205942,0.000000
3726.645983,-9252.574275,-740.205942,76.609550
3726.646313,-9696.697840,-518.144159,-153.219100
3726.646643,-9326.594869,0.000000,-689.485948
3726.646973,-8660.409521,-148.041188,-919.314598
3726.647302,-10140.821405,296.082377,-229.828649
3726.647632,-11029.068536,-222.061783,536.266849
3726.647962,-9992.780217,-444.123565,-383.047749
3726.648292,-9104.533087,-1036.288319,-766.095498
3726.648622,-9326.594869,-74.020594,-459.657299
3726.648952,-9770.718434,-222.061783,0.000000
3726.649281,-9326.594869,222.061783,76.609550
3726.649611,-9252.574275,148.041188,306.438199
3726.649941,-9622.677246,444.123565,459.657299
3726.650271,-11325.150913,-222.061783,459.657299
3726.650601,-10436.903782,0.000000,689.485948
3726.650930,-10066.800811,-592.164754,995.924147
3726.651260,-10140.821405,-666.185348,459.657299
3726.651590,-9548.656652,-296.082377,1072.533697
3726.651920,-8660.409521,-444.123565,459.657299
3726.652250,-8734.430116,-148.041188,383.047749
3726.652580,-10881.027347,444.123565,612.876398
3726.652909,-11029.068536,0.000000,1302.362347
3726.653239,-9400.615463,-296.082377,1455.581446
3726.653569,-9178.553681,0.000000,1532.190996
3726.653899,-9770.718434,-148.041188,919.314598
3726.654229,-9548.656652,-222.061783,612.876398
3726.654559,-8882.471304,-592.164754,76.609550
3726.654888,-9104.533087,222.061783,612.876398
3726.655218,-10807.006753,1036.288319,1762.019645
3726.655548,-11325.150913,222.061783,919.314598
3726.655878,-9844.739029,444.123565,-229.828649
3726.656208,-9770.718434,0.000000,-1072.533697
3726.656537,-10066.800811,444.123565,-1302.362347
3726.656867,-9622.677246,222.061783,-995.924147
3726.657197,-8586.388927,74.020594,-383.047749
3726.657527,-7698.141797,296.082377,-842.705048
3726.657857,-9844.739029,370.102971,-919.314598
3726.658187,-10362.883188,370.102971,-766.095498
3726.658516,-9992.780217,0.000000,76.609550
3726.658846,-9844.739029,222.061783,0.000000
3726.659176,-9622.677246,-222.061783,-306.438199
3726.659506,-9844.739029,148.041188,383.047749
3726.659836,-8660.409521,-370.102971,153.219100
3726.660166,-9548.656652,444.123565,0.000000
3726.660495,-10436.903782,296.082377,-459.657299
3726.660825,-9770.718434,444.123565,-383.047749
3726.661155,-9548.656652,296.082377,0.000000
3726.661485,-9992.780217,962.267725,0.000000
3726.661815,-10288.862594,888.247130,0.000000
3726.662144,-9918.759623,1110.308913,0.000000
3726.662474,-9770.718434,740.205942,-1532.190996
3726.662804,-9992.780217,814.226536,-689.485948
3726.663134,-10436.903782,222.061783,306.438199
3726.663464,-9474.636058,592.164754,1149.143247
3726.663794,-9548.656652,74.020594,1225.752797
3726.664123,-10214.842000,518.144159,383.047749
3726.664453,-10510.924376,0.000000,919.314598
3726.664783,-10066.800811,0.000000,1532.190996
3726.665113,-9622.677246,-592.164754,1378.971896
3726.665443,-9622.677246,74.020594,1455.581446
3726.665773,-9252.574275,-592.164754,1455.581446
3726.666102,-8586.388927,-740.205942,1685.410096
3726.666432,-9030.512492,-740.205942,1915.238745
3726.666762,-10362.883188,0.000000,1532.190996
3726.667092,-10584.944971,0.000000,1149.143247
3726.667422,-9178.553681,-370.102971,153.219100
3726.667752,-9178.553681,0.000000,0.000000
3726.668081,-10362.883188,0.000000,459.657299
3726.668411,-10732.986159,-518.144159,689.485948
3726.668741,-9622.677246,-518.144159,153.219100
3726.669071,-9400.615463,0.000000,0.000000
3726.669401,-9992.780217,0.000000,-306.438199
3726.669730,-9474.636058,0.000000,229.828649
3726.670060,-9178.553681,-296.082377,-306.438199
3726.670390,-9622.677246,518.144159,0.000000
3726.670720,-10955.047942,222.061783,0.000000
3726.671050,-10881.027347,74.020594,459.657299
3726.671380,-9474.636058,-444.123565,-383.047749
3726.671709,-9400.615463,-444.123565,-306.438199
3726.672039,-9918.759623,-444.123565,-919.314598
3726.672369,-9918.759623,-148.041188,-459.657299
3726.672699,-9844.739029,0.000000,-689.485948
3726.673029,-9770.718434,222.061783,-842.705048
3726.673359,-10288.862594,-666.185348,-536.266849
3726.673688,-8734.430116,-148.041188,0.000000
3726.674018,-8956.491898,0.000000,153.219100
3726.674348,-10584.944971,518.144159,0.000000
3726.674678,-10955.047942,222.061783,-76.609550
3726.675008,-10140.821405,74.020594,76.609550
3726.675337,-9400.615463,0.000000,-689.485948
3726.675667,-9844.739029,370.102971,0.000000
3726.675997,-10288.862594,0.000000,76.609550
3726.676327,-9474.636058,-148.041188,0.000000
3726.676657,-8586.388927,0.000000,0.000000
3726.676987,-9992.780217,148.041188,306.438199
3726.677316,-10510.924376,-444.123565,919.314598
3726.677646,-9622.677246,-296.082377,1455.581446
3726.677976,-8956.491898,0.000000,842.705048
3726.678306,-9252.574275,148.041188,766.095498
3726.678636,-9548.656652,-370.102971,1149.143247
3726.678966,-9696.697840,148.041188,1532.190996
3726.679295,-10288.862594,74.020594,1455.581446
3726.679625,-10362.883188,296.082377,1302.362347
3726.679955,-9918.759623,0.000000,229.828649
3726.680285,-9252.574275,-444.123565,-229.828649
3726.680615,-9474.636058,74.020594,76.609550
3726.680944,-10214.842000,296.082377,-306.438199
3726.681274,-9474.636058,-222.061783,0.000000
3726.681604,-9178.553681,148.041188,-306.438199
3726.681934,-9400.615463,74.020594,0.000000
3726.682264,-10584.944971,296.082377,-842.705048
3726.682594,-10288.862594,370.102971,-383.047749
3726.682923,-9474.636058,-74.020594,-383.047749
3726.683253,-9400.615463,74.020594,-612.876398
3726.683583,-10510.924376,-222.061783,-766.095498
3726.683913,-9622.677246,-444.123565,-689.485948
3726.684243,-8808.450710,-370.102971,-153.219100
3726.684573,-9548.656652,148.041188,306.438199
3726.684902,-10584.944971,0.000000,306.438199
3726.685232,-10140.821405,444.123565,-76.609550
3726.685562,-9178.553681,0.000000,-459.657299
3726.685892,-9548.656652,888.247130,-689.485948
3726.686222,-10362.883188,370.102971,-536.266849
3726.686551,-9844.739029,1036.288319,-229.828649
3726.686881,-9770.718434,296.082377,459.657299
3726.687211,-10436.903782,518.144159,0.000000
3726.687541,-10362.883188,222.061783,-459.657299
3726.687871,-9104.533087,-222.061783,-383.047749
3726.688201,-8438.347739,0.000000,229.828649
3726.688530,-9548.656652,814.226536,1838.629195
3726.688860,-11473.192101,592.164754,1838.629195
3726.689190,-10510.924376,518.144159,536.266849
3726.689520,-9474.636058,296.082377,0.000000
3726.689850,-10140.821405,148.041188,229.828649
3726.690180,-10066.800811,74.020594,1302.362347
3726.690509,-9104.533087,-222.061783,1915.238745
3726.690839,-8660.409521,0.000000,1302.362347
3726.691169,-9474.636058,518.144159,536.266849
3726.691499,-9992.780217,-74.020594,76.609550
3726.691829,-9400.615463,-296.082377,383.047749
3726.692158,-9844.739029,222.061783,1378.971896
3726.692488,-10881.027347,444.123565,2451.505594
3726.692818,-10658.965565,74.020594,2451.505594
3726.693148,-9474.636058,0.000000,1302.362347
3726.693478,-9252.574275,0.000000,0.000000
3726.693808,-9918.759623,0.000000,-459.657299
3726.694137,-9548.656652,74.020594,0.000000
3726.694467,-9104.533087,222.061783,536.266849
3726.694797,-9622.677246,148.041188,383.047749
3726.695127,-10510.924376,370.102971,76.609550
3726.695457,-10658.965565,148.041188,-306.438199
3726.695787,-9474.636058,0.000000,-1225.752797
3726.696116,-8882.471304,74.020594,-1072.533697
3726.696446,-9474.636058,148.041188,0.000000
3726.696776,-9178.553681,0.000000,459.657299
3726.697106,-9104.533087,0.000000,0.000000
3726.697436,-9844.739029,74.020594,-995.924147
3726.697766,-10807.006753,74.020594,-1762.019645
3726.698095,-10510.924376,222.061783,-842.705048
3726.698425,-9030.512492,-814.226536,0.000000
3726.698755,-8586.388927,74.020594,919.314598
3726.699085,-9474.636058,0.000000,689.485948
3726.699415,-9400.615463,444.123565,229.828649
3726.699744,-10066.800811,0.000000,-1149.143247
3726.700074,-10362.883188,444.123565,-1762.019645
3726.700404,-9696.697840,0.000000,-612.876398
3726.700734,-9030.512492,74.020594,766.095498
3726.701064,-9178.553681,0.000000,536.266849
3726.701394,-9844.739029,370.102971,842.705048
3726.701723,-10510.924376,222.061783,0.000000
3726.702053,-10066.800811,0.000000,-536.266849
3726.702383,-10510.924376,74.020594,459.657299
3726.702713,-10807.006753,296.082377,1072.533697
3726.703043,-9992.780217,-518.144159,1072.533697
3726.703373,-8290.306550,0.000000,1915.238745
3726.703702,-9770.718434,0.000000,1302.362347
3726.704032,-11547.212695,74.020594,766.095498
3726.704362,-10584.944971,0.000000,383.047749
3726.704692,-9252.574275,0.000000,1149.143247
3726.705022,-9252.574275,0.000000,1915.238745
3726.705351,-9918.759623,0.000000,1685.410096
3726.705681,-10066.800811,-444.123565,1225.752797
3726.706011,-8808.450710,-370.102971,919.314598
3726.706341,-9548.656652,74.020594,1149.143247
3726.706671,-11769.274478,814.226536,842.705048
3726.707001,-11621.233289,-518.144159,383.047749
3726.707330,-9178.553681,-592.164754,-229.828649
3726.707660,-7920.203579,-518.144159,-383.047749
3726.707990,-9252.574275,444.123565,-459.657299
3726.708320,-9844.739029,0.000000,229.828649
3726.708650,-9178.553681,-148.041188,-459.657299
3726.708980,-9104.533087,444.123565,-766.095498
3726.709309,-10362.883188,74.020594,-229.828649
3726.709639,-10881.027347,0.000000,383.047749
3726.709969,-9178.553681,-592.164754,153.219100
3726.710299,-8438.347739,0.000000,0.000000
3726.710629,-9400.615463,0.000000,-536.266849
3726.710958,-10066.800811,0.000000,-766.095498
3726.711288,-9992.780217,-666.185348,153.219100
3726.711618,-10066.800811,666.185348,766.095498
3726.711948,-9474.636058,370.102971,842.705048
3726.712278,-8438.347739,222.061783,-153.219100
3726.712608,-8364.327145,148.041188,-612.876398
3726.712937,-10288.862594,1332.370696,0.000000
3726.713267,-11695.253884,1184.329507,0.000000
3726.713597,-10584.944971,740.205942,-612.876398
3726.713927,-9770.718434,518.144159,0.000000
3726.714257,-9844.739029,666.185348,766.095498
3726.714587,-10658.965565,148.041188,995.924147
3726.714916,-9696.697840,74.020594,689.485948
3726.715246,-8956.491898,74.020594,0.000000
3726.715576,-9474.636058,148.041188,229.828649
3726.715906,-10140.821405,444.123565,1915.238745
3726.716236,-10066.800811,74.020594,2604.724693
3726.716565,-9178.553681,74.020594,2145.067394
3726.716895,-9252.574275,444.123565,612.876398
3726.717225,-9326.594869,-148.041188,-612.876398
3726.717555,-9104.533087,0.000000,689.485948
3726.717885,-10807.006753,148.041188,1838.629195
3726.718215,-11547.212695,518.144159,1608.800546
3726.718544,-10362.883188,296.082377,842.705048
3726.718874,-9030.512492,-296.082377,0.000000
3726.719204,-9326.594869,74.020594,-536.266849
3726.719534,-10436.903782,148.041188,-153.219100
3726.719864,-9844.739029,0.000000,229.828649
3726.720194,-8586.388927,370.102971,-383.047749
3726.720523,-9252.574275,888.247130,-766.095498
3726.720853,-10584.944971,370.102971,-1455.581446
3726.721183,-10436.903782,74.020594,-1225.752797
3726.721513,-9400.615463,-666.185348,-919.314598
3726.721843,-9104.533087,-222.061783,229.828649
3726.722173,-10436.903782,-1036.288319,536.266849
3726.722502,-9622.677246,-814.226536,919.314598
3726.722832,-9030.512492,-962.267725,0.000000
3726.723162,-9918.759623,0.000000,-919.314598
3726.723492,-10436.903782,-370.102971,-1225.752797
3726.723822,-10510.924376,0.000000,-76.609550
3726.724151,-9104.533087,-444.123565,459.657299
3726.724481,-9178.553681,222.061783,383.047749
3726.724811,-9918.759623,-148.041188,-306.438199
3726.725141,-9918.759623,222.061783,-459.657299
3726.725471,-9696.697840,0.000000,-383.047749
3726.725801,-10881.027347,740.205942,-383.047749
3726.726130,-11251.130318,0.000000,-229.828649
3726.726460,-9844.739029,-444.123565,153.219100
3726.726790,-9030.512492,-518.144159,842.705048
3726.727120,-9918.759623,444.123565,1378.971896
3726.727450,-10807.006753,0.000000,1072.533697
3726.727780,-8808.450710,0.000000,306.438199
3726.728109,-8364.327145,0.000000,229.828649
3726.728439,-9770.718434,444.123565,689.485948
3726.728769,-11103.089130,74.020594,1302.362347
3726.729099,-10288.862594,-222.061783,1378.971896
3726.729429,-9252.574275,-740.205942,459.657299
3726.729758,-8882.471304,-666.185348,689.485948
3726.730088,-9252.574275,-962.267725,1225.752797
3726.730418,-9104.533087,-444.123565,1455.581446
3726.730748,-9400.615463,-296.082377,1685.410096
3726.731078,-10510.924376,148.041188,766.095498
3726.731408,-10214.842000,0.000000,459.657299
3726.731737,-9696.697840,-814.226536,76.609550
3726.732067,-9030.512492,-740.205942,536.266849
3726.732397,-9548.656652,-444.123565,1072.533697
3726.732727,-9400.615463,-296.082377,689.485948
3726.733057,-8734.430116,0.000000,0.000000
3726.733387,-10066.800811,444.123565,0.000000
3726.733716,-11621.233289,666.185348,-1149.143247
3726.734046,-10955.047942,444.123565,-995.924147
3726.734376,-9474.636058,-296.082377,-689.485948
3726.734706,-9474.636058,0.000000,0.000000
3726.735036,-9548.656652,-740.205942,766.095498
3726.735365,-8882.471304,-296.082377,229.828649
3726.735695,-8586.388927,0.000000,-383.047749
3726.736025,-10288.862594,888.247130,-995.924147
3726.736355,-11843.295072,888.247130,-1532.190996
3726.736685,-10510.924376,296.082377,-536.266849
3726.737015,-9474.636058,0.000000,-536.266849
3726.737344,-9326.594869,592.164754,0.000000
3726.737674,-10066.800811,-222.061783,689.485948
3726.738004,-9178.553681,222.061783,153.219100
3726.738334,-9252.574275,444.123565,0.000000
3726.738664,-10214.842000,814.226536,-842.705048
3726.738994,-10436.903782,444.123565,-306.438199
3726.739323,-9770.718434,148.041188,383.047749
3726.739653,-8660.409521,-370.102971,1149.143247
3726.739983,-9770.718434,518.144159,1455.581446
3726.740313,-10436.903782,518.144159,919.314598
3726.740643,-9030.512492,888.247130,153.219100
3726.740972,-9104.533087,444.123565,76.609550
3726.741302,-10140.821405,1110.308913,536.266849
3726.741632,-10807.006753,518.144159,1149.143247
3726.741962,-10510.924376,444.123565,229.828649
3726.742292,-9030.512492,0.000000,306.438199
3726.742622,-9178.553681,222.061783,536.266849
3726.742951,-9992.780217,148.041188,1685.410096
3726.743281,-9622.677246,370.102971,2145.067394
3726.743611,-9918.759623,666.185348,1685.410096
3726.743941,-10140.821405,222.061783,536.266849
3726.744271,-9918.759623,222.061783,459.657299
3726.744601,-9474.636058,-74.020594,536.266849
3726.744930,-9474.636058,444.123565,842.705048
3726.745260,-9844.739029,0.000000,766.095498
3726.745590,-10362.883188,0.000000,383.047749
3726.745920,-9474.636058,0.000000,153.219100
3726.746250,-9844.739029,444.123565,-306.438199
3726.746579,-10584.944971,148.041188,-306.438199
3726.746909,-10140.821405,222.061783,0.000000
3726.747239,-9400.615463,-740.205942,-229.828649
3726.747569,-9474.636058,148.041188,0.000000
3726.747899,-10732.986159,-222.061783,-536.266849
3726.748229,-10510.924376,-74.020594,459.657299
3726.748558,-9696.697840,0.000000,459.657299
3726.748888,-10140.821405,296.082377,-383.047749
3726.749218,-10140.821405,-370.102971,-1532.190996
3726.749548,-9400.615463,-592.164754,-919.314598
3726.749878,-8734.430116,-444.123565,-1072.533697
3726.750208,-9252.574275,0.000000,-459.657299
3726.750537,-9548.656652,-962.267725,-229.828649
3726.750867,-8586.388927,-296.082377,0.000000
3726.751197,-9030.512492,0.000000,0.000000
3726.751527,-10510.924376,0.000000,-459.657299
3726.751857,-10807.006753,-370.102971,-383.047749
3726.752186,-9622.677246,-370.102971,-383.047749
3726.752516,-9104.533087,-740.205942,536.266849
3726.752846,-10214.842000,0.000000,1302.362347
3726.753176,-10362.883188,-962.267725,995.924147
3726.753506,-8586.388927,0.000000,306.438199
3726.753835,-8808.450710,74.020594,76.609550
3726.754165,-10584.944971,592.164754,0.000000
3726.754495,-10214.842000,0.000000,383.047749
3726.754825,-9770.718434,-148.041188,1225.752797
3726.755155,-9474.636058,222.061783,919.314598
3726.755485,-10140.821405,0.000000,1072.533697
3726.755814,-9844.739029,-296.082377,995.924147
3726.756144,-8808.450710,-148.041188,1991.848295
3726.756474,-9844.739029,148.041188,2221.676944
3726.756804,-10732.986159,370.102971,1149.143247
3726.757134,-10584.944971,74.020594,459.657299
3726.757463,-9918.759623,-370.102971,995.924147
3726.757793,-9918.759623,148.041188,689.485948
3726.758123,-10584.944971,-592.164754,536.266849
3726.758453,-9178.553681,-592.164754,689.485948
3726.758783,-7772.162391,-222.061783,536.266849
3726.759112,-9178.553681,518.144159,459.657299
3726.759442,-11695.253884,518.144159,229.828649
3726.759772,-10807.006753,222.061783,153.219100
3726.760102,-9696.697840,-222.061783,-459.657299
3726.760432,-9770.718434,370.102971,-536.266849
3726.760762,-10066.800811,-740.205942,0.000000
3726.761091,-9252.574275,0.000000,536.266849
3726.761421,-8734.430116,74.020594,0.000000
3726.761751,-10140.821405,1332.370696,-842.705048
3726.762081,-10881.027347,370.102971,-1608.800546
3726.762411,-10362.883188,592.164754,-1072.533697
3726.762740,-9696.697840,0.000000,-612.876398
3726.763070,-9622.677246,518.144159,842.705048
3726.763400,-9474.636058,-592.164754,76.609550
3726.763730,-8660.409521,74.020594,-306.438199
3726.764060,-8956.491898,0.000000,-689.485948
3726.764390,-10658.965565,814.226536,-995.924147
3726.764719,-10881.027347,1036.288319,-766.095498
3726.765049,-10288.862594,592.164754,-153.219100
3726.765379,-9992.780217,370.102971,76.609550
3726.765709,-9918.759623,222.061783,459.657299
3726.766039,-10436.903782,-222.061783,306.438199
3726.766368,-9104.533087,-148.041188,306.438199
3726.766698,-9030.512492,-148.041188,536.266849
3726.767028,-9696.697840,518.144159,306.438199
3726.767358,-9622.677246,740.205942,1149.143247
3726.767688,-9992.780217,74.020594,995.924147
3726.768017,-10732.986159,518.144159,995.924147
3726.768347,-10881.027347,518.144159,919.314598
3726.768677,-10214.842000,0.000000,995.924147
3726.769007,-8808.450710,222.061783,1762.019645
3726.769337,-10066.800811,740.205942,2068.457845
3726.769667,-11103.089130,518.144159,1378.971896
3726.769996,-9696.697840,444.123565,153.219100
3726.770326,-8364.327145,-148.041188,-612.876398
3726.770656,-9326.594869,74.020594,-306.438199
3726.770986,-10732.986159,-222.061783,383.047749
3726.771316,-9400.615463,-444.123565,842.705048
3726.771645,-8586.388927,-666.185348,766.095498
3726.771975,-9696.697840,296.082377,842.705048
3726.772305,-11399.171507,74.020594,0.000000
3726.772635,-10807.006753,0.000000,0.000000
3726.772965,-9178.553681,-518.144159,-229.828649
3726.773294,-9030.512492,-518.144159,766.095498
3726.773624,-10140.821405,-1110.308913,1378.971896
3726.773954,-9326.594869,-444.123565,1378.971896
3726.774284,-8734.430116,-740.205942,766.095498
3726.774614,-9918.759623,222.061783,-536.266849
3726.774944,-10807.006753,-148.041188,-1378.971896
3726.775273,-10288.862594,222.061783,-1072.533697
3726.775603,-9030.512492,-518.144159,-536.266849
3726.775933,-9326.594869,296.082377,76.609550
3726.776263,-9992.780217,-592.164754,-153.219100
3726.776593,-9104.533087,-370.102971,-459.657299
3726.776922,-9252.574275,0.000000,-153.219100
3726.777252,-10584.944971,1036.288319,153.219100
3726.777582,-10807.006753,222.061783,76.609550
3726.777912,-9622.677246,0.000000,536.266849
3726.778242,-9622.677246,0.000000,536.266849
3726.778572,-10140.821405,296.082377,153.219100
3726.778901,-10510.924376,-444.123565,153.219100
3726.779231,-9548.656652,-518.144159,0.000000
3726.779561,-9178.553681,0.000000,383.047749
3726.779891,-9992.780217,-148.041188,153.219100
3726.780221,-9326.594869,0.000000,995.924147
3726.780550,-9178.553681,-222.061783,1072.533697
3726.780880,-9326.594869,-148.041188,612.876398
3726.781210,-10140.821405,0.000000,842.705048
3726.781540,-9844.739029,0.000000,1762.019645
3726.781870,-9326.594869,74.020594,1532.190996
3726.782199,-10140.821405,222.061783,2068.457845
3726.782529,-10955.047942,0.000000,1225.752797
3726.782859,-10140.821405,0.000000,995.924147
3726.783189,-9400.615463,-518.144159,0.000000
3726.783519,-9622.677246,444.123565,612.876398
3726.783849,-10658.965565,0.000000,1072.533697
3726.784178,-9696.697840,-148.041188,842.705048
3726.784508,-8956.491898,74.020594,995.924147
3726.784838,-9696.697840,518.144159,459.657299
3726.785168,-11251.130318,74.020594,459.657299
3726.785498,-10140.821405,444.123565,383.047749
3726.785827,-9178.553681,-296.082377,612.876398
3726.786157,-9770.718434,444.123565,153.219100
3726.786487,-10807.006753,-148.041188,0.000000
3726.786817,-9548.656652,222.061783,0.000000
3726.787147,-8734.430116,0.000000,-842.705048
3726.787477,-9844.739029,740.205942,-1072.533697
3726.787806,-10881.027347,296.082377,-536.266849
3726.788136,-10436.903782,592.164754,-76.609550
3726.788466,-9104.533087,148.041188,-76.609550
3726.788796,-9474.636058,370.102971,-229.828649
3726.789126,-9696.697840,-296.082377,-766.095498
3726.789455,-9252.574275,222.061783,-459.657299
3726.789785,-9030.512492,0.000000,0.000000
3726.790115,-9918.759623,814.226536,76.609550
3726.790445,-10362.883188,444.123565,306.438199
3726.790775,-9844.739029,370.102971,229.828649
3726.791104,-9548.656652,222.061783,-153.219100
3726.791434,-10362.883188,518.144159,0.000000
3726.791764,-10658.965565,222.061783,0.000000
3726.792094,-8882.471304,518.144159,459.657299
3726.792424,-8438.347739,444.123565,383.047749
3726.792754,-9548.656652,962.267725,306.438199
3726.793083,-10140.821405,962.267725,612.876398
3726.793413,-10584.944971,1110.308913,383.047749
3726.793743,-10362.883188,740.205942,0.000000
3726.794073,-10510.924376,518.144159,153.219100
3726.794403,-9548.656652,0.000000,1378.971896
3726.794732,-9104.533087,-222.061783,2068.457845
3726.795062,-9548.656652,148.041188,2374.896044
3726.795392,-9844.739029,74.020594,2145.067394
3726.795722,-9844.739029,148.041188,1378.971896
3726.796052,-9400.615463,148.041188,689.485948
3726.796381,-9770.718434,740.205942,842.705048
3726.796711,-11325.150913,148.041188,919.314598
3726.797041,-10140.821405,370.102971,536.266849
3726.797371,-9400.615463,0.000000,536.266849
3726.797701,-9918.759623,0.000000,0.000000
3726.798031,-10584.944971,-148.041188,-459.657299
3726.798360,-9770.718434,0.000000,-306.438199
3726.798690,-8660.409521,-370.102971,-76.609550
3726.799020,-9696.697840,74.020594,0.000000
3726.799350,-10510.924376,-444.123565,-153.219100
3726.799680,-9400.615463,-444.123565,-306.438199
3726.800009,-9474.636058,0.000000,612.876398
3726.800339,-9844.739029,74.020594,459.657299
3726.800669,-9844.739029,-518.144159,-229.828649
3726.800999,-9104.533087,74.020594,0.000000
3726.801329,-9178.553681,-148.041188,0.000000
3726.801659,-11103.089130,666.185348,-306.438199
3726.801988,-11103.089130,-592.164754,-306.438199
3726.802318,-9326.594869,-592.164754,-612.876398
3726.802648,-8438.347739,-814.226536,-689.485948
3726.802978,-9622.677246,0.000000,-689.485948
3726.803308,-9622.677246,-740.205942,0.000000
3726.803637,-9474.636058,-962.267725,-229.828649
3726.803967,-8512.368333,0.000000,-689.485948
3726.804297,-9918.759623,1036.288319,0.000000
3726.804627,-10807.006753,-370.102971,0.000000
3726.804957,-9400.615463,-518.144159,0.000000
3726.805286,-9770.718434,-444.123565,842.705048
3726.805616,-10955.047942,-444.123565,995.924147
3726.805946,-10362.883188,-962.267725,536.266849
3726.806276,-8660.409521,-1406.391290,229.828649
3726.806606,-8438.347739,-222.061783,-306.438199
3726.806936,-10288.862594,-518.144159,229.828649
3726.807265,-10066.800811,-74.020594,536.266849
3726.807595,-9178.553681,-444.123565,1225.752797
3726.807925,-10362.883188,0.000000,1532.190996
3726.808255,-11177.109724,-444.123565,1072.533697
3726.808585,-10658.965565,-296.082377,76.609550
3726.808914,-8956.491898,-296.082377,-536.266849
3726.809244,-9104.533087,-222.061783,229.828649
3726.809574,-10436.903782,0.000000,306.438199
3726.809904,-9548.656652,0.000000,459.657299
3726.810234,-9474.636058,0.000000,689.485948
3726.810564,-10807.006753,222.061783,229.828649
3726.810893,-10732.986159,-222.061783,306.438199
3726.811223,-9622.677246,0.000000,995.924147
3726.811553,-8290.306550,-592.164754,306.438199
3726.811883,-9326.594869,444.123565,383.047749
3726.812213,-10807.006753,0.000000,229.828649
3726.812542,-9992.780217,74.020594,-306.438199
3726.812872,-8882.471304,-74.020594,-459.657299
3726.813202,-10214.842000,666.185348,0.000000
3726.813532,-10510.924376,74.020594,0.000000
3726.813862,-9400.615463,0.000000,842.705048
3726.814191,-8364.327145,-222.061783,0.000000
3726.814521,-9992.780217,814.226536,306.438199
3726.814851,-10584.944971,0.000000,0.000000
3726.815181,-9326.594869,148.041188,0.000000
3726.815511,-8660.409521,370.102971,459.657299
3726.815841,-10214.842000,888.247130,459.657299
3726.816170,-10584.944971,222.061783,766.095498
3726.816500,-9474.636058,518.144159,153.219100
3726.816830,-8660.409521,518.144159,-306.438199
3726.817160,-10214.842000,1406.391290,-612.876398
3726.817490,-11029.068536,814.226536,-76.609550
3726.817819,-9770.718434,740.205942,-459.657299
3726.818149,-8882.471304,740.205942,-1072.533697
3726.818479,-9252.574275,814.226536,-766.095498
3726.818809,-9844.739029,592.164754,383.047749
3726.819139,-9770.718434,222.061783,1532.190996
3726.819468,-9400.615463,444.123565,1532.190996
3726.819798,-10066.800811,296.082377,1915.238745
3726.820128,-9548.656652,148.041188,1072.533697
3726.820458,-9622.677246,222.061783,1608.800546
3726.820788,-9992.780217,370.102971,1608.800546
3726.821118,-11029.068536,518.144159,1532.190996
3726.821447,-9844.739029,148.041188,1149.143247
3726.821777,-9252.574275,0.000000,0.000000
3726.822107,-9696.697840,666.185348,0.000000
3726.822437,-10807.006753,74.020594,306.438199
3726.822767,-9696.697840,296.082377,536.266849
3726.823096,-9104.533087,0.000000,766.095498
3726.823426,-9696.697840,592.164754,612.876398
3726.823756,-10510.924376,148.041188,612.876398
3726.824086,-10436.903782,370.102971,842.705048
3726.824416,-10214.842000,296.082377,-153.219100
3726.824746,-10584.944971,814.226536,229.828649
3726.825075,-10658.965565,0.000000,0.000000
3726.825405,-9400.615463,74.020594,-689.485948
3726.825735,-8734.430116,-222.061783,-689.485948
3726.826065,-9992.780217,370.102971,-689.485948
3726.826395,-10288.862594,0.000000,-612.876398
3726.826724,-8956.491898,-370.102971,-612.876398
3726.827054,-8734.430116,-592.164754,0.000000
3726.827384,-10362.883188,0.000000,536.266849
3726.827714,-10436.903782,-1036.288319,612.876398
3726.828044,-9178.553681,-370.102971,383.047749
3726.828373,-9252.574275,0.000000,306.438199
3726.828703,-10584.944971,0.000000,-306.438199
3726.829033,-10362.883188,-222.061783,-536.266849
3726.829363,-9178.553681,0.000000,306.438199
3726.829693,-9178.553681,-296.082377,0.000000
3726.830023,-10214.842000,0.000000,0.000000
3726.830352,-10362.883188,-518.144159,-689.485948
3726.830682,-9326.594869,-296.082377,-1225.752797
3726.831012,-9178.553681,-222.061783,-1072.533697
3726.831342,-9548.656652,0.000000,76.609550
3726.831672,-10140.821405,-222.061783,612.876398
3726.832001,-10510.924376,-222.061783,1072.533697
3726.832331,-10362.883188,-222.061783,689.485948
3726.832661,-11177.109724,0.000000,842.705048
3726.832991,-9918.759623,-444.123565,383.047749
3726.833321,-8956.491898,-592.164754,1532.190996
3726.833651,-9548.656652,0.000000,1608.800546
3726.833980,-9770.718434,-222.061783,919.314598
3726.834310,-9622.677246,-148.041188,0.000000
3726.834640,-9030.512492,-740.205942,-383.047749
3726.834970,-10214.842000,296.082377,76.609550
3726.835300,-11695.253884,74.020594,766.095498
3726.835629,-10362.883188,0.000000,459.657299
3726.835959,-9030.512492,-666.185348,842.705048
3726.836289,-9622.677246,0.000000,459.657299
3726.836619,-10732.986159,-370.102971,536.266849
3726.836949,-10140.821405,0.000000,689.485948
3726.837278,-9474.636058,-222.061783,0.000000
3726.837608,-9548.656652,0.000000,-76.609550
3726.837938,-10658.965565,-444.123565,306.438199
3726.838268,-9696.697840,0.000000,612.876398
3726.838598,-9326.594869,0.000000,0.000000
3726.838928,-8364.327145,148.041188,-153.219100
3726.839257,-8956.491898,0.000000,0.000000
3726.839587,-9104.533087,740.205942,229.828649
3726.839917,-9178.553681,148.041188,306.438199
3726.840247,-10807.006753,814.226536,-383.047749
3726.840577,-10510.924376,370.102971,-919.314598
3726.840906,-9844.739029,444.123565,-383.047749
3726.841236,-9252.574275,222.061783,-153.219100
3726.841566,-10288.862594,518.144159,-306.438199
3726.841896,-10066.800811,888.247130,383.047749
3726.842226,-9030.512492,592.164754,76.609550
3726.842555,-8808.450710,888.247130,-1072.533697
3726.842885,-9992.780217,814.226536,306.438199
3726.843215,-10436.903782,518.144159,229.828649
3726.843545,-9844.739029,666.185348,153.219100
3726.843875,-9918.759623,1184.329507,153.219100
3726.844205,-10807.006753,814.226536,459.657299
3726.844534,-9770.718434,0.000000,459.657299
3726.844864,-8956.491898,-296.082377,766.095498
3726.845194,-8660.409521,370.102971,383.047749
3726.845524,-10140.821405,444.123565,612.876398
3726.845854,-10288.862594,740.205942,1072.533697
3726.846183,-9696.697840,592.164754,1455.581446
3726.846513,-10362.883188,888.247130,842.705048
3726.846843,-11029.068536,666.185348,1072.533697
3726.847173,-10288.862594,444.123565,383.047749
3726.847503,-9104.533087,-148.041188,229.828649
3726.847832,-9548.656652,444.123565,0.000000
3726.848162,-10140.821405,444.123565,0.000000
3726.848492,-9548.656652,148.041188,0.000000
3726.848822,-8660.409521,0.000000,0.000000
3726.849152,-9918.759623,666.185348,-383.047749
3726.849481,-11103.089130,-222.061783,0.000000
3726.849811,-10436.903782,-222.061783,919.314598
3726.850141,-9844.739029,-814.226536,536.266849
3726.850471,-9104.533087,-370.102971,0.000000
3726.850800,-9474.636058,-814.226536,0.000000
3726.851130,-9030.512492,-518.144159,-229.828649
3726.851460,-9030.512492,-740.205942,-612.876398
3726.851790,-10140.821405,0.000000,-536.266849
3726.852120,-10362.883188,-740.205942,-689.485948
3726.852449,-9770.718434,-518.144159,536.266849
3726.852779,-9104.533087,-814.226536,153.219100
3726.853109,-9696.697840,-814.226536,153.219100
3726.853439,-9696.697840,-1480.411884,0.000000
3726.853769,-8290.306550,-740.205942,229.828649
3726.854098,-8956.491898,-592.164754,229.828649
3726.854428,-10436.903782,0.000000,459.657299
3726.854758,-11251.130318,-370.102971,995.924147
3726.855088,-10140.821405,-370.102971,842.705048
3726.855417,-9474.636058,0.000000,-306.438199
3726.855747,-10066.800811,-296.082377,-459.657299
3726.856077,-9992.780217,-222.061783,0.000000
3726.856407,-8956.491898,-296.082377,76.609550
3726.856737,-9252.574275,740.205942,-689.485948
3726.857066,-10214.842000,370.102971,-766.095498
3726.857396,-10066.800811,74.020594,-306.438199
3726.857726,-9844.739029,74.020594,76.609550
3726.858056,-9770.718434,296.082377,612.876398
3726.858385,-10658.965565,-222.061783,766.095498
3726.858715,-9548.656652,-222.061783,766.095498
3726.859045,-9400.615463,-222.061783,1378.971896
3726.859375,-9992.780217,148.041188,1378.971896
3726.859705,-11103.089130,0.000000,1302.362347
3726.860034,-10214.842000,148.041188,1378.971896
3726.860364,-9326.594869,0.000000,1225.752797
3726.860694,-10140.821405,740.205942,919.314598
3726.861024,-10881.027347,148.041188,919.314598
3726.861354,-9696.697840,444.123565,612.876398
3726.861683,-9104.533087,370.102971,229.828649
3726.862013,-9844.739029,1184.329507,-1149.143247
3726.862343,-10732.986159,444.123565,-1072.533697
3726.862673,-9696.697840,592.164754,-306.438199
3726.863002,-8808.450710,0.000000,0.000000
3726.863332,-9770.718434,370.102971,459.657299
3726.863662,-10732.986159,0.000000,842.705048
3726.863992,-9474.636058,74.020594,689.485948
3726.864322,-8660.409521,222.061783,689.485948
3726.864651,-9548.656652,1036.288319,0.000000
3726.864981,-9770.718434,518.144159,0.000000
3726.865311,-9326.594869,740.205942,536.266849
3726.865641,-9252.574275,518.144159,536.266849
3726.865970,-10140.821405,1110.308913,76.609550
3726.866300,-9770.718434,0.000000,-306.438199
3726.866630,-8290.306550,296.082377,0.000000
3726.866960,-8438.347739,148.041188,-76.609550
3726.867290,-10658.965565,740.205942,0.000000
3726.867619,-10140.821405,370.102971,153.219100
3726.867949,-8956.491898,148.041188,689.485948
3726.868279,-9326.594869,666.185348,0.000000
3726.868609,-10584.944971,444.123565,306.438199
3726.868938,-10732.986159,666.185348,612.876398
3726.869268,-9178.553681,888.247130,842.705048
3726.869598,-9548.656652,962.267725,76.609550
3726.869928,-11621.233289,1110.308913,-383.047749
3726.870258,-11695.253884,740.205942,-612.876398
3726.870587,-9992.780217,-296.082377,-689.485948
3726.870917,-9252.574275,0.000000,0.000000
3726.871247,-9548.656652,-518.144159,842.705048
3726.871577,-9252.574275,-296.082377,1455.581446
3726.871907,-8068.244768,-370.102971,1072.533697
3726.872236,-9548.656652,518.144159,536.266849
3726.872566,-11251.130318,0.000000,306.438199
3726.872896,-10584.944971,0.000000,689.485948
3726.873226,-10140.821405,-222.061783,612.876398
3726.873555,-10362.883188,0.000000,689.485948
3726.873885,-11103.089130,-1332.370696,919.314598
3726.874215,-9030.512492,-666.185348,995.924147
3726.874545,-7698.141797,-740.205942,612.876398
3726.874875,-9400.615463,222.061783,-383.047749
3726.875204,-10584.944971,74.020594,-689.485948
3726.875534,-10807.006753,148.041188,-766.095498
3726.875864,-10066.800811,-666.185348,-1225.752797
3726.876194,-10066.800811,-148.041188,-766.095498
3726.876523,-9622.677246,-1406.391290,306.438199
3726.876853,-8290.306550,-518.144159,1072.533697
3726.877183,-8438.347739,-814.226536,689.485948
3726.877513,-10732.986159,0.000000,0.000000
3726.877843,-11029.068536,-444.123565,-153.219100
3726.878172,-10732.986159,-518.144159,306.438199
3726.878502,-10066.800811,-1036.288319,459.657299
3726.878832,-10436.903782,-370.102971,919.314598
3726.879162,-9030.512492,-1628.453072,689.485948
3726.879492,-7254.018232,0.000000,919.314598
3726.879821,-8734.430116,-148.041188,-536.266849
3726.880151,-10510.924376,148.041188,-995.924147
3726.880481,-11473.192101,962.267725,-153.219100
3726.880811,-10955.047942,592.164754,306.438199
3726.881140,-10732.986159,0.000000,-306.438199
3726.881470,-10732.986159,-666.185348,0.000000
3726.881800,-9918.759623,-814.226536,229.828649
3726.882130,-8512.368333,0.000000,153.219100
3726.882460,-7772.162391,222.061783,229.828649
3726.882789,-8956.491898,592.164754,536.266849
3726.883119,-9992.780217,1036.288319,842.705048
3726.883449,-10436.903782,888.247130,689.485948
3726.883779,-10807.006753,1184.329507,689.485948
3726.884108,-11399.171507,148.041188,1302.362347
3726.884438,-9474.636058,0.000000,1378.971896
3726.884768,-8068.244768,-666.185348,1072.533697
3726.885098,-8586.388927,444.123565,766.095498
3726.885428,-10362.883188,592.164754,1225.752797
3726.885757,-9696.697840,888.247130,459.657299
3726.886087,-9548.656652,444.123565,0.000000
3726.886417,-9770.718434,888.247130,76.609550
3726.886747,-11103.089130,296.082377,1225.752797
3726.887077,-9770.718434,0.000000,1378.971896
3726.887406,-8142.265362,0.000000,459.657299
3726.887736,-8956.491898,222.061783,0.000000
3726.888066,-9844.739029,148.041188,-536.266849
3726.888396,-10140.821405,0.000000,0.000000
3726.888725,-10214.842000,222.061783,0.000000
3726.889055,-10955.047942,740.205942,0.000000
3726.889385,-10658.965565,-296.082377,229.828649
3726.889715,-8734.430116,-222.061783,0.000000
3726.890045,-8586.388927,74.020594,766.095498
3726.890374,-10436.903782,962.267725,0.000000
3726.890704,-9918.759623,740.205942,-612.876398
3726.891034,-9326.594869,666.185348,-1838.629195
3726.891364,-9104.533087,148.041188,-1302.362347
3726.891693,-11029.068536,666.185348,76.609550
3726.892023,-11029.068536,-444.123565,1532.190996
3726.892353,-8808.450710,-148.041188,536.266849
3726.892683,-8216.285956,-444.123565,0.000000
3726.893013,-9474.636058,518.144159,0.000000
3726.893342,-10140.821405,666.185348,-459.657299
3726.893672,-10362.883188,814.226536,-229.828649
3726.894002,-9992.780217,1036.288319,-383.047749
3726.894332,-11103.089130,518.144159,-153.219100
3726.894661,-10436.903782,-296.082377,0.000000
3726.894991,-9400.615463,222.061783,76.609550
3726.895321,-8734.430116,296.082377,-306.438199
3726.895651,-9770.718434,592.164754,-153.219100
3726.895981,-10140.821405,370.102971,229.828649
3726.896310,-10584.944971,74.020594,1991.848295
3726.896640,-10436.903782,444.123565,1685.410096
3726.896970,-11399.171507,-148.041188,1455.581446
3726.897300,-9178.553681,-1110.308913,1072.533697
3726.897630,-8290.306550,-1110.308913,1532.190996
3726.897959,-9104.533087,-148.041188,1838.629195
3726.898289,-10288.862594,-518.144159,1608.800546
3726.898619,-9400.615463,296.082377,842.705048
3726.898949,-9252.574275,0.000000,383.047749
3726.899278,-11251.130318,1110.308913,0.000000
3726.899608,-11917.315666,-148.041188,1072.533697
3726.899938,-10362.883188,-222.061783,766.095498
3726.900268,-9252.574275,-222.061783,-76.609550
3726.900598,-9622.677246,-148.041188,-766.095498
3726.900927,-10066.800811,-592.164754,-1072.533697
3726.901257,-9992.780217,-592.164754,0.000000
3726.901587,-9030.512492,-518.144159,0.000000
3726.901917,-9252.574275,-740.205942,-612.876398
3726.902246,-10140.821405,-1258.350101,-306.438199
3726.902576,-9474.636058,-1110.308913,536.266849
3726.902906,-9030.512492,-1258.350101,1532.190996
3726.903236,-9622.677246,-888.247130,689.485948
3726.903566,-9770.718434,-888.247130,-76.609550
3726.903895,-9104.533087,-1110.308913,153.219100
3726.904225,-8734.430116,-740.205942,0.000000
3726.904555,-10658.965565,0.000000,-383.047749
3726.904885,-10807.006753,-444.123565,76.609550
3726.905215,-8882.471304,0.000000,-995.924147
3726.905544,-8364.327145,148.041188,-919.314598
3726.905874,-10288.862594,518.144159,-536.266849
3726.906204,-10732.986159,148.041188,-76.609550
3726.906534,-10140.821405,0.000000,-306.438199
3726.906863,-9178.553681,444.123565,-919.314598
3726.907193,-10436.903782,222.061783,-383.047749
3726.907523,-10955.047942,148.041188,1149.143247
3726.907853,-9770.718434,74.020594,1455.581446
3726.908183,-9770.718434,666.185348,383.047749
3726.908512,-10436.903782,296.082377,383.047749
3726.908842,-10584.944971,74.020594,229.828649
3726.909172,-10584.944971,-222.061783,689.485948
3726.909502,-10140.821405,296.082377,1072.533697
3726.909831,-9844.739029,-814.226536,1838.629195
3726.910161,-8734.430116,-518.144159,1532.190996
3726.910491,-8660.409521,0.000000,919.314598
3726.910821,-9622.677246,740.205942,842.705048
3726.911151,-10732.986159,296.082377,536.266849
3726.911480,-10140.821405,962.267725,536.266849
3726.911810,-10140.821405,222.061783,459.657299
3726.912140,-11029.068536,1036.288319,1072.533697
3726.912470,-11251.130318,-148.041188,1302.362347
3726.912799,-9474.636058,-148.041188,536.266849
3726.913129,-8660.409521,0.000000,0.000000
3726.913459,-9030.512492,518.144159,-383.047749
3726.913789,-9548.656652,518.144159,0.000000
3726.914119,-9326.594869,888.247130,766.095498
3726.914448,-9474.636058,666.185348,-76.609550
3726.914778,-9548.656652,1110.308913,-995.924147
3726.915108,-10362.883188,0.000000,-1149.143247
3726.915438,-9178.553681,0.000000,-459.657299
3726.915768,-9104.533087,0.000000,76.609550
3726.916097,-9326.594869,74.020594,612.876398
3726.916427,-9030.512492,-296.082377,153.219100
3726.916757,-9030.512492,296.082377,383.047749
3726.917087,-9252.574275,518.144159,-306.438199
3726.917416,-10807.006753,592.164754,0.000000
3726.917746,-10584.944971,222.061783,766.095498
3726.918076,-9474.636058,592.164754,919.314598
3726.918406,-9326.594869,444.123565,689.485948
3726.918736,-10436.903782,666.185348,0.000000
3726.919065,-10510.924376,1480.411884,-229.828649
3726.919395,-10066.800811,592.164754,-1072.533697
3726.919725,-9548.656652,814.226536,-1149.143247
3726.920055,-10362.883188,370.102971,-383.047749
3726.920384,-10214.842000,370.102971,1149.143247
3726.920714,-10140.821405,148.041188,1378.971896
3726.921044,-10658.965565,296.082377,612.876398
3726.921374,-10140.821405,-148.041188,459.657299
3726.921704,-9474.636058,0.000000,689.485948
3726.922033,-9178.553681,222.061783,1532.190996
3726.922363,-10510.924376,888.247130,1685.410096
3726.922693,-11029.068536,0.000000,1455.581446
3726.923023,-9474.636058,0.000000,766.095498
3726.923353,-9770.718434,0.000000,1072.533697
3726.923682,-10732.986159,0.000000,612.876398
3726.924012,-10732.986159,-666.185348,306.438199
3726.924342,-8660.409521,-518.144159,383.047749
3726.924672,-8956.491898,0.000000,842.705048
3726.925001,-10288.862594,74.020594,76.609550
3726.925331,-10584.944971,-888.247130,536.266849
3726.925661,-9474.636058,-74.020594,1072.533697
3726.925991,-8882.471304,-370.102971,1225.752797
3726.926321,-10140.821405,0.000000,536.266849
3726.926650,-10362.883188,-740.205942,0.000000
3726.926980,-9326.594869,-740.205942,0.000000
3726.927310,-9252.574275,-666.185348,-766.095498
3726.927640,-10066.800811,-592.164754,-306.438199
3726.927969,-9474.636058,-814.226536,229.828649
3726.928299,-9400.615463,-444.123565,842.705048
3726.928629,-9252.574275,-148.041188,842.705048
3726.928959,-10436.903782,0.000000,153.219100
3726.929289,-10288.862594,0.000000,-919.314598
3726.929618,-8956.491898,0.000000,-612.876398
3726.929948,-9474.636058,296.082377,-76.609550
3726.930278,-10881.027347,888.247130,612.876398
3726.930608,-11103.089130,0.000000,-306.438199
3726.930937,-9548.656652,148.041188,-459.657299
3726.931267,-8216.285956,-222.061783,-919.314598
3726.931597,-9548.656652,0.000000,-919.314598
3726.931927,-9326.594869,222.061783,0.000000
3726.932257,-9178.553681,370.102971,536.266849
3726.932586,-9400.615463,666.185348,306.438199
3726.932916,-10732.986159,148.041188,-76.609550
3726.933246,-10955.047942,148.041188,0.000000
3726.933576,-10288.862594,0.000000,153.219100
3726.933906,-9474.636058,0.000000,76.609550
3726.934235,-9696.697840,-518.144159,689.485948
3726.934565,-8808.450710,74.020594,1225.752797
3726.934895,-9474.636058,0.000000,842.705048
3726.935225,-9918.759623,370.102971,-229.828649
3726.935554,-10881.027347,-370.102971,-612.876398
3726.935884,-9918.759623,0.000000,0.000000
3726.936214,-8882.471304,-444.123565,842.705048
3726.936544,-9104.533087,-592.164754,1532.190996
3726.936874,-9918.759623,-888.247130,1149.143247
3726.937203,-9178.553681,-222.061783,995.924147
3726.937533,-9622.677246,0.000000,229.828649
3726.937863,-10881.027347,814.226536,0.000000
3726.938193,-11029.068536,-444.123565,459.657299
3726.938522,-9474.636058,0.000000,1455.581446
3726.938852,-9030.512492,0.000000,1149.143247
3726.939182,-10510.924376,-148.041188,0.000000
3726.939512,-9770.718434,-592.164754,-1072.533697
3726.939842,-8660.409521,-518.144159,-1302.362347
3726.940171,-8364.327145,-222.061783,-689.485948
3726.940501,-10288.862594,444.123565,689.485948
3726.940831,-10732.986159,0.000000,919.314598
3726.941161,-9474.636058,74.020594,229.828649
3726.941491,-9400.615463,0.000000,-995.924147
3726.941820,-10658.965565,518.144159,-1455.581446
3726.942150,-10436.903782,-222.061783,-766.095498
3726.942480,-9474.636058,0.000000,766.095498
3726.942810,-8808.450710,296.082377,1455.581446
3726.943139,-9844.739029,518.144159,0.000000
3726.943469,-9992.780217,74.020594,-383.047749
3726.943799,-9770.718434,370.102971,-459.657299
3726.944129,-9770.718434,814.226536,0.000000
3726.944459,-10658.965565,1332.370696,612.876398
3726.944788,-9622.677246,888.247130,0.000000
3726.945118,-8734.430116,592.164754,0.000000
3726.945448,-8956.491898,592.164754,-612.876398
3726.945778,-10807.006753,518.144159,0.000000
3726.946107,-10955.047942,666.185348,689.485948
3726.946437,-9474.636058,370.102971,1225.752797
3726.946767,-9622.677246,740.205942,995.924147
3726.947097,-10066.800811,518.144159,459.657299
3726.947427,-9252.574275,296.082377,995.924147
3726.947756,-9918.759623,74.020594,1378.971896
3726.948086,-9844.739029,888.247130,1225.752797
3726.948416,-10510.924376,296.082377,1455.581446
3726.948746,-9770.718434,814.226536,1838.629195
3726.949076,-9548.656652,148.041188,1072.533697
3726.949405,-10658.965565,814.226536,766.095498
3726.949735,-10584.944971,296.082377,536.266849
3726.950065,-9474.636058,592.164754,459.657299
3726.950395,-8956.491898,296.082377,919.314598
3726.950725,-9770.718434,1036.288319,842.705048
3726.951055,-11547.212695,74.020594,612.876398
3726.951385,-9918.759623,592.164754,229.828649
3726.951715,-8216.285956,222.061783,-459.657299
3726.952045,-9474.636058,444.123565,-306.438199
3726.952374,-9844.739029,74.020594,76.609550
3726.952704,-9326.594869,296.082377,1149.143247
3726.953034,-8734.430116,0.000000,842.705048
3726.953364,-10288.862594,740.205942,-229.828649
3726.953694,-10214.842000,-222.061783,-919.314598
3726.954024,-8956.491898,-370.102971,-459.657299
3726.954354,-9252.574275,0.000000,383.047749
3726.954684,-10732.986159,-148.041188,919.314598
3726.955014,-9696.697840,-518.144159,153.219100
3726.955344,-8882.471304,-518.144159,0.000000
3726.955674,-9252.574275,-518.144159,-766.095498
3726.956003,-10584.944971,-444.123565,-153.219100
3726.956333,-10066.800811,-444.123565,0.000000
3726.956663,-8512.368333,-592.164754,229.828649
3726.956993,-8660.409521,-222.061783,0.000000
3726.957323,-10807.006753,370.102971,-612.876398
3726.957653,-10658.965565,-296.082377,0.000000
3726.957983,-10214.842000,-592.164754,-383.047749
3726.958313,-9770.718434,-444.123565,-229.828649
3726.958643,-10658.965565,-74.020594,0.000000
3726.958973,-9918.759623,-888.247130,536.266849
3726.959303,-8882.471304,-888.247130,766.095498
3726.959633,-9400.615463,-666.185348,76.609550
3726.959962,-10584.944971,-518.144159,0.000000
3726.960292,-9844.739029,-666.185348,536.266849
3726.960622,-9178.553681,-814.226536,1225.752797
3726.960952,-9474.636058,-148.041188,1302.362347
3726.961282,-10732.986159,-666.185348,995.924147
3726.961612,-9400.615463,-370.102971,0.000000
3726.961942,-8808.450710,-740.205942,229.828649
3726.962272,-9474.636058,0.000000,-459.657299
3726.962602,-10510.924376,-370.102971,0.000000
3726.962932,-9918.759623,0.000000,-459.657299
3726.963262,-9030.512492,-666.185348,229.828649
3726.963591,-9400.615463,222.061783,0.000000
3726.963921,-10066.800811,-814.226536,-612.876398
3726.964251,-9474.636058,222.061783,-612.876398
3726.964581,-9178.553681,0.000000,-919.314598
3726.964911,-10362.883188,148.041188,306.438199
3726.965241,-10362.883188,-518.144159,1302.362347
3726.965571,-10066.800811,-296.082377,1915.238745
3726.965901,-9474.636058,0.000000,536.266849
3726.966231,-9326.594869,0.000000,-306.438199
3726.966561,-9992.780217,-370.102971,0.000000
3726.966891,-9844.739029,518.144159,689.485948
3726.967220,-9696.697840,814.226536,536.266849
3726.967550,-11177.109724,444.123565,-306.438199
3726.967880,-10140.821405,148.041188,-1072.533697
3726.968210,-8808.450710,-296.082377,-995.924147
3726.968540,-8956.491898,666.185348,-229.828649
3726.968870,-9696.697840,518.144159,-229.828649
3726.969200,-9622.677246,370.102971,-383.047749
3726.969530,-8438.347739,962.267725,-995.924147
3726.969860,-9622.677246,1036.288319,0.000000
3726.970190,-11399.171507,814.226536,919.314598
3726.970520,-10881.027347,740.205942,1149.143247
3726.970849,-10140.821405,370.102971,383.047749
3726.971179,-8956.491898,0.000000,0.000000
3726.971509,-9030.512492,148.041188,76.609550
3726.971839,-9326.594869,518.144159,76.609550
3726.972169,-8882.471304,814.226536,0.000000
3726.972499,-9622.677246,1554.432478,-842.705048
3726.972829,-10658.965565,814.226536,-76.609550
3726.973159,-10584.944971,444.123565,536.266849
3726.973489,-9918.759623,222.061783,1225.752797
3726.973819,-9548.656652,888.247130,1302.362347
3726.974149,-9918.759623,518.144159,612.876398
3726.974478,-8660.409521,444.123565,-229.828649
3726.974808,-8882.471304,740.205942,229.828649
3726.975138,-10658.965565,814.226536,689.485948
3726.975468,-11029.068536,296.082377,766.095498
3726.975798,-9548.656652,370.102971,842.705048
3726.976128,-9178.553681,-148.041188,1149.143247
3726.976458,-9252.574275,0.000000,1378.971896
3726.976788,-9918.759623,0.000000,1608.800546
3726.977118,-9252.574275,148.041188,842.705048
3726.977448,-9696.697840,74.020594,383.047749
3726.977778,-10510.924376,518.144159,229.828649
3726.978107,-10510.924376,0.000000,766.095498
3726.978437,-10436.903782,0.000000,1455.581446
3726.978767,-9770.718434,-370.102971,919.314598
3726.979097,-9844.739029,-370.102971,306.438199
3726.979427,-9474.636058,-444.123565,229.828649
3726.979757,-9104.533087,0.000000,76.609550
3726.980087,-9844.739029,222.061783,153.219100
3726.980417,-11399.171507,370.102971,-612.876398
3726.980747,-10362.883188,-370.102971,-1608.800546
3726.981077,-8438.347739,-518.144159,-689.485948
3726.981407,-8882.471304,-222.061783,-612.876398
3726.981736,-10066.800811,-222.061783,536.266849
3726.982066,-9474.636058,-666.185348,536.266849
3726.982396,-9030.512492,-296.082377,76.609550
3726.982726,-9474.636058,518.144159,-1378.971896
3726.983056,-11325.150913,148.041188,-766.095498
3726.983386,-9992.780217,0.000000,-76.609550
3726.983716,-9104.533087,-888.247130,459.657299
3726.984046,-8956.491898,-444.123565,229.828649
3726.984376,-9992.780217,-962.267725,612.876398
3726.984706,-10066.800811,-222.061783,306.438199
3726.985036,-9030.512492,-666.185348,-536.266849
3726.985366,-9622.677246,370.102971,-919.314598
3726.985695,-10362.883188,148.041188,-766.095498
3726.986025,-9844.739029,148.041188,842.705048
3726.986355,-9474.636058,-518.144159,1608.800546
3726.986685,-10288.862594,148.041188,1302.362347
3726.987015,-10584.944971,0.000000,229.828649
3726.987345,-10214.842000,-296.082377,689.485948
3726.987675,-9474.636058,0.000000,919.314598
3726.988005,-10658.965565,148.041188,842.705048
3726.988335,-10807.006753,0.000000,229.828649
3726.988665,-8956.491898,-518.144159,229.828649
3726.988995,-8956.491898,-814.226536,459.657299
3726.989324,-10436.903782,148.041188,1455.581446
3726.989654,-10881.027347,0.000000,1762.019645
3726.989984,-8956.491898,0.000000,1302.362347
3726.990314,-8216.285956,0.000000,76.609550
3726.990644,-10362.883188,444.123565,153.219100
3726.990974,-11325.150913,74.020594,-229.828649
3726.991304,-10436.903782,222.061783,229.828649
3726.991634,-9400.615463,-222.061783,-459.657299
3726.991964,-9770.718434,148.041188,-76.609550
3726.992294,-9474.636058,-740.205942,-229.828649
3726.992624,-7846.182985,-370.102971,0.000000
3726.992953,-8660.409521,222.061783,0.000000
3726.993283,-10732.986159,888.247130,-383.047749
3726.993613,-10066.800811,370.102971,-612.876398
3726.993943,-9030.512492,296.082377,-229.828649
3726.994273,-9326.594869,592.164754,-306.438199
3726.994603,-10214.842000,518.144159,153.219100
3726.994933,-10066.800811,0.000000,-153.219100
3726.995263,-8512.368333,74.020594,-536.266849
3726.995593,-8586.388927,444.123565,-383.047749
3726.995923,-10362.883188,1110.308913,-459.657299
3726.996253,-10584.944971,1480.411884,0.000000
3726.996582,-9844.739029,1036.288319,306.438199
3726.996912,-9178.553681,1258.350101,-153.219100
3726.997242,-11103.089130,888.247130,0.000000
3726.997572,-10214.842000,444.123565,229.828649
3726.997902,-8808.450710,222.061783,459.657299
3726.998232,-9548.656652,888.247130,842.705048
3726.998562,-11029.068536,0.000000,689.485948
3726.998892,-9844.739029,222.061783,612.876398
3726.999222,-9030.512492,-74.020594,842.705048
3726.999552,-9474.636058,592.164754,1455.581446
3726.999882,-10214.842000,-370.102971,3217.601092
3727.000211,-9918.759623,0.000000,3217.601092
3727.000541,-9178.553681,296.082377,1762.019645
3727.000871,-10066.800811,518.144159,153.219100
3727.001201,-10140.821405,518.144159,-536.266849
3727.001531,-10066.800811,148.041188,306.438199
3727.001861,-9918.759623,0.000000,1608.800546
3727.002191,-10214.842000,0.000000,1915.238745
3727.002521,-10066.800811,-296.082377,842.705048
3727.002851,-8882.471304,-296.082377,459.657299
3727.003181,-9030.512492,-222.061783,-306.438199
3727.003511,-10288.862594,148.041188,-306.438199
3727.003840,-10658.965565,0.000000,0.000000
3727.004170,-9770.718434,-518.144159,459.657299
3727.004500,-9326.594869,-814.226536,-306.438199
3727.004830,-9326.594869,-888.247130,0.000000
3727.005160,-8956.491898,-1184.329507,0.000000
3727.005490,-8660.409521,-222.061783,-76.609550
3727.005820,-9178.553681,-148.041188,-459.657299
3727.006150,-9770.718434,0.000000,-1149.143247
3727.006480,-9622.677246,0.000000,-1608.800546
3727.006810,-9918.759623,0.000000,-995.924147
3727.007140,-10584.944971,-518.144159,-842.705048
3727.007470,-10955.047942,-1036.288319,-1072.533697
3727.007799,-8660.409521,-1184.329507,-995.924147
3727.008129,-7105.977043,-740.205942,-842.705048
3727.008459,-8734.430116,0.000000,-306.438199
3727.008789,-10732.986159,592.164754,-689.485948
3727.009119,-10955.047942,222.061783,-1149.143247
3727.009449,-10510.924376,296.082377,-842.705048
3727.009779,-9918.759623,74.020594,-383.047749
3727.010109,-11177.109724,-370.102971,536.266849
3727.010439,-9326.594869,-888.247130,995.924147
3727.010769,-8438.347739,-518.144159,612.876398
3727.011099,-8882.471304,222.061783,-1072.533697
3727.011428,-10362.883188,222.061783,-842.705048
3727.011758,-10288.862594,370.102971,76.609550
3727.012088,-10214.842000,0.000000,995.924147
3727.012418,-10066.800811,740.205942,1378.971896
3727.012748,-10955.047942,-222.061783,2068.457845
3727.013078,-9548.656652,-222.061783,1532.190996
3727.013408,-9252.574275,-888.247130,1378.971896
3727.013738,-10288.862594,0.000000,842.705048
3727.014068,-10732.986159,-518.144159,306.438199
3727.014398,-9474.636058,-444.123565,1685.410096
3727.014728,-9474.636058,-592.164754,2221.676944
3727.015057,-9992.780217,222.061783,1838.629195
3727.015387,-9474.636058,-222.061783,306.438199
3727.015717,-9030.512492,-222.061783,229.828649
3727.016047,-8734.430116,-296.082377,459.657299
3727.016377,-10658.965565,370.102971,536.266849
3727.016707,-10510.924376,444.123565,0.000000
3727.017037,-9104.533087,-74.020594,-1149.143247
3727.017367,-8660.409521,0.000000,-1532.190996
3727.017697,-9696.697840,-296.082377,-383.047749
3727.018027,-10362.883188,-592.164754,153.219100
3727.018357,-9326.594869,74.020594,919.314598
3727.018686,-8586.388927,296.082377,0.000000
3727.019016,-9326.594869,592.164754,-766.095498
3727.019346,-9178.553681,518.144159,-1455.581446
3727.019676,-9918.759623,888.247130,-1225.752797
3727.020006,-9918.759623,296.082377,-536.266849
3727.020336,-10140.821405,370.102971,-153.219100
3727.020666,-9326.594869,0.000000,153.219100
3727.020996,-8512.368333,222.061783,612.876398
3727.021326,-10214.842000,592.164754,766.095498
3727.021656,-11103.089130,444.123565,0.000000
3727.021986,-9696.697840,962.267725,-842.705048
3727.022315,-9548.656652,296.082377,-153.219100
3727.022645,-9770.718434,1258.350101,153.219100
3727.022975,-10510.924376,740.205942,919.314598
3727.023305,-9178.553681,666.185348,459.657299
3727.023635,-8660.409521,592.164754,-76.609550
3727.023965,-10214.842000,1554.432478,306.438199
3727.024295,-11547.212695,592.164754,919.314598
3727.024625,-9918.759623,444.123565,919.314598
3727.024955,-9104.533087,222.061783,1149.143247
3727.025285,-9696.697840,518.144159,1685.410096
3727.025615,-11251.130318,148.041188,2451.505594
3727.025944,-9474.636058,74.020594,2145.067394
3727.026274,-8882.471304,74.020594,995.924147
3727.026604,-10214.842000,296.082377,766.095498
3727.026934,-11029.068536,740.205942,689.485948
3727.027264,-9326.594869,148.041188,689.485948
3727.027594,-8882.471304,74.020594,229.828649
3727.027924,-9548.656652,296.082377,306.438199
3727.028254,-10140.821405,-444.123565,612.876398
3727.028584,-9622.677246,74.020594,995.924147
3727.028914,-9400.615463,222.061783,919.314598
3727.029244,-10881.027347,444.123565,0.000000
3727.029573,-10362.883188,-370.102971,-689.485948
3727.029903,-9326.594869,-888.247130,-842.705048
3727.030233,-8734.430116,-296.082377,-229.828649
3727.030563,-9918.759623,0.000000,76.609550
3727.030893,-9696.697840,-592.164754,-766.095498
3727.031223,-8882.471304,0.000000,-612.876398
3727.031553,-8438.347739,-296.082377,-919.314598
3727.031883,-10362.883188,148.041188,-842.705048
3727.032213,-10436.903782,-148.041188,-842.705048
3727.032543,-9844.739029,74.020594,-153.219100
3727.032873,-9474.636058,74.020594,-919.314598
3727.033203,-10658.965565,0.000000,-842.705048
3727.033532,-10510.924376,-222.061783,-612.876398
3727.033862,-9622.677246,0.000000,-459.657299
3727.034192,-9252.574275,-74.020594,-689.485948
3727.034522,-9992.780217,74.020594,76.609550
3727.034852,-9548.656652,74.020594,536.266849
3727.035182,-9178.553681,0.000000,0.000000
3727.035512,-9696.697840,518.144159,-383.047749
3727.035842,-11399.171507,0.000000,383.047749
3727.036172,-10732.986159,0.000000,842.705048
3727.036502,-9474.636058,-444.123565,1149.143247
3727.036832,-9326.594869,0.000000,995.924147
3727.037161,-10140.821405,0.000000,1225.752797
3727.037491,-9770.718434,74.020594,1072.533697
3727.037821,-9696.697840,-222.061783,766.095498
3727.038151,-9844.739029,592.164754,536.266849
3727.038481,-10288.862594,0.000000,1455.581446
3727.038811,-9252.574275,-148.041188,1225.752797
3727.039141,-9030.512492,-222.061783,995.924147
3727.039471,-10214.842000,0.000000,842.705048
3727.039801,-9918.759623,-592.164754,612.876398
3727.040131,-9696.697840,-740.205942,612.876398
3727.040461,-9178.553681,-444.123565,306.438199
3727.040790,-9992.780217,0.000000,842.705048
3727.041120,-10436.903782,-666.185348,1225.752797
3727.041450,-9400.615463,-74.020594,1149.143247
3727.041780,-9474.636058,-148.041188,0.000000
3727.042110,-10214.842000,-296.082377,76.609550
3727.042440,-10288.862594,-444.123565,-229.828649
3727.042770,-9548.656652,-148.041188,0.000000
3727.043100,-9030.512492,-296.082377,-536.266849
3727.043430,-9918.759623,-148.041188,-612.876398
3727.043760,-10140.821405,-962.267725,-689.485948
3727.044090,-9326.594869,-148.041188,-306.438199
3727.044419,-9400.615463,-370.102971,-383.047749
3727.044749,-10214.842000,-222.061783,-919.314598
3727.045079,-9622.677246,-370.102971,-536.266849
3727.045409,-9696.697840,0.000000,229.828649
3727.045739,-9696.697840,222.061783,-842.705048
3727.046069,-10807.006753,370.102971,-842.705048
3727.046399,-9770.718434,-74.020594,-766.095498
3727.046729,-8512.368333,222.061783,-383.047749
3727.047059,-9474.636058,296.082377,76.609550
3727.047389,-10732.986159,518.144159,-76.609550
3727.047719,-9548.656652,666.185348,-153.219100
3727.048048,-9178.553681,222.061783,0.000000
3727.048378,-9918.759623,740.205942,306.438199
3727.048708,-11473.192101,74.020594,1225.752797
3727.049038,-10436.903782,-74.020594,1455.581446
3727.049368,-8808.450710,-148.041188,1302.362347
3727.049698,-9622.677246,74.020594,919.314598
3727.050028,-10584.944971,0.000000,995.924147
3727.050358,-9770.718434,592.164754,1149.143247
3727.050688,-9178.553681,296.082377,842.705048
3727.051018,-9178.553681,1406.391290,459.657299
3727.051347,-10362.883188,814.226536,612.876398
3727.051677,-9992.780217,592.164754,1072.533697
3727.052007,-10066.800811,592.164754,383.047749
3727.052337,-10510.924376,962.267725,-383.047749
3727.052667,-9696.697840,0.000000,0.000000
3727.052997,-9030.512492,222.061783,612.876398
3727.053327,-9030.512492,148.041188,612.876398
3727.053657,-10436.903782,518.144159,153.219100
3727.053987,-10584.944971,0.000000,76.609550
3727.054316,-9252.574275,0.000000,306.438199
3727.054646,-9178.553681,0.000000,995.924147
3727.054976,-10732.986159,370.102971,842.705048
3727.055306,-9918.759623,222.061783,536.266849
3727.055636,-9178.553681,-296.082377,0.000000
3727.055966,-9252.574275,0.000000,-612.876398
3727.056296,-10732.986159,0.000000,-459.657299
3727.056626,-10436.903782,-518.144159,-306.438199
3727.056956,-8956.491898,-518.144159,-612.876398
3727.057285,-8808.450710,-296.082377,-229.828649
3727.057615,-9696.697840,-518.144159,-306.438199
3727.057945,-9252.574275,-74.020594,76.609550
3727.058275,-8512.368333,0.000000,153.219100
3727.058605,-9474.636058,444.123565,-919.314598
3727.058935,-10955.047942,0.000000,-1378.971896
3727.059265,-10288.862594,-148.041188,-229.828649
3727.059595,-8808.450710,-222.061783,1072.533697
3727.059925,-9992.780217,148.041188,1685.410096
3727.060254,-10510.924376,0.000000,612.876398
3727.060584,-9474.636058,-148.041188,-383.047749
3727.060914,-9474.636058,370.102971,-229.828649
3727.061244,-9844.739029,814.226536,-383.047749
3727.061574,-10881.027347,370.102971,536.266849
3727.061904,-9696.697840,518.144159,689.485948
3727.062234,-8956.491898,0.000000,766.095498
3727.062564,-9400.615463,444.123565,689.485948
3727.062894,-10807.006753,0.000000,1072.533697
3727.063223,-10140.821405,-148.041188,689.485948
3727.063553,-9326.594869,74.020594,229.828649
3727.063883,-9770.718434,518.144159,766.095498
3727.064213,-10658.965565,-518.144159,1915.238745
3727.064543,-10066.800811,74.020594,1991.848295
3727.064873,-9770.718434,0.000000,1532.190996
3727.065203,-10214.842000,-222.061783,995.924147
3727.065533,-9770.718434,-370.102971,919.314598
3727.065863,-9474.636058,-222.061783,1149.143247
3727.066192,-9548.656652,0.000000,842.705048
3727.066522,-10807.006753,222.061783,-229.828649
3727.066852,-9918.759623,-814.226536,-766.095498
3727.067182,-9030.512492,0.000000,-383.047749
3727.067512,-9474.636058,0.000000,153.219100
3727.067842,-10807.006753,296.082377,612.876398
3727.068172,-9844.739029,0.000000,-229.828649
3727.068502,-9030.512492,370.102971,-1072.533697
3727.068832,-9326.594869,444.123565,-1685.410096
3727.069161,-11177.109724,0.000000,-1378.971896
3727.069491,-10436.903782,-518.144159,-995.924147
3727.069821,-8364.327145,-370.102971,-229.828649
3727.070151,-8364.327145,0.000000,-153.219100
3727.070481,-9844.739029,0.000000,-229.828649
3727.070811,-9474.636058,148.041188,-153.219100
3727.071141,-8808.450710,370.102971,-459.657299
3727.071471,-9326.594869,1036.288319,-536.266849
3727.071801,-11251.130318,666.185348,0.000000
3727.072130,-10807.006753,74.020594,536.266849
3727.072460,-9474.636058,518.144159,153.219100
3727.072790,-9770.718434,222.061783,-306.438199
3727.073120,-9474.636058,370.102971,-689.485948
3727.073450,-8364.327145,370.102971,-459.657299
3727.073780,-9178.553681,666.185348,383.047749
3727.074110,-10584.944971,1776.494261,689.485948
3727.074440,-11695.253884,1184.329507,229.828649
3727.074770,-10288.862594,1184.329507,-612.876398
3727.075099,-9400.615463,740.205942,0.000000
3727.075429,-10732.986159,370.102971,1149.143247
3727.075759,-10510.924376,148.041188,1608.800546
3727.076089,-9104.533087,0.000000,1378.971896
3727.076419,-8068.244768,0.000000,612.876398
3727.076749,-9548.656652,74.020594,1072.533697
3727.077079,-11251.130318,296.082377,1915.238745
3727.077409,-10362.883188,0.000000,1991.848295
3727.077739,-9474.636058,0.000000,1149.143247
3727.078069,-9918.759623,0.000000,536.266849
3727.078398,-9474.636058,-296.082377,689.485948
3727.078728,-8882.471304,0.000000,536.266849
3727.079058,-9178.553681,74.020594,0.000000
3727.079388,-10362.883188,518.144159,-383.047749
3727.079718,-10732.986159,-148.041188,-153.219100
3727.080048,-9548.656652,0.000000,76.609550
3727.080378,-9770.718434,-444.123565,306.438199
3727.080708,-11029.068536,-518.144159,536.266849
3727.081038,-9400.615463,-1110.308913,-536.266849
3727.081367,-8438.347739,-740.205942,-612.876398
3727.081697,-8586.388927,-444.123565,-919.314598
3727.082027,-11029.068536,-370.102971,-536.266849
3727.082357,-10362.883188,-592.164754,-766.095498
3727.082687,-8512.368333,-592.164754,-995.924147
3727.083017,-9326.594869,-814.226536,-689.485948
3727.083347,-10807.006753,-1184.329507,306.438199
3727.083677,-10066.800811,-1480.411884,919.314598
3727.084007,-8882.471304,-1332.370696,842.705048
3727.084336,-8660.409521,-592.164754,-459.657299
3727.084666,-10362.883188,-888.247130,0.000000
3727.084996,-10288.862594,-666.185348,0.000000
3727.085326,-9252.574275,-296.082377,383.047749
3727.085656,-9992.780217,-148.041188,229.828649
3727.085986,-10510.924376,-148.041188,76.609550
3727.086316,-9400.615463,-444.123565,-383.047749
3727.086646,-8660.409521,-296.082377,-383.047749
3727.086976,-9474.636058,74.020594,-306.438199
3727.087305,-11325.150913,0.000000,306.438199
3727.087635,-9992.780217,0.000000,229.828649
3727.087965,-9474.636058,222.061783,76.609550
3727.088295,-10658.965565,0.000000,766.095498
3727.088625,-11177.109724,74.020594,766.095498
3727.088955,-10140.821405,-296.082377,1072.533697
3727.089285,-8882.471304,-74.020594,612.876398
3727.089615,-8882.471304,148.041188,766.095498
3727.089945,-9696.697840,-148.041188,1149.143247
3727.090274,-9548.656652,148.041188,995.924147
3727.090604,-10140.821405,518.144159,383.047749
3727.090934,-10732.986159,370.102971,-383.047749
3727.091264,-10362.883188,74.020594,153.219100
3727.091594,-9326.594869,222.061783,1302.362347
3727.091924,-9400.615463,74.020594,1378.971896
3727.092254,-10436.903782,0.000000,612.876398
3727.092584,-9696.697840,-296.082377,0.000000
3727.092914,-8290.306550,0.000000,-229.828649
3727.093243,-9326.594869,0.000000,383.047749
3727.093573,-10288.862594,518.144159,612.876398
3727.093903,-9548.656652,296.082377,306.438199
3727.094233,-9104.533087,518.144159,76.609550
3727.094563,-9474.636058,370.102971,-842.705048
3727.094893,-11399.171507,370.102971,-612.876398
3727.095223,-10510.924376,444.123565,0.000000
3727.095553,-8586.388927,444.123565,0.000000
3727.095883,-8512.368333,74.020594,0.000000
3727.096212,-9844.739029,74.020594,-76.609550
3727.096542,-9548.656652,0.000000,0.000000
3727.096872,-8956.491898,0.000000,536.266849
3727.097202,-9030.512492,1258.350101,76.609550
3727.097532,-9918.759623,592.164754,842.705048
3727.097862,-10140.821405,1184.329507,1378.971896
3727.098192,-10066.800811,814.226536,766.095498
3727.098522,-10807.006753,1036.288319,-383.047749
3727.098852,-10658.965565,518.144159,-995.924147
3727.099181,-9326.594869,0.000000,-536.266849
3727.099511,-9252.574275,592.164754,383.047749
3727.099841,-10066.800811,592.164754,306.438199
3727.100171,-10510.924376,518.144159,0.000000
3727.100501,-9178.553681,592.164754,-383.047749
3727.100831,-9326.594869,814.226536,76.609550
3727.101161,-11621.233289,740.205942,995.924147
3727.101491,-11325.150913,148.041188,1455.581446
3727.101821,-9104.533087,-296.082377,1225.752797
3727.102150,-7772.162391,-592.164754,612.876398
3727.102480,-10066.800811,222.061783,306.438199
3727.102810,-11029.068536,-740.205942,1149.143247
3727.103140,-9770.718434,148.041188,1302.362347
3727.103470,-9252.574275,0.000000,842.705048
3727.103800,-10732.986159,0.000000,536.266849
3727.104130,-10807.006753,-444.123565,306.438199
3727.104460,-9326.594869,-814.226536,842.705048
3727.104790,-8364.327145,-74.020594,689.485948
3727.105120,-9696.697840,-148.041188,0.000000
3727.105449,-10214.842000,-518.144159,-383.047749
3727.105779,-9548.656652,-296.082377,0.000000
3727.106109,-10066.800811,0.000000,0.000000
3727.106439,-11399.171507,0.000000,0.000000
3727.106769,-10362.883188,-962.267725,306.438199
3727.107099,-9030.512492,-1036.288319,612.876398
3727.107429,-8364.327145,-888.247130,-153.219100
3727.107759,-10584.944971,-518.144159,153.219100
3727.108089,-10658.965565,-814.226536,-229.828649
3727.108418,-8660.409521,-222.061783,-229.828649
3727.108748,-8734.430116,-370.102971,-306.438199
3727.109078,-9844.739029,-296.082377,-383.047749
3727.109408,-9400.615463,-518.144159,-76.609550
3727.109738,-8956.491898,-740.205942,-76.609550
3727.110068,-9622.677246,0.000000,0.000000
3727.110398,-11103.089130,0.000000,536.266849
3727.110728,-10288.862594,-370.102971,459.657299
3727.111058,-9104.533087,-518.144159,76.609550
3727.111387,-9548.656652,0.000000,-229.828649
3727.111717,-10140.821405,0.000000,-306.438199
3727.112047,-9252.574275,148.041188,153.219100
3727.112377,-9474.636058,370.102971,153.219100
3727.112707,-10436.903782,962.267725,153.219100
3727.113037,-11473.192101,0.000000,612.876398
3727.113367,-9770.718434,370.102971,-153.219100
3727.113697,-8364.327145,0.000000,-995.924147
3727.114027,-9474.636058,444.123565,-1225.752797
3727.114356,-10955.047942,0.000000,0.000000
3727.114686,-10436.903782,0.000000,1149.143247
3727.115016,-9400.615463,-74.020594,1455.581446
3727.115346,-9844.739029,74.020594,536.266849
3727.115676,-9918.759623,-444.123565,842.705048
3727.116006,-8882.471304,0.000000,919.314598
3727.116336,-9178.553681,0.000000,229.828649
3727.116666,-10436.903782,0.000000,1072.533697
3727.116996,-11029.068536,0.000000,1149.143247
3727.117325,-10288.862594,0.000000,1685.410096
3727.117655,-9770.718434,0.000000,383.047749
3727.117985,-9992.780217,0.000000,153.219100
3727.118315,-9252.574275,-592.164754,0.000000
3727.118645,-8290.306550,222.061783,229.828649
3727.118975,-9252.574275,740.205942,229.828649
3727.119305,-11325.150913,592.164754,153.219100
3727.119635,-10362.883188,518.144159,153.219100
3727.119965,-9326.594869,0.000000,-536.266849
3727.120294,-9326.594869,296.082377,-689.485948
3727.120624,-10140.821405,-148.041188,-76.609550
3727.120954,-9622.677246,-370.102971,689.485948
3727.121284,-8142.265362,296.082377,306.438199
3727.121614,-9770.718434,444.123565,0.000000
3727.121944,-11325.150913,296.082377,-153.219100
3727.122274,-10436.903782,74.020594,-153.219100
3727.122604,-9326.594869,370.102971,-766.095498
3727.122934,-9474.636058,444.123565,153.219100
3727.123263,-9770.718434,148.041188,536.266849
3727.123593,-8956.491898,74.020594,919.314598
3727.123923,-8586.388927,592.164754,306.438199
3727.124253,-10140.821405,1258.350101,-842.705048
3727.124583,-11029.068536,888.247130,-1378.971896
3727.124913,-9474.636058,592.164754,-919.314598
3727.125243,-9474.636058,518.144159,229.828649
3727.125573,-10066.800811,666.185348,842.705048
3727.125903,-11177.109724,148.041188,766.095498
3727.126232,-9622.677246,-296.082377,689.485948
3727.126562,-8586.388927,0.000000,0.000000
3727.126892,-9400.615463,814.226536,0.000000
3727.127222,-10362.883188,666.185348,1685.410096
3727.127552,-10066.800811,518.144159,1608.800546
3727.127882,-9474.636058,0.000000,536.266849
3727.128212,-10066.800811,444.123565,0.000000
3727.128542,-10658.965565,-148.041188,689.485948
3727.128872,-10288.862594,444.123565,1225.752797
3727.129201,-9548.656652,296.082377,383.047749
3727.129531,-9918.759623,74.020594,-612.876398
3727.129861,-9326.594869,-222.061783,-153.219100
3727.130191,-9622.677246,-148.041188,995.924147
3727.130521,-10214.842000,-296.082377,612.876398
3727.130851,-10658.965565,0.000000,459.657299
3727.131181,-9696.697840,-1036.288319,1302.362347
3727.131511,-8660.409521,-740.205942,459.657299
3727.131841,-9474.636058,-148.041188,76.609550
3727.132171,-10584.944971,-370.102971,229.828649
3727.132500,-9326.594869,-814.226536,383.047749
3727.132830,-9474.636058,-518.144159,76.609550
3727.133160,-9400.615463,-740.205942,-306.438199
3727.133490,-10658.965565,-814.226536,-306.438199
3727.133820,-9400.615463,-1036.288319,-459.657299
3727.134150,-7772.162391,-1184.329507,-612.876398
3727.134480,-9252.574275,-296.082377,-612.876398
3727.134810,-9918.759623,-222.061783,-689.485948
3727.135140,-9178.553681,0.000000,-459.657299
3727.135469,-8660.409521,222.061783,-536.266849
3727.135799,-9326.594869,222.061783,-842.705048
3727.136129,-11177.109724,0.000000,0.000000
3727.136459,-9844.739029,0.000000,1225.752797
3727.136789,-9178.553681,222.061783,612.876398
3727.137119,-10288.862594,370.102971,153.219100
3727.137449,-10436.903782,-222.061783,-1149.143247
3727.137779,-9548.656652,222.061783,-1072.533697
3727.138109,-9474.636058,222.061783,-306.438199
3727.138438,-10881.027347,1110.308913,1378.971896
3727.138768,-10955.047942,0.000000,1302.362347
3727.139098,-9326.594869,666.185348,842.705048
3727.139428,-8438.347739,296.082377,383.047749
3727.139758,-10066.800811,814.226536,536.266849
3727.140088,-11177.109724,0.000000,229.828649
3727.140418,-9622.677246,0.000000,842.705048
3727.140748,-8586.388927,148.041188,1225.752797
3727.141078,-9770.718434,666.185348,1915.238745
3727.141407,-11103.089130,-222.061783,1532.190996
3727.141737,-9844.739029,0.000000,1378.971896
3727.142067,-9326.594869,0.000000,995.924147
3727.142397,-10066.800811,518.144159,766.095498
3727.142727,-9992.780217,296.082377,842.705048
3727.143057,-8956.491898,0.000000,1225.752797
3727.143387,-8734.430116,296.082377,459.657299
3727.143717,-10140.821405,148.041188,76.609550
3727.144047,-10510.924376,0.000000,-306.438199
3727.144376,-9326.594869,370.102971,0.000000
3727.144706,-8882.471304,370.102971,0.000000
3727.145036,-10584.944971,592.164754,0.000000
3727.145366,-9622.677246,148.041188,76.609550
3727.145696,-9326.594869,74.020594,-842.705048
3727.146026,-9770.718434,222.061783,-1072.533697
3727.146356,-10732.986159,-296.082377,-536.266849
3727.146686,-9252.574275,-592.164754,536.266849
3727.147016,-8216.285956,0.000000,459.657299
3727.147345,-8512.368333,370.102971,0.000000
3727.147675,-10510.924376,814.226536,-766.095498
3727.148005,-10436.903782,740.205942,-459.657299
3727.148335,-10288.862594,444.123565,-306.438199
3727.148664,-10066.800811,1036.288319,-536.266849
3727.148994,-10510.924376,148.041188,0.000000
3727.149324,-9474.636058,74.020594,0.000000
3727.149654,-8512.368333,592.164754,0.000000
3727.149983,-9844.739029,814.226536,0.000000
3727.150313,-11103.089130,1036.288319,-612.876398
3727.150643,-9918.759623,518.144159,-383.047749
3727.150973,-9326.594869,740.205942,-459.657299
3727.151302,-10362.883188,888.247130,459.657299
3727.151632,-11177.109724,74.020594,1072.533697
3727.151962,-8956.491898,-222.061783,459.657299
3727.152292,-8142.265362,0.000000,536.266849
3727.152621,-10362.883188,666.185348,1072.533697
3727.152951,-11547.212695,148.041188,1455.581446
3727.153281,-10510.924376,0.000000,1455.581446
3727.153611,-8956.491898,-592.164754,459.657299
3727.153940,-9400.615463,-222.061783,536.266849
3727.154270,-10066.800811,-1036.288319,1149.143247
3727.154600,-9474.636058,-888.247130,1838.629195
3727.154930,-9030.512492,-296.082377,1149.143247
3727.155259,-8882.471304,0.000000,842.705048
3727.155589,-9622.677246,0.000000,-459.657299
3727.155919,-10214.842000,444.123565,0.000000
3727.156249,-10881.027347,74.020594,-229.828649
3727.156578,-10807.006753,296.082377,-612.876398
3727.156908,-9622.677246,-740.205942,-689.485948
3727.157238,-8660.409521,-1184.329507,-229.828649
3727.157567,-9326.594869,-666.185348,-383.047749
3727.157897,-10658.965565,-444.123565,0.000000
3727.158227,-9992.780217,-1110.308913,-306.438199
3727.158557,-8808.450710,-1036.288319,-536.266849
3727.158886,-9104.533087,-1110.308913,-766.095498
3727.159216,-10362.883188,-962.267725,0.000000
3727.159546,-9918.759623,-1036.288319,689.485948
3727.159876,-8364.327145,-888.247130,612.876398
3727.160205,-8734.430116,-814.226536,-536.266849
3727.160535,-9992.780217,-444.123565,-612.876398
3727.160865,-10066.800811,-296.082377,-1302.362347
3727.161195,-9622.677246,-296.082377,76.609550
3727.161524,-9770.718434,74.020594,0.000000
3727.161854,-10732.986159,0.000000,-383.047749
3727.162184,-9622.677246,0.000000,-459.657299
3727.162514,-8882.471304,74.020594,0.000000
3727.162843,-9326.594869,370.102971,-459.657299
3727.163173,-9770.718434,370.102971,-383.047749
3727.163503,-10066.800811,592.164754,-459.657299
3727.163833,-9474.636058,370.102971,459.657299
3727.164162,-10436.903782,370.102971,536.266849
3727.164492,-11177.109724,-222.061783,995.924147
3727.164822,-10214.842000,-148.041188,1685.410096
3727.165152,-9104.533087,0.000000,2681.334243
3727.165481,-9548.656652,0.000000,1149.143247
3727.165811,-9622.677246,0.000000,766.095498
3727.166141,-9474.636058,592.164754,1072.533697
3727.166471,-9770.718434,592.164754,459.657299
3727.166800,-10658.965565,1110.308913,766.095498
3727.167130,-10955.047942,222.061783,1532.190996
3727.167460,-9992.780217,444.123565,1378.971896
3727.167789,-9326.594869,74.020594,612.876398
3727.168119,-9548.656652,370.102971,306.438199
3727.168449,-9844.739029,222.061783,0.000000
3727.168779,-10140.821405,444.123565,689.485948
3727.169108,-9844.739029,666.185348,1072.533697
3727.169438,-10288.862594,1036.288319,459.657299
3727.169768,-10436.903782,296.082377,919.314598
3727.170098,-9326.594869,592.164754,612.876398
3727.170427,-9326.594869,444.123565,-383.047749
3727.170757,-10436.903782,962.267725,-306.438199
3727.171087,-9548.656652,370.102971,0.000000
3727.171417,-8586.388927,74.020594,-612.876398
3727.171746,-8660.409521,592.164754,-1838.629195
3727.172076,-10288.862594,518.144159,-1225.752797
3727.172406,-10510.924376,444.123565,-766.095498
3727.172736,-9178.553681,0.000000,-229.828649
3727.173065,-8586.388927,222.061783,0.000000
3727.173395,-9770.718434,444.123565,153.219100
3727.173725,-9178.553681,666.185348,383.047749
3727.174055,-9326.594869,296.082377,-76.609550
3727.174384,-9104.533087,666.185348,-536.266849
3727.174714,-9696.697840,0.000000,-612.876398
3727.175044,-10214.842000,296.082377,1072.533697
3727.175374,-9548.656652,222.061783,1225.752797
3727.175703,-10214.842000,444.123565,689.485948
3727.176033,-10288.862594,296.082377,-153.219100
3727.176363,-9030.512492,222.061783,-306.438199
3727.176693,-9104.533087,0.000000,0.000000
3727.177022,-10584.944971,1184.329507,229.828649
3727.177352,-11177.109724,296.082377,1302.362347
3727.177682,-9918.759623,148.041188,1225.752797
3727.178012,-9252.574275,370.102971,766.095498
3727.178341,-10658.965565,148.041188,459.657299
3727.178671,-11177.109724,0.000000,842.705048
3727.179001,-9474.636058,-370.102971,1225.752797
3727.179330,-8956.491898,0.000000,1608.800546
3727.179660,-9696.697840,296.082377,1378.971896
3727.179990,-10658.965565,-370.102971,1149.143247
3727.180320,-10658.965565,-148.041188,1302.362347
3727.180649,-10066.800811,-444.123565,919.314598
3727.180979,-10362.883188,-370.102971,689.485948
3727.181309,-9548.656652,-814.226536,1072.533697
3727.181639,-9474.636058,-592.164754,1302.362347
3727.181968,-9548.656652,-296.082377,612.876398
3727.182298,-10881.027347,-592.164754,0.000000
3727.182628,-10066.800811,-814.226536,-536.266849
3727.182958,-8734.430116,-518.144159,-459.657299
3727.183287,-8808.450710,-370.102971,153.219100
3727.183617,-10214.842000,0.000000,842.705048
3727.183947,-9548.656652,-592.164754,-153.219100
3727.184277,-9474.636058,-592.164754,0.000000
3727.184606,-9548.656652,0.000000,-842.705048
3727.184936,-10732.986159,-444.123565,-76.609550
3727.185266,-10436.903782,-888.247130,-383.047749
3727.185596,-8586.388927,-370.102971,0.000000
3727.185925,-9178.553681,0.000000,153.219100
3727.186255,-9918.759623,-74.020594,0.000000
3727.186585,-9918.759623,0.000000,-612.876398
3727.186915,-9252.574275,222.061783,-612.876398
3727.187244,-9696.697840,518.144159,-919.314598
3727.187574,-10658.965565,222.061783,-459.657299
3727.187904,-9992.780217,148.041188,1302.362347
3727.188234,-9770.718434,0.000000,1149.143247
3727.188563,-10214.842000,148.041188,306.438199
3727.188893,-10140.821405,0.000000,-459.657299
3727.189223,-8808.450710,296.082377,-229.828649
3727.189553,-8882.471304,370.102971,76.609550
3727.189882,-10658.965565,962.267725,689.485948
3727.190212,-11769.274478,0.000000,995.924147
3727.190542,-9770.718434,74.020594,766.095498
3727.190871,-8142.265362,-222.061783,153.219100
3727.191201,-9770.718434,370.102971,612.876398
3727.191531,-9548.656652,-148.041188,383.047749
3727.191861,-8956.491898,-222.061783,766.095498
3727.192190,-8808.450710,0.000000,1149.143247
3727.192520,-10732.986159,222.061783,1225.752797
3727.192850,-10584.944971,-296.082377,995.924147
3727.193180,-9474.636058,-148.041188,689.485948
3727.193509,-9252.574275,74.020594,842.705048
3727.193839,-9696.697840,74.020594,766.095498
3727.194169,-9770.718434,296.082377,536.266849
3727.194499,-9252.574275,148.041188,842.705048
3727.194828,-9400.615463,666.185348,229.828649
3727.195158,-11177.109724,814.226536,-612.876398
3727.195488,-11177.109724,148.041188,-383.047749
3727.195818,-9326.594869,148.041188,-306.438199
3727.196147,-9252.574275,222.061783,-766.095498
3727.196477,-11399.171507,148.041188,0.000000
3727.196807,-10214.842000,-444.123565,76.609550
3727.197137,-9474.636058,0.000000,153.219100
3727.197466,-9474.636058,222.061783,-229.828649
3727.197796,-11103.089130,444.123565,0.000000
3727.198126,-9844.739029,-222.061783,383.047749
3727.198456,-9252.574275,370.102971,842.705048
3727.198785,-9844.739029,222.061783,459.657299
3727.199115,-10510.924376,74.020594,0.000000
3727.199445,-9474.636058,0.000000,-612.876398
3727.199775,-9252.574275,74.020594,0.000000
3727.200104,-9770.718434,148.041188,0.000000
3727.200434,-10955.047942,-74.020594,383.047749
3727.200764,-9474.636058,0.000000,536.266849
3727.201094,-8290.306550,148.041188,229.828649
3727.201423,-9770.718434,666.185348,229.828649
3727.201753,-10584.944971,444.123565,306.438199
3727.202083,-9252.574275,74.020594,1455.581446
3727.202412,-9104.533087,-148.041188,919.314598
3727.202742,-9918.759623,296.082377,306.438199
3727.203072,-11029.068536,-148.041188,383.047749
3727.203402,-9252.574275,74.020594,995.924147
3727.203731,-8438.347739,-296.082377,536.266849
3727.204061,-9548.656652,74.020594,689.485948
3727.204391,-10140.821405,296.082377,1532.190996
3727.204721,-9844.739029,444.123565,1302.362347
3727.205050,-9326.594869,296.082377,842.705048
3727.205380,-10140.821405,814.226536,0.000000
3727.205710,-10881.027347,148.041188,229.828649
3727.206040,-9548.656652,0.000000,1072.533697
3727.206369,-9326.594869,222.061783,842.705048
3727.206699,-10436.903782,74.020594,536.266849
3727.207029,-9918.759623,148.041188,0.000000
3727.207359,-9252.574275,0.000000,0.000000
3727.207688,-9474.636058,740.205942,306.438199
3727.208018,-10658.965565,740.205942,153.219100
3727.208348,-11029.068536,-222.061783,306.438199
3727.208678,-9474.636058,0.000000,153.219100
3727.209007,-9030.512492,0.000000,0.000000
3727.209337,-9992.780217,-444.123565,0.000000
3727.209667,-9770.718434,-740.205942,0.000000
3727.209997,-9104.533087,-592.164754,0.000000
3727.210326,-8512.368333,-296.082377,-536.266849
3727.210656,-9844.739029,0.000000,-306.438199
3727.210986,-10510.924376,0.000000,536.266849
3727.211316,-10066.800811,0.000000,383.047749
3727.211645,-9844.739029,-296.082377,-229.828649
3727.211975,-9696.697840,-444.123565,-612.876398
3727.212305,-8882.471304,-444.123565,0.000000
3727.212634,-8586.388927,-444.123565,459.657299
3727.212964,-9252.574275,74.020594,0.000000
3727.213294,-10288.862594,962.267725,0.000000
3727.213624,-9918.759623,370.102971,-229.828649
3727.213953,-9696.697840,148.041188,-306.438199
3727.214283,-10214.842000,296.082377,0.000000
3727.214613,-10510.924376,0.000000,536.266849
3727.214943,-9622.677246,-74.020594,459.657299
3727.215272,-9252.574275,-370.102971,229.828649
3727.215602,-9622.677246,222.061783,383.047749
3727.215932,-10510.924376,-370.102971,76.609550
3727.216262,-9474.636058,148.041188,229.828649
3727.216591,-9474.636058,222.061783,229.828649
3727.216921,-10881.027347,222.061783,919.314598
3727.217251,-10807.006753,0.000000,1149.143247
3727.217581,-9400.615463,-222.061783,1532.190996
3727.217910,-8808.450710,-222.061783,842.705048
3727.218240,-9548.656652,0.000000,306.438199
3727.218570,-10955.047942,-222.061783,1149.143247
3727.218900,-9844.739029,0.000000,1838.629195
3727.219229,-9622.677246,370.102971,1302.362347
3727.219559,-10807.006753,666.185348,383.047749
3727.219889,-10584.944971,222.061783,536.266849
3727.220219,-9622.677246,0.000000,842.705048
3727.220548,-8882.471304,370.102971,153.219100
3727.220878,-9918.759623,370.102971,76.609550
3727.221208,-9992.780217,0.000000,-459.657299
3727.221538,-9252.574275,0.000000,-612.876398
3727.221867,-9326.594869,518.144159,-1072.533697
3727.222197,-10362.883188,370.102971,-76.609550
3727.222527,-10436.903782,0.000000,153.219100
3727.222857,-9030.512492,0.000000,536.266849
3727.223186,-8808.450710,0.000000,-689.485948
3727.223516,-10214.842000,0.000000,229.828649
3727.223846,-10214.842000,0.000000,153.219100
3727.224175,-9104.533087,222.061783,-229.828649
3727.224505,-8882.471304,296.082377,-995.924147
3727.224835,-10066.800811,518.144159,-612.876398
3727.225165,-9844.739029,148.041188,383.047749
3727.225494,-9178.553681,296.082377,536.266849
3727.225824,-9178.553681,444.123565,-612.876398
3727.226154,-10066.800811,592.164754,-919.314598
3727.226484,-9844.739029,0.000000,229.828649
3727.226813,-9770.718434,740.205942,0.000000
3727.227143,-10510.924376,592.164754,306.438199
3727.227473,-10436.903782,666.185348,-536.266849
3727.227803,-9252.574275,0.000000,76.609550
3727.228132,-9030.512492,0.000000,536.266849
3727.228462,-9844.739029,296.082377,1225.752797
3727.228792,-10807.006753,296.082377,459.657299
3727.229122,-9474.636058,74.020594,306.438199
3727.229451,-9104.533087,74.020594,0.000000
3727.229781,-10436.903782,74.020594,689.485948
3727.230111,-11695.253884,74.020594,459.657299
3727.230441,-10362.883188,-222.061783,153.219100
3727.230770,-9104.533087,-518.144159,0.000000
3727.231100,-9030.512492,-222.061783,229.828649
3727.231430,-9622.677246,-814.226536,612.876398
3727.231760,-9474.636058,74.020594,1455.581446
3727.232089,-9696.697840,-148.041188,842.705048
3727.232419,-10436.903782,0.000000,76.609550
3727.232749,-10066.800811,-444.123565,383.047749
3727.233079,-10362.883188,-444.123565,1302.362347
3727.233408,-9622.677246,-444.123565,1302.362347
3727.233738,-9770.718434,-518.144159,306.438199
3727.234068,-9400.615463,-962.267725,-229.828649
3727.234398,-8882.471304,-444.123565,-76.609550
3727.234727,-9622.677246,0.000000,-536.266849
3727.235057,-10436.903782,-370.102971,-612.876398
3727.235387,-10066.800811,-740.205942,-766.095498
3727.235716,-9326.594869,-518.144159,-459.657299
3727.236046,-8808.450710,-370.102971,-842.705048
3727.236376,-10362.883188,-148.041188,383.047749
3727.236706,-10140.821405,-518.144159,153.219100
3727.237035,-9696.697840,148.041188,-383.047749
3727.237365,-9474.636058,444.123565,-766.095498
3727.237695,-10140.821405,0.000000,-995.924147
3727.238025,-9252.574275,0.000000,-383.047749
3727.238354,-9548.656652,296.082377,153.219100
3727.238684,-9844.739029,74.020594,-229.828649
3727.239014,-10732.986159,0.000000,-459.657299
3727.239344,-9770.718434,-74.020594,229.828649
3727.239673,-9474.636058,592.164754,842.705048
3727.240003,-9844.739029,518.144159,76.609550
3727.240333,-10140.821405,296.082377,-689.485948
3727.240663,-9622.677246,296.082377,383.047749
3727.240992,-9474.636058,74.020594,1149.143247
3727.241322,-10510.924376,666.185348,1225.752797
3727.241652,-10436.903782,148.041188,-229.828649
3727.241982,-8586.388927,296.082377,919.314598
3727.242311,-8512.368333,370.102971,383.047749
3727.242641,-11103.089130,666.185348,459.657299
3727.242971,-10807.006753,0.000000,0.000000
3727.243301,-9252.574275,0.000000,612.876398
3727.243630,-8512.368333,0.000000,919.314598
3727.243960,-9548.656652,222.061783,1225.752797
3727.244290,-9844.739029,0.000000,1608.800546
3727.244620,-8882.471304,222.061783,1455.581446
3727.244949,-9622.677246,592.164754,842.705048
3727.245279,-11029.068536,814.226536,306.438199
3727.245609,-10955.047942,740.205942,689.485948
3727.245939,-10066.800811,1036.288319,1302.362347
3727.246268,-9622.677246,592.164754,383.047749
3727.246598,-10658.965565,74.020594,-536.266849
3727.246928,-9622.677246,-370.102971,-1225.752797
3727.247257,-9030.512492,666.185348,-383.047749
3727.247587,-9400.615463,74.020594,0.000000
3727.247917,-10658.965565,444.123565,-229.828649
3727.248247,-9474.636058,-444.123565,-536.266849
3727.248576,-8734.430116,296.082377,0.000000
3727.248906,-9844.739029,74.020594,-229.828649
3727.249236,-11029.068536,-444.123565,76.609550
3727.249566,-9622.677246,-518.144159,383.047749
3727.249896,-8142.265362,0.000000,-459.657299
3727.250225,-9104.533087,0.000000,-1685.410096
3727.250555,-10658.965565,0.000000,-919.314598
3727.250885,-9548.656652,-148.041188,-383.047749
3727.251215,-8808.450710,-222.061783,-766.095498
3727.251545,-9178.553681,222.061783,-612.876398
3727.251874,-10140.821405,-74.020594,0.000000
3727.252204,-9326.594869,-518.144159,459.657299
3727.252534,-8882.471304,296.082377,76.609550
3727.252864,-10584.944971,222.061783,-153.219100
3727.253194,-10732.986159,222.061783,153.219100
3727.253524,-9844.739029,74.020594,536.266849
3727.253853,-10140.821405,296.082377,919.314598
3727.254183,-11177.109724,518.144159,766.095498
3727.254513,-11473.192101,296.082377,842.705048
3727.254843,-9474.636058,148.041188,612.876398
3727.255173,-8808.450710,148.041188,0.000000
3727.255502,-10510.924376,222.061783,229.828649
3727.255832,-10955.047942,0.000000,766.095498
3727.256162,-8734.430116,-444.123565,612.876398
3727.256492,-8142.265362,-296.082377,536.266849
3727.256822,-9252.574275,0.000000,1378.971896
3727.257152,-10288.862594,-148.041188,2681.334243
3727.257481,-10288.862594,296.082377,2757.943793
3727.257811,-9696.697840,222.061783,689.485948
3727.258141,-10658.965565,148.041188,-306.438199
3727.258471,-10658.965565,-296.082377,0.000000
3727.258801,-9696.697840,-296.082377,1455.581446
3727.259131,-9178.553681,0.000000,1072.533697
3727.259460,-9622.677246,0.000000,459.657299
3727.259790,-9104.533087,-148.041188,0.000000
3727.260120,-8660.409521,1036.288319,-459.657299
3727.260450,-10066.800811,370.102971,-1685.410096
3727.260780,-11177.109724,518.144159,-842.705048
3727.261109,-9622.677246,0.000000,-612.876398
3727.261439,-8882.471304,-592.164754,0.000000
3727.261769,-9030.512492,-666.185348,-995.924147
3727.262099,-10584.944971,-666.185348,-536.266849
3727.262429,-9622.677246,-1258.350101,306.438199
3727.262759,-8364.327145,-296.082377,76.609550
3727.263088,-8438.347739,-296.082377,76.609550
3727.263418,-9770.718434,148.041188,229.828649
3727.263748,-9992.780217,74.020594,536.266849
3727.264078,-10288.862594,518.144159,0.000000
3727.264408,-10436.903782,222.061783,-842.705048
3727.264737,-11251.130318,0.000000,-459.657299
3727.265067,-9400.615463,0.000000,689.485948
3727.265397,-8956.491898,370.102971,842.705048
3727.265727,-9770.718434,740.205942,153.219100
3727.266057,-9844.739029,444.123565,-842.705048
3727.266387,-9844.739029,518.144159,-306.438199
3727.266716,-10658.965565,518.144159,612.876398
3727.267046,-11621.233289,740.205942,1762.019645
3727.267376,-10807.006753,-370.102971,1762.019645
3727.267706,-9178.553681,-74.020594,1762.019645
3727.268036,-8512.368333,0.000000,1149.143247
3727.268366,-10214.842000,148.041188,689.485948
3727.268695,-10362.883188,0.000000,842.705048
3727.269025,-9622.677246,74.020594,1378.971896
3727.269355,-8364.327145,-296.082377,1532.190996
3727.269685,-9844.739029,0.000000,1915.238745
3727.270015,-10955.047942,-222.061783,2681.334243
3727.270344,-9770.718434,148.041188,1991.848295
3727.270674,-9104.533087,0.000000,689.485948
3727.271004,-10140.821405,444.123565,0.000000
3727.271334,-10140.821405,74.020594,229.828649
3727.271664,-9992.780217,444.123565,1149.143247
3727.271994,-9400.615463,222.061783,0.000000
3727.272323,-10362.883188,222.061783,-919.314598
3727.272653,-9548.656652,0.000000,-919.314598
3727.272983,-8438.347739,814.226536,-919.314598
3727.273313,-9622.677246,1110.308913,-995.924147
3727.273643,-10584.944971,1036.288319,-995.924147
3727.273972,-10066.800811,592.164754,-842.705048
3727.274302,-10362.883188,740.205942,-306.438199
3727.274632,-10214.842000,888.247130,-689.485948
3727.274962,-10732.986159,148.041188,0.000000
3727.275292,-9844.739029,-148.041188,0.000000
3727.275622,-8512.368333,0.000000,76.609550
3727.275951,-9104.533087,370.102971,306.438199
3727.276281,-9992.780217,666.185348,383.047749
3727.276611,-9548.656652,592.164754,0.000000
3727.276941,-9696.697840,814.226536,-536.266849
3727.277271,-9844.739029,666.185348,-1149.143247
3727.277601,-10807.006753,296.082377,0.000000
3727.277930,-10066.800811,222.061783,842.705048
3727.278260,-9474.636058,148.041188,1149.143247
3727.278590,-9474.636058,370.102971,229.828649
3727.278920,-9400.615463,222.061783,-612.876398
3727.279250,-9326.594869,444.123565,-612.876398
3727.279579,-10066.800811,666.185348,153.219100
3727.279909,-9844.739029,592.164754,995.924147
3727.280239,-10436.903782,-222.061783,1455.581446
3727.280569,-9326.594869,0.000000,1838.629195
3727.280899,-9104.533087,-444.123565,1608.800546
3727.281229,-10288.862594,-518.144159,1455.581446
3727.281558,-10436.903782,-370.102971,689.485948
3727.281888,-9770.718434,-666.185348,919.314598
3727.282218,-9474.636058,-444.123565,1149.143247
3727.282548,-9844.739029,0.000000,1762.019645
3727.282878,-10066.800811,-740.205942,1532.190996
3727.283208,-9104.533087,-148.041188,919.314598
3727.283537,-9474.636058,-296.082377,-459.657299
3727.283867,-9918.759623,-444.123565,-306.438199
3727.284197,-9326.594869,-814.226536,153.219100
3727.284527,-9030.512492,-518.144159,383.047749
3727.284857,-9622.677246,-740.205942,689.485948
3727.285186,-10584.944971,-518.144159,76.609550
3727.285516,-10214.842000,-1110.308913,-306.438199
3727.285846,-9548.656652,-444.123565,-306.438199
3727.286176,-9918.759623,-518.144159,-536.266849
3727.286506,-10510.924376,-74.020594,229.828649
3727.286836,-9770.718434,-666.185348,-536.266849
3727.287165,-9474.636058,-666.185348,-1149.143247
3727.287495,-9844.739029,-814.226536,-1762.019645
3727.287825,-10807.006753,-518.144159,-1149.143247
3727.288155,-9770.718434,-740.205942,-229.828649
3727.288485,-8882.471304,0.000000,229.828649
3727.288814,-8882.471304,222.061783,-153.219100
3727.289144,-10510.924376,444.123565,-689.485948
3727.289474,-10436.903782,444.123565,-766.095498
3727.289804,-10288.862594,296.082377,-995.924147
3727.290134,-10066.800811,74.020594,-1378.971896
3727.290464,-10732.986159,-296.082377,459.657299
3727.290793,-9770.718434,-74.020594,766.095498
3727.291123,-8512.368333,-222.061783,153.219100
3727.291453,-8808.450710,518.144159,-383.047749
3727.291783,-9770.718434,444.123565,76.609550
3727.292113,-10436.903782,814.226536,1149.143247
3727.292443,-10288.862594,1110.308913,1302.362347
3727.292772,-9918.759623,1110.308913,612.876398
3727.293102,-10066.800811,222.061783,995.924147
3727.293432,-9770.718434,222.061783,1378.971896
3727.293762,-9474.636058,0.000000,1378.971896
3727.294092,-10214.842000,444.123565,536.266849
3727.294421,-8956.491898,74.020594,459.657299
3727.294751,-9252.574275,444.123565,1072.533697
3727.295081,-9252.574275,518.144159,766.095498
3727.295411,-9992.780217,740.205942,1225.752797
3727.295741,-10658.965565,222.061783,1608.800546
3727.296071,-9400.615463,592.164754,1532.190996
3727.296400,-9326.594869,296.082377,766.095498
3727.296730,-9622.677246,518.144159,766.095498
3727.297060,-9622.677246,148.041188,459.657299
3727.297390,-9992.780217,296.082377,459.657299
3727.297720,-9844.739029,296.082377,0.000000
3727.298049,-10510.924376,296.082377,-306.438199
3727.298379,-9474.636058,-222.061783,229.828649
3727.298709,-9252.574275,592.164754,919.314598
3727.299039,-9696.697840,296.082377,919.314598
3727.299369,-10510.924376,296.082377,0.000000
3727.299699,-8660.409521,0.000000,-1072.533697
3727.300028,-8808.450710,296.082377,-842.705048
3727.300358,-10214.842000,888.247130,-689.485948
3727.300688,-11251.130318,740.205942,-383.047749
3727.301018,-10436.903782,296.082377,-383.047749
3727.301348,-9030.512492,740.205942,-383.047749
3727.301678,-10214.842000,1110.308913,-1072.533697
3727.302007,-10658.965565,888.247130,-1149.143247
3727.302337,-9770.718434,592.164754,-766.095498
3727.302667,-9474.636058,444.123565,-383.047749
3727.302997,-10214.842000,888.247130,-766.095498
3727.303327,-9992.780217,-444.123565,-76.609550
3727.303656,-9178.553681,-222.061783,536.266849
3727.303986,-9474.636058,0.000000,459.657299
3727.304316,-10732.986159,296.082377,919.314598
3727.304646,-10140.821405,0.000000,0.000000
3727.304976,-9252.574275,0.000000,383.047749
3727.305306,-9178.553681,148.041188,842.705048
3727.305635,-10955.047942,370.102971,1302.362347
3727.305965,-11029.068536,-370.102971,1532.190996
3727.306295,-9622.677246,-592.164754,842.705048
3727.306625,-9178.553681,-592.164754,306.438199
3727.306955,-10214.842000,0.000000,153.219100
3727.307285,-9474.636058,-592.164754,76.609550
3727.307614,-8956.491898,-444.123565,842.705048
3727.307944,-8734.430116,-296.082377,995.924147
3727.308274,-10140.821405,0.000000,1225.752797
3727.308604,-10658.965565,-814.226536,842.705048
3727.308934,-9548.656652,-740.205942,1072.533697
3727.309263,-9548.656652,-814.226536,306.438199
3727.309593,-10732.986159,-1036.288319,919.314598
3727.309923,-9548.656652,-1554.432478,995.924147
3727.310253,-8512.368333,-1036.288319,766.095498
3727.310583,-8364.327145,-518.144159,0.000000
3727.310913,-9474.636058,-222.061783,-229.828649
3727.311242,-9992.780217,-740.205942,0.000000
3727.311572,-9770.718434,0.000000,229.828649
3727.311902,-9622.677246,-222.061783,-383.047749
3727.312232,-9992.780217,-370.102971,-383.047749
3727.312562,-9474.636058,-518.144159,-612.876398
3727.312891,-9400.615463,-740.205942,-536.266849
3727.313221,-9474.636058,0.000000,-842.705048
3727.313551,-10881.027347,-370.102971,0.000000
3727.313881,-10288.862594,0.000000,459.657299
3727.314211,-9104.533087,222.061783,0.000000
3727.314541,-9696.697840,222.061783,-842.705048
3727.314870,-10436.903782,148.041188,-919.314598
3727.315200,-9622.677246,148.041188,-689.485948
3727.315530,-9474.636058,444.123565,-766.095498
3727.315860,-9548.656652,444.123565,-1991.848295
3727.316190,-9918.759623,222.061783,-1225.752797
3727.316520,-9252.574275,444.123565,306.438199
3727.316849,-9474.636058,592.164754,689.485948
3727.317179,-11251.130318,1258.350101,306.438199
3727.317509,-10732.986159,592.164754,-153.219100
3727.317839,-9252.574275,370.102971,229.828649
3727.318169,-9178.553681,296.082377,1455.581446
3727.318498,-11029.068536,518.144159,1378.971896
3727.318828,-11325.150913,-222.061783,1378.971896
3727.319158,-9326.594869,-222.061783,842.705048
3727.319488,-8142.265362,-814.226536,306.438199
3727.319818,-9696.697840,740.205942,1378.971896
3727.320148,-10955.047942,444.123565,1685.410096
3727.320477,-9696.697840,666.185348,2068.457845
3727.320807,-8808.450710,592.164754,919.314598
3727.321137,-9844.739029,888.247130,536.266849
3727.321467,-11695.253884,740.205942,1072.533697
3727.321797,-10732.986159,148.041188,1838.629195
3727.322126,-8882.471304,-222.061783,1149.143247
