#time,accel_x,accel_y,accel_z
3711.902551,-9474.636058,-2368.659014,-2911.162892
3711.902881,-7698.141797,-3034.844362,-4366.744339
3711.903211,-7772.162391,-2664.741391,-2528.115143
3711.903541,-9474.636058,-2072.576638,-919.314598
3711.903870,-10955.047942,-962.267725,-536.266849
3711.904200,-9548.656652,-370.102971,-2068.457845
3711.904530,-8808.450710,-962.267725,-3064.381992
3711.904860,-9178.553681,-296.082377,-1991.848295
3711.905190,-11177.109724,0.000000,-842.705048
3711.905520,-10881.027347,-222.061783,-995.924147
3711.905849,-10436.903782,-296.082377,-766.095498
3711.906179,-9770.718434,-592.164754,-1762.019645
3711.906509,-10214.842000,-888.247130,-1225.752797
3711.906839,-10214.842000,-740.205942,-689.485948
3711.907169,-8882.471304,-74.020594,-229.828649
3711.907498,-8586.388927,0.000000,-689.485948
3711.907828,-9474.636058,518.144159,-1225.752797
3711.908158,-10584.944971,814.226536,-1302.362347
3711.908488,-10436.903782,1406.391290,-1991.848295
3711.908818,-10214.842000,962.267725,-2451.505594
3711.909148,-10362.883188,296.082377,-2374.896044
3711.909477,-10288.862594,0.000000,-1838.629195
3711.909807,-10066.800811,-370.102971,-1608.800546
3711.910137,-8882.471304,-1258.350101,-1991.848295
3711.910467,-8956.491898,-1110.308913,-1532.190996
3711.910797,-8438.347739,-1924.535449,-1608.800546
3711.911127,-9178.553681,-1036.288319,0.000000
3711.911456,-8216.285956,1036.288319,995.924147
3711.911786,-9770.718434,1036.288319,-536.266849
3711.912116,-11695.253884,1110.308913,-1302.362347
3711.912446,-10436.903782,518.144159,-1072.533697
3711.912776,-11029.068536,592.164754,-2145.067394
3711.913105,-11843.295072,-888.247130,-3217.601092
3711.913435,-11177.109724,-1924.535449,-3600.648841
3711.913765,-8660.409521,-2368.659014,-2911.162892
3711.914095,-6661.853478,-3256.906145,-1762.019645
3711.914425,-7328.038826,-3108.864956,0.000000
3711.914755,-8364.327145,-1702.473667,0.000000
3711.915084,-9770.718434,-962.267725,-1225.752797
3711.915414,-10955.047942,0.000000,-2834.553343
3711.915744,-12213.398043,-370.102971,-3600.648841
3711.916074,-12879.583391,-1480.411884,-4443.353888
3711.916404,-12435.459826,-3404.947333,-4903.011187
3711.916734,-10658.965565,-5255.462188,-4213.525239
3711.917063,-8142.265362,-5551.544565,-3064.381992
3711.917393,-7254.018232,-5995.668130,-2068.457845
3711.917723,-6735.874072,-5477.523971,-1149.143247
3711.918053,-7254.018232,-4737.318029,-1302.362347
3711.918383,-9400.615463,-2960.823768,-1302.362347
3711.918712,-11029.068536,-1850.514855,-995.924147
3711.919042,-12509.480420,-1702.473667,-2374.896044
3711.919372,-12953.603985,-2368.659014,-4979.620737
3711.919702,-12361.439231,-4219.173869,-7124.688131
3711.920032,-11399.171507,-5181.441594,-6205.373534
3711.920362,-9474.636058,-7105.977043,-4366.744339
3711.920691,-7624.121203,-7328.038826,-2528.115143
3711.921021,-6439.791695,-7031.956449,-995.924147
3711.921351,-5255.462188,-6291.750507,306.438199
3711.921681,-7994.224174,-4071.132681,1225.752797
3711.922011,-10807.006753,-3034.844362,0.000000
3711.922340,-12065.356855,-1998.556043,-2604.724693
3711.922670,-12657.521608,-2368.659014,-4366.744339
3711.923000,-12139.377449,-3627.009116,-4749.792088
3711.923330,-11325.150913,-5107.421000,-3447.429741
3711.923660,-10807.006753,-6143.709319,-2451.505594
3711.923990,-9104.533087,-6513.812290,-2528.115143
3711.924319,-7254.018232,-6143.709319,-2374.896044
3711.924649,-6883.915261,-5033.400406,-1915.238745
3711.924979,-7920.203579,-4293.194464,-536.266849
3711.925309,-9326.594869,-2664.741391,842.705048
3711.925639,-10140.821405,-2072.576638,-689.485948
3711.925969,-9918.759623,-1776.494261,-1685.410096
3711.926298,-10288.862594,-2220.617826,-2221.676944
3711.926628,-11029.068536,-2590.720797,-1378.971896
3711.926958,-11695.253884,-2294.638420,-1991.848295
3711.927288,-11251.130318,-3034.844362,-2451.505594
3711.927618,-10881.027347,-3182.885551,-3524.039291
3711.927947,-10362.883188,-3552.988522,-2451.505594
3711.928277,-10214.842000,-2960.823768,-459.657299
3711.928607,-9252.574275,-2886.803174,229.828649
3711.928937,-7698.141797,-2368.659014,-1072.533697
3711.929267,-6809.894666,-1480.411884,-2834.553343
3711.929597,-7328.038826,-888.247130,-2068.457845
3711.929926,-8734.430116,0.000000,-612.876398
3711.930256,-10140.821405,0.000000,766.095498
3711.930586,-11473.192101,0.000000,536.266849
3711.930916,-12287.418637,-222.061783,-229.828649
3711.931246,-12139.377449,-740.205942,-1608.800546
3711.931575,-11695.253884,-1406.391290,-2987.772442
3711.931905,-10214.842000,-1702.473667,-2834.553343
3711.932235,-9474.636058,-592.164754,-2298.286494
3711.932565,-8364.327145,74.020594,-1991.848295
3711.932895,-6809.894666,444.123565,-2145.067394
3711.933225,-6217.729913,444.123565,-2068.457845
3711.933554,-7254.018232,1628.453072,-1225.752797
3711.933884,-10362.883188,1924.535449,0.000000
3711.934214,-11843.295072,2368.659014,-459.657299
3711.934544,-11917.315666,2220.617826,-1991.848295
3711.934874,-11325.150913,592.164754,-2911.162892
3711.935203,-10658.965565,0.000000,-1838.629195
3711.935533,-11399.171507,-296.082377,0.000000
3711.935863,-11621.233289,-518.144159,536.266849
3711.936193,-8956.491898,222.061783,306.438199
3711.936523,-7105.977043,-148.041188,-766.095498
3711.936853,-6513.812290,1332.370696,-1072.533697
3711.937182,-8512.368333,2146.597232,153.219100
3711.937512,-10214.842000,2442.679609,0.000000
3711.937842,-9918.759623,3478.967927,-842.705048
3711.938172,-10584.944971,1628.453072,-1608.800546
3711.938502,-11251.130318,1184.329507,-1685.410096
3711.938831,-12953.603985,814.226536,-1991.848295
3711.939161,-13323.706956,-222.061783,-2221.676944
3711.939491,-9474.636058,-1924.535449,-2757.943793
3711.939821,-6143.709319,-1850.514855,-459.657299
3711.940151,-6513.812290,-1628.453072,3064.381992
3711.940481,-8586.388927,0.000000,4366.744339
3711.940810,-9474.636058,666.185348,2528.115143
3711.941140,-9252.574275,962.267725,383.047749
3711.941470,-10288.862594,1258.350101,-612.876398
3711.941800,-12139.377449,888.247130,-306.438199
3711.942130,-12879.583391,296.082377,-1149.143247
3711.942459,-10066.800811,-1036.288319,-2834.553343
3711.942789,-7550.100608,-2368.659014,-3907.087040
3711.943119,-8438.347739,-2368.659014,-2145.067394
3711.943449,-10732.986159,-2442.679609,-76.609550
3711.943779,-9548.656652,-2072.576638,1225.752797
3711.944109,-7920.203579,-2072.576638,689.485948
3711.944438,-7846.182985,-1332.370696,76.609550
3711.944768,-10362.883188,-666.185348,76.609550
3711.945098,-11473.192101,-592.164754,-383.047749
3711.945428,-9104.533087,-1850.514855,-2068.457845
3711.945758,-7031.956449,-1036.288319,-1455.581446
3711.946087,-10362.883188,-1702.473667,612.876398
3711.946417,-13323.706956,-1702.473667,1991.848295
3711.946747,-11991.336260,-2368.659014,612.876398
3711.947077,-9474.636058,-2590.720797,-2068.457845
3711.947407,-8438.347739,-2738.761985,-1838.629195
3711.947737,-9474.636058,-2738.761985,0.000000
3711.948066,-10288.862594,-2146.597232,1991.848295
3711.948396,-8290.306550,-1480.411884,1455.581446
3711.948726,-6439.791695,-814.226536,-229.828649
3711.949056,-8438.347739,-888.247130,-1608.800546
3711.949386,-12139.377449,0.000000,-536.266849
3711.949715,-12287.418637,-296.082377,2681.334243
3711.950045,-11399.171507,-296.082377,2681.334243
3711.950375,-9918.759623,-1702.473667,919.314598
3711.950705,-11177.109724,-1998.556043,-306.438199
3711.951035,-11103.089130,-1850.514855,383.047749
3711.951365,-9770.718434,-1480.411884,1225.752797
3711.951694,-8290.306550,-814.226536,1915.238745
3711.952024,-7179.997637,-1036.288319,612.876398
3711.952354,-7254.018232,0.000000,383.047749
3711.952684,-8586.388927,370.102971,1378.971896
3711.953014,-9400.615463,1406.391290,1072.533697
3711.953344,-11399.171507,592.164754,153.219100
3711.953673,-11399.171507,370.102971,-229.828649
3711.954003,-10140.821405,-666.185348,919.314598
3711.954333,-9178.553681,444.123565,2451.505594
3711.954663,-11103.089130,518.144159,2221.676944
3711.954993,-10955.047942,148.041188,612.876398
3711.955322,-8512.368333,740.205942,-536.266849
3711.955652,-7698.141797,1702.473667,76.609550
3711.955982,-8808.450710,2516.700203,1378.971896
3711.956312,-10807.006753,2368.659014,1072.533697
3711.956642,-10584.944971,2442.679609,-842.705048
3711.956972,-9178.553681,2220.617826,-1225.752797
3711.957301,-9030.512492,1998.556043,-1532.190996
3711.957631,-11177.109724,1406.391290,-1838.629195
3711.957961,-11917.315666,962.267725,-1455.581446
3711.958291,-9696.697840,814.226536,-1915.238745
3711.958621,-8956.491898,962.267725,-995.924147
3711.958950,-9326.594869,1036.288319,306.438199
3711.959280,-11251.130318,1702.473667,0.000000
3711.959610,-9030.512492,1258.350101,0.000000
3711.959940,-8142.265362,1628.453072,-383.047749
3711.960270,-8882.471304,2220.617826,383.047749
3711.960600,-10658.965565,1998.556043,766.095498
3711.960929,-11029.068536,1628.453072,229.828649
3711.961259,-8438.347739,1776.494261,-842.705048
3711.961589,-9104.533087,1480.411884,-1532.190996
3711.961919,-11177.109724,962.267725,-612.876398
3711.962249,-11621.233289,1332.370696,-612.876398
3711.962578,-9400.615463,74.020594,-383.047749
3711.962908,-7846.182985,296.082377,-689.485948
3711.963238,-9030.512492,518.144159,383.047749
3711.963568,-10288.862594,1406.391290,1838.629195
3711.963898,-9770.718434,1258.350101,2221.676944
3711.964228,-8808.450710,1924.535449,995.924147
3711.964557,-9844.739029,1184.329507,-459.657299
3711.964887,-11695.253884,1258.350101,-536.266849
3711.965217,-11325.150913,888.247130,459.657299
3711.965547,-9992.780217,222.061783,306.438199
3711.965877,-9548.656652,592.164754,229.828649
3711.966206,-9622.677246,0.000000,-1072.533697
3711.966536,-8956.491898,-296.082377,-612.876398
3711.966866,-8956.491898,296.082377,1455.581446
3711.967196,-9622.677246,518.144159,2145.067394
3711.967526,-10436.903782,0.000000,2221.676944
3711.967856,-9696.697840,0.000000,1378.971896
3711.968185,-8660.409521,-370.102971,2374.896044
3711.968515,-9178.553681,74.020594,2451.505594
3711.968845,-11547.212695,0.000000,1455.581446
3711.969175,-12139.377449,0.000000,229.828649
3711.969505,-10362.883188,-962.267725,0.000000
3711.969834,-9030.512492,-444.123565,919.314598
3711.970164,-9474.636058,-888.247130,1455.581446
3711.970494,-10584.944971,-592.164754,383.047749
3711.970824,-9992.780217,-370.102971,-383.047749
3711.971154,-8734.430116,-370.102971,-766.095498
3711.971484,-9622.677246,0.000000,153.219100
3711.971813,-10436.903782,-592.164754,0.000000
3711.972143,-10140.821405,-296.082377,153.219100
3711.972473,-9030.512492,-1184.329507,76.609550
3711.972803,-9252.574275,-814.226536,-459.657299
3711.973133,-10436.903782,-1554.432478,-842.705048
3711.973462,-11103.089130,-1332.370696,-612.876398
3711.973792,-10214.842000,-1924.535449,-229.828649
3711.974122,-9400.615463,-1480.411884,459.657299
3711.974452,-9696.697840,-1258.350101,536.266849
3711.974782,-9844.739029,-1480.411884,0.000000
3711.975112,-8660.409521,-1554.432478,-766.095498
3711.975441,-7105.977043,-1184.329507,-1072.533697
3711.975771,-8364.327145,-740.205942,76.609550
3711.976101,-10510.924376,-518.144159,153.219100
3711.976431,-10436.903782,-296.082377,153.219100
3711.976761,-10214.842000,-444.123565,-383.047749
3711.977090,-10288.862594,-518.144159,-1149.143247
3711.977420,-11325.150913,-1332.370696,-689.485948
3711.977750,-10584.944971,-1036.288319,229.828649
3711.978080,-8364.327145,-1480.411884,1302.362347
3711.978410,-7994.224174,-370.102971,1149.143247
3711.978740,-9178.553681,-296.082377,229.828649
3711.979069,-10436.903782,74.020594,0.000000
3711.979399,-10066.800811,0.000000,766.095498
3711.979729,-9252.574275,74.020594,0.000000
3711.980059,-9474.636058,148.041188,536.266849
3711.980389,-10362.883188,0.000000,306.438199
3711.980718,-9548.656652,-74.020594,0.000000
3711.981048,-9548.656652,296.082377,536.266849
3711.981378,-9992.780217,296.082377,0.000000
3711.981708,-10436.903782,370.102971,-306.438199
3711.982038,-9326.594869,444.123565,-306.438199
3711.982368,-8882.471304,0.000000,1225.752797
3711.982697,-8882.471304,888.247130,1838.629195
3711.983027,-10658.965565,518.144159,1378.971896
3711.983357,-10510.924376,888.247130,459.657299
3711.983687,-9400.615463,814.226536,0.000000
3711.984017,-8660.409521,1480.411884,383.047749
3711.984347,-10584.944971,1258.350101,1149.143247
3711.984676,-11843.295072,1036.288319,459.657299
3711.985006,-10807.006753,666.185348,-536.266849
3711.985336,-9326.594869,888.247130,-536.266849
3711.985666,-9844.739029,666.185348,-383.047749
3711.985996,-10510.924376,148.041188,229.828649
3711.986325,-9400.615463,666.185348,306.438199
3711.986655,-7994.224174,518.144159,76.609550
3711.986985,-8512.368333,1184.329507,306.438199
3711.987315,-9844.739029,888.247130,0.000000
3711.987645,-10732.986159,1554.432478,-766.095498
3711.987975,-10732.986159,740.205942,-536.266849
3711.988304,-10584.944971,1036.288319,306.438199
3711.988634,-11177.109724,444.123565,459.657299
3711.988964,-10584.944971,74.020594,-536.266849
3711.989294,-8512.368333,-222.061783,-383.047749
3711.989624,-7105.977043,74.020594,153.219100
3711.989953,-9104.533087,444.123565,919.314598
3711.990283,-10510.924376,592.164754,1225.752797
3711.990613,-9918.759623,592.164754,842.705048
3711.990943,-9030.512492,814.226536,0.000000
3711.991273,-9696.697840,1480.411884,306.438199
3711.991603,-11177.109724,592.164754,612.876398
3711.991932,-10807.006753,666.185348,383.047749
3711.992262,-9474.636058,0.000000,306.438199
3711.992592,-9104.533087,0.000000,0.000000
3711.992922,-10288.862594,-222.061783,306.438199
3711.993252,-10658.965565,222.061783,536.266849
3711.993581,-9770.718434,-666.185348,995.924147
3711.993911,-8290.306550,-296.082377,1072.533697
3711.994241,-9252.574275,-74.020594,1149.143247
3711.994571,-10214.842000,-296.082377,766.095498
3711.994901,-9326.594869,-518.144159,995.924147
3711.995231,-8882.471304,-370.102971,2145.067394
3711.995560,-9178.553681,0.000000,1302.362347
3711.995890,-10807.006753,-148.041188,306.438199
3711.996220,-10807.006753,-518.144159,-153.219100
3711.996550,-10066.800811,-1332.370696,383.047749
3711.996880,-9918.759623,-370.102971,1455.581446
3711.997209,-10658.965565,-814.226536,1608.800546
3711.997539,-10510.924376,-74.020594,689.485948
3711.997869,-9104.533087,-148.041188,612.876398
3711.998199,-9548.656652,148.041188,536.266849
3711.998529,-10658.965565,0.000000,0.000000
3711.998859,-11251.130318,74.020594,-306.438199
3711.999188,-9992.780217,-888.247130,-536.266849
3711.999518,-8808.450710,-444.123565,-76.609550
3711.999848,-9474.636058,-296.082377,-766.095498
3712.000178,-10881.027347,-1184.329507,-1302.362347
3712.000508,-10066.800811,-592.164754,-1532.190996
3712.000837,-8808.450710,-740.205942,-689.485948
3712.001167,-9548.656652,-444.123565,-76.609550
3712.001497,-10214.842000,-740.205942,0.000000
3712.001827,-9770.718434,-740.205942,-383.047749
3712.002157,-8586.388927,-962.267725,0.000000
3712.002487,-8956.491898,-740.205942,-153.219100
3712.002816,-9992.780217,-296.082377,0.000000
3712.003146,-10436.903782,-444.123565,-383.047749
3712.003476,-9622.677246,-592.164754,0.000000
3712.003806,-9474.636058,-1036.288319,0.000000
3712.004136,-10436.903782,0.000000,536.266849
3712.004465,-10658.965565,-592.164754,0.000000
3712.004795,-9030.512492,-592.164754,-689.485948
3712.005125,-7772.162391,-148.041188,-612.876398
3712.005455,-8290.306550,0.000000,459.657299
3712.005785,-10658.965565,518.144159,1225.752797
3712.006115,-10955.047942,518.144159,995.924147
3712.006444,-9770.718434,296.082377,383.047749
3712.006774,-9252.574275,370.102971,-612.876398
3712.007104,-10140.821405,296.082377,-919.314598
3712.007434,-10732.986159,222.061783,-76.609550
3712.007764,-9252.574275,148.041188,306.438199
3712.008093,-8956.491898,962.267725,1072.533697
3712.008423,-9474.636058,666.185348,383.047749
3712.008753,-10362.883188,1110.308913,536.266849
3712.009083,-10510.924376,296.082377,842.705048
3712.009413,-9770.718434,592.164754,1608.800546
3712.009743,-10214.842000,74.020594,1608.800546
3712.010072,-10436.903782,740.205942,1532.190996
3712.010402,-9326.594869,296.082377,1225.752797
3712.010732,-9030.512492,370.102971,153.219100
3712.011062,-9326.594869,1036.288319,995.924147
3712.011392,-10510.924376,1554.432478,766.095498
3712.011721,-10732.986159,1036.288319,0.000000
3712.012051,-9918.759623,666.185348,0.000000
3712.012381,-9696.697840,666.185348,383.047749
3712.012711,-10510.924376,592.164754,689.485948
3712.013041,-10140.821405,296.082377,-612.876398
3712.013371,-8512.368333,592.164754,-536.266849
3712.013700,-8068.244768,1110.308913,0.000000
3712.014030,-9992.780217,888.247130,306.438199
3712.014360,-11325.150913,592.164754,-229.828649
3712.014690,-10881.027347,222.061783,-459.657299
3712.015020,-9030.512492,0.000000,-1225.752797
3712.015350,-9474.636058,0.000000,-306.438199
3712.015679,-9844.739029,-444.123565,-919.314598
3712.016009,-9400.615463,-592.164754,-689.485948
3712.016339,-8364.327145,0.000000,-76.609550
3712.016669,-8956.491898,666.185348,-383.047749
3712.016999,-10584.944971,370.102971,-919.314598
3712.017328,-10658.965565,814.226536,-612.876398
3712.017658,-9844.739029,444.123565,-306.438199
3712.017988,-9992.780217,444.123565,0.000000
3712.018318,-10584.944971,74.020594,229.828649
3712.018648,-10436.903782,148.041188,-306.438199
3712.018978,-9104.533087,-148.041188,-766.095498
3712.019307,-8438.347739,148.041188,-306.438199
3712.019637,-10362.883188,370.102971,995.924147
3712.019967,-11399.171507,0.000000,1225.752797
3712.020297,-10732.986159,0.000000,536.266849
3712.020627,-8956.491898,-444.123565,0.000000
3712.020956,-8512.368333,0.000000,-383.047749
3712.021286,-9400.615463,-518.144159,459.657299
3712.021616,-10288.862594,0.000000,1072.533697
3712.021946,-9696.697840,-296.082377,1838.629195
3712.022276,-9326.594869,74.020594,995.924147
3712.022606,-10436.903782,-148.041188,229.828649
3712.022935,-10658.965565,-296.082377,459.657299
3712.023265,-9696.697840,-518.144159,1149.143247
3712.023595,-8512.368333,-296.082377,1762.019645
3712.023925,-9030.512492,-518.144159,1378.971896
3712.024255,-9992.780217,0.000000,459.657299
3712.024584,-9178.553681,0.000000,459.657299
3712.024914,-8364.327145,-222.061783,306.438199
3712.025244,-9326.594869,296.082377,536.266849
3712.025574,-11029.068536,74.020594,306.438199
3712.025904,-10732.986159,74.020594,306.438199
3712.026234,-8808.450710,0.000000,0.000000
3712.026563,-8882.471304,592.164754,0.000000
3712.026893,-10510.924376,0.000000,0.000000
3712.027223,-11695.253884,518.144159,229.828649
3712.027553,-10066.800811,-148.041188,0.000000
3712.027883,-8586.388927,-296.082377,-612.876398
3712.028213,-9326.594869,296.082377,-153.219100
3712.028542,-10436.903782,148.041188,-229.828649
3712.028872,-10288.862594,0.000000,0.000000
3712.029202,-9548.656652,222.061783,-689.485948
3712.029532,-9622.677246,0.000000,-995.924147
3712.029862,-10955.047942,-444.123565,-842.705048
3712.030192,-10362.883188,-370.102971,0.000000
3712.030522,-8956.491898,-962.267725,919.314598
3712.030851,-8882.471304,74.020594,459.657299
3712.031181,-9992.780217,-592.164754,0.000000
3712.031511,-9992.780217,-592.164754,-1608.800546
3712.031841,-8956.491898,-518.144159,-1378.971896
3712.032171,-9252.574275,0.000000,0.000000
3712.032501,-9918.759623,0.000000,536.266849
3712.032831,-10584.944971,-74.020594,536.266849
3712.033160,-8734.430116,-666.185348,-459.657299
3712.033490,-7772.162391,-592.164754,-306.438199
3712.033820,-9548.656652,222.061783,-229.828649
3712.034150,-11325.150913,0.000000,1149.143247
3712.034480,-10066.800811,0.000000,919.314598
3712.034810,-9104.533087,148.041188,229.828649
3712.035140,-9696.697840,370.102971,0.000000
3712.035469,-10658.965565,-296.082377,-153.219100
3712.035799,-10658.965565,-148.041188,0.000000
3712.036129,-8586.388927,-814.226536,459.657299
3712.036459,-8216.285956,148.041188,1149.143247
3712.036789,-9252.574275,74.020594,536.266849
3712.037119,-9770.718434,518.144159,76.609550
3712.037448,-9474.636058,370.102971,0.000000
3712.037778,-10140.821405,740.205942,306.438199
3712.038108,-11695.253884,666.185348,766.095498
3712.038438,-11473.192101,0.000000,1149.143247
3712.038768,-9474.636058,-148.041188,1149.143247
3712.039098,-8216.285956,-296.082377,1455.581446
3712.039428,-9178.553681,444.123565,1608.800546
3712.039757,-9992.780217,444.123565,1149.143247
3712.040087,-10288.862594,888.247130,383.047749
3712.040417,-9770.718434,814.226536,536.266849
3712.040747,-10807.006753,1110.308913,689.485948
3712.041077,-11695.253884,962.267725,76.609550
3712.041407,-11251.130318,592.164754,0.000000
3712.041737,-8882.471304,0.000000,-459.657299
3712.042066,-8882.471304,74.020594,-306.438199
3712.042396,-9326.594869,0.000000,-306.438199
3712.042726,-10658.965565,370.102971,0.000000
3712.043056,-10066.800811,592.164754,0.000000
3712.043386,-9548.656652,222.061783,-842.705048
3712.043716,-9548.656652,222.061783,-1072.533697
3712.044046,-9696.697840,0.000000,-459.657299
3712.044375,-9474.636058,0.000000,459.657299
3712.044705,-8956.491898,0.000000,1072.533697
3712.045035,-9326.594869,370.102971,919.314598
3712.045365,-10066.800811,740.205942,-383.047749
3712.045695,-10436.903782,592.164754,-1072.533697
3712.046025,-10584.944971,148.041188,-995.924147
3712.046355,-10362.883188,0.000000,0.000000
3712.046684,-10288.862594,370.102971,1072.533697
3712.047014,-9918.759623,-148.041188,306.438199
3712.047344,-8512.368333,-740.205942,76.609550
3712.047674,-7994.224174,222.061783,153.219100
3712.048004,-8734.430116,518.144159,0.000000
3712.048334,-10436.903782,962.267725,-306.438199
3712.048663,-10584.944971,666.185348,0.000000
3712.048993,-10658.965565,518.144159,76.609550
3712.049323,-10658.965565,296.082377,76.609550
3712.049653,-10955.047942,0.000000,-153.219100
3712.049983,-9474.636058,-740.205942,0.000000
3712.050313,-8290.306550,-518.144159,612.876398
3712.050643,-8142.265362,-296.082377,1149.143247
3712.050972,-9992.780217,0.000000,766.095498
3712.051302,-10658.965565,-148.041188,612.876398
3712.051632,-9918.759623,-518.144159,229.828649
3712.051962,-8956.491898,0.000000,306.438199
3712.052292,-9178.553681,-370.102971,1072.533697
3712.052622,-9992.780217,-370.102971,689.485948
3712.052952,-9400.615463,-814.226536,1225.752797
3712.053281,-9326.594869,-222.061783,1685.410096
3712.053611,-10288.862594,0.000000,1532.190996
3712.053941,-11177.109724,74.020594,689.485948
3712.054271,-10362.883188,74.020594,76.609550
3712.054601,-9178.553681,-74.020594,229.828649
3712.054931,-9474.636058,0.000000,306.438199
3712.055261,-10510.924376,-296.082377,536.266849
3712.055590,-10436.903782,0.000000,0.000000
3712.055920,-8956.491898,-444.123565,-383.047749
3712.056250,-8734.430116,74.020594,-536.266849
3712.056580,-9992.780217,-148.041188,-153.219100
3712.056910,-10955.047942,148.041188,-229.828649
3712.057240,-10436.903782,0.000000,-689.485948
3712.057569,-9992.780217,0.000000,-766.095498
3712.057899,-10214.842000,-370.102971,-306.438199
3712.058229,-10658.965565,-148.041188,229.828649
3712.058559,-9400.615463,-666.185348,0.000000
3712.058889,-8882.471304,-518.144159,76.609550
3712.059219,-9326.594869,0.000000,153.219100
3712.059549,-10362.883188,-74.020594,-306.438199
3712.059878,-10066.800811,0.000000,0.000000
3712.060208,-9104.533087,-370.102971,76.609550
3712.060538,-8438.347739,0.000000,459.657299
3712.060868,-9622.677246,0.000000,153.219100
3712.061198,-10658.965565,148.041188,-383.047749
3712.061528,-9474.636058,-444.123565,0.000000
3712.061858,-8882.471304,0.000000,76.609550
3712.062187,-9548.656652,0.000000,766.095498
3712.062517,-10584.944971,296.082377,153.219100
3712.062847,-9400.615463,222.061783,689.485948
3712.063177,-9178.553681,296.082377,536.266849
3712.063507,-10140.821405,592.164754,0.000000
3712.063837,-11103.089130,592.164754,-229.828649
3712.064167,-10140.821405,0.000000,383.047749
3712.064496,-8512.368333,-370.102971,1302.362347
3712.064826,-8808.450710,296.082377,1608.800546
3712.065156,-9992.780217,74.020594,612.876398
3712.065486,-9474.636058,148.041188,76.609550
3712.065816,-9178.553681,0.000000,459.657299
3712.066146,-10140.821405,222.061783,1762.019645
3712.066476,-11103.089130,222.061783,2374.896044
3712.066805,-10362.883188,296.082377,995.924147
3712.067135,-8586.388927,0.000000,536.266849
3712.067465,-8364.327145,296.082377,536.266849
3712.067795,-9844.739029,666.185348,689.485948
3712.068125,-10807.006753,666.185348,229.828649
3712.068455,-10140.821405,814.226536,-383.047749
3712.068784,-9844.739029,888.247130,76.609550
3712.069114,-10807.006753,1036.288319,229.828649
3712.069444,-11547.212695,0.000000,0.000000
3712.069774,-9400.615463,148.041188,-153.219100
3712.070104,-8142.265362,-222.061783,-383.047749
3712.070434,-9104.533087,814.226536,536.266849
3712.070764,-10658.965565,148.041188,1225.752797
3712.071093,-10881.027347,222.061783,612.876398
3712.071423,-9474.636058,222.061783,0.000000
3712.071753,-9474.636058,222.061783,-995.924147
3712.072083,-9770.718434,370.102971,-1302.362347
3712.072413,-10436.903782,0.000000,-612.876398
3712.072743,-9622.677246,-74.020594,-306.438199
3712.073073,-8364.327145,-370.102971,0.000000
3712.073402,-9326.594869,0.000000,76.609550
3712.073732,-11029.068536,222.061783,-766.095498
3712.074062,-10362.883188,148.041188,-612.876398
3712.074392,-9474.636058,-296.082377,-306.438199
3712.074722,-9548.656652,-518.144159,229.828649
3712.075052,-10436.903782,-592.164754,689.485948
3712.075382,-9622.677246,-814.226536,842.705048
3712.075711,-8290.306550,-1036.288319,306.438199
3712.076041,-7846.182985,-370.102971,-153.219100
3712.076371,-9918.759623,74.020594,0.000000
3712.076701,-10955.047942,74.020594,0.000000
3712.077031,-10436.903782,0.000000,919.314598
3712.077361,-9622.677246,148.041188,842.705048
3712.077690,-10214.842000,-296.082377,153.219100
3712.078020,-10436.903782,-592.164754,-766.095498
3712.078350,-9770.718434,-370.102971,-689.485948
3712.078680,-8882.471304,-592.164754,383.047749
3712.079010,-9252.574275,-148.041188,919.314598
3712.079340,-10288.862594,74.020594,919.314598
3712.079670,-10140.821405,-222.061783,229.828649
3712.079999,-9326.594869,-518.144159,612.876398
3712.080329,-9252.574275,0.000000,229.828649
3712.080659,-10436.903782,-296.082377,842.705048
3712.080989,-10140.821405,-740.205942,612.876398
3712.081319,-8956.491898,-814.226536,1302.362347
3712.081649,-8882.471304,-296.082377,1838.629195
3712.081979,-10436.903782,444.123565,1608.800546
3712.082308,-10955.047942,296.082377,612.876398
3712.082638,-9622.677246,0.000000,0.000000
3712.082968,-9104.533087,370.102971,0.000000
3712.083298,-10510.924376,666.185348,842.705048
3712.083628,-11177.109724,296.082377,612.876398
3712.083958,-9918.759623,74.020594,-842.705048
3712.084288,-8660.409521,0.000000,-1302.362347
3712.084617,-8438.347739,296.082377,-995.924147
3712.084947,-10807.006753,740.205942,0.000000
3712.085277,-10955.047942,222.061783,306.438199
3712.085607,-9548.656652,74.020594,536.266849
3712.085937,-9326.594869,370.102971,536.266849
3712.086267,-10362.883188,-148.041188,459.657299
3712.086597,-10881.027347,222.061783,-689.485948
3712.086926,-9400.615463,-370.102971,229.828649
3712.087256,-8586.388927,222.061783,612.876398
3712.087586,-9400.615463,296.082377,0.000000
3712.087916,-10955.047942,518.144159,-383.047749
3712.088246,-9474.636058,222.061783,-1378.971896
3712.088576,-9030.512492,148.041188,-536.266849
3712.088905,-9770.718434,888.247130,229.828649
3712.089235,-11251.130318,666.185348,689.485948
3712.089565,-9992.780217,592.164754,459.657299
3712.089895,-8142.265362,-296.082377,76.609550
3712.090225,-8808.450710,666.185348,0.000000
3712.090555,-11177.109724,296.082377,995.924147
3712.090885,-11325.150913,148.041188,919.314598
3712.091214,-9622.677246,74.020594,995.924147
3712.091544,-8660.409521,296.082377,536.266849
3712.091874,-9548.656652,296.082377,229.828649
3712.092204,-10881.027347,592.164754,76.609550
3712.092534,-10140.821405,592.164754,0.000000
3712.092864,-9178.553681,148.041188,-306.438199
3712.093194,-9622.677246,518.144159,-229.828649
3712.093523,-10510.924376,-296.082377,0.000000
3712.093853,-9548.656652,0.000000,689.485948
3712.094183,-8882.471304,-592.164754,1225.752797
3712.094513,-9252.574275,74.020594,1225.752797
3712.094843,-10510.924376,370.102971,919.314598
3712.095173,-10510.924376,370.102971,689.485948
3712.095503,-9622.677246,0.000000,995.924147
3712.095832,-9844.739029,74.020594,1455.581446
3712.096162,-10807.006753,296.082377,1915.238745
3712.096492,-10955.047942,148.041188,153.219100
3712.096822,-9104.533087,-518.144159,-383.047749
3712.097152,-7624.121203,74.020594,-306.438199
3712.097482,-8660.409521,592.164754,0.000000
3712.097811,-10288.862594,296.082377,0.000000
3712.098141,-10732.986159,1036.288319,383.047749
3712.098471,-10436.903782,296.082377,536.266849
3712.098801,-10436.903782,0.000000,-306.438199
3712.099131,-11029.068536,0.000000,-536.266849
3712.099461,-9992.780217,-666.185348,-689.485948
3712.099791,-8956.491898,-518.144159,306.438199
3712.100120,-8512.368333,0.000000,0.000000
3712.100450,-9844.739029,0.000000,0.000000
3712.100780,-10288.862594,0.000000,-306.438199
3712.101110,-9992.780217,0.000000,0.000000
3712.101440,-9992.780217,0.000000,919.314598
3712.101770,-10584.944971,74.020594,76.609550
3712.102100,-10362.883188,-444.123565,-995.924147
3712.102429,-8956.491898,-592.164754,-1149.143247
3712.102759,-9104.533087,-74.020594,-766.095498
3712.103089,-9844.739029,592.164754,76.609550
3712.103419,-10955.047942,74.020594,0.000000
3712.103749,-9696.697840,0.000000,-1072.533697
3712.104079,-9326.594869,-518.144159,-689.485948
3712.104409,-9474.636058,0.000000,153.219100
3712.104738,-10066.800811,0.000000,1608.800546
3712.105068,-10066.800811,0.000000,919.314598
3712.105398,-8882.471304,-444.123565,612.876398
3712.105728,-9030.512492,592.164754,153.219100
3712.106058,-10955.047942,0.000000,0.000000
3712.106388,-11843.295072,0.000000,0.000000
3712.106718,-10066.800811,-296.082377,1149.143247
3712.107047,-8364.327145,-592.164754,919.314598
3712.107377,-8512.368333,-296.082377,459.657299
3712.107707,-9622.677246,-222.061783,383.047749
3712.108037,-9548.656652,-148.041188,0.000000
3712.108367,-9400.615463,0.000000,842.705048
3712.108697,-9548.656652,74.020594,1149.143247
3712.109026,-10510.924376,0.000000,1532.190996
3712.109356,-9918.759623,0.000000,1455.581446
3712.109686,-9252.574275,0.000000,1149.143247
3712.110016,-9104.533087,0.000000,536.266849
3712.110346,-10214.842000,0.000000,842.705048
3712.110676,-10584.944971,370.102971,919.314598
3712.111006,-9326.594869,0.000000,1225.752797
3712.111335,-9400.615463,740.205942,612.876398
3712.111665,-10510.924376,296.082377,0.000000
3712.111995,-11547.212695,518.144159,-229.828649
3712.112325,-10066.800811,0.000000,-612.876398
3712.112655,-8956.491898,74.020594,-612.876398
3712.112985,-8882.471304,0.000000,-153.219100
3712.113315,-10214.842000,666.185348,459.657299
3712.113644,-10214.842000,296.082377,153.219100
3712.113974,-9548.656652,-74.020594,-306.438199
3712.114304,-9474.636058,370.102971,-459.657299
3712.114634,-10584.944971,370.102971,306.438199
3712.114964,-10955.047942,0.000000,842.705048
3712.115294,-9622.677246,-592.164754,919.314598
3712.115624,-8956.491898,296.082377,612.876398
3712.115953,-9548.656652,0.000000,0.000000
3712.116283,-9918.759623,148.041188,-919.314598
3712.116613,-9474.636058,0.000000,-689.485948
3712.116943,-9548.656652,148.041188,-229.828649
3712.117273,-10066.800811,222.061783,306.438199
3712.117603,-10658.965565,296.082377,229.828649
3712.117932,-10066.800811,0.000000,-1072.533697
3712.118262,-8512.368333,-296.082377,-842.705048
3712.118592,-8882.471304,148.041188,0.000000
3712.118922,-11325.150913,814.226536,459.657299
3712.119252,-10510.924376,222.061783,229.828649
3712.119582,-9252.574275,-148.041188,0.000000
3712.119912,-8956.491898,444.123565,-459.657299
3712.120241,-10436.903782,-222.061783,-536.266849
3712.120571,-10584.944971,-296.082377,-536.266849
3712.120901,-9030.512492,-518.144159,0.000000
3712.121231,-8290.306550,-370.102971,229.828649
3712.121561,-9104.533087,-444.123565,689.485948
3712.121891,-10288.862594,-518.144159,689.485948
3712.122221,-9992.780217,-814.226536,1225.752797
3712.122550,-10140.821405,-222.061783,1225.752797
3712.122880,-9992.780217,-296.082377,612.876398
3712.123210,-9992.780217,518.144159,1072.533697
3712.123540,-9178.553681,0.000000,689.485948
3712.123870,-9030.512492,0.000000,1072.533697
3712.124200,-9400.615463,444.123565,919.314598
3712.124530,-10807.006753,666.185348,229.828649
3712.124859,-10807.006753,888.247130,-919.314598
3712.125189,-9844.739029,370.102971,-153.219100
3712.125519,-10066.800811,518.144159,536.266849
3712.125849,-10214.842000,370.102971,1072.533697
3712.126179,-10510.924376,666.185348,995.924147
3712.126508,-9548.656652,0.000000,-229.828649
3712.126838,-9474.636058,148.041188,-689.485948
3712.127168,-10066.800811,0.000000,0.000000
3712.127498,-10510.924376,222.061783,0.000000
3712.127828,-9400.615463,0.000000,306.438199
3712.128157,-8586.388927,-222.061783,306.438199
3712.128487,-8734.430116,148.041188,0.000000
3712.128817,-10658.965565,296.082377,0.000000
3712.129147,-10658.965565,148.041188,-459.657299
3712.129476,-9992.780217,-444.123565,383.047749
3712.129806,-9400.615463,-148.041188,536.266849
3712.130136,-9770.718434,0.000000,76.609550
3712.130466,-9474.636058,0.000000,-383.047749
3712.130795,-9474.636058,-222.061783,0.000000
3712.131125,-9104.533087,74.020594,766.095498
3712.131455,-9844.739029,444.123565,919.314598
3712.131785,-10214.842000,666.185348,919.314598
3712.132115,-9918.759623,666.185348,0.000000
3712.132444,-9326.594869,296.082377,-612.876398
3712.132774,-9696.697840,444.123565,-842.705048
3712.133104,-11399.171507,444.123565,-153.219100
3712.133434,-10362.883188,0.000000,-689.485948
3712.133763,-8808.450710,-518.144159,-306.438199
3712.134093,-7846.182985,74.020594,0.000000
3712.134423,-8956.491898,-518.144159,153.219100
3712.134753,-10510.924376,518.144159,689.485948
3712.135083,-10214.842000,0.000000,919.314598
3712.135412,-9474.636058,296.082377,689.485948
3712.135742,-10362.883188,0.000000,842.705048
3712.136072,-10881.027347,0.000000,612.876398
3712.136402,-9252.574275,-592.164754,995.924147
3712.136731,-8586.388927,0.000000,842.705048
3712.137061,-9030.512492,0.000000,766.095498
3712.137391,-10658.965565,222.061783,1072.533697
3712.137721,-10140.821405,222.061783,153.219100
3712.138050,-9844.739029,518.144159,459.657299
3712.138380,-9622.677246,814.226536,766.095498
3712.138710,-10881.027347,518.144159,1149.143247
3712.139040,-10436.903782,74.020594,0.000000
3712.139370,-9104.533087,0.000000,229.828649
3712.139699,-9252.574275,666.185348,76.609550
3712.140029,-10510.924376,666.185348,612.876398
3712.140359,-11399.171507,1110.308913,0.000000
3712.140689,-9770.718434,296.082377,153.219100
3712.141018,-8808.450710,370.102971,0.000000
3712.141348,-10140.821405,444.123565,0.000000
3712.141678,-10807.006753,592.164754,459.657299
3712.142008,-10066.800811,148.041188,0.000000
3712.142338,-8660.409521,0.000000,0.000000
3712.142667,-9104.533087,0.000000,-306.438199
3712.142997,-10510.924376,0.000000,76.609550
3712.143327,-9696.697840,74.020594,-306.438199
3712.143657,-8882.471304,-74.020594,0.000000
3712.143986,-8808.450710,0.000000,459.657299
3712.144316,-10362.883188,0.000000,306.438199
3712.144646,-10584.944971,222.061783,-919.314598
3712.144976,-9474.636058,-444.123565,-766.095498
3712.145305,-9178.553681,370.102971,306.438199
3712.145635,-9696.697840,-296.082377,919.314598
3712.145965,-10732.986159,222.061783,229.828649
3712.146295,-9548.656652,-444.123565,-383.047749
3712.146625,-8808.450710,0.000000,-306.438199
3712.146954,-9548.656652,592.164754,229.828649
3712.147284,-11103.089130,592.164754,536.266849
3712.147614,-10881.027347,296.082377,-76.609550
3712.147944,-9696.697840,0.000000,0.000000
3712.148273,-9104.533087,0.000000,229.828649
3712.148603,-10732.986159,-222.061783,383.047749
3712.148933,-10881.027347,-296.082377,689.485948
3712.149263,-9400.615463,-1036.288319,766.095498
3712.149593,-8290.306550,-74.020594,689.485948
3712.149922,-9622.677246,-296.082377,536.266849
3712.150252,-10807.006753,148.041188,383.047749
3712.150582,-10066.800811,-592.164754,459.657299
3712.150912,-9104.533087,0.000000,1072.533697
3712.151241,-9548.656652,0.000000,1225.752797
3712.151571,-10658.965565,-370.102971,766.095498
3712.151901,-9548.656652,-666.185348,383.047749
3712.152231,-8438.347739,-518.144159,536.266849
3712.152561,-8956.491898,-148.041188,536.266849
3712.152890,-11103.089130,74.020594,536.266849
3712.153220,-10658.965565,-296.082377,383.047749
3712.153550,-9474.636058,-666.185348,536.266849
3712.153880,-9178.553681,-296.082377,383.047749
3712.154209,-10362.883188,-592.164754,689.485948
3712.154539,-10436.903782,-296.082377,536.266849
3712.154869,-9474.636058,-888.247130,459.657299
3712.155199,-8586.388927,0.000000,459.657299
3712.155528,-9622.677246,-444.123565,0.000000
3712.155858,-11177.109724,0.000000,-383.047749
3712.156188,-10288.862594,-592.164754,-766.095498
3712.156518,-9252.574275,-444.123565,-1072.533697
3712.156848,-9178.553681,-444.123565,-459.657299
3712.157177,-9992.780217,-1036.288319,383.047749
3712.157507,-10214.842000,74.020594,459.657299
3712.157837,-9326.594869,222.061783,689.485948
3712.158167,-9770.718434,518.144159,-306.438199
3712.158496,-11473.192101,148.041188,-1149.143247
3712.158826,-11177.109724,222.061783,-1225.752797
3712.159156,-9548.656652,-370.102971,0.000000
3712.159486,-8956.491898,296.082377,1072.533697
3712.159816,-9992.780217,0.000000,842.705048
3712.160145,-10732.986159,444.123565,-153.219100
3712.160475,-9104.533087,0.000000,-919.314598
3712.160805,-8882.471304,296.082377,-459.657299
3712.161135,-10214.842000,740.205942,689.485948
3712.161464,-11547.212695,962.267725,1225.752797
3712.161794,-9992.780217,370.102971,0.000000
3712.162124,-8364.327145,-666.185348,0.000000
3712.162454,-9030.512492,296.082377,0.000000
3712.162783,-10955.047942,444.123565,1149.143247
3712.163113,-10140.821405,370.102971,536.266849
3712.163443,-8734.430116,0.000000,1225.752797
3712.163773,-8956.491898,888.247130,919.314598
3712.164103,-10807.006753,666.185348,459.657299
3712.164432,-11251.130318,1110.308913,229.828649
3712.164762,-9326.594869,222.061783,306.438199
3712.165092,-8734.430116,592.164754,229.828649
3712.165422,-9400.615463,148.041188,919.314598
3712.165751,-10510.924376,148.041188,842.705048
3712.166081,-9178.553681,296.082377,766.095498
3712.166411,-7994.224174,666.185348,306.438199
3712.166741,-9030.512492,1036.288319,919.314598
3712.167071,-11769.274478,1554.432478,1072.533697
3712.167400,-11251.130318,962.267725,919.314598
3712.167730,-10436.903782,518.144159,919.314598
3712.168060,-9548.656652,518.144159,0.000000
3712.168390,-10732.986159,222.061783,0.000000
3712.168719,-9918.759623,222.061783,-459.657299
3712.169049,-8364.327145,0.000000,153.219100
3712.169379,-7550.100608,962.267725,229.828649
3712.169709,-9400.615463,962.267725,76.609550
3712.170038,-11547.212695,1332.370696,0.000000
3712.170368,-11399.171507,962.267725,76.609550
3712.170698,-10807.006753,518.144159,76.609550
3712.171028,-10436.903782,148.041188,153.219100
3712.171358,-10955.047942,0.000000,383.047749
3712.171687,-9474.636058,0.000000,383.047749
3712.172017,-8068.244768,-148.041188,1302.362347
3712.172347,-8956.491898,148.041188,0.000000
3712.172677,-10436.903782,222.061783,-383.047749
3712.173006,-10807.006753,592.164754,0.000000
3712.173336,-10510.924376,370.102971,842.705048
3712.173666,-9770.718434,592.164754,383.047749
3712.173996,-10214.842000,-592.164754,0.000000
3712.174326,-9844.739029,-444.123565,-919.314598
3712.174655,-8660.409521,-1036.288319,-76.609550
3712.174985,-8956.491898,-74.020594,306.438199
3712.175315,-10658.965565,-296.082377,766.095498
3712.175645,-11695.253884,74.020594,459.657299
3712.175974,-9770.718434,-592.164754,-383.047749
3712.176304,-9030.512492,-592.164754,-536.266849
3712.176634,-9548.656652,-814.226536,153.219100
3712.176964,-10881.027347,-740.205942,1225.752797
3712.177294,-9400.615463,-1332.370696,612.876398
3712.177623,-7328.038826,-1480.411884,153.219100
3712.177953,-7994.224174,-592.164754,459.657299
3712.178283,-10732.986159,-444.123565,612.876398
3712.178613,-11177.109724,-296.082377,76.609550
3712.178942,-10066.800811,-1036.288319,306.438199
3712.179272,-9474.636058,-148.041188,0.000000
3712.179602,-10214.842000,-518.144159,766.095498
3712.179932,-11029.068536,0.000000,1378.971896
3712.180261,-9400.615463,-1036.288319,1532.190996
3712.180591,-8290.306550,-444.123565,612.876398
3712.180921,-9326.594869,-148.041188,0.000000
3712.181251,-10807.006753,148.041188,-766.095498
3712.181581,-10510.924376,-148.041188,-612.876398
3712.181910,-9770.718434,0.000000,-612.876398
3712.182240,-9770.718434,-74.020594,0.000000
3712.182570,-11029.068536,-740.205942,76.609550
3712.182900,-9548.656652,-666.185348,76.609550
3712.183229,-8512.368333,-1110.308913,383.047749
3712.183559,-8882.471304,-444.123565,919.314598
3712.183889,-10066.800811,-296.082377,612.876398
3712.184219,-10436.903782,296.082377,536.266849
3712.184549,-10066.800811,74.020594,229.828649
3712.184878,-10214.842000,740.205942,-383.047749
3712.185208,-11029.068536,0.000000,-842.705048
3712.185538,-10510.924376,-444.123565,-766.095498
3712.185868,-9178.553681,-592.164754,-306.438199
3712.186197,-7772.162391,0.000000,0.000000
3712.186527,-8956.491898,444.123565,306.438199
3712.186857,-10807.006753,666.185348,-459.657299
3712.187187,-10510.924376,592.164754,-766.095498
3712.187516,-10214.842000,592.164754,-689.485948
3712.187846,-10140.821405,592.164754,383.047749
3712.188176,-10584.944971,0.000000,689.485948
3712.188506,-9474.636058,0.000000,919.314598
3712.188836,-7846.182985,-222.061783,306.438199
3712.189165,-7698.141797,296.082377,0.000000
3712.189495,-9622.677246,592.164754,0.000000
3712.189825,-10732.986159,1406.391290,-689.485948
3712.190155,-10362.883188,814.226536,383.047749
3712.190484,-9474.636058,592.164754,612.876398
3712.190814,-9844.739029,148.041188,842.705048
3712.191144,-10288.862594,74.020594,766.095498
3712.191474,-8956.491898,0.000000,612.876398
3712.191804,-8364.327145,148.041188,536.266849
3712.192133,-8660.409521,888.247130,612.876398
3712.192463,-10510.924376,1258.350101,1149.143247
3712.192793,-10955.047942,1628.453072,995.924147
3712.193123,-10955.047942,1036.288319,459.657299
3712.193452,-9918.759623,1110.308913,0.000000
3712.193782,-9992.780217,0.000000,76.609550
3712.194112,-9622.677246,370.102971,459.657299
3712.194442,-8882.471304,-222.061783,1455.581446
3712.194771,-8956.491898,592.164754,1532.190996
3712.195101,-9548.656652,518.144159,1225.752797
3712.195431,-9918.759623,1036.288319,-153.219100
3712.195761,-10140.821405,740.205942,306.438199
3712.196091,-10584.944971,814.226536,995.924147
3712.196420,-11029.068536,518.144159,1225.752797
3712.196750,-10510.924376,0.000000,459.657299
3712.197080,-9326.594869,0.000000,229.828649
3712.197410,-8882.471304,-444.123565,383.047749
3712.197739,-9474.636058,370.102971,229.828649
3712.198069,-10288.862594,0.000000,76.609550
3712.198399,-10288.862594,444.123565,-536.266849
3712.198729,-10140.821405,0.000000,-459.657299
3712.199059,-10140.821405,222.061783,-153.219100
3712.199388,-10436.903782,-370.102971,383.047749
3712.199718,-9844.739029,-296.082377,383.047749
3712.200048,-8734.430116,-1036.288319,-229.828649
3712.200378,-8660.409521,-592.164754,459.657299
3712.200707,-9992.780217,-148.041188,459.657299
3712.201037,-10732.986159,296.082377,-383.047749
3712.201367,-9992.780217,-518.144159,-842.705048
3712.201697,-9474.636058,-444.123565,-383.047749
3712.202027,-9252.574275,-592.164754,-766.095498
3712.202356,-10362.883188,-592.164754,-995.924147
3712.202686,-9326.594869,-814.226536,-612.876398
3712.203016,-8364.327145,-1480.411884,306.438199
3712.203346,-8586.388927,-592.164754,842.705048
3712.203675,-10436.903782,-592.164754,919.314598
3712.204005,-10436.903782,-296.082377,383.047749
3712.204335,-9400.615463,-888.247130,-459.657299
3712.204665,-8512.368333,-370.102971,-459.657299
3712.204994,-9474.636058,-740.205942,0.000000
3712.205324,-10510.924376,-296.082377,689.485948
3712.205654,-9918.759623,-518.144159,459.657299
3712.205984,-9104.533087,-222.061783,0.000000
3712.206314,-9326.594869,-74.020594,153.219100
3712.206643,-10436.903782,0.000000,153.219100
3712.206973,-10510.924376,-148.041188,1225.752797
3712.207303,-9548.656652,-296.082377,1225.752797
3712.207633,-9252.574275,74.020594,612.876398
3712.207962,-10140.821405,-518.144159,383.047749
3712.208292,-10066.800811,148.041188,-229.828649
3712.208622,-9770.718434,-296.082377,1225.752797
3712.208952,-9474.636058,814.226536,1762.019645
3712.209282,-10214.842000,518.144159,995.924147
3712.209611,-10658.965565,1258.350101,-459.657299
3712.209941,-9844.739029,592.164754,-306.438199
3712.210271,-10436.903782,740.205942,153.219100
3712.210601,-10362.883188,740.205942,306.438199
3712.210930,-10510.924376,518.144159,-612.876398
3712.211260,-9104.533087,0.000000,76.609550
3712.211590,-8142.265362,0.000000,536.266849
3712.211920,-9252.574275,444.123565,1149.143247
3712.212249,-11399.171507,740.205942,995.924147
3712.212579,-10732.986159,888.247130,612.876398
3712.212909,-9844.739029,222.061783,842.705048
3712.213239,-9474.636058,814.226536,229.828649
3712.213569,-10140.821405,-370.102971,76.609550
3712.213898,-9696.697840,296.082377,-306.438199
3712.214228,-8586.388927,-666.185348,766.095498
3712.214558,-7772.162391,74.020594,612.876398
3712.214888,-9178.553681,370.102971,306.438199
3712.215217,-10658.965565,1332.370696,-1915.238745
3712.215547,-10436.903782,518.144159,-995.924147
3712.215877,-9252.574275,1110.308913,-1072.533697
3712.216207,-9474.636058,444.123565,-383.047749
3712.216537,-10362.883188,518.144159,153.219100
3712.216866,-9918.759623,0.000000,0.000000
3712.217196,-8808.450710,-370.102971,-459.657299
3712.217526,-8586.388927,370.102971,153.219100
3712.217856,-10436.903782,296.082377,459.657299
3712.218185,-10807.006753,518.144159,842.705048
3712.218515,-10362.883188,444.123565,1149.143247
3712.218845,-9474.636058,518.144159,536.266849
3712.219175,-10362.883188,222.061783,76.609550
3712.219504,-10436.903782,666.185348,0.000000
3712.219834,-9770.718434,74.020594,0.000000
3712.220164,-8660.409521,444.123565,-153.219100
3712.220494,-9548.656652,222.061783,-153.219100
3712.220824,-10436.903782,444.123565,229.828649
3712.221153,-9770.718434,222.061783,995.924147
3712.221483,-9844.739029,592.164754,995.924147
3712.221813,-9770.718434,74.020594,459.657299
3712.222143,-11251.130318,296.082377,766.095498
3712.222472,-10510.924376,-296.082377,1149.143247
3712.222802,-9400.615463,-592.164754,1455.581446
3712.223132,-9030.512492,222.061783,1378.971896
3712.223462,-9992.780217,0.000000,919.314598
3712.223792,-9252.574275,814.226536,306.438199
3712.224121,-9030.512492,0.000000,229.828649
3712.224451,-9696.697840,1110.308913,229.828649
3712.224781,-11029.068536,518.144159,229.828649
3712.225111,-11029.068536,518.144159,-76.609550
3712.225441,-9326.594869,-666.185348,-689.485948
3712.225771,-8660.409521,-296.082377,-383.047749
3712.226101,-9400.615463,-370.102971,76.609550
3712.226430,-10881.027347,0.000000,-76.609550
3712.226760,-9696.697840,0.000000,-306.438199
3712.227090,-9030.512492,0.000000,229.828649
3712.227420,-9474.636058,296.082377,383.047749
3712.227750,-11103.089130,-444.123565,383.047749
3712.228080,-10807.006753,-222.061783,-459.657299
3712.228410,-9252.574275,-1184.329507,-306.438199
3712.228740,-8512.368333,-592.164754,-612.876398
3712.229070,-9696.697840,-740.205942,-383.047749
3712.229399,-10140.821405,0.000000,-766.095498
3712.229729,-9104.533087,-888.247130,-229.828649
3712.230059,-8808.450710,-222.061783,-459.657299
3712.230389,-9770.718434,-444.123565,-229.828649
3712.230719,-11251.130318,-518.144159,-306.438199
3712.231049,-10140.821405,-592.164754,-76.609550
3712.231379,-8882.471304,-888.247130,0.000000
3712.231709,-8068.244768,-370.102971,536.266849
3712.232038,-9918.759623,-296.082377,536.266849
3712.232368,-10881.027347,444.123565,153.219100
3712.232698,-9548.656652,-296.082377,-306.438199
3712.233028,-9548.656652,444.123565,-766.095498
3712.233358,-10584.944971,74.020594,-76.609550
3712.233688,-11621.233289,592.164754,-383.047749
3712.234018,-10510.924376,-592.164754,306.438199
3712.234348,-8660.409521,-370.102971,153.219100
3712.234678,-8956.491898,-296.082377,0.000000
3712.235007,-9992.780217,222.061783,612.876398
3712.235337,-9770.718434,-148.041188,1149.143247
3712.235667,-9252.574275,74.020594,1532.190996
3712.235997,-9548.656652,0.000000,766.095498
3712.236327,-11325.150913,222.061783,459.657299
3712.236657,-10584.944971,-148.041188,306.438199
3712.236987,-9252.574275,-888.247130,1378.971896
3712.237317,-9252.574275,296.082377,1991.848295
3712.237647,-10510.924376,0.000000,1225.752797
3712.237976,-9696.697840,444.123565,383.047749
3712.238306,-8734.430116,-296.082377,459.657299
3712.238636,-9030.512492,592.164754,766.095498
3712.238966,-10955.047942,518.144159,306.438199
3712.239296,-11325.150913,74.020594,-1149.143247
3712.239626,-9474.636058,740.205942,1072.533697
3712.239956,-9104.533087,370.102971,383.047749
3712.240286,-9770.718434,0.000000,-383.047749
3712.240616,-10362.883188,296.082377,-459.657299
3712.240945,-9770.718434,222.061783,0.000000
3712.241275,-9400.615463,148.041188,0.000000
3712.241605,-9622.677246,518.144159,-459.657299
3712.241935,-11325.150913,74.020594,76.609550
3712.242265,-10066.800811,74.020594,-919.314598
3712.242595,-9030.512492,-222.061783,-1149.143247
3712.242925,-8956.491898,74.020594,-1149.143247
3712.243255,-10140.821405,0.000000,-766.095498
3712.243585,-9178.553681,444.123565,-842.705048
3712.243914,-8512.368333,-518.144159,0.000000
3712.244244,-9474.636058,962.267725,0.000000
3712.244574,-11251.130318,222.061783,766.095498
3712.244904,-11325.150913,296.082377,-383.047749
3712.245234,-9844.739029,0.000000,-919.314598
3712.245564,-8882.471304,0.000000,-383.047749
3712.245894,-8882.471304,-148.041188,536.266849
3712.246224,-9622.677246,0.000000,1149.143247
3712.246554,-9548.656652,222.061783,995.924147
3712.246883,-9326.594869,444.123565,76.609550
3712.247213,-9918.759623,1110.308913,229.828649
3712.247543,-11177.109724,518.144159,76.609550
3712.247873,-10807.006753,888.247130,766.095498
3712.248203,-9474.636058,0.000000,1149.143247
3712.248533,-9252.574275,518.144159,383.047749
3712.248863,-9474.636058,0.000000,-229.828649
3712.249193,-10214.842000,592.164754,306.438199
3712.249522,-9474.636058,0.000000,536.266849
3712.249852,-9474.636058,518.144159,1455.581446
3712.250182,-9548.656652,148.041188,1302.362347
3712.250512,-10214.842000,74.020594,995.924147
3712.250842,-9548.656652,0.000000,995.924147
3712.251172,-8882.471304,0.000000,1608.800546
3712.251502,-9178.553681,0.000000,2145.067394
3712.251832,-10436.903782,74.020594,1608.800546
3712.252162,-9918.759623,444.123565,1608.800546
3712.252491,-9400.615463,148.041188,1685.410096
3712.252821,-9918.759623,888.247130,306.438199
3712.253151,-10658.965565,296.082377,-459.657299
3712.253481,-10955.047942,814.226536,-306.438199
3712.253811,-9622.677246,0.000000,-153.219100
3712.254141,-9400.615463,444.123565,153.219100
3712.254471,-9992.780217,444.123565,306.438199
3712.254801,-10140.821405,592.164754,-612.876398
3712.255131,-9252.574275,0.000000,-919.314598
3712.255460,-9326.594869,666.185348,-306.438199
3712.255790,-10140.821405,592.164754,0.000000
3712.256120,-11325.150913,296.082377,-766.095498
3712.256450,-9770.718434,0.000000,-842.705048
3712.256780,-9104.533087,-222.061783,0.000000
3712.257110,-9696.697840,0.000000,383.047749
3712.257440,-10510.924376,-666.185348,229.828649
3712.257770,-9326.594869,-370.102971,-612.876398
3712.258100,-8660.409521,-1036.288319,-383.047749
3712.258429,-9400.615463,0.000000,383.047749
3712.258759,-10362.883188,-740.205942,995.924147
3712.259089,-10362.883188,0.000000,76.609550
3712.259419,-8438.347739,-962.267725,0.000000
3712.259749,-8956.491898,-444.123565,-153.219100
3712.260079,-9992.780217,-666.185348,0.000000
3712.260409,-10732.986159,-592.164754,459.657299
3712.260739,-9474.636058,-740.205942,766.095498
3712.261069,-8734.430116,-814.226536,383.047749
3712.261398,-9400.615463,-518.144159,229.828649
3712.261728,-10658.965565,-1036.288319,459.657299
3712.262058,-10288.862594,-370.102971,76.609550
3712.262388,-9474.636058,-1036.288319,76.609550
3712.262718,-8882.471304,148.041188,229.828649
3712.263048,-9400.615463,-296.082377,383.047749
3712.263378,-10214.842000,148.041188,0.000000
3712.263708,-9844.739029,-370.102971,-612.876398
3712.264038,-9622.677246,-444.123565,-536.266849
3712.264367,-9844.739029,-444.123565,229.828649
3712.264697,-9844.739029,-592.164754,306.438199
3712.265027,-9178.553681,-370.102971,842.705048
3712.265357,-8512.368333,-444.123565,766.095498
3712.265687,-9252.574275,0.000000,919.314598
3712.266017,-10807.006753,74.020594,612.876398
3712.266347,-11103.089130,296.082377,536.266849
3712.266677,-10362.883188,-370.102971,612.876398
3712.267006,-9178.553681,-148.041188,459.657299
3712.267336,-9104.533087,-592.164754,76.609550
3712.267666,-9400.615463,0.000000,76.609550
3712.267996,-9474.636058,0.000000,229.828649
3712.268326,-9622.677246,814.226536,-383.047749
3712.268656,-10584.944971,74.020594,-383.047749
3712.268986,-11621.233289,666.185348,153.219100
3712.269316,-10214.842000,-222.061783,766.095498
3712.269646,-9252.574275,0.000000,306.438199
3712.269975,-8216.285956,0.000000,-612.876398
3712.270305,-9178.553681,74.020594,-1072.533697
3712.270635,-9770.718434,222.061783,-1149.143247
3712.270965,-9252.574275,222.061783,-76.609550
3712.271295,-9400.615463,888.247130,306.438199
3712.271625,-11029.068536,740.205942,229.828649
3712.271955,-10732.986159,592.164754,-153.219100
3712.272285,-9178.553681,0.000000,0.000000
3712.272615,-8512.368333,370.102971,459.657299
3712.272944,-9918.759623,444.123565,995.924147
3712.273274,-11251.130318,1110.308913,1072.533697
3712.273604,-10066.800811,814.226536,0.000000
3712.273934,-8956.491898,592.164754,306.438199
3712.274264,-9474.636058,666.185348,612.876398
3712.274594,-10807.006753,592.164754,459.657299
3712.274924,-9844.739029,222.061783,842.705048
3712.275254,-8882.471304,518.144159,766.095498
3712.275584,-9178.553681,814.226536,459.657299
3712.275913,-10362.883188,518.144159,766.095498
3712.276243,-10362.883188,518.144159,229.828649
3712.276573,-9178.553681,296.082377,689.485948
3712.276903,-9326.594869,888.247130,1072.533697
3712.277233,-10807.006753,0.000000,1072.533697
3712.277563,-10732.986159,296.082377,229.828649
3712.277893,-8882.471304,-444.123565,306.438199
3712.278223,-8586.388927,148.041188,842.705048
3712.278553,-8660.409521,0.000000,1685.410096
3712.278882,-9326.594869,148.041188,1225.752797
3712.279212,-8734.430116,0.000000,1225.752797
3712.279542,-9252.574275,666.185348,1455.581446
3712.279872,-10881.027347,888.247130,536.266849
3712.280202,-11843.295072,370.102971,-76.609550
3712.280532,-10288.862594,148.041188,-306.438199
3712.280862,-8734.430116,-592.164754,0.000000
3712.281192,-8586.388927,-518.144159,229.828649
3712.281522,-9548.656652,-370.102971,306.438199
3712.281851,-9474.636058,518.144159,-76.609550
3712.282181,-9326.594869,148.041188,-383.047749
3712.282511,-9844.739029,592.164754,-689.485948
3712.282841,-10955.047942,370.102971,-229.828649
3712.283171,-11325.150913,148.041188,0.000000
3712.283501,-9696.697840,-370.102971,306.438199
3712.283831,-9252.574275,-666.185348,-383.047749
3712.284161,-9474.636058,-1184.329507,-919.314598
3712.284490,-10214.842000,-740.205942,-995.924147
3712.284820,-9770.718434,-962.267725,-383.047749
3712.285150,-9622.677246,-444.123565,383.047749
3712.285480,-9844.739029,-444.123565,459.657299
3712.285810,-10658.965565,-740.205942,-306.438199
3712.286140,-9844.739029,-1036.288319,-1149.143247
3712.286470,-9030.512492,-1480.411884,-1149.143247
3712.286800,-8660.409521,-666.185348,0.000000
3712.287130,-9548.656652,-1406.391290,1072.533697
3712.287459,-9992.780217,-962.267725,766.095498
3712.287789,-9030.512492,-1258.350101,459.657299
3712.288119,-9474.636058,-518.144159,766.095498
3712.288449,-10732.986159,-1036.288319,536.266849
3712.288779,-11325.150913,-592.164754,1072.533697
3712.289109,-10214.842000,-1332.370696,1378.971896
3712.289439,-8956.491898,-592.164754,1455.581446
3712.289769,-7920.203579,-592.164754,383.047749
3712.290099,-9696.697840,-74.020594,-689.485948
3712.290428,-10140.821405,148.041188,-689.485948
3712.290758,-9696.697840,296.082377,-306.438199
3712.291088,-9548.656652,740.205942,0.000000
3712.291418,-10362.883188,370.102971,-459.657299
3712.291748,-10140.821405,518.144159,-153.219100
3712.292078,-9548.656652,222.061783,842.705048
3712.292408,-9548.656652,296.082377,76.609550
3712.292738,-10214.842000,74.020594,459.657299
3712.293068,-9622.677246,296.082377,612.876398
3712.293397,-8586.388927,0.000000,1838.629195
3712.293727,-8364.327145,740.205942,1838.629195
3712.294057,-10288.862594,1110.308913,1762.019645
3712.294387,-11621.233289,1480.411884,766.095498
3712.294717,-10510.924376,666.185348,153.219100
3712.295047,-9104.533087,1110.308913,459.657299
3712.295377,-9178.553681,1110.308913,689.485948
3712.295707,-10807.006753,888.247130,842.705048
3712.296037,-9696.697840,444.123565,76.609550
3712.296366,-7920.203579,814.226536,-306.438199
3712.296696,-8734.430116,1406.391290,-1149.143247
3712.297026,-10288.862594,1036.288319,-689.485948
3712.297356,-10732.986159,1554.432478,536.266849
3712.297686,-9326.594869,740.205942,1225.752797
3712.298016,-9474.636058,1258.350101,153.219100
3712.298346,-10140.821405,444.123565,-306.438199
3712.298676,-10807.006753,444.123565,-306.438199
3712.299006,-9474.636058,0.000000,229.828649
3712.299335,-8586.388927,444.123565,842.705048
3712.299665,-9474.636058,592.164754,919.314598
3712.299995,-10510.924376,444.123565,0.000000
3712.300325,-9548.656652,222.061783,-612.876398
3712.300655,-8956.491898,518.144159,-766.095498
3712.300985,-9696.697840,740.205942,0.000000
3712.301315,-11177.109724,592.164754,536.266849
3712.301645,-10658.965565,444.123565,536.266849
3712.301974,-9030.512492,222.061783,229.828649
3712.302304,-8734.430116,74.020594,-306.438199
3712.302634,-10362.883188,0.000000,0.000000
3712.302964,-10658.965565,222.061783,-306.438199
3712.303294,-9474.636058,-666.185348,76.609550
3712.303624,-9474.636058,74.020594,153.219100
3712.303954,-9844.739029,-444.123565,306.438199
3712.304284,-10584.944971,-592.164754,306.438199
3712.304614,-9104.533087,-888.247130,919.314598
3712.304943,-8364.327145,-370.102971,766.095498
3712.305273,-9030.512492,0.000000,842.705048
3712.305603,-10881.027347,0.000000,-459.657299
3712.305933,-10732.986159,0.000000,-229.828649
3712.306263,-10066.800811,-296.082377,-229.828649
3712.306593,-9474.636058,-74.020594,459.657299
3712.306923,-10288.862594,-740.205942,612.876398
3712.307253,-9622.677246,-814.226536,0.000000
3712.307583,-9474.636058,-740.205942,0.000000
3712.307912,-8808.450710,-962.267725,842.705048
3712.308242,-9844.739029,-444.123565,1991.848295
3712.308572,-11177.109724,370.102971,1762.019645
3712.308902,-9696.697840,0.000000,153.219100
3712.309232,-9326.594869,-74.020594,-153.219100
3712.309562,-10362.883188,74.020594,-306.438199
3712.309892,-12213.398043,-370.102971,229.828649
3712.310222,-10881.027347,-814.226536,536.266849
3712.310552,-8068.244768,-666.185348,1302.362347
3712.310881,-7920.203579,-296.082377,229.828649
3712.311211,-10288.862594,-370.102971,-766.095498
3712.311541,-10658.965565,0.000000,-842.705048
3712.311871,-9622.677246,-148.041188,-995.924147
3712.312201,-9326.594869,296.082377,0.000000
3712.312531,-10066.800811,-444.123565,306.438199
3712.312861,-10214.842000,-444.123565,229.828649
3712.313191,-8956.491898,-962.267725,0.000000
3712.313521,-9252.574275,0.000000,-689.485948
3712.313850,-10140.821405,-222.061783,-919.314598
3712.314180,-10807.006753,0.000000,-536.266849
3712.314510,-9030.512492,-592.164754,153.219100
3712.314840,-8734.430116,0.000000,766.095498
3712.315170,-9992.780217,74.020594,842.705048
3712.315500,-11251.130318,-666.185348,-76.609550
3712.315830,-9400.615463,-370.102971,-995.924147
3712.316160,-7105.977043,-962.267725,-766.095498
3712.316490,-8290.306550,0.000000,612.876398
3712.316819,-10140.821405,0.000000,1225.752797
3712.317149,-10436.903782,592.164754,153.219100
3712.317479,-9326.594869,222.061783,-1685.410096
3712.317809,-9474.636058,888.247130,-612.876398
3712.318139,-11325.150913,74.020594,-383.047749
3712.318469,-11399.171507,0.000000,536.266849
3712.318799,-9030.512492,-370.102971,1225.752797
3712.319129,-7772.162391,74.020594,1378.971896
3712.319458,-8882.471304,0.000000,0.000000
3712.319788,-10362.883188,296.082377,-612.876398
3712.320118,-9548.656652,444.123565,-612.876398
3712.320448,-8808.450710,962.267725,842.705048
3712.320778,-9696.697840,1258.350101,766.095498
3712.321108,-10658.965565,518.144159,1225.752797
3712.321438,-10362.883188,370.102971,536.266849
3712.321768,-8956.491898,592.164754,689.485948
3712.322098,-9474.636058,814.226536,459.657299
3712.322427,-10732.986159,518.144159,459.657299
3712.322757,-10732.986159,592.164754,306.438199
3712.323087,-9104.533087,666.185348,536.266849
3712.323417,-9104.533087,740.205942,383.047749
3712.323747,-9770.718434,888.247130,459.657299
3712.324077,-10955.047942,666.185348,766.095498
3712.324407,-10436.903782,1184.329507,842.705048
3712.324737,-9400.615463,74.020594,612.876398
3712.325067,-10214.842000,444.123565,459.657299
3712.325396,-10955.047942,296.082377,536.266849
3712.325726,-9844.739029,222.061783,536.266849
3712.326056,-9326.594869,148.041188,689.485948
3712.326386,-9326.594869,814.226536,0.000000
3712.326716,-11103.089130,296.082377,306.438199
3712.327046,-10881.027347,444.123565,383.047749
3712.327376,-9696.697840,-148.041188,612.876398
3712.327706,-9178.553681,148.041188,919.314598
3712.328036,-9474.636058,-148.041188,0.000000
3712.328366,-10436.903782,0.000000,-919.314598
3712.328695,-9104.533087,-444.123565,-1455.581446
3712.329025,-8512.368333,-444.123565,-536.266849
3712.329355,-9178.553681,0.000000,766.095498
3712.329685,-10807.006753,-148.041188,1532.190996
3712.330015,-9992.780217,74.020594,919.314598
3712.330345,-8734.430116,-1110.308913,306.438199
3712.330675,-8882.471304,0.000000,306.438199
3712.331005,-10510.924376,-222.061783,536.266849
3712.331335,-10066.800811,0.000000,1149.143247
3712.331665,-9178.553681,0.000000,153.219100
3712.331995,-8512.368333,518.144159,-612.876398
3712.332324,-10214.842000,74.020594,-995.924147
3712.332654,-11547.212695,518.144159,-919.314598
3712.332984,-10214.842000,-370.102971,-766.095498
3712.333314,-8882.471304,148.041188,-153.219100
3712.333644,-8956.491898,0.000000,612.876398
3712.333974,-10140.821405,370.102971,76.609550
3712.334304,-9252.574275,0.000000,0.000000
3712.334634,-9548.656652,0.000000,-306.438199
3712.334964,-9770.718434,0.000000,153.219100
3712.335294,-10658.965565,-740.205942,995.924147
3712.335624,-9548.656652,-296.082377,1991.848295
3712.335953,-9252.574275,-666.185348,1685.410096
3712.336283,-8734.430116,0.000000,919.314598
3712.336613,-10140.821405,-592.164754,153.219100
3712.336943,-10658.965565,222.061783,-229.828649
3712.337273,-10214.842000,74.020594,229.828649
3712.337603,-9770.718434,444.123565,153.219100
3712.337933,-10066.800811,148.041188,689.485948
3712.338263,-10362.883188,74.020594,-306.438199
3712.338593,-9252.574275,0.000000,-919.314598
3712.338923,-9474.636058,222.061783,-1072.533697
3712.339253,-9770.718434,148.041188,-766.095498
3712.339582,-10140.821405,-370.102971,-536.266849
3712.339912,-9696.697840,-296.082377,-229.828649
3712.340242,-9622.677246,-296.082377,612.876398
3712.340572,-9918.759623,-148.041188,76.609550
3712.340902,-10881.027347,-962.267725,-229.828649
3712.341232,-10584.944971,-518.144159,-689.485948
3712.341562,-9400.615463,-1184.329507,919.314598
3712.341892,-8660.409521,-444.123565,1149.143247
3712.342222,-9474.636058,-592.164754,842.705048
3712.342552,-9548.656652,-370.102971,-995.924147
3712.342882,-9030.512492,-666.185348,-1532.190996
3712.343212,-9104.533087,-148.041188,-995.924147
3712.343541,-9918.759623,74.020594,306.438199
3712.343871,-10881.027347,0.000000,306.438199
3712.344201,-10066.800811,-296.082377,0.000000
3712.344531,-9104.533087,-962.267725,0.000000
3712.344861,-9030.512492,0.000000,229.828649
3712.345191,-9844.739029,-296.082377,612.876398
3712.345521,-9474.636058,222.061783,306.438199
3712.345851,-9030.512492,296.082377,842.705048
3712.346181,-9326.594869,1036.288319,383.047749
3712.346511,-11029.068536,666.185348,842.705048
3712.346841,-11769.274478,666.185348,306.438199
3712.347170,-10584.944971,296.082377,153.219100
3712.347500,-8808.450710,370.102971,306.438199
3712.347830,-8956.491898,74.020594,306.438199
3712.348160,-9992.780217,518.144159,0.000000
3712.348490,-9326.594869,444.123565,306.438199
3712.348820,-9104.533087,74.020594,612.876398
3712.349150,-9918.759623,962.267725,995.924147
3712.349480,-11547.212695,222.061783,1608.800546
3712.349810,-10140.821405,518.144159,1915.238745
3712.350140,-8364.327145,-518.144159,1378.971896
3712.350470,-8512.368333,370.102971,1378.971896
3712.350799,-10140.821405,296.082377,1608.800546
3712.351129,-10436.903782,888.247130,1455.581446
3712.351459,-9770.718434,740.205942,842.705048
3712.351789,-9770.718434,1554.432478,76.609550
3712.352119,-10510.924376,370.102971,-306.438199
3712.352449,-11325.150913,518.144159,-766.095498
3712.352779,-9400.615463,0.000000,0.000000
3712.353109,-8512.368333,0.000000,306.438199
3712.353439,-8438.347739,296.082377,229.828649
3712.353769,-9400.615463,148.041188,76.609550
3712.354099,-9104.533087,518.144159,76.609550
3712.354428,-9474.636058,444.123565,612.876398
3712.354758,-10881.027347,1110.308913,229.828649
3712.355088,-11621.233289,0.000000,-229.828649
3712.355418,-10362.883188,0.000000,-612.876398
3712.355748,-9400.615463,-814.226536,0.000000
3712.356078,-9030.512492,0.000000,919.314598
3712.356408,-9770.718434,-296.082377,459.657299
3712.356738,-9400.615463,0.000000,-766.095498
3712.357068,-8882.471304,-370.102971,-1378.971896
3712.357398,-8808.450710,814.226536,-612.876398
3712.357728,-10362.883188,148.041188,-306.438199
3712.358057,-11547.212695,296.082377,-383.047749
3712.358387,-9696.697840,0.000000,-76.609550
3712.358717,-9326.594869,-740.205942,612.876398
3712.359047,-9252.574275,-444.123565,766.095498
3712.359377,-10584.944971,-296.082377,842.705048
3712.359707,-9992.780217,-296.082377,766.095498
3712.360037,-8882.471304,0.000000,2068.457845
3712.360367,-9548.656652,518.144159,842.705048
3712.360697,-10584.944971,0.000000,766.095498
3712.361027,-10955.047942,148.041188,0.000000
3712.361357,-9918.759623,0.000000,0.000000
3712.361686,-8586.388927,148.041188,-383.047749
3712.362016,-9474.636058,222.061783,0.000000
3712.362346,-10066.800811,518.144159,0.000000
3712.362676,-9252.574275,0.000000,153.219100
3712.363006,-9992.780217,592.164754,0.000000
3712.363336,-10066.800811,0.000000,536.266849
3712.363666,-11473.192101,0.000000,1149.143247
3712.363996,-10214.842000,-814.226536,1608.800546
3712.364326,-8586.388927,-814.226536,1915.238745
3712.364656,-8142.265362,-296.082377,1838.629195
3712.364986,-9918.759623,0.000000,1072.533697
3712.365315,-10140.821405,518.144159,536.266849
3712.365645,-9622.677246,148.041188,995.924147
3712.365975,-9622.677246,1406.391290,0.000000
3712.366305,-11029.068536,148.041188,0.000000
3712.366635,-11695.253884,740.205942,0.000000
3712.366965,-9770.718434,-296.082377,229.828649
3712.367295,-8808.450710,0.000000,-995.924147
3712.367625,-8956.491898,74.020594,-766.095498
3712.367955,-10140.821405,148.041188,-383.047749
3712.368285,-9548.656652,296.082377,842.705048
3712.368615,-9992.780217,296.082377,995.924147
3712.368945,-10658.965565,444.123565,0.000000
3712.369274,-10955.047942,-444.123565,-766.095498
3712.369604,-9918.759623,-222.061783,-612.876398
3712.369934,-8512.368333,-1628.453072,536.266849
3712.370264,-8512.368333,0.000000,1225.752797
3712.370594,-9622.677246,-592.164754,536.266849
3712.370924,-9844.739029,0.000000,-536.266849
3712.371254,-9326.594869,-222.061783,-995.924147
3712.371584,-9474.636058,148.041188,-995.924147
3712.371914,-10510.924376,-74.020594,0.000000
3712.372244,-10362.883188,-296.082377,229.828649
3712.372574,-8808.450710,-592.164754,383.047749
3712.372903,-7920.203579,-1036.288319,-383.047749
3712.373233,-8660.409521,-222.061783,-229.828649
3712.373563,-10214.842000,-666.185348,-306.438199
3712.373893,-10140.821405,0.000000,153.219100
3712.374223,-9326.594869,-222.061783,1149.143247
3712.374553,-9696.697840,740.205942,919.314598
3712.374883,-11103.089130,-370.102971,306.438199
3712.375213,-10955.047942,0.000000,76.609550
3712.375543,-10140.821405,-518.144159,306.438199
3712.375873,-9178.553681,148.041188,536.266849
3712.376203,-10066.800811,148.041188,0.000000
3712.376532,-9770.718434,444.123565,-612.876398
3712.376862,-9326.594869,-296.082377,-995.924147
3712.377192,-9622.677246,888.247130,-612.876398
3712.377522,-10510.924376,666.185348,229.828649
3712.377852,-11177.109724,444.123565,459.657299
3712.378182,-10066.800811,74.020594,842.705048
3712.378512,-9326.594869,-370.102971,2068.457845
3712.378842,-9844.739029,74.020594,995.924147
3712.379172,-11399.171507,-444.123565,536.266849
3712.379502,-10288.862594,0.000000,0.000000
3712.379832,-9030.512492,-222.061783,1149.143247
3712.380161,-8734.430116,296.082377,919.314598
3712.380491,-10362.883188,0.000000,919.314598
3712.380821,-10658.965565,370.102971,0.000000
3712.381151,-8956.491898,-370.102971,0.000000
3712.381481,-8956.491898,74.020594,76.609550
3712.381811,-10066.800811,0.000000,612.876398
3712.382141,-11177.109724,296.082377,306.438199
3712.382471,-9474.636058,-222.061783,76.609550
3712.382801,-8956.491898,148.041188,-612.876398
3712.383131,-9474.636058,444.123565,-1225.752797
3712.383461,-10881.027347,0.000000,-1149.143247
3712.383790,-9696.697840,148.041188,-536.266849
3712.384120,-8068.244768,-592.164754,1072.533697
3712.384450,-9252.574275,592.164754,766.095498
3712.384780,-10881.027347,0.000000,0.000000
3712.385110,-10066.800811,222.061783,-612.876398
3712.385440,-8808.450710,-444.123565,-612.876398
3712.385770,-9030.512492,74.020594,-306.438199
3712.386100,-10881.027347,0.000000,842.705048
3712.386430,-11177.109724,518.144159,842.705048
3712.386760,-8956.491898,-444.123565,612.876398
3712.387090,-8734.430116,0.000000,0.000000
3712.387419,-9992.780217,0.000000,-229.828649
3712.387749,-10807.006753,0.000000,76.609550
3712.388079,-9326.594869,0.000000,383.047749
3712.388409,-8290.306550,148.041188,919.314598
3712.388739,-9252.574275,518.144159,612.876398
3712.389069,-11547.212695,518.144159,-306.438199
3712.389399,-10658.965565,740.205942,-995.924147
3712.389729,-9992.780217,0.000000,0.000000
3712.390059,-9770.718434,518.144159,76.609550
3712.390389,-10584.944971,74.020594,919.314598
3712.390719,-9770.718434,148.041188,536.266849
3712.391048,-8882.471304,-74.020594,383.047749
3712.391378,-8882.471304,592.164754,0.000000
3712.391708,-10140.821405,518.144159,0.000000
3712.392038,-10955.047942,444.123565,229.828649
3712.392368,-9918.759623,222.061783,306.438199
3712.392698,-9474.636058,74.020594,766.095498
3712.393028,-9474.636058,-222.061783,842.705048
3712.393358,-10066.800811,-222.061783,536.266849
3712.393688,-9178.553681,-296.082377,229.828649
3712.394018,-8808.450710,-444.123565,1225.752797
3712.394348,-9474.636058,296.082377,1608.800546
3712.394678,-10955.047942,-148.041188,1838.629195
3712.395007,-10807.006753,222.061783,1072.533697
3712.395337,-9474.636058,-518.144159,612.876398
3712.395667,-9178.553681,0.000000,153.219100
3712.395997,-10288.862594,0.000000,76.609550
3712.396327,-10732.986159,888.247130,229.828649
3712.396657,-9770.718434,148.041188,383.047749
3712.396987,-10066.800811,814.226536,0.000000
3712.397317,-10362.883188,370.102971,-919.314598
3712.397647,-11177.109724,148.041188,-1455.581446
3712.397977,-9844.739029,0.000000,-1532.190996
3712.398307,-8882.471304,-222.061783,0.000000
3712.398636,-9030.512492,-148.041188,995.924147
3712.398966,-10658.965565,-296.082377,689.485948
3712.399296,-10288.862594,74.020594,76.609550
3712.399626,-9844.739029,-74.020594,0.000000
3712.399956,-9622.677246,518.144159,0.000000
3712.400286,-10288.862594,-444.123565,459.657299
3712.400616,-10510.924376,74.020594,0.000000
3712.400946,-8882.471304,-666.185348,76.609550
3712.401276,-8512.368333,-296.082377,229.828649
3712.401606,-9474.636058,0.000000,-229.828649
3712.401936,-9770.718434,148.041188,-383.047749
3712.402265,-9400.615463,-370.102971,0.000000
3712.402595,-8586.388927,0.000000,306.438199
3712.402925,-8956.491898,0.000000,766.095498
3712.403255,-10362.883188,0.000000,229.828649
3712.403585,-10436.903782,0.000000,-76.609550
3712.403915,-9770.718434,-296.082377,536.266849
3712.404245,-9104.533087,74.020594,536.266849
3712.404575,-10214.842000,-296.082377,383.047749
3712.404905,-9844.739029,0.000000,612.876398
3712.405235,-8660.409521,-666.185348,766.095498
3712.405565,-8142.265362,296.082377,689.485948
3712.405894,-10140.821405,0.000000,612.876398
3712.406224,-11029.068536,814.226536,153.219100
3712.406554,-9622.677246,-148.041188,612.876398
3712.406884,-8586.388927,370.102971,612.876398
3712.407214,-10066.800811,222.061783,689.485948
3712.407544,-10881.027347,74.020594,919.314598
3712.407874,-9844.739029,-370.102971,1149.143247
3712.408204,-9326.594869,0.000000,1378.971896
3712.408534,-9474.636058,296.082377,612.876398
3712.408864,-10881.027347,148.041188,306.438199
3712.409194,-10658.965565,592.164754,0.000000
3712.409523,-9474.636058,296.082377,0.000000
3712.409853,-9474.636058,814.226536,0.000000
3712.410183,-10955.047942,296.082377,0.000000
3712.410513,-10732.986159,518.144159,-689.485948
3712.410843,-9622.677246,-666.185348,-766.095498
3712.411173,-9252.574275,222.061783,-306.438199
3712.411503,-9992.780217,-666.185348,306.438199
3712.411833,-10510.924376,-222.061783,306.438199
3712.412163,-9400.615463,-518.144159,842.705048
3712.412493,-9400.615463,222.061783,995.924147
3712.412823,-10214.842000,0.000000,76.609550
3712.413152,-11547.212695,74.020594,-995.924147
3712.413482,-9844.739029,-740.205942,-536.266849
3712.413812,-8808.450710,-888.247130,0.000000
3712.414142,-8438.347739,0.000000,919.314598
3712.414472,-9252.574275,-666.185348,229.828649
3712.414802,-9252.574275,74.020594,-689.485948
3712.415132,-8290.306550,-444.123565,-1225.752797
3712.415462,-9326.594869,592.164754,-459.657299
3712.415792,-11029.068536,370.102971,229.828649
3712.416122,-11399.171507,592.164754,229.828649
3712.416452,-9548.656652,0.000000,689.485948
3712.416782,-8512.368333,0.000000,76.609550
3712.417111,-9918.759623,148.041188,-229.828649
3712.417441,-11399.171507,74.020594,-306.438199
3712.417771,-10214.842000,222.061783,383.047749
3712.418101,-8660.409521,444.123565,1532.190996
3712.418431,-9030.512492,370.102971,919.314598
3712.418761,-10732.986159,740.205942,459.657299
3712.419091,-9992.780217,518.144159,0.000000
3712.419421,-9992.780217,370.102971,-536.266849
3712.419751,-9474.636058,814.226536,0.000000
3712.420081,-10732.986159,222.061783,1302.362347
3712.420411,-10214.842000,222.061783,2068.457845
3712.420740,-9104.533087,-296.082377,1915.238745
3712.421070,-8882.471304,370.102971,1149.143247
3712.421400,-10362.883188,0.000000,383.047749
3712.421730,-10732.986159,518.144159,-612.876398
3712.422060,-9548.656652,222.061783,76.609550
3712.422390,-9474.636058,740.205942,1915.238745
3712.422720,-9400.615463,592.164754,1838.629195
3712.423050,-10510.924376,518.144159,612.876398
3712.423380,-10214.842000,518.144159,-76.609550
3712.423710,-9104.533087,0.000000,-689.485948
3712.424040,-9252.574275,222.061783,-459.657299
3712.424369,-10658.965565,0.000000,0.000000
3712.424699,-10510.924376,296.082377,383.047749
3712.425029,-9104.533087,-814.226536,306.438199
3712.425359,-8882.471304,148.041188,-459.657299
3712.425689,-10214.842000,-296.082377,-689.485948
3712.426019,-10732.986159,148.041188,-766.095498
3712.426349,-9622.677246,-518.144159,229.828649
3712.426679,-9030.512492,0.000000,1072.533697
3712.427008,-9474.636058,0.000000,306.438199
3712.427338,-10807.006753,222.061783,-1072.533697
3712.427668,-9992.780217,-740.205942,-919.314598
3712.427998,-9474.636058,-1184.329507,-229.828649
3712.428328,-9696.697840,0.000000,995.924147
3712.428658,-11621.233289,0.000000,1685.410096
3712.428988,-10362.883188,-444.123565,0.000000
3712.429317,-8142.265362,-1184.329507,-229.828649
3712.429647,-8068.244768,148.041188,0.000000
3712.429977,-10584.944971,148.041188,536.266849
3712.430307,-11399.171507,814.226536,0.000000
3712.430637,-9696.697840,-740.205942,459.657299
3712.430967,-8734.430116,444.123565,383.047749
3712.431296,-10140.821405,222.061783,-306.438199
3712.431626,-11769.274478,0.000000,-842.705048
3712.431956,-9326.594869,-518.144159,-229.828649
3712.432286,-7550.100608,-222.061783,536.266849
3712.432616,-9326.594869,74.020594,919.314598
3712.432946,-11251.130318,0.000000,766.095498
3712.433275,-9992.780217,-296.082377,306.438199
3712.433605,-9030.512492,-592.164754,689.485948
3712.433935,-9104.533087,-148.041188,766.095498
3712.434265,-10436.903782,-592.164754,1149.143247
3712.434595,-9696.697840,0.000000,1762.019645
3712.434925,-8512.368333,0.000000,1378.971896
3712.435255,-8808.450710,1036.288319,842.705048
3712.435584,-10881.027347,740.205942,76.609550
3712.435914,-11473.192101,1036.288319,-153.219100
3712.436244,-9844.739029,0.000000,153.219100
3712.436574,-9696.697840,666.185348,459.657299
3712.436904,-9770.718434,0.000000,306.438199
3712.437234,-10066.800811,296.082377,-229.828649
3712.437563,-8586.388927,296.082377,-229.828649
3712.437893,-8956.491898,740.205942,76.609550
3712.438223,-10288.862594,962.267725,0.000000
3712.438553,-11399.171507,666.185348,-766.095498
3712.438883,-10584.944971,592.164754,-766.095498
3712.439213,-10140.821405,148.041188,76.609550
3712.439542,-9844.739029,222.061783,459.657299
3712.439872,-10584.944971,-592.164754,0.000000
3712.440202,-9992.780217,0.000000,153.219100
3712.440532,-9030.512492,-444.123565,689.485948
3712.440862,-8882.471304,370.102971,766.095498
3712.441192,-10066.800811,148.041188,-766.095498
3712.441522,-10732.986159,296.082377,-1991.848295
3712.441851,-9548.656652,-518.144159,-1455.581446
3712.442181,-8956.491898,-444.123565,0.000000
3712.442511,-9178.553681,-444.123565,842.705048
3712.442841,-9696.697840,-1036.288319,612.876398
3712.443171,-9104.533087,-518.144159,153.219100
3712.443501,-8586.388927,-370.102971,306.438199
3712.443830,-9400.615463,370.102971,536.266849
3712.444160,-11399.171507,148.041188,536.266849
3712.444490,-11325.150913,74.020594,766.095498
3712.444820,-9918.759623,-592.164754,612.876398
3712.445150,-9178.553681,-370.102971,0.000000
3712.445480,-9548.656652,-1184.329507,-153.219100
3712.445809,-9622.677246,-444.123565,0.000000
3712.446139,-8216.285956,-222.061783,383.047749
3712.446469,-8068.244768,296.082377,153.219100
3712.446799,-10140.821405,888.247130,306.438199
3712.447129,-12361.439231,1332.370696,229.828649
3712.447459,-11103.089130,148.041188,76.609550
3712.447789,-10214.842000,-74.020594,153.219100
3712.448118,-9770.718434,74.020594,1302.362347
3712.448448,-10436.903782,-370.102971,2451.505594
3712.448778,-9252.574275,-148.041188,1838.629195
3712.449108,-8142.265362,-370.102971,1455.581446
3712.449438,-9104.533087,740.205942,766.095498
3712.449768,-11103.089130,814.226536,0.000000
3712.450097,-11325.150913,814.226536,229.828649
3712.450427,-10214.842000,0.000000,612.876398
3712.450757,-9474.636058,74.020594,689.485948
3712.451087,-9400.615463,-814.226536,919.314598
3712.451417,-9918.759623,-666.185348,612.876398
3712.451747,-8956.491898,-444.123565,612.876398
3712.452076,-8808.450710,222.061783,536.266849
3712.452406,-9400.615463,444.123565,919.314598
3712.452736,-11325.150913,666.185348,459.657299
3712.453066,-10510.924376,222.061783,0.000000
3712.453396,-9844.739029,0.000000,-383.047749
3712.453726,-10066.800811,222.061783,-383.047749
3712.454056,-10140.821405,-666.185348,-612.876398
3712.454385,-9252.574275,-222.061783,-1225.752797
3712.454715,-8142.265362,-296.082377,-229.828649
3712.455045,-9030.512492,740.205942,0.000000
3712.455375,-10881.027347,888.247130,-459.657299
3712.455705,-11103.089130,592.164754,-1302.362347
3712.456035,-9548.656652,-296.082377,-919.314598
3712.456364,-9030.512492,0.000000,0.000000
3712.456694,-9770.718434,74.020594,766.095498
3712.457024,-10140.821405,-444.123565,229.828649
3712.457354,-8586.388927,0.000000,0.000000
3712.457684,-7550.100608,0.000000,153.219100
3712.458014,-9252.574275,814.226536,153.219100
3712.458343,-11473.192101,962.267725,76.609550
3712.458673,-11547.212695,962.267725,-689.485948
3712.459003,-10881.027347,296.082377,-153.219100
3712.459333,-10140.821405,444.123565,229.828649
3712.459663,-9770.718434,-592.164754,0.000000
3712.459993,-8956.491898,-666.185348,0.000000
3712.460323,-7846.182985,-740.205942,229.828649
3712.460652,-8142.265362,592.164754,689.485948
3712.460982,-9548.656652,1036.288319,995.924147
3712.461312,-11843.295072,1258.350101,536.266849
3712.461642,-11103.089130,370.102971,459.657299
3712.461972,-10436.903782,296.082377,383.047749
3712.462302,-9770.718434,-148.041188,536.266849
3712.462631,-9622.677246,-1110.308913,306.438199
3712.462961,-9030.512492,-592.164754,612.876398
3712.463291,-8068.244768,-1036.288319,1149.143247
3712.463621,-8290.306550,0.000000,842.705048
3712.463951,-10362.883188,222.061783,459.657299
3712.464281,-11103.089130,1110.308913,689.485948
3712.464610,-10436.903782,-222.061783,1302.362347
3712.464940,-9918.759623,222.061783,766.095498
3712.465270,-10066.800811,-74.020594,1149.143247
3712.465600,-10732.986159,-444.123565,689.485948
3712.465930,-8956.491898,-814.226536,229.828649
3712.466260,-7994.224174,0.000000,-306.438199
3712.466590,-9474.636058,592.164754,-153.219100
3712.466919,-11547.212695,518.144159,0.000000
3712.467249,-10955.047942,222.061783,0.000000
3712.467579,-9622.677246,-296.082377,0.000000
3712.467909,-9400.615463,74.020594,-383.047749
3712.468239,-10288.862594,-888.247130,76.609550
3712.468569,-9844.739029,-592.164754,153.219100
3712.468898,-8512.368333,-888.247130,383.047749
3712.469228,-8438.347739,0.000000,229.828649
3712.469558,-9844.739029,0.000000,0.000000
3712.469888,-10732.986159,518.144159,-919.314598
3712.470218,-9844.739029,-444.123565,-153.219100
3712.470548,-9400.615463,0.000000,306.438199
3712.470877,-10140.821405,74.020594,842.705048
3712.471207,-10658.965565,-74.020594,1149.143247
3712.471537,-8882.471304,-444.123565,459.657299
3712.471867,-7698.141797,-222.061783,0.000000
3712.472197,-9030.512492,888.247130,689.485948
3712.472527,-11769.274478,888.247130,919.314598
3712.472857,-11177.109724,888.247130,612.876398
3712.473186,-9844.739029,370.102971,229.828649
3712.473516,-9400.615463,1036.288319,-459.657299
3712.473846,-11103.089130,666.185348,-995.924147
3712.474176,-10436.903782,148.041188,-229.828649
3712.474506,-8956.491898,0.000000,153.219100
3712.474836,-8068.244768,222.061783,1072.533697
3712.475165,-9474.636058,296.082377,766.095498
3712.475495,-10288.862594,1036.288319,1072.533697
3712.475825,-9474.636058,0.000000,766.095498
3712.476155,-9474.636058,592.164754,153.219100
3712.476485,-9474.636058,666.185348,459.657299
3712.476815,-10362.883188,222.061783,1685.410096
3712.477144,-9622.677246,74.020594,2374.896044
3712.477474,-9326.594869,296.082377,2451.505594
3712.477804,-9770.718434,592.164754,1378.971896
3712.478134,-11177.109724,666.185348,-536.266849
3712.478464,-10510.924376,814.226536,-689.485948
3712.478794,-9474.636058,148.041188,153.219100
3712.479124,-8956.491898,1110.308913,-306.438199
3712.479453,-9474.636058,740.205942,-383.047749
3712.479783,-10066.800811,888.247130,-229.828649
3712.480113,-9844.739029,222.061783,-229.828649
3712.480443,-9770.718434,518.144159,0.000000
3712.480773,-9400.615463,74.020594,0.000000
3712.481103,-10658.965565,518.144159,-383.047749
3712.481432,-9474.636058,0.000000,459.657299
3712.481762,-9474.636058,0.000000,689.485948
3712.482092,-9770.718434,74.020594,229.828649
3712.482422,-10881.027347,148.041188,0.000000
3712.482752,-10658.965565,0.000000,0.000000
3712.483082,-9104.533087,-592.164754,229.828649
3712.483411,-8512.368333,-222.061783,0.000000
3712.483741,-9992.780217,148.041188,-153.219100
3712.484071,-9474.636058,0.000000,-1225.752797
3712.484401,-9252.574275,-962.267725,-995.924147
3712.484731,-9030.512492,370.102971,-1072.533697
3712.485061,-9548.656652,0.000000,306.438199
3712.485391,-10732.986159,0.000000,-229.828649
3712.485720,-9844.739029,-666.185348,0.000000
3712.486050,-9474.636058,-888.247130,459.657299
3712.486380,-9770.718434,-666.185348,689.485948
3712.486710,-10732.986159,-740.205942,383.047749
3712.487040,-9178.553681,-740.205942,0.000000
3712.487370,-8290.306550,-370.102971,306.438199
3712.487699,-8734.430116,0.000000,919.314598
3712.488029,-10732.986159,-592.164754,689.485948
3712.488359,-11177.109724,-444.123565,459.657299
3712.488689,-9474.636058,-1258.350101,536.266849
3712.489019,-8586.388927,-740.205942,919.314598
3712.489349,-9474.636058,-1036.288319,1302.362347
3712.489678,-10807.006753,148.041188,1149.143247
3712.490008,-9474.636058,-814.226536,842.705048
3712.490338,-8586.388927,0.000000,-153.219100
3712.490668,-9474.636058,-296.082377,306.438199
3712.490998,-11029.068536,0.000000,306.438199
3712.491328,-10066.800811,-740.205942,995.924147
3712.491658,-8660.409521,-444.123565,919.314598
3712.491987,-9030.512492,-296.082377,536.266849
3712.492317,-10658.965565,148.041188,76.609550
3712.492647,-10214.842000,0.000000,153.219100
3712.492977,-10140.821405,0.000000,689.485948
3712.493307,-10066.800811,666.185348,0.000000
3712.493637,-10436.903782,222.061783,-842.705048
3712.493966,-10214.842000,0.000000,-689.485948
3712.494296,-9030.512492,-370.102971,306.438199
3712.494626,-8882.471304,518.144159,1149.143247
3712.494956,-10658.965565,666.185348,1532.190996
3712.495286,-10584.944971,592.164754,153.219100
3712.495616,-9326.594869,-222.061783,-306.438199
3712.495945,-9252.574275,296.082377,-919.314598
3712.496275,-10140.821405,222.061783,-689.485948
3712.496605,-10881.027347,-296.082377,-459.657299
3712.496935,-9326.594869,-370.102971,-229.828649
3712.497265,-7698.141797,-148.041188,-383.047749
3712.497595,-8660.409521,0.000000,689.485948
3712.497925,-10881.027347,0.000000,153.219100
3712.498254,-10214.842000,444.123565,-842.705048
3712.498584,-8734.430116,0.000000,-995.924147
3712.498914,-8586.388927,592.164754,-766.095498
3712.499244,-10436.903782,370.102971,-153.219100
3712.499574,-9918.759623,148.041188,-459.657299
3712.499904,-8364.327145,0.000000,-153.219100
3712.500233,-7994.224174,666.185348,0.000000
3712.500563,-9770.718434,814.226536,306.438199
3712.500893,-11621.233289,1036.288319,-459.657299
3712.501223,-10066.800811,0.000000,-229.828649
3712.501553,-9770.718434,370.102971,153.219100
3712.501883,-10066.800811,0.000000,612.876398
3712.502212,-10140.821405,-444.123565,689.485948
3712.502542,-9178.553681,74.020594,842.705048
3712.502872,-8512.368333,222.061783,1149.143247
3712.503202,-9326.594869,1110.308913,1685.410096
3712.503532,-11325.150913,962.267725,153.219100
3712.503862,-11177.109724,814.226536,766.095498
3712.504192,-9844.739029,0.000000,995.924147
3712.504521,-9548.656652,592.164754,842.705048
3712.504851,-10436.903782,222.061783,1608.800546
3712.505181,-10362.883188,148.041188,459.657299
3712.505511,-8808.450710,-740.205942,229.828649
3712.505841,-8068.244768,296.082377,995.924147
3712.506171,-9844.739029,518.144159,1378.971896
3712.506500,-11843.295072,1110.308913,1455.581446
3712.506830,-10510.924376,296.082377,1225.752797
3712.507160,-9104.533087,370.102971,306.438199
3712.507490,-9696.697840,592.164754,-536.266849
3712.507820,-10955.047942,0.000000,-842.705048
3712.508150,-10658.965565,-444.123565,-766.095498
3712.508479,-8808.450710,-888.247130,536.266849
3712.508809,-8142.265362,-296.082377,1302.362347
3712.509139,-10066.800811,74.020594,1225.752797
3712.509469,-10584.944971,-222.061783,0.000000
3712.509799,-9252.574275,-814.226536,153.219100
3712.510129,-8956.491898,74.020594,-153.219100
3712.510459,-10066.800811,0.000000,-383.047749
3712.510788,-10955.047942,-222.061783,-459.657299
3712.511118,-9400.615463,-74.020594,306.438199
3712.511448,-8216.285956,-518.144159,0.000000
3712.511778,-8734.430116,148.041188,-766.095498
3712.512108,-10732.986159,-222.061783,-1149.143247
3712.512438,-9844.739029,0.000000,-459.657299
3712.512767,-8956.491898,0.000000,76.609550
3712.513097,-9548.656652,518.144159,459.657299
3712.513427,-11621.233289,518.144159,612.876398
3712.513757,-11177.109724,148.041188,-383.047749
3712.514087,-9326.594869,-666.185348,-536.266849
3712.514417,-8364.327145,222.061783,0.000000
3712.514746,-9844.739029,74.020594,1072.533697
3712.515076,-10362.883188,296.082377,1149.143247
3712.515406,-9474.636058,296.082377,1608.800546
3712.515736,-9918.759623,962.267725,612.876398
3712.516066,-10881.027347,444.123565,383.047749
3712.516396,-11769.274478,222.061783,0.000000
3712.516726,-10140.821405,-222.061783,306.438199
3712.517055,-8586.388927,-296.082377,1838.629195
3712.517385,-8882.471304,0.000000,2757.943793
3712.517715,-10807.006753,0.000000,2068.457845
3712.518045,-9844.739029,0.000000,766.095498
3712.518375,-9326.594869,0.000000,229.828649
3712.518705,-9104.533087,962.267725,459.657299
3712.519034,-10807.006753,444.123565,1455.581446
3712.519364,-11177.109724,370.102971,842.705048
3712.519694,-8882.471304,-592.164754,689.485948
3712.520024,-8438.347739,0.000000,766.095498
3712.520354,-9918.759623,-74.020594,229.828649
3712.520684,-10955.047942,-74.020594,0.000000
3712.521013,-8660.409521,-666.185348,229.828649
3712.521343,-8438.347739,148.041188,689.485948
3712.521673,-9400.615463,148.041188,536.266849
3712.522003,-11177.109724,222.061783,0.000000
3712.522333,-9770.718434,222.061783,-766.095498
3712.522663,-8956.491898,-222.061783,-766.095498
3712.522993,-8956.491898,444.123565,-689.485948
3712.523322,-10510.924376,370.102971,-306.438199
3712.523652,-10214.842000,518.144159,-1225.752797
3712.523982,-8956.491898,-148.041188,-1072.533697
3712.524312,-8882.471304,962.267725,-1532.190996
3712.524642,-10584.944971,0.000000,-919.314598
3712.524972,-11695.253884,814.226536,-995.924147
3712.525301,-10066.800811,222.061783,-536.266849
3712.525631,-8808.450710,0.000000,-459.657299
3712.525961,-9622.677246,74.020594,153.219100
3712.526291,-10436.903782,148.041188,306.438199
3712.526621,-9696.697840,-296.082377,229.828649
3712.526951,-9474.636058,148.041188,306.438199
3712.527280,-9252.574275,888.247130,536.266849
3712.527610,-10436.903782,-296.082377,612.876398
3712.527940,-10584.944971,740.205942,459.657299
3712.528271,-9844.739029,0.000000,1225.752797
3712.528601,-9696.697840,518.144159,1532.190996
3712.528930,-10732.986159,74.020594,383.047749
3712.529260,-9844.739029,0.000000,76.609550
3712.529590,-8586.388927,-592.164754,306.438199
3712.529920,-8142.265362,222.061783,383.047749
3712.530250,-9622.677246,370.102971,612.876398
3712.530580,-11177.109724,444.123565,383.047749
3712.530909,-10436.903782,148.041188,0.000000
3712.531239,-8734.430116,0.000000,766.095498
3712.531569,-9252.574275,0.000000,1225.752797
3712.531899,-10658.965565,-518.144159,1685.410096
3712.532229,-9400.615463,-148.041188,1532.190996
3712.532559,-8586.388927,-592.164754,1378.971896
3712.532888,-8660.409521,592.164754,919.314598
3712.533218,-10362.883188,296.082377,766.095498
3712.533548,-11103.089130,148.041188,612.876398
3712.533878,-9548.656652,-444.123565,536.266849
3712.534208,-8808.450710,370.102971,766.095498
3712.534537,-10288.862594,74.020594,229.828649
3712.534867,-10436.903782,222.061783,-612.876398
3712.535197,-9474.636058,-370.102971,-76.609550
3712.535527,-8956.491898,296.082377,153.219100
3712.535857,-10066.800811,222.061783,383.047749
3712.536187,-11473.192101,74.020594,-229.828649
3712.536516,-10066.800811,148.041188,-919.314598
3712.536846,-9178.553681,-518.144159,0.000000
3712.537176,-9770.718434,0.000000,229.828649
3712.537506,-11103.089130,296.082377,-229.828649
3712.537836,-10584.944971,-74.020594,0.000000
3712.538166,-9178.553681,-888.247130,-536.266849
3712.538495,-9474.636058,148.041188,-536.266849
3712.538825,-10658.965565,-814.226536,-919.314598
3712.539155,-10510.924376,-222.061783,-689.485948
3712.539485,-9104.533087,-962.267725,-612.876398
3712.539815,-8068.244768,-444.123565,-612.876398
3712.540145,-9622.677246,-592.164754,-153.219100
3712.540474,-10362.883188,-444.123565,-229.828649
3712.540804,-9548.656652,-888.247130,383.047749
3712.541134,-9400.615463,-222.061783,612.876398
3712.541464,-9400.615463,-222.061783,0.000000
3712.541794,-10140.821405,-444.123565,-689.485948
3712.542123,-10066.800811,0.000000,-153.219100
3712.542453,-9104.533087,-888.247130,76.609550
3712.542783,-8956.491898,148.041188,919.314598
3712.543113,-10362.883188,370.102971,612.876398
3712.543443,-10066.800811,-296.082377,0.000000
3712.543773,-9548.656652,-518.144159,383.047749
3712.544102,-9252.574275,592.164754,612.876398
3712.544432,-10288.862594,222.061783,153.219100
3712.544762,-10066.800811,518.144159,0.000000
3712.545092,-8956.491898,148.041188,76.609550
3712.545422,-8956.491898,518.144159,229.828649
3712.545752,-10436.903782,370.102971,459.657299
3712.546081,-11103.089130,518.144159,383.047749
3712.546411,-10288.862594,296.082377,766.095498
3712.546741,-9030.512492,0.000000,229.828649
3712.547071,-9104.533087,148.041188,919.314598
3712.547401,-9918.759623,148.041188,766.095498
3712.547730,-9696.697840,666.185348,1225.752797
3712.548060,-9104.533087,444.123565,1072.533697
3712.548390,-9252.574275,888.247130,995.924147
3712.548720,-10807.006753,962.267725,689.485948
3712.549050,-11177.109724,1036.288319,0.000000
3712.549380,-10288.862594,74.020594,-153.219100
3712.549709,-9252.574275,74.020594,-842.705048
3712.550039,-9326.594869,0.000000,306.438199
3712.550369,-9844.739029,148.041188,153.219100
3712.550699,-8956.491898,0.000000,842.705048
3712.551029,-8512.368333,148.041188,995.924147
3712.551359,-9992.780217,888.247130,995.924147
3712.551688,-11621.233289,962.267725,-229.828649
3712.552018,-11029.068536,296.082377,-919.314598
3712.552348,-9178.553681,0.000000,-766.095498
3712.552678,-8364.327145,74.020594,0.000000
3712.553008,-9696.697840,148.041188,459.657299
3712.553338,-10214.842000,222.061783,-383.047749
3712.553667,-8956.491898,0.000000,-842.705048
3712.553997,-8808.450710,296.082377,-1302.362347
3712.554327,-10362.883188,0.000000,-919.314598
3712.554657,-11399.171507,444.123565,-383.047749
3712.554987,-9992.780217,-444.123565,689.485948
3712.555316,-8882.471304,-222.061783,689.485948
3712.555646,-9030.512492,-444.123565,153.219100
3712.555976,-9548.656652,-148.041188,0.000000
3712.556306,-9326.594869,0.000000,76.609550
3712.556636,-8586.388927,222.061783,459.657299
3712.556966,-9326.594869,444.123565,612.876398
3712.557295,-11103.089130,518.144159,306.438199
3712.557625,-10807.006753,0.000000,459.657299
3712.557955,-9992.780217,-814.226536,459.657299
3712.558285,-9696.697840,0.000000,383.047749
3712.558615,-9992.780217,74.020594,689.485948
3712.558945,-9844.739029,296.082377,383.047749
3712.559274,-8734.430116,148.041188,76.609550
3712.559604,-8364.327145,370.102971,459.657299
3712.559934,-11029.068536,888.247130,995.924147
3712.560264,-12213.398043,888.247130,306.438199
3712.560594,-10584.944971,-148.041188,229.828649
3712.560923,-8882.471304,74.020594,536.266849
3712.561253,-8438.347739,0.000000,919.314598
3712.561583,-9918.759623,-296.082377,1378.971896
3712.561913,-9770.718434,148.041188,1072.533697
3712.562243,-9474.636058,0.000000,995.924147
3712.562573,-10288.862594,592.164754,689.485948
3712.562902,-11325.150913,296.082377,459.657299
3712.563232,-10584.944971,296.082377,76.609550
3712.563562,-8808.450710,-962.267725,536.266849
3712.563892,-8512.368333,148.041188,612.876398
3712.564222,-9400.615463,0.000000,306.438199
3712.564552,-10658.965565,148.041188,153.219100
3712.564881,-9844.739029,222.061783,-229.828649
3712.565211,-9326.594869,518.144159,0.000000
3712.565541,-10510.924376,518.144159,383.047749
3712.565871,-11103.089130,518.144159,-76.609550
3712.566201,-10362.883188,74.020594,-536.266849
3712.566531,-9030.512492,-518.144159,-536.266849
3712.566860,-8734.430116,0.000000,-689.485948
3712.567190,-9918.759623,0.000000,-383.047749
3712.567520,-10658.965565,-222.061783,-76.609550
3712.567850,-8734.430116,-740.205942,76.609550
3712.568180,-8512.368333,-74.020594,-153.219100
3712.568509,-10140.821405,0.000000,-842.705048
3712.568839,-10658.965565,0.000000,-383.047749
3712.569169,-9622.677246,-666.185348,76.609550
3712.569499,-8956.491898,0.000000,689.485948
3712.569829,-9992.780217,-518.144159,229.828649
3712.570159,-10066.800811,-592.164754,-229.828649
3712.570488,-9030.512492,-814.226536,-76.609550
3712.570818,-8438.347739,-518.144159,536.266849
3712.571148,-8956.491898,0.000000,612.876398
3712.571478,-10807.006753,296.082377,153.219100
3712.571808,-10436.903782,222.061783,0.000000
3712.572138,-9252.574275,0.000000,0.000000
3712.572467,-9548.656652,296.082377,459.657299
3712.572797,-10881.027347,0.000000,459.657299
3712.573127,-10807.006753,74.020594,229.828649
3712.573457,-9252.574275,-666.185348,306.438199
3712.573787,-8734.430116,0.000000,919.314598
3712.574117,-10288.862594,0.000000,689.485948
3712.574446,-10881.027347,518.144159,459.657299
3712.574776,-9474.636058,0.000000,689.485948
3712.575106,-8660.409521,370.102971,536.266849
3712.575436,-9474.636058,444.123565,995.924147
3712.575766,-11251.130318,370.102971,0.000000
3712.576095,-10288.862594,74.020594,995.924147
3712.576425,-8956.491898,0.000000,766.095498
3712.576755,-9252.574275,74.020594,536.266849
3712.577085,-11251.130318,518.144159,0.000000
3712.577415,-10658.965565,148.041188,229.828649
3712.577745,-9474.636058,-592.164754,153.219100
3712.578074,-8734.430116,222.061783,153.219100
3712.578404,-9844.739029,0.000000,766.095498
3712.578734,-10584.944971,518.144159,383.047749
3712.579064,-9178.553681,-444.123565,0.000000
3712.579394,-8882.471304,444.123565,-229.828649
3712.579724,-9992.780217,370.102971,-459.657299
3712.580053,-10807.006753,518.144159,-1532.190996
3712.580383,-9770.718434,-296.082377,-612.876398
3712.580713,-8956.491898,-370.102971,0.000000
3712.581043,-9622.677246,74.020594,-306.438199
3712.581373,-10807.006753,148.041188,76.609550
3712.581702,-9918.759623,0.000000,-306.438199
3712.582032,-8808.450710,-296.082377,459.657299
3712.582362,-9030.512492,296.082377,612.876398
3712.582692,-11029.068536,296.082377,-229.828649
3712.583022,-10362.883188,74.020594,-383.047749
3712.583352,-8808.450710,0.000000,-459.657299
3712.583681,-8808.450710,592.164754,-306.438199
3712.584011,-10066.800811,296.082377,-689.485948
3712.584341,-10140.821405,296.082377,-459.657299
3712.584671,-8512.368333,74.020594,76.609550
3712.585001,-8438.347739,222.061783,1149.143247
3712.585331,-10214.842000,444.123565,919.314598
3712.585660,-11029.068536,444.123565,612.876398
3712.585990,-9548.656652,0.000000,229.828649
3712.586320,-8734.430116,0.000000,919.314598
3712.586650,-9770.718434,518.144159,1455.581446
3712.586980,-11399.171507,0.000000,1532.190996
3712.587310,-10140.821405,148.041188,229.828649
3712.587639,-8290.306550,148.041188,0.000000
3712.587969,-8882.471304,666.185348,536.266849
3712.588299,-10584.944971,370.102971,612.876398
3712.588629,-10881.027347,666.185348,766.095498
3712.588959,-9400.615463,0.000000,919.314598
3712.589288,-9252.574275,518.144159,842.705048
3712.589618,-10436.903782,0.000000,689.485948
3712.589948,-10584.944971,-222.061783,842.705048
3712.590278,-9548.656652,-148.041188,536.266849
3712.590608,-8512.368333,0.000000,0.000000
3712.590938,-9104.533087,296.082377,459.657299
3712.591267,-10362.883188,444.123565,383.047749
3712.591597,-10658.965565,74.020594,383.047749
3712.591927,-9992.780217,-296.082377,383.047749
3712.592257,-9844.739029,0.000000,306.438199
3712.592587,-10732.986159,-1036.288319,383.047749
3712.592917,-10066.800811,-518.144159,-76.609550
3712.593246,-8882.471304,-1258.350101,0.000000
3712.593576,-8734.430116,-444.123565,0.000000
3712.593906,-9474.636058,-592.164754,-536.266849
3712.594236,-9548.656652,370.102971,-995.924147
3712.594566,-9030.512492,-296.082377,-766.095498
3712.594896,-9770.718434,0.000000,-689.485948
3712.595225,-10658.965565,-518.144159,-536.266849
3712.595555,-11399.171507,-814.226536,0.000000
3712.595885,-9622.677246,-962.267725,-153.219100
3712.596215,-8142.265362,-1184.329507,0.000000
3712.596545,-8438.347739,-592.164754,0.000000
3712.596874,-10140.821405,-296.082377,-459.657299
3712.597204,-10510.924376,148.041188,-689.485948
3712.597534,-10140.821405,-370.102971,0.000000
3712.597864,-10214.842000,370.102971,0.000000
3712.598194,-10510.924376,-222.061783,536.266849
3712.598524,-9474.636058,-370.102971,459.657299
3712.598853,-8512.368333,-370.102971,153.219100
3712.599183,-8438.347739,0.000000,842.705048
3712.599513,-10510.924376,814.226536,1072.533697
3712.599843,-11399.171507,1628.453072,536.266849
3712.600173,-10288.862594,592.164754,0.000000
3712.600503,-9918.759623,518.144159,383.047749
3712.600832,-10436.903782,1036.288319,766.095498
3712.601162,-11177.109724,444.123565,1072.533697
3712.601492,-9770.718434,222.061783,76.609550
3712.601822,-7698.141797,-296.082377,229.828649
3712.602152,-7920.203579,370.102971,1532.190996
3712.602481,-9918.759623,666.185348,1685.410096
3712.602811,-10510.924376,740.205942,1762.019645
3712.603141,-9696.697840,74.020594,1072.533697
3712.603471,-9548.656652,370.102971,459.657299
3712.603801,-10658.965565,296.082377,1149.143247
3712.604131,-10658.965565,296.082377,995.924147
3712.604460,-9622.677246,74.020594,1455.581446
3712.604790,-8586.388927,148.041188,1072.533697
3712.605120,-8956.491898,666.185348,229.828649
3712.605450,-10066.800811,1406.391290,0.000000
3712.605780,-9400.615463,888.247130,-536.266849
3712.606110,-9696.697840,962.267725,-76.609550
3712.606439,-9992.780217,1480.411884,0.000000
3712.606769,-10732.986159,592.164754,153.219100
3712.607099,-10732.986159,666.185348,-689.485948
3712.607429,-9622.677246,74.020594,-612.876398
3712.607759,-9548.656652,296.082377,0.000000
3712.608089,-9844.739029,370.102971,153.219100
3712.608418,-10066.800811,1036.288319,-612.876398
3712.608748,-9400.615463,592.164754,-383.047749
3712.609078,-9548.656652,740.205942,-306.438199
3712.609408,-10140.821405,296.082377,-919.314598
3712.609738,-11251.130318,518.144159,-459.657299
3712.610067,-9918.759623,444.123565,-459.657299
3712.610397,-8660.409521,-74.020594,-229.828649
3712.610727,-9104.533087,148.041188,-383.047749
3712.611057,-10214.842000,74.020594,-536.266849
3712.611387,-10140.821405,370.102971,-766.095498
3712.611717,-9992.780217,-148.041188,0.000000
3712.612046,-10066.800811,740.205942,766.095498
3712.612376,-10436.903782,-222.061783,383.047749
3712.612706,-9918.759623,-148.041188,0.000000
3712.613036,-8882.471304,-814.226536,383.047749
3712.613366,-8364.327145,-518.144159,1225.752797
3712.613696,-9474.636058,-370.102971,766.095498
3712.614025,-9844.739029,444.123565,0.000000
3712.614355,-9474.636058,-222.061783,0.000000
3712.614685,-10066.800811,0.000000,689.485948
3712.615015,-10807.006753,0.000000,1225.752797
3712.615345,-11621.233289,0.000000,1149.143247
3712.615675,-9918.759623,-666.185348,1072.533697
3712.616004,-8438.347739,-1036.288319,1302.362347
3712.616334,-8364.327145,-518.144159,1608.800546
3712.616664,-10140.821405,-296.082377,1072.533697
3712.616994,-10214.842000,148.041188,0.000000
3712.617324,-9400.615463,-518.144159,-306.438199
3712.617653,-10066.800811,592.164754,0.000000
3712.617983,-10658.965565,0.000000,1072.533697
3712.618313,-11029.068536,148.041188,995.924147
3712.618643,-9400.615463,-814.226536,919.314598
3712.618973,-9400.615463,-740.205942,612.876398
3712.619303,-10140.821405,-370.102971,459.657299
3712.619632,-10436.903782,-518.144159,-229.828649
3712.619962,-9030.512492,-444.123565,76.609550
3712.620292,-9030.512492,-74.020594,0.000000
3712.620622,-9844.739029,444.123565,0.000000
3712.620952,-11177.109724,-518.144159,-689.485948
3712.621282,-10214.842000,-296.082377,-2068.457845
3712.621611,-8142.265362,-1036.288319,-1225.752797
3712.621941,-8438.347739,-296.082377,0.000000
3712.622271,-9992.780217,-296.082377,0.000000
3712.622601,-10288.862594,0.000000,-459.657299
3712.622931,-9400.615463,222.061783,-1378.971896
3712.623260,-9400.615463,0.000000,-1915.238745
3712.623590,-10214.842000,-74.020594,-766.095498
3712.623920,-10584.944971,-518.144159,76.609550
3712.624250,-9474.636058,-444.123565,536.266849
3712.624580,-8734.430116,-740.205942,1149.143247
3712.624910,-9474.636058,0.000000,536.266849
3712.625239,-10510.924376,0.000000,-919.314598
3712.625569,-9622.677246,-370.102971,-1302.362347
3712.625899,-9474.636058,0.000000,-76.609550
3712.626229,-9992.780217,370.102971,689.485948
3712.626559,-10584.944971,-444.123565,689.485948
3712.626889,-9844.739029,-592.164754,-153.219100
3712.627218,-8216.285956,0.000000,0.000000
3712.627548,-8734.430116,148.041188,766.095498
3712.627878,-10140.821405,148.041188,919.314598
3712.628208,-10584.944971,518.144159,919.314598
3712.628537,-9548.656652,592.164754,1149.143247
3712.628867,-10140.821405,740.205942,842.705048
3712.629197,-10288.862594,518.144159,1149.143247
3712.629527,-11547.212695,0.000000,1378.971896
3712.629857,-10066.800811,148.041188,1302.362347
3712.630186,-8734.430116,222.061783,1149.143247
3712.630516,-8956.491898,518.144159,995.924147
3712.630846,-10288.862594,444.123565,383.047749
3712.631176,-10584.944971,666.185348,306.438199
3712.631505,-9104.533087,0.000000,306.438199
3712.631835,-9326.594869,666.185348,689.485948
3712.632165,-9844.739029,296.082377,612.876398
3712.632495,-9770.718434,296.082377,306.438199
3712.632825,-8882.471304,148.041188,0.000000
3712.633154,-8660.409521,296.082377,1532.190996
3712.633484,-10140.821405,666.185348,1915.238745
3712.633814,-11399.171507,740.205942,842.705048
3712.634144,-10288.862594,1036.288319,76.609550
3712.634474,-9770.718434,444.123565,-229.828649
3712.634803,-10140.821405,1110.308913,0.000000
3712.635133,-10510.924376,296.082377,306.438199
3712.635463,-9696.697840,666.185348,0.000000
3712.635793,-7698.141797,370.102971,0.000000
3712.636122,-8882.471304,888.247130,0.000000
3712.636452,-10658.965565,814.226536,-383.047749
3712.636782,-11251.130318,814.226536,-1225.752797
3712.637112,-9844.739029,148.041188,-306.438199
3712.637442,-9548.656652,592.164754,-459.657299
3712.637771,-9992.780217,148.041188,0.000000
3712.638101,-10436.903782,-370.102971,0.000000
3712.638431,-9252.574275,-370.102971,153.219100
3712.638761,-8734.430116,-518.144159,0.000000
3712.639090,-9252.574275,222.061783,-306.438199
3712.639420,-10510.924376,222.061783,-689.485948
3712.639750,-9696.697840,0.000000,153.219100
3712.640080,-9104.533087,-518.144159,459.657299
3712.640410,-9178.553681,0.000000,383.047749
3712.640739,-10066.800811,-444.123565,0.000000
3712.641069,-10140.821405,74.020594,-459.657299
3712.641399,-8660.409521,-444.123565,459.657299
3712.641729,-9252.574275,0.000000,1378.971896
3712.642058,-11029.068536,296.082377,766.095498
3712.642388,-11029.068536,370.102971,229.828649
3712.642718,-8956.491898,0.000000,229.828649
3712.643048,-8808.450710,592.164754,0.000000
3712.643378,-9770.718434,444.123565,383.047749
3712.643707,-11029.068536,0.000000,919.314598
3712.644037,-9992.780217,0.000000,689.485948
3712.644367,-9252.574275,-74.020594,689.485948
3712.644697,-10066.800811,0.000000,766.095498
3712.645027,-11325.150913,-370.102971,0.000000
3712.645356,-9104.533087,-666.185348,76.609550
3712.645686,-8364.327145,-74.020594,1072.533697
3712.646016,-9326.594869,370.102971,2145.067394
3712.646346,-11177.109724,-148.041188,1838.629195
3712.646675,-10732.986159,0.000000,76.609550
3712.647005,-9326.594869,0.000000,-229.828649
3712.647335,-9104.533087,-444.123565,1072.533697
3712.647665,-9992.780217,-296.082377,766.095498
3712.647995,-9992.780217,-370.102971,306.438199
3712.648324,-8586.388927,-74.020594,76.609550
3712.648654,-8290.306550,222.061783,-76.609550
3712.648984,-10362.883188,592.164754,229.828649
3712.649314,-12583.501014,370.102971,0.000000
3712.649643,-11103.089130,0.000000,229.828649
3712.649973,-8956.491898,-740.205942,0.000000
3712.650303,-9030.512492,-444.123565,153.219100
3712.650633,-10214.842000,-814.226536,0.000000
3712.650963,-9252.574275,-814.226536,153.219100
3712.651292,-8438.347739,-592.164754,0.000000
3712.651622,-8586.388927,444.123565,-536.266849
3712.651952,-10362.883188,0.000000,-229.828649
3712.652282,-11621.233289,74.020594,-766.095498
3712.652611,-9918.759623,-296.082377,-766.095498
3712.652941,-9030.512492,-518.144159,0.000000
3712.653271,-9770.718434,-370.102971,-536.266849
3712.653601,-10140.821405,-592.164754,-766.095498
3712.653931,-9178.553681,-592.164754,-306.438199
3712.654260,-8586.388927,74.020594,0.000000
3712.654590,-9474.636058,740.205942,0.000000
3712.654920,-11103.089130,0.000000,-842.705048
3712.655250,-10214.842000,370.102971,-1455.581446
3712.655580,-8364.327145,-666.185348,76.609550
3712.655909,-8734.430116,74.020594,842.705048
3712.656239,-10436.903782,74.020594,1149.143247
3712.656569,-9918.759623,666.185348,153.219100
3712.656899,-8216.285956,-74.020594,-383.047749
3712.657228,-9252.574275,962.267725,-153.219100
3712.657558,-11473.192101,0.000000,153.219100
3712.657888,-11991.336260,222.061783,229.828649
3712.658218,-9326.594869,0.000000,536.266849
3712.658548,-7476.080014,0.000000,919.314598
3712.658877,-8882.471304,592.164754,995.924147
3712.659207,-10510.924376,666.185348,459.657299
3712.659537,-9844.739029,740.205942,153.219100
3712.659867,-9178.553681,740.205942,842.705048
3712.660196,-10510.924376,1406.391290,1149.143247
3712.660526,-12139.377449,148.041188,689.485948
3712.660856,-10584.944971,148.041188,0.000000
3712.661186,-7550.100608,-814.226536,1149.143247
3712.661516,-8364.327145,74.020594,1608.800546
3712.661845,-10436.903782,222.061783,1608.800546
3712.662175,-10362.883188,518.144159,1072.533697
3712.662505,-8586.388927,370.102971,612.876398
3712.662835,-9474.636058,1036.288319,0.000000
3712.663164,-10658.965565,222.061783,459.657299
3712.663494,-11473.192101,444.123565,76.609550
3712.663824,-9104.533087,0.000000,-459.657299
3712.664154,-8364.327145,-592.164754,229.828649
3712.664484,-9252.574275,148.041188,459.657299
3712.664813,-11325.150913,222.061783,153.219100
3712.665143,-10288.862594,0.000000,-153.219100
3712.665473,-9252.574275,0.000000,-536.266849
3712.665803,-9622.677246,296.082377,-306.438199
3712.666133,-9992.780217,-888.247130,0.000000
3712.666462,-9918.759623,148.041188,-383.047749
3712.666792,-8142.265362,-370.102971,-153.219100
3712.667122,-9252.574275,-296.082377,-229.828649
3712.667452,-10140.821405,0.000000,153.219100
3712.667781,-10955.047942,-222.061783,-612.876398
3712.668111,-9104.533087,-592.164754,0.000000
3712.668441,-9474.636058,222.061783,-76.609550
3712.668771,-9622.677246,148.041188,0.000000
3712.669101,-10214.842000,0.000000,-459.657299
3712.669430,-9844.739029,370.102971,0.000000
3712.669760,-9400.615463,222.061783,0.000000
3712.670090,-10510.924376,740.205942,459.657299
3712.670420,-10881.027347,222.061783,-76.609550
3712.670749,-9844.739029,0.000000,153.219100
3712.671079,-9252.574275,-296.082377,612.876398
3712.671409,-9548.656652,148.041188,919.314598
3712.671739,-10140.821405,-370.102971,1455.581446
3712.672069,-9770.718434,0.000000,689.485948
3712.672398,-8808.450710,-74.020594,1608.800546
3712.672728,-9844.739029,74.020594,1455.581446
3712.673058,-11029.068536,222.061783,612.876398
3712.673388,-10955.047942,0.000000,0.000000
3712.673717,-9326.594869,-370.102971,0.000000
3712.674047,-8438.347739,-74.020594,153.219100
3712.674377,-8512.368333,222.061783,536.266849
3712.674707,-9548.656652,-592.164754,459.657299
3712.675037,-9844.739029,370.102971,153.219100
3712.675366,-9474.636058,-296.082377,0.000000
3712.675696,-10066.800811,370.102971,919.314598
3712.676026,-11177.109724,0.000000,1455.581446
3712.676356,-10362.883188,-148.041188,766.095498
3712.676685,-8882.471304,-444.123565,459.657299
3712.677015,-9400.615463,148.041188,766.095498
3712.677345,-9622.677246,0.000000,153.219100
3712.677675,-10288.862594,148.041188,-612.876398
3712.678005,-8808.450710,444.123565,-995.924147
3712.678334,-8364.327145,0.000000,-306.438199
3712.678664,-9770.718434,444.123565,-76.609550
3712.678994,-10807.006753,222.061783,-612.876398
3712.679324,-10140.821405,0.000000,-612.876398
3712.679654,-8882.471304,0.000000,-1072.533697
3712.679983,-9474.636058,222.061783,-459.657299
3712.680313,-10436.903782,0.000000,536.266849
3712.680643,-10140.821405,888.247130,229.828649
3712.680973,-9252.574275,0.000000,76.609550
3712.681302,-9548.656652,444.123565,-689.485948
3712.681632,-10584.944971,222.061783,-842.705048
3712.681962,-10288.862594,0.000000,-612.876398
3712.682292,-8956.491898,-222.061783,76.609550
3712.682622,-8364.327145,148.041188,0.000000
3712.682951,-8956.491898,0.000000,229.828649
3712.683281,-10436.903782,74.020594,-306.438199
3712.683611,-10732.986159,518.144159,-153.219100
3712.683941,-10140.821405,0.000000,76.609550
3712.684270,-10658.965565,296.082377,612.876398
3712.684600,-10881.027347,-370.102971,766.095498
3712.684930,-9178.553681,-222.061783,1455.581446
3712.685260,-9030.512492,-370.102971,1762.019645
3712.685590,-9104.533087,666.185348,1072.533697
3712.685919,-9992.780217,444.123565,459.657299
3712.686249,-10510.924376,814.226536,-229.828649
3712.686579,-9474.636058,296.082377,306.438199
3712.686909,-9622.677246,518.144159,995.924147
3712.687238,-11399.171507,296.082377,1302.362347
3712.687568,-11029.068536,0.000000,1149.143247
3712.687898,-8956.491898,-666.185348,383.047749
3712.688228,-8808.450710,0.000000,229.828649
3712.688558,-9400.615463,0.000000,766.095498
3712.688887,-10510.924376,148.041188,1225.752797
3712.689217,-9770.718434,666.185348,1608.800546
3712.689547,-9844.739029,666.185348,1991.848295
3712.689877,-9992.780217,148.041188,995.924147
3712.690207,-10436.903782,222.061783,0.000000
3712.690536,-9548.656652,222.061783,-383.047749
3712.690866,-9474.636058,74.020594,0.000000
3712.691196,-9474.636058,518.144159,612.876398
3712.691526,-10658.965565,-74.020594,153.219100
3712.691855,-10955.047942,-370.102971,-995.924147
3712.692185,-9474.636058,-444.123565,-1072.533697
3712.692515,-8734.430116,-592.164754,-689.485948
3712.692845,-9104.533087,74.020594,459.657299
3712.693175,-9844.739029,296.082377,383.047749
3712.693504,-9326.594869,-222.061783,-459.657299
3712.693834,-9622.677246,370.102971,-689.485948
3712.694164,-9770.718434,444.123565,-995.924147
3712.694494,-10807.006753,-296.082377,-306.438199
3712.694823,-10066.800811,0.000000,-383.047749
3712.695153,-9030.512492,-370.102971,383.047749
3712.695483,-8882.471304,0.000000,229.828649
3712.695813,-9844.739029,-296.082377,76.609550
3712.696143,-10436.903782,148.041188,-612.876398
3712.696472,-9696.697840,-296.082377,306.438199
3712.696802,-10362.883188,296.082377,766.095498
3712.697132,-10214.842000,0.000000,1072.533697
3712.697462,-9918.759623,-444.123565,306.438199
3712.697791,-9326.594869,0.000000,306.438199
3712.698121,-9548.656652,-222.061783,1072.533697
3712.698451,-10362.883188,370.102971,1149.143247
3712.698781,-11177.109724,296.082377,383.047749
3712.699111,-9252.574275,148.041188,536.266849
3712.699440,-9104.533087,-148.041188,919.314598
3712.699770,-9770.718434,888.247130,689.485948
3712.700100,-10732.986159,-296.082377,383.047749
3712.700430,-10214.842000,0.000000,0.000000
3712.700760,-8882.471304,-296.082377,1149.143247
3712.701089,-8956.491898,0.000000,1225.752797
3712.701419,-9918.759623,370.102971,1455.581446
3712.701749,-10362.883188,444.123565,383.047749
3712.702079,-9622.677246,-222.061783,-383.047749
3712.702408,-9548.656652,148.041188,76.609550
3712.702738,-9252.574275,0.000000,842.705048
3712.703068,-10436.903782,0.000000,1685.410096
3712.703398,-9622.677246,296.082377,1455.581446
3712.703728,-9474.636058,592.164754,1302.362347
3712.704057,-9696.697840,666.185348,0.000000
3712.704387,-11029.068536,370.102971,-766.095498
3712.704717,-10510.924376,74.020594,-1072.533697
3712.705047,-9770.718434,-370.102971,766.095498
3712.705376,-8956.491898,444.123565,766.095498
3712.705706,-9622.677246,0.000000,76.609550
3712.706036,-9918.759623,0.000000,-1149.143247
3712.706366,-9400.615463,-296.082377,-995.924147
3712.706696,-9252.574275,0.000000,-766.095498
3712.707025,-10510.924376,74.020594,0.000000
3712.707355,-11103.089130,222.061783,76.609550
3712.707685,-9474.636058,-370.102971,153.219100
3712.708015,-9178.553681,-592.164754,-76.609550
3712.708344,-9252.574275,-444.123565,-383.047749
3712.708674,-10658.965565,-740.205942,-612.876398
3712.709004,-9696.697840,-444.123565,-536.266849
3712.709334,-8290.306550,-888.247130,612.876398
3712.709664,-8734.430116,370.102971,153.219100
3712.709993,-11103.089130,0.000000,-229.828649
3712.710323,-11769.274478,74.020594,-995.924147
3712.710653,-9770.718434,-1184.329507,0.000000
3712.710983,-9400.615463,-222.061783,536.266849
3712.711312,-9326.594869,-962.267725,1302.362347
3712.711642,-9252.574275,-518.144159,1302.362347
3712.711972,-8290.306550,-296.082377,995.924147
3712.712302,-8956.491898,74.020594,306.438199
3712.712632,-10214.842000,222.061783,-383.047749
3712.712961,-11621.233289,370.102971,0.000000
3712.713291,-10140.821405,370.102971,995.924147
3712.713621,-9622.677246,0.000000,919.314598
3712.713951,-9252.574275,74.020594,689.485948
3712.714281,-10288.862594,-592.164754,536.266849
3712.714610,-10140.821405,222.061783,76.609550
3712.714940,-9104.533087,0.000000,995.924147
3712.715270,-9104.533087,370.102971,1378.971896
3712.715600,-10436.903782,592.164754,1762.019645
3712.715929,-10658.965565,740.205942,919.314598
3712.716259,-9104.533087,-296.082377,383.047749
3712.716589,-8734.430116,74.020594,153.219100
3712.716919,-9548.656652,148.041188,612.876398
3712.717249,-10362.883188,148.041188,842.705048
3712.717578,-9844.739029,222.061783,1455.581446
3712.717908,-8956.491898,222.061783,1455.581446
3712.718238,-10066.800811,666.185348,766.095498
3712.718568,-10807.006753,444.123565,-229.828649
3712.718897,-9844.739029,296.082377,-459.657299
3712.719227,-9474.636058,0.000000,842.705048
3712.719557,-9622.677246,888.247130,766.095498
3712.719887,-10658.965565,296.082377,766.095498
3712.720217,-10732.986159,666.185348,-306.438199
3712.720546,-9770.718434,222.061783,-766.095498
3712.720876,-9252.574275,592.164754,-383.047749
3712.721206,-10436.903782,222.061783,0.000000
3712.721536,-10584.944971,518.144159,-229.828649
3712.721865,-9770.718434,-296.082377,76.609550
3712.722195,-9548.656652,444.123565,612.876398
3712.722525,-9918.759623,296.082377,612.876398
3712.722855,-10510.924376,-74.020594,-459.657299
3712.723185,-9548.656652,0.000000,-689.485948
3712.723514,-8364.327145,0.000000,0.000000
3712.723844,-9030.512492,148.041188,0.000000
3712.724174,-10362.883188,148.041188,-229.828649
3712.724504,-9992.780217,296.082377,-383.047749
3712.724834,-8586.388927,0.000000,995.924147
3712.725163,-9030.512492,1110.308913,229.828649
3712.725493,-9844.739029,0.000000,153.219100
3712.725823,-9992.780217,0.000000,-306.438199
3712.726153,-8734.430116,0.000000,229.828649
3712.726482,-8956.491898,518.144159,1225.752797
3712.726812,-10807.006753,740.205942,612.876398
3712.727142,-11177.109724,888.247130,-689.485948
3712.727472,-9178.553681,148.041188,-1149.143247
3712.727802,-9474.636058,148.041188,-383.047749
3712.728131,-9844.739029,148.041188,383.047749
3712.728461,-10881.027347,-222.061783,1302.362347
3712.728791,-9030.512492,0.000000,1455.581446
3712.729121,-8068.244768,-592.164754,1762.019645
3712.729450,-8956.491898,-148.041188,612.876398
3712.729780,-11103.089130,0.000000,0.000000
3712.730110,-10362.883188,296.082377,229.828649
3712.730440,-9844.739029,-444.123565,383.047749
3712.730770,-10140.821405,0.000000,842.705048
3712.731099,-11251.130318,-666.185348,1072.533697
3712.731429,-10362.883188,-1110.308913,612.876398
3712.731759,-8364.327145,-1110.308913,0.000000
3712.732089,-8660.409521,-666.185348,0.000000
3712.732418,-9178.553681,0.000000,1149.143247
3712.732748,-10066.800811,74.020594,1225.752797
