#time,accel_x,accel_y,accel_z
4173.144035,-9696.697840,0.000000,536.266849
4173.144365,-9770.718434,-148.041188,76.609550
4173.144695,-9548.656652,148.041188,383.047749
4173.145025,-9548.656652,0.000000,306.438199
4173.145354,-9770.718434,148.041188,0.000000
4173.145684,-9770.718434,0.000000,-383.047749
4173.146014,-9844.739029,0.000000,153.219100
4173.146344,-9474.636058,-148.041188,153.219100
4173.146674,-9548.656652,0.000000,689.485948
4173.147003,-9770.718434,0.000000,306.438199
4173.147333,-9770.718434,0.000000,76.609550
4173.147663,-9844.739029,0.000000,0.000000
4173.147993,-9696.697840,0.000000,153.219100
4173.148323,-9770.718434,0.000000,153.219100
4173.148652,-9622.677246,-666.185348,306.438199
4173.148982,-9622.677246,0.000000,536.266849
4173.149312,-9474.636058,0.000000,689.485948
4173.149642,-9474.636058,-74.020594,536.266849
4173.149972,-9844.739029,74.020594,76.609550
4173.150301,-9770.718434,0.000000,459.657299
4173.150631,-10066.800811,74.020594,306.438199
4173.150961,-10214.842000,370.102971,536.266849
4173.151291,-10140.821405,0.000000,842.705048
4173.151621,-9696.697840,0.000000,1072.533697
4173.151950,-9770.718434,0.000000,919.314598
4173.152280,-9844.739029,-444.123565,1838.629195
4173.152610,-9918.759623,-370.102971,1685.410096
4173.152940,-10140.821405,-444.123565,919.314598
4173.153270,-9770.718434,-222.061783,306.438199
4173.153599,-9548.656652,-444.123565,0.000000
4173.153929,-9696.697840,0.000000,306.438199
4173.154259,-9696.697840,-666.185348,1302.362347
4173.154589,-9918.759623,-296.082377,1685.410096
4173.154919,-9622.677246,-370.102971,2298.286494
4173.155248,-9326.594869,-666.185348,2145.067394
4173.155578,-9696.697840,-592.164754,1455.581446
4173.155908,-9844.739029,-814.226536,2068.457845
4173.156238,-9918.759623,-666.185348,2451.505594
4173.156568,-9918.759623,-740.205942,2757.943793
4173.156897,-9992.780217,-592.164754,3217.601092
4173.157227,-9992.780217,-666.185348,2987.772442
4173.157557,-10362.883188,-370.102971,2604.724693
4173.157887,-10362.883188,-444.123565,2374.896044
4173.158217,-10436.903782,-592.164754,2145.067394
4173.158546,-10066.800811,-1110.308913,1225.752797
4173.158876,-10288.862594,-666.185348,1685.410096
4173.159206,-10288.862594,-1258.350101,2374.896044
4173.159536,-9992.780217,-1924.535449,2451.505594
4173.159866,-9770.718434,-2368.659014,2145.067394
4173.160196,-9326.594869,-2960.823768,2374.896044
4173.160525,-8734.430116,-3182.885551,2681.334243
4173.160855,-8586.388927,-3404.947333,3217.601092
4173.161185,-9474.636058,-3108.864956,4136.915689
4173.161515,-10436.903782,-2738.761985,4519.963438
4173.161845,-10658.965565,-2442.679609,4290.134789
4173.162174,-11325.150913,-2516.700203,3294.210641
4173.162504,-10807.006753,-2812.782580,2451.505594
4173.162834,-10807.006753,-2738.761985,1225.752797
4173.163164,-9844.739029,-2738.761985,1072.533697
4173.163494,-8734.430116,-3034.844362,1455.581446
4173.163823,-7994.224174,-3034.844362,1608.800546
4173.164153,-8512.368333,-3849.070898,2451.505594
4173.164483,-9474.636058,-4145.153275,3217.601092
4173.164813,-9696.697840,-4293.194464,2987.772442
4173.165143,-9844.739029,-4367.215058,2834.553343
4173.165472,-9326.594869,-4589.276840,1838.629195
4173.165802,-8956.491898,-4367.215058,3064.381992
4173.166132,-9918.759623,-4071.132681,4060.306139
4173.166462,-10066.800811,-3330.926739,4290.134789
4173.166792,-10436.903782,-2886.803174,2451.505594
4173.167121,-10362.883188,-3034.844362,536.266849
4173.167451,-10214.842000,-2516.700203,766.095498
4173.167781,-10214.842000,-3330.926739,1991.848295
4173.168111,-10214.842000,-3330.926739,2604.724693
4173.168441,-9918.759623,-3552.988522,1608.800546
4173.168770,-9030.512492,-3849.070898,1378.971896
4173.169100,-9252.574275,-3627.009116,842.705048
4173.169430,-9844.739029,-3627.009116,2068.457845
4173.169760,-10658.965565,-2368.659014,2911.162892
4173.170090,-11103.089130,-2442.679609,4290.134789
4173.170419,-10436.903782,-2590.720797,3294.210641
4173.170749,-9474.636058,-2738.761985,2451.505594
4173.171079,-10140.821405,-2812.782580,2374.896044
4173.171409,-10584.944971,-2812.782580,2604.724693
4173.171739,-10584.944971,-2738.761985,2834.553343
4173.172068,-9918.759623,-2368.659014,3140.991542
4173.172398,-9326.594869,-2146.597232,2834.553343
4173.172728,-9326.594869,-1628.453072,1225.752797
4173.173058,-10436.903782,-1924.535449,1685.410096
4173.173388,-10288.862594,-1702.473667,1378.971896
4173.173717,-9622.677246,-1776.494261,2068.457845
4173.174047,-8956.491898,-1554.432478,2834.553343
4173.174377,-9400.615463,-1702.473667,3370.820191
4173.174707,-9696.697840,-1924.535449,3600.648841
4173.175037,-9918.759623,-1702.473667,2528.115143
4173.175366,-9770.718434,-1628.453072,2451.505594
4173.175696,-9918.759623,-1036.288319,2451.505594
4173.176026,-9474.636058,-1480.411884,2911.162892
4173.176356,-9326.594869,-888.247130,3294.210641
4173.176686,-10066.800811,-444.123565,2451.505594
4173.177015,-10288.862594,0.000000,995.924147
4173.177345,-9474.636058,-518.144159,536.266849
4173.177675,-9326.594869,-222.061783,612.876398
4173.178005,-9474.636058,-148.041188,995.924147
4173.178335,-9326.594869,0.000000,919.314598
4173.178664,-9696.697840,-296.082377,1532.190996
4173.178994,-10140.821405,-666.185348,1608.800546
4173.179324,-10362.883188,-592.164754,1149.143247
4173.179654,-10362.883188,148.041188,1762.019645
4173.179984,-9770.718434,-592.164754,1685.410096
4173.180313,-9918.759623,-148.041188,2528.115143
4173.180643,-10288.862594,-296.082377,3064.381992
4173.180973,-10214.842000,-962.267725,2451.505594
4173.181303,-10066.800811,-296.082377,1838.629195
4173.181633,-9548.656652,-1110.308913,919.314598
4173.181962,-9548.656652,-1332.370696,1225.752797
4173.182292,-10214.842000,-888.247130,2451.505594
4173.182622,-9548.656652,-1184.329507,1915.238745
4173.182952,-9326.594869,-1406.391290,1762.019645
4173.183282,-9252.574275,-1554.432478,1225.752797
4173.183611,-9918.759623,-1850.514855,2221.676944
4173.183941,-10510.924376,-1480.411884,2374.896044
4173.184271,-10288.862594,-2072.576638,3370.820191
4173.184601,-10436.903782,-2146.597232,3753.867940
4173.184931,-9400.615463,-2146.597232,2911.162892
4173.185260,-9474.636058,-2368.659014,3140.991542
4173.185590,-11029.068536,-2294.638420,2911.162892
4173.185920,-10584.944971,-2294.638420,2298.286494
4173.186250,-9548.656652,-2664.741391,1838.629195
4173.186580,-8808.450710,-3330.926739,2221.676944
4173.186909,-9622.677246,-2664.741391,2911.162892
4173.187239,-9992.780217,-3034.844362,4136.915689
4173.187569,-9844.739029,-3330.926739,2987.772442
4173.187899,-8882.471304,-3108.864956,2374.896044
4173.188229,-8882.471304,-3478.967927,1685.410096
4173.188558,-10807.006753,-3478.967927,2911.162892
4173.188888,-10807.006753,-3701.029710,4366.744339
4173.189218,-9548.656652,-3552.988522,4366.744339
4173.189548,-9400.615463,-3034.844362,3294.210641
4173.189878,-10140.821405,-2738.761985,2757.943793
4173.190207,-10732.986159,-2960.823768,2068.457845
4173.190537,-10510.924376,-2812.782580,2451.505594
4173.190867,-10140.821405,-2442.679609,2681.334243
4173.191197,-9918.759623,-2886.803174,2068.457845
4173.191527,-9992.780217,-3108.864956,1915.238745
4173.191856,-9474.636058,-3552.988522,1915.238745
4173.192186,-9622.677246,-3552.988522,2374.896044
4173.192516,-9622.677246,-2960.823768,2681.334243
4173.192846,-10584.944971,-2886.803174,3140.991542
4173.193176,-10436.903782,-2960.823768,3907.087040
4173.193505,-9770.718434,-2960.823768,3753.867940
4173.193835,-10214.842000,-2368.659014,3217.601092
4173.194165,-11029.068536,-2812.782580,2528.115143
4173.194495,-10140.821405,-2516.700203,2911.162892
4173.194825,-9104.533087,-2960.823768,2528.115143
4173.195154,-9474.636058,-2294.638420,2451.505594
4173.195484,-10214.842000,-2368.659014,2528.115143
4173.195814,-9992.780217,-2368.659014,1685.410096
4173.196144,-9178.553681,-2368.659014,766.095498
4173.196474,-9252.574275,-2072.576638,1378.971896
4173.196803,-9770.718434,-1628.453072,1915.238745
4173.197133,-9474.636058,-2294.638420,1838.629195
4173.197463,-8512.368333,-2442.679609,2451.505594
4173.197793,-9252.574275,-2072.576638,3447.429741
4173.198123,-9548.656652,-1406.391290,3600.648841
4173.198452,-9696.697840,-1702.473667,2911.162892
4173.198782,-10436.903782,-1406.391290,2528.115143
4173.199112,-11103.089130,-1110.308913,2834.553343
4173.199442,-10436.903782,-1184.329507,2451.505594
4173.199772,-9844.739029,-1332.370696,1915.238745
4173.200101,-9474.636058,-814.226536,766.095498
4173.200431,-8290.306550,-592.164754,0.000000
4173.200761,-8586.388927,-1036.288319,76.609550
4173.201091,-9252.574275,-592.164754,1378.971896
4173.201420,-10807.006753,0.000000,2298.286494
4173.201750,-10510.924376,-814.226536,2911.162892
4173.202080,-9844.739029,-1036.288319,2834.553343
4173.202410,-10066.800811,-518.144159,3140.991542
4173.202739,-9474.636058,-1184.329507,2374.896044
4173.203069,-9770.718434,-370.102971,1225.752797
4173.203399,-9696.697840,0.000000,1608.800546
4173.203729,-10732.986159,814.226536,1838.629195
4173.204059,-10732.986159,666.185348,1378.971896
4173.204388,-10362.883188,888.247130,919.314598
4173.204718,-9918.759623,222.061783,-842.705048
4173.205048,-9696.697840,148.041188,-919.314598
4173.205378,-9474.636058,-370.102971,0.000000
4173.205707,-9326.594869,-962.267725,766.095498
4173.206037,-9474.636058,-518.144159,1455.581446
4173.206367,-9844.739029,-962.267725,2451.505594
4173.206697,-10066.800811,-370.102971,766.095498
4173.207027,-9844.739029,-814.226536,1608.800546
4173.207356,-10140.821405,-592.164754,2068.457845
4173.207686,-10214.842000,-592.164754,2604.724693
4173.208016,-9918.759623,-518.144159,2681.334243
4173.208346,-10140.821405,-444.123565,1838.629195
4173.208675,-9622.677246,-592.164754,1378.971896
4173.209005,-9918.759623,-740.205942,612.876398
4173.209335,-9696.697840,-444.123565,842.705048
4173.209665,-10066.800811,-666.185348,306.438199
4173.209994,-9992.780217,-592.164754,-229.828649
4173.210324,-9326.594869,-1110.308913,-229.828649
4173.210654,-9548.656652,-814.226536,-306.438199
4173.210984,-9918.759623,-370.102971,-459.657299
4173.211314,-9622.677246,-1258.350101,306.438199
4173.211643,-9178.553681,-1406.391290,1149.143247
4173.211973,-9400.615463,-740.205942,2145.067394
4173.212303,-9992.780217,-296.082377,2221.676944
4173.212633,-9770.718434,-148.041188,612.876398
4173.212962,-9770.718434,-814.226536,-612.876398
4173.213292,-9104.533087,-444.123565,-689.485948
4173.213622,-9548.656652,-370.102971,-76.609550
4173.213952,-10140.821405,0.000000,536.266849
4173.214281,-10510.924376,-1110.308913,689.485948
4173.214611,-9696.697840,-1184.329507,995.924147
4173.214941,-8808.450710,-1332.370696,1455.581446
4173.215271,-9474.636058,-222.061783,1225.752797
4173.215601,-9844.739029,-814.226536,229.828649
4173.215930,-9400.615463,74.020594,536.266849
4173.216260,-9326.594869,370.102971,689.485948
4173.216590,-11103.089130,814.226536,612.876398
4173.216920,-12287.418637,592.164754,0.000000
4173.217249,-12361.439231,592.164754,-153.219100
4173.217579,-9844.739029,74.020594,-459.657299
4173.217909,-8586.388927,-518.144159,76.609550
4173.218239,-8586.388927,-814.226536,-229.828649
4173.218568,-8660.409521,-962.267725,995.924147
4173.218898,-9104.533087,222.061783,306.438199
4173.219228,-9400.615463,-148.041188,-919.314598
4173.219558,-10436.903782,444.123565,-153.219100
4173.219888,-10140.821405,-370.102971,612.876398
4173.220217,-9696.697840,0.000000,612.876398
4173.220547,-9326.594869,0.000000,919.314598
4173.220877,-9474.636058,-518.144159,-76.609550
4173.221207,-10066.800811,-518.144159,536.266849
4173.221536,-9326.594869,-444.123565,0.000000
4173.221866,-9844.739029,-296.082377,-153.219100
4173.222196,-9474.636058,0.000000,1149.143247
4173.222526,-9252.574275,592.164754,306.438199
4173.222855,-8364.327145,-370.102971,-76.609550
4173.223185,-8734.430116,222.061783,0.000000
4173.223515,-9474.636058,0.000000,-995.924147
4173.223845,-9474.636058,0.000000,-612.876398
4173.224175,-9770.718434,296.082377,153.219100
4173.224504,-10362.883188,888.247130,1149.143247
4173.224834,-11473.192101,370.102971,766.095498
4173.225164,-10214.842000,592.164754,-153.219100
4173.225494,-9326.594869,666.185348,-459.657299
4173.225823,-8808.450710,1036.288319,-229.828649
4173.226153,-9844.739029,1110.308913,153.219100
4173.226483,-10584.944971,1554.432478,919.314598
4173.226813,-10510.924376,740.205942,306.438199
4173.227143,-10140.821405,1628.453072,0.000000
4173.227472,-11029.068536,1036.288319,-536.266849
4173.227802,-11991.336260,1258.350101,-2145.067394
4173.228132,-8808.450710,444.123565,-2145.067394
4173.228462,-7476.080014,962.267725,-459.657299
4173.228791,-9104.533087,1554.432478,1149.143247
4173.229121,-10510.924376,962.267725,1455.581446
4173.229451,-11399.171507,2072.576638,536.266849
4173.229781,-10214.842000,1480.411884,-1302.362347
4173.230110,-10510.924376,1406.391290,-1302.362347
4173.230440,-10658.965565,518.144159,-76.609550
4173.230770,-9622.677246,0.000000,306.438199
4173.231100,-9030.512492,296.082377,689.485948
4173.231430,-8290.306550,148.041188,0.000000
4173.231759,-9178.553681,222.061783,-383.047749
4173.232089,-9696.697840,370.102971,0.000000
4173.232419,-10584.944971,592.164754,1608.800546
4173.232749,-10288.862594,0.000000,2451.505594
4173.233078,-9326.594869,296.082377,1378.971896
4173.233408,-8882.471304,-814.226536,229.828649
4173.233738,-8956.491898,-296.082377,842.705048
4173.234068,-9844.739029,222.061783,459.657299
4173.234397,-10658.965565,222.061783,76.609550
4173.234727,-9770.718434,518.144159,306.438199
4173.235057,-9474.636058,370.102971,842.705048
4173.235387,-10288.862594,296.082377,1378.971896
4173.235717,-10510.924376,0.000000,1532.190996
4173.236046,-10436.903782,-518.144159,-153.219100
4173.236376,-8882.471304,-666.185348,-229.828649
4173.236706,-8586.388927,-148.041188,0.000000
4173.237036,-9178.553681,0.000000,1072.533697
4173.237365,-9844.739029,0.000000,536.266849
4173.237695,-10066.800811,0.000000,0.000000
4173.238025,-10288.862594,0.000000,-766.095498
4173.238355,-10807.006753,148.041188,-153.219100
4173.238684,-9844.739029,-740.205942,-383.047749
4173.239014,-8882.471304,-1184.329507,842.705048
4173.239344,-8956.491898,-814.226536,1225.752797
4173.239674,-9844.739029,-1332.370696,1455.581446
4173.240004,-9474.636058,-1258.350101,612.876398
4173.240333,-8512.368333,-1480.411884,-306.438199
4173.240663,-9104.533087,-666.185348,-306.438199
4173.240993,-9918.759623,-148.041188,459.657299
4173.241323,-11103.089130,-370.102971,842.705048
4173.241652,-10436.903782,0.000000,1225.752797
4173.241982,-9474.636058,-222.061783,76.609550
4173.242312,-9770.718434,148.041188,-459.657299
4173.242642,-10214.842000,-74.020594,-766.095498
4173.242971,-10658.965565,-148.041188,0.000000
4173.243301,-10436.903782,-296.082377,1378.971896
4173.243631,-10362.883188,-296.082377,689.485948
4173.243961,-9474.636058,-592.164754,229.828649
4173.244291,-9104.533087,-444.123565,0.000000
4173.244620,-9992.780217,148.041188,766.095498
4173.244950,-11399.171507,592.164754,1532.190996
4173.245280,-10955.047942,74.020594,-306.438199
4173.245610,-9178.553681,-296.082377,-995.924147
4173.245939,-9104.533087,148.041188,-153.219100
4173.246269,-9622.677246,444.123565,459.657299
4173.246599,-10510.924376,0.000000,153.219100
4173.246929,-9844.739029,148.041188,0.000000
4173.247258,-8734.430116,0.000000,-153.219100
4173.247588,-9474.636058,222.061783,229.828649
4173.247918,-9474.636058,518.144159,459.657299
4173.248248,-9918.759623,-148.041188,383.047749
4173.248578,-8882.471304,74.020594,229.828649
4173.248907,-8142.265362,0.000000,-1225.752797
4173.249237,-9474.636058,444.123565,-1072.533697
4173.249567,-9992.780217,592.164754,-153.219100
4173.249897,-9696.697840,518.144159,383.047749
4173.250226,-10066.800811,296.082377,766.095498
4173.250556,-9918.759623,296.082377,536.266849
4173.250886,-8438.347739,-444.123565,919.314598
4173.251216,-8882.471304,814.226536,76.609550
4173.251546,-9696.697840,592.164754,0.000000
4173.251875,-10362.883188,74.020594,612.876398
4173.252205,-10066.800811,814.226536,1685.410096
4173.252535,-9770.718434,592.164754,536.266849
4173.252865,-9696.697840,518.144159,766.095498
4173.253194,-9918.759623,592.164754,0.000000
4173.253524,-9770.718434,814.226536,-689.485948
4173.253854,-10066.800811,592.164754,-995.924147
4173.254184,-9770.718434,1036.288319,-1455.581446
4173.254513,-10140.821405,1184.329507,229.828649
4173.254843,-10436.903782,962.267725,0.000000
4173.255173,-10214.842000,74.020594,76.609550
4173.255503,-10288.862594,370.102971,0.000000
4173.255833,-10584.944971,370.102971,0.000000
4173.256162,-9770.718434,-222.061783,-536.266849
4173.256492,-9252.574275,74.020594,-919.314598
4173.256822,-8882.471304,0.000000,-76.609550
4173.257152,-9474.636058,0.000000,1608.800546
4173.257481,-9104.533087,0.000000,1072.533697
4173.257811,-10214.842000,518.144159,459.657299
4173.258141,-10214.842000,0.000000,306.438199
4173.258471,-10140.821405,-444.123565,536.266849
4173.258800,-9992.780217,-962.267725,536.266849
4173.259130,-9474.636058,-518.144159,766.095498
4173.259460,-9474.636058,0.000000,459.657299
4173.259790,-9252.574275,-370.102971,766.095498
4173.260120,-9474.636058,0.000000,-689.485948
4173.260449,-10584.944971,0.000000,0.000000
4173.260779,-10732.986159,0.000000,1225.752797
4173.261109,-10066.800811,0.000000,919.314598
4173.261439,-8956.491898,-666.185348,229.828649
4173.261768,-8808.450710,0.000000,153.219100
4173.262098,-10362.883188,-444.123565,1378.971896
4173.262428,-10732.986159,-370.102971,1532.190996
4173.262758,-9696.697840,0.000000,842.705048
4173.263087,-9918.759623,0.000000,459.657299
4173.263417,-10214.842000,222.061783,229.828649
4173.263747,-10214.842000,0.000000,-536.266849
4173.264077,-9622.677246,0.000000,-612.876398
4173.264407,-9770.718434,0.000000,-536.266849
4173.264736,-9474.636058,74.020594,-1378.971896
4173.265066,-8438.347739,74.020594,-689.485948
4173.265396,-9030.512492,0.000000,-76.609550
4173.265726,-10214.842000,0.000000,76.609550
4173.266055,-11251.130318,-148.041188,1149.143247
4173.266385,-10807.006753,-370.102971,1149.143247
4173.266715,-9770.718434,-666.185348,689.485948
4173.267045,-9178.553681,0.000000,383.047749
4173.267374,-9104.533087,-296.082377,229.828649
4173.267704,-9326.594869,-74.020594,383.047749
4173.268034,-9178.553681,74.020594,459.657299
4173.268364,-10362.883188,888.247130,919.314598
4173.268694,-10584.944971,296.082377,-229.828649
4173.269023,-9548.656652,962.267725,-612.876398
4173.269353,-9178.553681,148.041188,306.438199
4173.269683,-10510.924376,0.000000,536.266849
4173.270013,-9400.615463,-296.082377,612.876398
4173.270342,-9548.656652,0.000000,1608.800546
4173.270672,-9622.677246,592.164754,689.485948
4173.271002,-10140.821405,74.020594,229.828649
4173.271332,-10584.944971,592.164754,76.609550
4173.271662,-10658.965565,666.185348,0.000000
4173.271991,-9696.697840,666.185348,76.609550
4173.272321,-9474.636058,0.000000,689.485948
4173.272651,-9918.759623,0.000000,766.095498
4173.272981,-10214.842000,-296.082377,1225.752797
4173.273310,-9548.656652,-666.185348,0.000000
4173.273640,-9252.574275,-74.020594,-919.314598
4173.273970,-9770.718434,-444.123565,-919.314598
4173.274300,-10288.862594,-518.144159,-459.657299
4173.274629,-9326.594869,-1036.288319,306.438199
4173.274959,-9696.697840,0.000000,995.924147
4173.275289,-9400.615463,-592.164754,995.924147
4173.275619,-9326.594869,-148.041188,459.657299
4173.275949,-9178.553681,-370.102971,459.657299
4173.276278,-9918.759623,-888.247130,1149.143247
4173.276608,-11103.089130,-444.123565,1378.971896
4173.276938,-10362.883188,-814.226536,1838.629195
4173.277268,-9918.759623,-1332.370696,1455.581446
4173.277597,-8660.409521,-666.185348,1302.362347
4173.277927,-8956.491898,-444.123565,229.828649
4173.278257,-9918.759623,0.000000,689.485948
4173.278587,-10140.821405,444.123565,-306.438199
4173.278916,-9844.739029,296.082377,0.000000
4173.279246,-9770.718434,0.000000,689.485948
4173.279576,-10214.842000,0.000000,1302.362347
4173.279906,-10436.903782,0.000000,842.705048
4173.280236,-9770.718434,-888.247130,-689.485948
4173.280565,-9326.594869,0.000000,-306.438199
4173.280895,-9326.594869,-666.185348,459.657299
4173.281225,-10362.883188,666.185348,842.705048
4173.281555,-10140.821405,222.061783,1302.362347
4173.281884,-9992.780217,444.123565,1378.971896
4173.282214,-9770.718434,148.041188,-459.657299
4173.282544,-11251.130318,666.185348,-842.705048
4173.282874,-10362.883188,296.082377,-689.485948
4173.283203,-9326.594869,296.082377,-1532.190996
4173.283533,-9178.553681,814.226536,-306.438199
4173.283863,-9104.533087,0.000000,-383.047749
4173.284193,-10436.903782,740.205942,-536.266849
4173.284523,-9992.780217,666.185348,-612.876398
4173.284852,-9770.718434,74.020594,-1455.581446
4173.285182,-9992.780217,518.144159,-689.485948
4173.285512,-9770.718434,296.082377,1225.752797
4173.285842,-9400.615463,74.020594,1149.143247
4173.286171,-8882.471304,296.082377,1225.752797
4173.286501,-9918.759623,1332.370696,-459.657299
4173.286831,-10881.027347,518.144159,-612.876398
4173.287161,-9992.780217,1258.350101,-383.047749
4173.287490,-8956.491898,592.164754,-459.657299
4173.287820,-9030.512492,962.267725,-459.657299
4173.288150,-9474.636058,888.247130,0.000000
4173.288480,-9992.780217,148.041188,-383.047749
4173.288810,-9918.759623,296.082377,-689.485948
4173.289139,-8956.491898,518.144159,-383.047749
4173.289469,-9326.594869,592.164754,-153.219100
4173.289799,-9474.636058,370.102971,-229.828649
4173.290129,-9548.656652,296.082377,306.438199
4173.290458,-9474.636058,1036.288319,766.095498
4173.290788,-9400.615463,814.226536,459.657299
4173.291118,-10510.924376,814.226536,153.219100
4173.291448,-10214.842000,888.247130,383.047749
4173.291778,-9548.656652,148.041188,-306.438199
4173.292107,-9326.594869,444.123565,-153.219100
4173.292437,-9548.656652,0.000000,-383.047749
4173.292767,-9918.759623,-592.164754,0.000000
4173.293097,-8956.491898,0.000000,842.705048
4173.293426,-9178.553681,444.123565,0.000000
4173.293756,-10140.821405,222.061783,-766.095498
4173.294086,-9844.739029,296.082377,536.266849
4173.294416,-9474.636058,148.041188,1149.143247
4173.294745,-9844.739029,666.185348,2145.067394
4173.295075,-10584.944971,444.123565,1762.019645
4173.295405,-10881.027347,-518.144159,612.876398
4173.295735,-10362.883188,-296.082377,0.000000
4173.296065,-9696.697840,-666.185348,0.000000
4173.296394,-9622.677246,-74.020594,-229.828649
4173.296724,-9696.697840,-370.102971,1838.629195
4173.297054,-9622.677246,-296.082377,1302.362347
4173.297384,-9178.553681,0.000000,612.876398
4173.297713,-9696.697840,592.164754,-1225.752797
4173.298043,-11177.109724,-370.102971,-689.485948
4173.298373,-10510.924376,-518.144159,1149.143247
4173.298703,-9992.780217,-740.205942,1378.971896
4173.299033,-9474.636058,-962.267725,1532.190996
4173.299362,-9326.594869,-1036.288319,612.876398
4173.299692,-9548.656652,-1110.308913,229.828649
4173.300022,-9918.759623,-1480.411884,612.876398
4173.300352,-10955.047942,-888.247130,842.705048
4173.300682,-9622.677246,-1184.329507,1762.019645
4173.301011,-8882.471304,-1480.411884,1302.362347
4173.301341,-8068.244768,-1036.288319,612.876398
4173.301671,-8956.491898,-962.267725,-153.219100
4173.302001,-10214.842000,-222.061783,-383.047749
4173.302331,-10658.965565,148.041188,383.047749
4173.302660,-10658.965565,296.082377,536.266849
4173.302990,-9770.718434,444.123565,-229.828649
4173.303320,-10436.903782,-370.102971,-612.876398
4173.303650,-9252.574275,-592.164754,-995.924147
4173.303980,-8956.491898,-370.102971,-995.924147
4173.304309,-9770.718434,-74.020594,-76.609550
4173.304639,-9548.656652,0.000000,306.438199
4173.304969,-9326.594869,-296.082377,-612.876398
4173.305299,-9400.615463,296.082377,76.609550
4173.305629,-10807.006753,666.185348,0.000000
4173.305958,-11177.109724,518.144159,0.000000
4173.306288,-10214.842000,148.041188,-383.047749
4173.306618,-9400.615463,370.102971,-229.828649
4173.306948,-9696.697840,444.123565,0.000000
4173.307277,-9030.512492,0.000000,-1072.533697
4173.307607,-9696.697840,370.102971,-1072.533697
4173.307937,-9622.677246,1110.308913,-1072.533697
4173.308267,-10140.821405,1036.288319,-1455.581446
4173.308597,-9770.718434,1110.308913,-1225.752797
4173.308926,-9400.615463,222.061783,0.000000
4173.309256,-9918.759623,1258.350101,459.657299
4173.309586,-9696.697840,814.226536,0.000000
4173.309916,-10140.821405,814.226536,-383.047749
4173.310246,-9696.697840,370.102971,0.000000
4173.310575,-9474.636058,1036.288319,919.314598
4173.310905,-9918.759623,444.123565,612.876398
4173.311235,-9548.656652,518.144159,689.485948
4173.311565,-9622.677246,518.144159,995.924147
4173.311895,-9252.574275,444.123565,995.924147
4173.312224,-9548.656652,666.185348,689.485948
4173.312554,-10288.862594,740.205942,306.438199
4173.312884,-9696.697840,740.205942,229.828649
4173.313214,-9178.553681,1110.308913,766.095498
4173.313544,-9400.615463,444.123565,0.000000
4173.313873,-10658.965565,962.267725,689.485948
4173.314203,-10584.944971,444.123565,612.876398
4173.314533,-10140.821405,444.123565,0.000000
4173.314863,-9400.615463,1258.350101,0.000000
4173.315193,-9548.656652,370.102971,229.828649
4173.315522,-9770.718434,518.144159,536.266849
4173.315852,-9918.759623,666.185348,306.438199
4173.316182,-9844.739029,74.020594,459.657299
4173.316512,-10066.800811,592.164754,153.219100
4173.316842,-10214.842000,148.041188,-459.657299
4173.317171,-10066.800811,0.000000,0.000000
4173.317501,-9918.759623,370.102971,76.609550
4173.317831,-10140.821405,296.082377,766.095498
4173.318161,-9548.656652,-296.082377,0.000000
4173.318491,-9252.574275,296.082377,306.438199
4173.318820,-9622.677246,0.000000,-306.438199
4173.319150,-9844.739029,222.061783,-459.657299
4173.319480,-10288.862594,74.020594,0.000000
4173.319810,-10658.965565,-296.082377,306.438199
4173.320139,-9770.718434,-370.102971,995.924147
4173.320469,-8808.450710,-148.041188,1532.190996
4173.320799,-8586.388927,-518.144159,1455.581446
4173.321129,-9548.656652,-296.082377,459.657299
4173.321459,-11325.150913,74.020594,76.609550
4173.321788,-10732.986159,-370.102971,0.000000
4173.322118,-9992.780217,0.000000,-536.266849
4173.322448,-9770.718434,-222.061783,383.047749
4173.322778,-10140.821405,-222.061783,842.705048
4173.323108,-10436.903782,-148.041188,383.047749
4173.323437,-9030.512492,-444.123565,-229.828649
4173.323767,-9400.615463,-592.164754,-383.047749
4173.324097,-9474.636058,-444.123565,-612.876398
4173.324427,-9918.759623,-592.164754,842.705048
4173.324757,-10214.842000,-148.041188,1225.752797
4173.325086,-9918.759623,-814.226536,0.000000
4173.325416,-9918.759623,-518.144159,76.609550
4173.325746,-9252.574275,-814.226536,-995.924147
4173.326076,-9030.512492,-666.185348,0.000000
4173.326406,-9474.636058,0.000000,1302.362347
4173.326735,-10066.800811,-222.061783,1991.848295
4173.327065,-9844.739029,-148.041188,1915.238745
4173.327395,-9696.697840,-666.185348,459.657299
4173.327725,-9844.739029,-814.226536,0.000000
4173.328055,-9992.780217,-444.123565,0.000000
4173.328384,-9548.656652,-814.226536,536.266849
4173.328714,-9030.512492,-518.144159,153.219100
4173.329044,-9400.615463,0.000000,306.438199
4173.329374,-9622.677246,222.061783,229.828649
4173.329704,-10881.027347,444.123565,766.095498
4173.330033,-10807.006753,444.123565,383.047749
4173.330363,-9474.636058,148.041188,1149.143247
4173.330693,-9992.780217,148.041188,995.924147
4173.331023,-9326.594869,0.000000,459.657299
4173.331353,-9844.739029,0.000000,459.657299
4173.331682,-10658.965565,-296.082377,-153.219100
4173.332012,-9770.718434,-518.144159,-536.266849
4173.332342,-9252.574275,-74.020594,689.485948
4173.332672,-9178.553681,-296.082377,1225.752797
4173.333001,-9252.574275,-518.144159,1991.848295
4173.333331,-9918.759623,296.082377,1762.019645
4173.333661,-9622.677246,370.102971,0.000000
4173.333991,-10214.842000,148.041188,-919.314598
4173.334321,-9918.759623,740.205942,-459.657299
4173.334650,-9844.739029,296.082377,0.000000
4173.334980,-9918.759623,518.144159,0.000000
4173.335310,-9400.615463,518.144159,-229.828649
4173.335640,-9548.656652,444.123565,-1378.971896
4173.335970,-9770.718434,814.226536,-1532.190996
4173.336299,-9770.718434,518.144159,-1915.238745
4173.336629,-10140.821405,296.082377,0.000000
4173.336959,-9548.656652,592.164754,1072.533697
4173.337289,-9844.739029,370.102971,1378.971896
4173.337619,-10140.821405,-74.020594,995.924147
4173.337948,-9696.697840,0.000000,383.047749
4173.338278,-9844.739029,0.000000,306.438199
4173.338608,-10362.883188,222.061783,459.657299
4173.338938,-10510.924376,1184.329507,689.485948
4173.339268,-10140.821405,740.205942,919.314598
4173.339597,-9844.739029,888.247130,-612.876398
4173.339927,-9474.636058,74.020594,-1378.971896
4173.340257,-9770.718434,370.102971,-1225.752797
4173.340587,-9326.594869,74.020594,-612.876398
4173.340917,-9252.574275,0.000000,76.609550
4173.341246,-8734.430116,370.102971,0.000000
4173.341576,-9326.594869,370.102971,76.609550
4173.341906,-10510.924376,592.164754,689.485948
4173.342236,-11177.109724,666.185348,612.876398
4173.342566,-10955.047942,0.000000,76.609550
4173.342895,-9548.656652,296.082377,229.828649
4173.343225,-8438.347739,518.144159,766.095498
4173.343555,-9548.656652,888.247130,229.828649
4173.343885,-9696.697840,740.205942,-919.314598
4173.344215,-9696.697840,444.123565,-2145.067394
4173.344544,-8734.430116,518.144159,-842.705048
4173.344874,-9400.615463,518.144159,-612.876398
4173.345204,-10140.821405,-148.041188,536.266849
4173.345534,-9696.697840,-740.205942,1608.800546
4173.345863,-9696.697840,-814.226536,995.924147
4173.346193,-9474.636058,-814.226536,229.828649
4173.346523,-9252.574275,-592.164754,-76.609550
4173.346853,-9252.574275,74.020594,536.266849
4173.347183,-9770.718434,518.144159,1455.581446
4173.347512,-11251.130318,814.226536,1225.752797
4173.347842,-11251.130318,148.041188,306.438199
4173.348172,-10140.821405,-74.020594,0.000000
4173.348502,-9030.512492,-666.185348,0.000000
4173.348832,-9030.512492,-1110.308913,995.924147
4173.349161,-9252.574275,-1332.370696,689.485948
4173.349491,-8882.471304,-1628.453072,612.876398
4173.349821,-9030.512492,-296.082377,612.876398
4173.350151,-9992.780217,-296.082377,-383.047749
4173.350481,-10584.944971,0.000000,76.609550
4173.350810,-10140.821405,-148.041188,459.657299
4173.351140,-10955.047942,0.000000,1532.190996
4173.351470,-10510.924376,-148.041188,1455.581446
4173.351800,-9918.759623,-888.247130,459.657299
4173.352130,-9326.594869,-814.226536,-229.828649
4173.352459,-9252.574275,-962.267725,995.924147
4173.352789,-9992.780217,-666.185348,1149.143247
4173.353119,-10510.924376,-1036.288319,1608.800546
4173.353449,-10510.924376,-666.185348,995.924147
4173.353779,-9252.574275,-1184.329507,153.219100
4173.354108,-9104.533087,-592.164754,0.000000
4173.354438,-9474.636058,-518.144159,842.705048
4173.354768,-10436.903782,0.000000,1532.190996
4173.355098,-10362.883188,592.164754,1532.190996
4173.355428,-10214.842000,74.020594,-153.219100
4173.355757,-11029.068536,0.000000,-76.609550
4173.356087,-10584.944971,-592.164754,536.266849
4173.356417,-10214.842000,-1110.308913,1378.971896
4173.356747,-9030.512492,-1184.329507,1838.629195
4173.357077,-8956.491898,-1184.329507,842.705048
4173.357406,-8512.368333,-1036.288319,612.876398
4173.357736,-8734.430116,-518.144159,-306.438199
4173.358066,-9474.636058,0.000000,-536.266849
4173.358396,-10288.862594,592.164754,383.047749
4173.358725,-11029.068536,592.164754,1378.971896
4173.359055,-9770.718434,74.020594,0.000000
4173.359385,-9178.553681,444.123565,-383.047749
4173.359715,-10214.842000,222.061783,-612.876398
4173.360045,-10584.944971,-74.020594,-1225.752797
4173.360374,-9622.677246,74.020594,-1072.533697
4173.360704,-8734.430116,74.020594,-689.485948
4173.361034,-8734.430116,296.082377,153.219100
4173.361364,-9474.636058,370.102971,229.828649
4173.361694,-9918.759623,518.144159,-1378.971896
4173.362023,-9178.553681,444.123565,-1455.581446
4173.362353,-9252.574275,666.185348,-842.705048
4173.362683,-10066.800811,0.000000,612.876398
4173.363013,-10510.924376,370.102971,1685.410096
4173.363343,-9548.656652,592.164754,842.705048
4173.363672,-9918.759623,888.247130,-383.047749
4173.364002,-10807.006753,888.247130,-1072.533697
4173.364332,-10214.842000,74.020594,-995.924147
4173.364662,-9696.697840,1480.411884,842.705048
4173.364992,-9548.656652,962.267725,1685.410096
4173.365321,-9622.677246,518.144159,306.438199
4173.365651,-9992.780217,518.144159,-612.876398
4173.365981,-10214.842000,518.144159,-1762.019645
4173.366311,-10066.800811,370.102971,-1149.143247
4173.366641,-9474.636058,814.226536,-383.047749
4173.366970,-9252.574275,740.205942,689.485948
4173.367300,-9696.697840,1554.432478,1915.238745
4173.367630,-10658.965565,1258.350101,919.314598
4173.367960,-10584.944971,444.123565,-689.485948
4173.368290,-9918.759623,666.185348,-842.705048
4173.368619,-9030.512492,518.144159,-153.219100
4173.368949,-9474.636058,222.061783,1378.971896
4173.369279,-9400.615463,0.000000,1608.800546
4173.369609,-8438.347739,-222.061783,153.219100
4173.369939,-8586.388927,148.041188,-383.047749
4173.370268,-9400.615463,370.102971,-919.314598
4173.370598,-10510.924376,740.205942,153.219100
4173.370928,-9918.759623,740.205942,1072.533697
4173.371258,-9696.697840,1406.391290,306.438199
4173.371587,-10066.800811,148.041188,-689.485948
4173.371917,-10584.944971,888.247130,-1225.752797
4173.372247,-10214.842000,222.061783,-919.314598
4173.372577,-9548.656652,666.185348,-306.438199
4173.372907,-8438.347739,592.164754,-689.485948
4173.373236,-9548.656652,444.123565,383.047749
4173.373566,-10362.883188,518.144159,1302.362347
4173.373896,-10955.047942,0.000000,459.657299
4173.374226,-10510.924376,-74.020594,-536.266849
4173.374556,-10066.800811,-296.082377,-612.876398
4173.374885,-9252.574275,-444.123565,842.705048
4173.375215,-9178.553681,-296.082377,2374.896044
4173.375545,-10140.821405,0.000000,2145.067394
4173.375875,-10955.047942,0.000000,1455.581446
4173.376205,-10807.006753,-592.164754,153.219100
4173.376534,-9622.677246,-740.205942,-153.219100
4173.376864,-9548.656652,-1110.308913,-153.219100
4173.377194,-8216.285956,-444.123565,766.095498
4173.377524,-8660.409521,-1036.288319,689.485948
4173.377854,-9104.533087,-1184.329507,0.000000
4173.378183,-9030.512492,-814.226536,-1149.143247
4173.378513,-10140.821405,-296.082377,-995.924147
4173.378843,-10807.006753,0.000000,306.438199
4173.379173,-10510.924376,-592.164754,0.000000
4173.379503,-9474.636058,-1110.308913,76.609550
4173.379832,-9104.533087,-1258.350101,76.609550
4173.380162,-9030.512492,-1110.308913,766.095498
4173.380492,-9326.594869,-1628.453072,842.705048
4173.380822,-8882.471304,-888.247130,842.705048
4173.381152,-9474.636058,-740.205942,1838.629195
4173.381481,-9400.615463,0.000000,1762.019645
4173.381811,-9844.739029,-1110.308913,995.924147
4173.382141,-10436.903782,-666.185348,0.000000
4173.382471,-9918.759623,-222.061783,536.266849
4173.382801,-10066.800811,-740.205942,0.000000
4173.383130,-9770.718434,-370.102971,-459.657299
4173.383460,-9474.636058,0.000000,536.266849
4173.383790,-10510.924376,814.226536,842.705048
4173.384120,-10140.821405,74.020594,383.047749
4173.384449,-11029.068536,740.205942,153.219100
4173.384779,-10066.800811,0.000000,766.095498
4173.385109,-9178.553681,-222.061783,153.219100
4173.385439,-10510.924376,-296.082377,766.095498
4173.385769,-9696.697840,222.061783,919.314598
4173.386098,-9992.780217,74.020594,536.266849
4173.386428,-9770.718434,666.185348,689.485948
4173.386758,-9918.759623,0.000000,76.609550
4173.387088,-10436.903782,592.164754,153.219100
4173.387418,-9474.636058,740.205942,153.219100
4173.387747,-9474.636058,518.144159,229.828649
4173.388077,-9770.718434,740.205942,-306.438199
4173.388407,-9400.615463,0.000000,-306.438199
4173.388737,-9622.677246,0.000000,-536.266849
4173.389067,-9178.553681,0.000000,0.000000
4173.389396,-9326.594869,148.041188,229.828649
4173.389726,-9696.697840,0.000000,689.485948
4173.390056,-9400.615463,1036.288319,1072.533697
4173.390386,-9844.739029,962.267725,536.266849
4173.390716,-10362.883188,1480.411884,229.828649
4173.391045,-10881.027347,1258.350101,-842.705048
4173.391375,-10658.965565,1406.391290,-1608.800546
4173.391705,-9992.780217,1036.288319,-76.609550
4173.392035,-9696.697840,592.164754,229.828649
4173.392365,-9178.553681,74.020594,536.266849
4173.392694,-9030.512492,444.123565,229.828649
4173.393024,-9178.553681,518.144159,-842.705048
4173.393354,-9548.656652,222.061783,-536.266849
4173.393684,-9770.718434,444.123565,-306.438199
4173.394014,-10288.862594,370.102971,842.705048
4173.394343,-10288.862594,1184.329507,1302.362347
4173.394673,-10436.903782,592.164754,306.438199
4173.395003,-10066.800811,814.226536,0.000000
4173.395333,-9770.718434,666.185348,-766.095498
4173.395663,-9178.553681,962.267725,-1455.581446
4173.395992,-9918.759623,1036.288319,-842.705048
4173.396322,-9992.780217,666.185348,-612.876398
4173.396652,-9252.574275,74.020594,153.219100
4173.396982,-8808.450710,74.020594,689.485948
4173.397311,-9178.553681,-148.041188,-689.485948
4173.397641,-8882.471304,-444.123565,-995.924147
4173.397971,-9252.574275,-222.061783,0.000000
4173.398301,-9844.739029,0.000000,919.314598
4173.398631,-10658.965565,0.000000,1915.238745
4173.398960,-9992.780217,-444.123565,1608.800546
4173.399290,-9326.594869,-444.123565,919.314598
4173.399620,-10288.862594,370.102971,459.657299
4173.399950,-10807.006753,0.000000,-76.609550
4173.400280,-9918.759623,-666.185348,-689.485948
4173.400610,-8068.244768,-666.185348,-306.438199
4173.400939,-8882.471304,-444.123565,536.266849
4173.401269,-10732.986159,148.041188,689.485948
4173.401599,-11029.068536,-370.102971,0.000000
4173.401929,-9770.718434,0.000000,-1225.752797
4173.402259,-9696.697840,-296.082377,-612.876398
4173.402589,-10214.842000,0.000000,459.657299
4173.402918,-10436.903782,-296.082377,1532.190996
4173.403248,-9548.656652,-296.082377,1149.143247
4173.403578,-9178.553681,-1184.329507,459.657299
4173.403908,-9918.759623,-296.082377,306.438199
4173.404238,-10436.903782,-740.205942,0.000000
4173.404568,-9548.656652,-1036.288319,459.657299
4173.404897,-8586.388927,-740.205942,1072.533697
4173.405227,-9104.533087,-814.226536,919.314598
4173.405557,-9770.718434,-444.123565,459.657299
4173.405887,-9548.656652,-888.247130,919.314598
4173.406217,-10436.903782,-296.082377,-306.438199
4173.406547,-10288.862594,0.000000,536.266849
4173.406877,-9770.718434,-148.041188,1149.143247
4173.407206,-10288.862594,148.041188,1378.971896
4173.407536,-10362.883188,0.000000,919.314598
4173.407866,-9992.780217,-444.123565,306.438199
4173.408196,-9252.574275,-148.041188,-153.219100
4173.408526,-10732.986159,-370.102971,153.219100
4173.408856,-10881.027347,-518.144159,766.095498
4173.409185,-9918.759623,-296.082377,1838.629195
4173.409515,-9474.636058,148.041188,1455.581446
4173.409845,-9696.697840,-296.082377,383.047749
4173.410175,-9622.677246,0.000000,383.047749
4173.410505,-9622.677246,-148.041188,76.609550
4173.410835,-9400.615463,-444.123565,306.438199
4173.411164,-9400.615463,0.000000,689.485948
4173.411494,-9844.739029,-74.020594,919.314598
4173.411824,-9474.636058,-740.205942,1455.581446
4173.412154,-8660.409521,-518.144159,306.438199
4173.412484,-8882.471304,-518.144159,-766.095498
4173.412814,-9918.759623,-74.020594,-689.485948
4173.413143,-9474.636058,0.000000,0.000000
4173.413473,-9400.615463,-222.061783,1378.971896
4173.413803,-9992.780217,518.144159,1072.533697
4173.414133,-10732.986159,592.164754,-76.609550
4173.414463,-9696.697840,148.041188,-1532.190996
4173.414793,-8660.409521,592.164754,-2528.115143
4173.415122,-8956.491898,740.205942,-1302.362347
4173.415452,-10510.924376,370.102971,-229.828649
4173.415782,-10140.821405,1332.370696,306.438199
4173.416112,-9844.739029,592.164754,0.000000
4173.416442,-9918.759623,740.205942,-1378.971896
4173.416772,-10362.883188,740.205942,-1378.971896
4173.417101,-10807.006753,518.144159,0.000000
4173.417431,-9548.656652,518.144159,689.485948
4173.417761,-9178.553681,888.247130,919.314598
4173.418091,-9622.677246,444.123565,612.876398
4173.418421,-10288.862594,1036.288319,0.000000
4173.418751,-10214.842000,666.185348,0.000000
4173.419081,-10436.903782,740.205942,-306.438199
4173.419410,-10436.903782,814.226536,-842.705048
4173.419740,-9104.533087,518.144159,76.609550
4173.420070,-8438.347739,518.144159,459.657299
4173.420400,-9326.594869,370.102971,766.095498
4173.420730,-10362.883188,888.247130,459.657299
4173.421060,-10732.986159,296.082377,0.000000
4173.421389,-9992.780217,666.185348,766.095498
4173.421719,-9992.780217,888.247130,383.047749
4173.422049,-10510.924376,666.185348,229.828649
4173.422379,-9918.759623,0.000000,0.000000
4173.422709,-8364.327145,0.000000,-536.266849
4173.423039,-8512.368333,444.123565,306.438199
4173.423368,-9918.759623,666.185348,306.438199
4173.423698,-9696.697840,518.144159,383.047749
4173.424028,-8882.471304,0.000000,0.000000
4173.424358,-8808.450710,518.144159,153.219100
4173.424688,-10658.965565,74.020594,306.438199
4173.425018,-10881.027347,0.000000,766.095498
4173.425347,-9770.718434,74.020594,0.000000
4173.425677,-9104.533087,444.123565,-842.705048
4173.426007,-9400.615463,0.000000,0.000000
4173.426337,-9992.780217,0.000000,459.657299
4173.426667,-10066.800811,0.000000,1225.752797
4173.426997,-10066.800811,-444.123565,-306.438199
4173.427326,-9474.636058,-666.185348,-229.828649
4173.427656,-9770.718434,-666.185348,229.828649
4173.427986,-9474.636058,-592.164754,612.876398
4173.428316,-9844.739029,-518.144159,1455.581446
4173.428646,-10066.800811,74.020594,459.657299
4173.428976,-9622.677246,-370.102971,76.609550
4173.429306,-10140.821405,74.020594,612.876398
4173.429635,-10436.903782,0.000000,0.000000
4173.429965,-11177.109724,222.061783,-766.095498
4173.430295,-9474.636058,-666.185348,-383.047749
4173.430625,-8512.368333,-592.164754,-995.924147
4173.430955,-8882.471304,-444.123565,0.000000
4173.431285,-9400.615463,-592.164754,-383.047749
4173.431614,-10362.883188,-148.041188,229.828649
4173.431944,-10807.006753,-444.123565,612.876398
4173.432274,-9918.759623,-666.185348,459.657299
4173.432604,-9474.636058,-666.185348,1762.019645
4173.432934,-9918.759623,-370.102971,1685.410096
4173.433264,-9918.759623,-518.144159,995.924147
4173.433593,-9326.594869,-1036.288319,-536.266849
4173.433923,-9104.533087,-518.144159,-919.314598
4173.434253,-9104.533087,-592.164754,-612.876398
4173.434583,-10658.965565,0.000000,1532.190996
4173.434913,-10955.047942,-296.082377,1762.019645
4173.435243,-10288.862594,-814.226536,1455.581446
4173.435572,-9474.636058,-814.226536,689.485948
4173.435902,-9548.656652,-666.185348,766.095498
4173.436232,-9992.780217,0.000000,76.609550
4173.436562,-9622.677246,222.061783,0.000000
4173.436892,-9770.718434,74.020594,0.000000
4173.437222,-10288.862594,518.144159,383.047749
4173.437551,-11473.192101,222.061783,229.828649
4173.437881,-10658.965565,-74.020594,0.000000
4173.438211,-9474.636058,0.000000,-612.876398
4173.438541,-8734.430116,-444.123565,229.828649
4173.438871,-9474.636058,-444.123565,919.314598
4173.439201,-9474.636058,-296.082377,766.095498
4173.439530,-9030.512492,-222.061783,0.000000
4173.439860,-10362.883188,666.185348,-766.095498
4173.440190,-10066.800811,148.041188,-766.095498
4173.440520,-9178.553681,148.041188,-612.876398
4173.440850,-9474.636058,888.247130,229.828649
4173.441180,-9548.656652,592.164754,459.657299
4173.441510,-9622.677246,74.020594,0.000000
4173.441839,-8734.430116,888.247130,-995.924147
4173.442169,-9844.739029,888.247130,-842.705048
4173.442499,-10584.944971,222.061783,-689.485948
4173.442829,-9252.574275,222.061783,-153.219100
4173.443159,-9030.512492,518.144159,229.828649
4173.443489,-9104.533087,222.061783,919.314598
4173.443818,-10214.842000,0.000000,1225.752797
4173.444148,-9770.718434,814.226536,766.095498
4173.444478,-9622.677246,666.185348,76.609550
4173.444808,-10510.924376,1110.308913,0.000000
4173.445138,-11251.130318,666.185348,612.876398
4173.445468,-10881.027347,296.082377,-306.438199
4173.445797,-8882.471304,0.000000,-766.095498
4173.446127,-9326.594869,148.041188,766.095498
4173.446457,-9918.759623,148.041188,1149.143247
4173.446787,-9992.780217,148.041188,995.924147
4173.447117,-9474.636058,814.226536,689.485948
4173.447447,-9844.739029,222.061783,-459.657299
4173.447776,-10658.965565,148.041188,-383.047749
4173.448106,-10510.924376,222.061783,153.219100
4173.448436,-9548.656652,444.123565,0.000000
4173.448766,-9326.594869,-74.020594,0.000000
4173.449096,-9326.594869,148.041188,689.485948
4173.449426,-10140.821405,0.000000,1149.143247
4173.449755,-9844.739029,814.226536,153.219100
4173.450085,-9474.636058,0.000000,-536.266849
4173.450415,-10066.800811,0.000000,76.609550
4173.450745,-9548.656652,222.061783,919.314598
4173.451075,-9918.759623,0.000000,995.924147
4173.451405,-9696.697840,-370.102971,306.438199
4173.451734,-9178.553681,74.020594,-1149.143247
4173.452064,-9770.718434,148.041188,-1378.971896
4173.452394,-9474.636058,-148.041188,-1378.971896
4173.452724,-9474.636058,444.123565,0.000000
4173.453054,-10066.800811,74.020594,1685.410096
4173.453384,-9844.739029,222.061783,76.609550
4173.453714,-9918.759623,0.000000,-919.314598
4173.454043,-10214.842000,222.061783,-1608.800546
4173.454373,-10658.965565,74.020594,-842.705048
4173.454703,-10214.842000,-518.144159,76.609550
4173.455033,-9400.615463,-370.102971,1149.143247
4173.455363,-9178.553681,0.000000,1455.581446
4173.455693,-10436.903782,0.000000,1072.533697
4173.456022,-10436.903782,0.000000,-842.705048
4173.456352,-9992.780217,-370.102971,-1378.971896
4173.456682,-9696.697840,-444.123565,-689.485948
4173.457012,-9918.759623,-370.102971,766.095498
4173.457342,-9696.697840,-370.102971,2987.772442
4173.457672,-8660.409521,-592.164754,1302.362347
4173.458001,-9104.533087,-814.226536,-612.876398
4173.458331,-9548.656652,-740.205942,-919.314598
4173.458661,-10140.821405,-1332.370696,306.438199
4173.458991,-9918.759623,-148.041188,2528.115143
4173.459321,-9326.594869,-222.061783,2451.505594
4173.459651,-9252.574275,0.000000,612.876398
4173.459980,-9844.739029,-370.102971,76.609550
4173.460310,-9622.677246,148.041188,-842.705048
4173.460640,-10362.883188,0.000000,76.609550
4173.460970,-10510.924376,222.061783,1302.362347
4173.461300,-9844.739029,0.000000,1685.410096
4173.461630,-9252.574275,222.061783,1225.752797
4173.461959,-9178.553681,-296.082377,-306.438199
4173.462289,-9400.615463,-1036.288319,76.609550
4173.462619,-9770.718434,-592.164754,842.705048
4173.462949,-9400.615463,-74.020594,1302.362347
4173.463279,-9400.615463,0.000000,1991.848295
4173.463609,-9622.677246,370.102971,1072.533697
4173.463938,-10066.800811,444.123565,383.047749
4173.464268,-10362.883188,592.164754,0.000000
4173.464598,-10436.903782,814.226536,-153.219100
4173.464928,-10584.944971,1184.329507,229.828649
4173.465258,-10510.924376,740.205942,-76.609550
4173.465588,-9696.697840,444.123565,-1378.971896
4173.465918,-8956.491898,0.000000,-1838.629195
4173.466247,-9252.574275,-296.082377,-1838.629195
4173.466577,-9400.615463,-222.061783,-842.705048
4173.466907,-9548.656652,370.102971,1378.971896
4173.467237,-9548.656652,444.123565,1685.410096
4173.467567,-10288.862594,518.144159,689.485948
4173.467897,-9992.780217,296.082377,-306.438199
4173.468226,-10362.883188,444.123565,0.000000
4173.468556,-10955.047942,444.123565,0.000000
4173.468886,-10436.903782,370.102971,766.095498
4173.469216,-9992.780217,370.102971,842.705048
4173.469546,-9548.656652,0.000000,0.000000
4173.469876,-9326.594869,222.061783,-1378.971896
4173.470205,-9622.677246,-444.123565,-612.876398
4173.470535,-8956.491898,-370.102971,-76.609550
4173.470865,-8142.265362,222.061783,459.657299
4173.471195,-8808.450710,-222.061783,383.047749
4173.471525,-9696.697840,370.102971,-536.266849
4173.471855,-10584.944971,0.000000,-76.609550
4173.472184,-10288.862594,0.000000,536.266849
4173.472514,-10066.800811,370.102971,612.876398
4173.472844,-9918.759623,444.123565,612.876398
4173.473174,-9326.594869,0.000000,383.047749
4173.473504,-8586.388927,74.020594,-306.438199
4173.473834,-9548.656652,0.000000,-689.485948
4173.474163,-9918.759623,444.123565,-1608.800546
4173.474493,-9548.656652,370.102971,-229.828649
4173.474823,-9400.615463,148.041188,-76.609550
4173.475153,-9696.697840,148.041188,-383.047749
4173.475483,-9992.780217,74.020594,229.828649
4173.475813,-9918.759623,148.041188,0.000000
4173.476142,-9992.780217,0.000000,0.000000
4173.476472,-9992.780217,0.000000,995.924147
4173.476802,-10510.924376,296.082377,1762.019645
4173.477132,-10658.965565,444.123565,1455.581446
4173.477462,-9992.780217,-148.041188,229.828649
4173.477792,-9178.553681,-592.164754,-536.266849
4173.478122,-8956.491898,-666.185348,459.657299
4173.478451,-9844.739029,-74.020594,1149.143247
4173.478781,-10066.800811,370.102971,995.924147
4173.479111,-9400.615463,-74.020594,0.000000
4173.479441,-9030.512492,296.082377,-383.047749
4173.479771,-10140.821405,74.020594,383.047749
4173.480101,-11103.089130,592.164754,383.047749
4173.480430,-10510.924376,148.041188,536.266849
4173.480760,-9474.636058,0.000000,0.000000
4173.481090,-9696.697840,0.000000,0.000000
4173.481420,-10140.821405,444.123565,306.438199
4173.481750,-10214.842000,-370.102971,306.438199
4173.482080,-9696.697840,222.061783,229.828649
4173.482409,-8882.471304,0.000000,153.219100
4173.482739,-9918.759623,0.000000,919.314598
4173.483069,-10214.842000,0.000000,383.047749
4173.483399,-9696.697840,-222.061783,1072.533697
4173.483729,-9474.636058,370.102971,536.266849
4173.484059,-9696.697840,-148.041188,-842.705048
4173.484388,-10214.842000,0.000000,153.219100
4173.484718,-9474.636058,74.020594,229.828649
4173.485048,-9844.739029,148.041188,153.219100
4173.485378,-10362.883188,370.102971,229.828649
4173.485708,-10510.924376,222.061783,383.047749
4173.486038,-9326.594869,0.000000,536.266849
4173.486367,-9030.512492,222.061783,-76.609550
4173.486697,-10214.842000,74.020594,0.000000
4173.487027,-10732.986159,-148.041188,229.828649
4173.487357,-9622.677246,0.000000,459.657299
4173.487687,-9030.512492,0.000000,459.657299
4173.488017,-9548.656652,148.041188,153.219100
4173.488346,-9770.718434,444.123565,-459.657299
4173.488676,-9770.718434,74.020594,-766.095498
4173.489006,-9548.656652,444.123565,-229.828649
4173.489336,-10362.883188,74.020594,919.314598
4173.489666,-10436.903782,0.000000,1225.752797
4173.489996,-9104.533087,0.000000,76.609550
4173.490326,-8438.347739,-222.061783,-536.266849
4173.490655,-9252.574275,0.000000,-612.876398
4173.490985,-9770.718434,0.000000,-689.485948
4173.491315,-9548.656652,148.041188,153.219100
4173.491645,-10140.821405,666.185348,1072.533697
4173.491975,-10214.842000,148.041188,1225.752797
4173.492305,-10436.903782,0.000000,689.485948
4173.492634,-9992.780217,444.123565,536.266849
4173.492964,-9844.739029,-148.041188,383.047749
4173.493294,-9696.697840,74.020594,76.609550
4173.493624,-9844.739029,222.061783,459.657299
4173.493954,-10214.842000,148.041188,1072.533697
4173.494284,-9474.636058,222.061783,459.657299
4173.494613,-9622.677246,148.041188,-306.438199
4173.494943,-10288.862594,0.000000,-919.314598
4173.495273,-10214.842000,0.000000,-689.485948
4173.495603,-9474.636058,-370.102971,383.047749
4173.495933,-9400.615463,-296.082377,1532.190996
4173.496263,-9400.615463,0.000000,1225.752797
4173.496592,-9474.636058,0.000000,919.314598
4173.496922,-9474.636058,222.061783,0.000000
4173.497252,-10066.800811,518.144159,-383.047749
4173.497582,-10732.986159,222.061783,383.047749
4173.497912,-10584.944971,0.000000,612.876398
4173.498242,-9770.718434,296.082377,842.705048
4173.498571,-8956.491898,370.102971,76.609550
4173.498901,-9548.656652,296.082377,-306.438199
4173.499231,-9992.780217,148.041188,-1149.143247
4173.499560,-9548.656652,444.123565,-1532.190996
4173.499890,-10066.800811,74.020594,0.000000
4173.500220,-9770.718434,0.000000,536.266849
4173.500550,-9178.553681,0.000000,383.047749
4173.500879,-9178.553681,-148.041188,229.828649
4173.501209,-9030.512492,74.020594,0.000000
4173.501539,-9474.636058,0.000000,612.876398
4173.501868,-10214.842000,0.000000,842.705048
4173.502198,-10955.047942,592.164754,842.705048
4173.502528,-10436.903782,74.020594,689.485948
4173.502857,-9400.615463,296.082377,0.000000
4173.503187,-9696.697840,74.020594,-383.047749
4173.503517,-10214.842000,-370.102971,306.438199
4173.503847,-9622.677246,0.000000,-306.438199
4173.504176,-8734.430116,-518.144159,0.000000
4173.504506,-9400.615463,296.082377,995.924147
4173.504836,-10140.821405,296.082377,842.705048
4173.505165,-10658.965565,-370.102971,995.924147
4173.505495,-9400.615463,-444.123565,459.657299
4173.505825,-8586.388927,-518.144159,0.000000
4173.506154,-9326.594869,-740.205942,689.485948
4173.506484,-9622.677246,148.041188,919.314598
4173.506814,-10288.862594,0.000000,1225.752797
4173.507144,-10510.924376,148.041188,76.609550
4173.507473,-10362.883188,518.144159,0.000000
4173.507803,-10955.047942,962.267725,229.828649
4173.508133,-10140.821405,592.164754,-536.266849
4173.508462,-9326.594869,222.061783,-1072.533697
4173.508792,-9030.512492,0.000000,306.438199
4173.509122,-9326.594869,-518.144159,-306.438199
4173.509451,-9770.718434,-370.102971,76.609550
4173.509781,-9770.718434,-518.144159,1149.143247
4173.510111,-9770.718434,-592.164754,842.705048
4173.510441,-9474.636058,-740.205942,536.266849
4173.510770,-9252.574275,222.061783,229.828649
4173.511100,-9992.780217,222.061783,1072.533697
4173.511430,-10288.862594,740.205942,1762.019645
4173.511759,-10510.924376,740.205942,459.657299
4173.512089,-10658.965565,592.164754,-383.047749
4173.512419,-10214.842000,296.082377,-919.314598
4173.512749,-9400.615463,74.020594,-689.485948
4173.513078,-9326.594869,0.000000,-383.047749
4173.513408,-9252.574275,74.020594,-383.047749
4173.513738,-9844.739029,-296.082377,76.609550
4173.514067,-9770.718434,-370.102971,536.266849
4173.514397,-9844.739029,296.082377,459.657299
4173.514727,-10288.862594,0.000000,536.266849
4173.515056,-10066.800811,-666.185348,459.657299
4173.515386,-9844.739029,222.061783,995.924147
4173.515716,-9918.759623,0.000000,1685.410096
4173.516046,-10066.800811,74.020594,229.828649
4173.516375,-9622.677246,0.000000,-536.266849
4173.516705,-9622.677246,222.061783,-153.219100
4173.517035,-9622.677246,444.123565,-459.657299
4173.517364,-9770.718434,666.185348,-229.828649
4173.517694,-9252.574275,0.000000,-612.876398
4173.518024,-9178.553681,0.000000,-766.095498
4173.518353,-9104.533087,-222.061783,-689.485948
4173.518683,-10140.821405,0.000000,-229.828649
4173.519013,-10807.006753,370.102971,229.828649
4173.519343,-9400.615463,-444.123565,995.924147
4173.519672,-9400.615463,444.123565,1455.581446
4173.520002,-10436.903782,814.226536,2374.896044
4173.520332,-11473.192101,74.020594,1302.362347
4173.520661,-11103.089130,518.144159,76.609550
4173.520991,-9622.677246,222.061783,-612.876398
4173.521321,-9326.594869,222.061783,-689.485948
4173.521650,-8808.450710,0.000000,0.000000
4173.521980,-9104.533087,0.000000,766.095498
4173.522310,-8734.430116,74.020594,766.095498
4173.522640,-9326.594869,222.061783,0.000000
4173.522969,-10140.821405,74.020594,-842.705048
4173.523299,-9992.780217,0.000000,459.657299
4173.523629,-10436.903782,-296.082377,1149.143247
4173.523958,-10066.800811,-74.020594,2145.067394
4173.524288,-10288.862594,222.061783,1685.410096
4173.524618,-9622.677246,-666.185348,383.047749
4173.524947,-8364.327145,0.000000,-459.657299
4173.525277,-9326.594869,0.000000,-153.219100
4173.525607,-10066.800811,666.185348,766.095498
4173.525937,-10658.965565,296.082377,919.314598
4173.526266,-9918.759623,296.082377,0.000000
4173.526596,-8438.347739,-518.144159,-1225.752797
4173.526926,-9178.553681,148.041188,-842.705048
4173.527255,-10658.965565,-148.041188,76.609550
4173.527585,-10732.986159,-444.123565,306.438199
4173.527915,-9696.697840,-148.041188,995.924147
4173.528244,-9918.759623,296.082377,1149.143247
4173.528574,-10955.047942,296.082377,536.266849
4173.528904,-10436.903782,-592.164754,229.828649
4173.529234,-9548.656652,-370.102971,76.609550
4173.529563,-9400.615463,74.020594,0.000000
4173.529893,-10436.903782,0.000000,842.705048
4173.530223,-10436.903782,-518.144159,689.485948
4173.530552,-9474.636058,-814.226536,842.705048
4173.530882,-8290.306550,-222.061783,0.000000
4173.531212,-9400.615463,-814.226536,-612.876398
4173.531542,-10658.965565,74.020594,-459.657299
4173.531871,-10140.821405,-518.144159,-229.828649
4173.532201,-9030.512492,-370.102971,306.438199
4173.532531,-9104.533087,0.000000,383.047749
4173.532860,-10584.944971,0.000000,766.095498
4173.533190,-10140.821405,148.041188,689.485948
4173.533520,-8142.265362,-148.041188,-1072.533697
4173.533849,-9474.636058,740.205942,-766.095498
4173.534179,-10881.027347,-518.144159,-536.266849
4173.534509,-10436.903782,-814.226536,0.000000
4173.534839,-8512.368333,-370.102971,153.219100
4173.535168,-9030.512492,0.000000,-76.609550
4173.535498,-10436.903782,148.041188,-612.876398
4173.535828,-9992.780217,0.000000,0.000000
4173.536157,-9548.656652,222.061783,689.485948
4173.536487,-10066.800811,518.144159,1302.362347
4173.536817,-10584.944971,444.123565,919.314598
4173.537146,-10214.842000,444.123565,0.000000
4173.537476,-9400.615463,592.164754,0.000000
4173.537806,-9844.739029,592.164754,76.609550
4173.538136,-11251.130318,1036.288319,0.000000
4173.538465,-10807.006753,444.123565,-306.438199
4173.538795,-8956.491898,1110.308913,-842.705048
4173.539125,-7994.224174,740.205942,-766.095498
4173.539454,-10140.821405,888.247130,612.876398
4173.539784,-11547.212695,1258.350101,919.314598
4173.540114,-10584.944971,888.247130,306.438199
4173.540443,-9844.739029,148.041188,-153.219100
4173.540773,-9400.615463,-222.061783,383.047749
4173.541103,-9474.636058,-296.082377,1532.190996
4173.541433,-8660.409521,0.000000,1225.752797
4173.541762,-9030.512492,0.000000,1149.143247
4173.542092,-9474.636058,370.102971,306.438199
4173.542422,-9400.615463,148.041188,-536.266849
4173.542751,-9622.677246,518.144159,-383.047749
4173.543081,-10362.883188,888.247130,0.000000
4173.543411,-10584.944971,518.144159,153.219100
4173.543740,-10362.883188,148.041188,919.314598
4173.544070,-8882.471304,-370.102971,0.000000
4173.544400,-8882.471304,-444.123565,-229.828649
4173.544730,-9844.739029,-592.164754,536.266849
4173.545059,-10140.821405,296.082377,689.485948
4173.545389,-9400.615463,0.000000,0.000000
4173.545719,-8808.450710,222.061783,-689.485948
4173.546048,-9918.759623,666.185348,-689.485948
4173.546378,-11103.089130,-148.041188,306.438199
4173.546708,-10140.821405,-370.102971,229.828649
4173.547037,-9326.594869,-444.123565,229.828649
4173.547367,-9844.739029,74.020594,306.438199
4173.547697,-10066.800811,-518.144159,536.266849
4173.548027,-10066.800811,-74.020594,842.705048
4173.548356,-9400.615463,0.000000,459.657299
4173.548686,-9770.718434,296.082377,0.000000
4173.549016,-10140.821405,-74.020594,1149.143247
4173.549345,-9918.759623,0.000000,1072.533697
4173.549675,-10214.842000,222.061783,995.924147
4173.550005,-10436.903782,222.061783,612.876398
4173.550335,-10140.821405,0.000000,-995.924147
4173.550664,-9326.594869,-666.185348,-612.876398
4173.550994,-9178.553681,148.041188,-383.047749
4173.551324,-9622.677246,0.000000,536.266849
4173.551653,-10732.986159,-74.020594,1532.190996
4173.551983,-10436.903782,0.000000,612.876398
4173.552313,-9104.533087,-666.185348,-459.657299
4173.552642,-9548.656652,0.000000,-1455.581446
4173.552972,-8956.491898,-666.185348,-383.047749
4173.553302,-9104.533087,-740.205942,1378.971896
4173.553632,-9474.636058,0.000000,1685.410096
4173.553961,-10510.924376,888.247130,1225.752797
4173.554291,-10807.006753,222.061783,-536.266849
4173.554621,-9474.636058,74.020594,-1991.848295
4173.554950,-9474.636058,296.082377,-1455.581446
4173.555280,-10140.821405,74.020594,0.000000
4173.555610,-10362.883188,222.061783,1225.752797
4173.555939,-10214.842000,-148.041188,1225.752797
4173.556269,-8882.471304,0.000000,0.000000
4173.556599,-9030.512492,-74.020594,-1072.533697
4173.556929,-9770.718434,-74.020594,229.828649
4173.557258,-10658.965565,444.123565,1915.238745
4173.557588,-10436.903782,0.000000,2145.067394
4173.557918,-9918.759623,-592.164754,1149.143247
4173.558247,-9400.615463,296.082377,459.657299
4173.558577,-9326.594869,592.164754,459.657299
4173.558907,-10584.944971,814.226536,0.000000
4173.559236,-10955.047942,1184.329507,-229.828649
4173.559566,-10140.821405,592.164754,612.876398
4173.559896,-10140.821405,444.123565,383.047749
4173.560226,-9844.739029,-74.020594,0.000000
4173.560555,-9474.636058,-1184.329507,-229.828649
4173.560885,-8290.306550,-370.102971,-689.485948
4173.561215,-7994.224174,-592.164754,0.000000
4173.561544,-9400.615463,0.000000,153.219100
4173.561874,-10140.821405,0.000000,1762.019645
4173.562204,-11103.089130,666.185348,2451.505594
4173.562533,-10881.027347,518.144159,1685.410096
4173.562863,-10436.903782,-296.082377,-76.609550
4173.563193,-9548.656652,-444.123565,-1225.752797
4173.563523,-8364.327145,-888.247130,-383.047749
4173.563852,-9104.533087,-148.041188,153.219100
4173.564182,-8956.491898,-370.102971,383.047749
4173.564512,-9104.533087,-74.020594,842.705048
4173.564841,-9474.636058,0.000000,0.000000
4173.565171,-10066.800811,-74.020594,-383.047749
4173.565501,-10436.903782,0.000000,76.609550
4173.565830,-10140.821405,0.000000,459.657299
4173.566160,-9326.594869,0.000000,1072.533697
4173.566490,-9400.615463,74.020594,1455.581446
4173.566820,-9696.697840,592.164754,536.266849
4173.567149,-10881.027347,0.000000,-306.438199
4173.567479,-10140.821405,0.000000,-995.924147
4173.567809,-9770.718434,0.000000,-842.705048
4173.568138,-9770.718434,-148.041188,153.219100
4173.568468,-10066.800811,222.061783,153.219100
4173.568798,-9252.574275,0.000000,0.000000
4173.569128,-8808.450710,-444.123565,-76.609550
4173.569457,-9548.656652,74.020594,-842.705048
4173.569787,-11029.068536,296.082377,-459.657299
4173.570117,-10066.800811,666.185348,-153.219100
4173.570446,-9696.697840,740.205942,153.219100
4173.570776,-10732.986159,296.082377,995.924147
4173.571106,-11399.171507,740.205942,1225.752797
4173.571435,-10807.006753,370.102971,76.609550
4173.571765,-9326.594869,-148.041188,-919.314598
4173.572095,-7550.100608,-222.061783,-1838.629195
4173.572425,-9252.574275,444.123565,-919.314598
4173.572754,-10214.842000,370.102971,536.266849
4173.573084,-10584.944971,518.144159,919.314598
4173.573414,-9474.636058,0.000000,-766.095498
4173.573743,-8586.388927,444.123565,-459.657299
4173.574073,-9030.512492,148.041188,0.000000
4173.574403,-10584.944971,592.164754,1455.581446
4173.574732,-11103.089130,740.205942,1225.752797
4173.575062,-10362.883188,0.000000,153.219100
4173.575392,-8142.265362,222.061783,-229.828649
4173.575722,-8956.491898,296.082377,459.657299
4173.576051,-10436.903782,296.082377,1149.143247
4173.576381,-9696.697840,296.082377,536.266849
4173.576711,-9178.553681,222.061783,229.828649
4173.577040,-9474.636058,222.061783,-306.438199
4173.577370,-10140.821405,444.123565,229.828649
4173.577700,-10362.883188,-222.061783,1072.533697
4173.578029,-9474.636058,222.061783,1455.581446
4173.578359,-9474.636058,0.000000,153.219100
4173.578689,-9400.615463,-222.061783,-76.609550
4173.579019,-9400.615463,0.000000,306.438199
4173.579348,-10066.800811,518.144159,689.485948
4173.579678,-10881.027347,296.082377,76.609550
4173.580008,-10510.924376,148.041188,153.219100
4173.580337,-9770.718434,-222.061783,689.485948
4173.580667,-9178.553681,-518.144159,229.828649
4173.580997,-9252.574275,74.020594,153.219100
4173.581326,-9918.759623,-962.267725,229.828649
4173.581656,-9992.780217,0.000000,612.876398
4173.581986,-9992.780217,148.041188,1072.533697
4173.582316,-10510.924376,148.041188,459.657299
4173.582645,-10140.821405,-444.123565,-383.047749
4173.582975,-8956.491898,0.000000,76.609550
4173.583305,-9844.739029,-444.123565,-383.047749
4173.583634,-10732.986159,0.000000,-1149.143247
4173.583964,-10066.800811,-370.102971,0.000000
4173.584294,-8734.430116,-740.205942,306.438199
4173.584623,-8660.409521,-296.082377,919.314598
4173.584953,-10584.944971,-370.102971,1072.533697
4173.585283,-10510.924376,-592.164754,76.609550
4173.585613,-8808.450710,-518.144159,-689.485948
4173.585942,-8882.471304,148.041188,-612.876398
4173.586272,-10510.924376,-222.061783,153.219100
4173.586602,-11547.212695,-74.020594,1838.629195
4173.586931,-10362.883188,296.082377,1991.848295
4173.587261,-8586.388927,222.061783,0.000000
4173.587591,-10140.821405,296.082377,-1685.410096
4173.587921,-10510.924376,0.000000,-1532.190996
4173.588250,-9770.718434,-814.226536,76.609550
4173.588580,-9252.574275,370.102971,1455.581446
4173.588910,-9474.636058,148.041188,1762.019645
4173.589239,-10436.903782,0.000000,766.095498
4173.589569,-9178.553681,222.061783,-1455.581446
4173.589899,-9030.512492,222.061783,-1225.752797
4173.590228,-11177.109724,666.185348,0.000000
4173.590558,-11473.192101,1110.308913,919.314598
4173.590888,-10658.965565,222.061783,1838.629195
4173.591218,-8660.409521,0.000000,153.219100
4173.591547,-9474.636058,444.123565,0.000000
4173.591877,-10955.047942,-74.020594,153.219100
4173.592207,-10066.800811,74.020594,306.438199
4173.592536,-8734.430116,74.020594,919.314598
4173.592866,-8660.409521,592.164754,1072.533697
4173.593196,-9326.594869,296.082377,306.438199
4173.593525,-10140.821405,-74.020594,459.657299
4173.593855,-9474.636058,296.082377,76.609550
4173.594185,-8956.491898,-148.041188,612.876398
4173.594515,-9474.636058,0.000000,995.924147
4173.594844,-9770.718434,222.061783,842.705048
4173.595174,-9474.636058,-518.144159,766.095498
4173.595504,-9622.677246,222.061783,0.000000
4173.595833,-9844.739029,666.185348,229.828649
4173.596163,-9696.697840,74.020594,153.219100
4173.596493,-8882.471304,1480.411884,689.485948
4173.596822,-9400.615463,370.102971,459.657299
4173.597152,-10807.006753,148.041188,229.828649
4173.597482,-10584.944971,296.082377,-919.314598
4173.597811,-9622.677246,-592.164754,-1532.190996
4173.598141,-8956.491898,-148.041188,-766.095498
4173.598471,-8882.471304,-740.205942,689.485948
4173.598800,-10214.842000,-444.123565,1685.410096
4173.599130,-9400.615463,0.000000,1072.533697
4173.599460,-9918.759623,666.185348,0.000000
4173.599789,-10510.924376,444.123565,-459.657299
4173.600119,-10658.965565,962.267725,-229.828649
4173.600449,-10658.965565,-296.082377,766.095498
4173.600778,-9548.656652,-518.144159,306.438199
4173.601108,-9622.677246,-518.144159,459.657299
4173.601438,-9844.739029,-1332.370696,0.000000
4173.601767,-8290.306550,-962.267725,-766.095498
4173.602097,-8068.244768,-592.164754,306.438199
4173.602427,-10214.842000,0.000000,1302.362347
4173.602756,-11177.109724,592.164754,1685.410096
4173.603086,-10955.047942,74.020594,76.609550
4173.603416,-9918.759623,222.061783,-1302.362347
4173.603745,-10140.821405,74.020594,-842.705048
4173.604075,-10732.986159,0.000000,-76.609550
4173.604405,-9474.636058,-222.061783,0.000000
4173.604734,-9178.553681,0.000000,0.000000
4173.605064,-9030.512492,0.000000,0.000000
4173.605394,-9622.677246,0.000000,-536.266849
4173.605723,-10362.883188,-592.164754,-383.047749
4173.606053,-9400.615463,0.000000,306.438199
4173.606383,-9770.718434,-222.061783,766.095498
4173.606712,-10288.862594,74.020594,459.657299
4173.607042,-9474.636058,74.020594,0.000000
4173.607372,-9474.636058,148.041188,306.438199
4173.607701,-9844.739029,0.000000,306.438199
4173.608031,-11399.171507,296.082377,1455.581446
4173.608361,-10955.047942,0.000000,1455.581446
4173.608690,-9104.533087,0.000000,612.876398
4173.609020,-8364.327145,-444.123565,-536.266849
4173.609350,-8734.430116,-370.102971,-229.828649
4173.609679,-9918.759623,0.000000,0.000000
4173.610009,-9104.533087,-296.082377,76.609550
4173.610339,-8290.306550,-148.041188,-612.876398
4173.610668,-8364.327145,0.000000,229.828649
4173.610998,-9770.718434,0.000000,842.705048
4173.611328,-10214.842000,370.102971,229.828649
4173.611657,-10436.903782,74.020594,76.609550
4173.611987,-10066.800811,296.082377,995.924147
4173.612317,-10066.800811,444.123565,1149.143247
4173.612646,-10214.842000,296.082377,842.705048
4173.612976,-9918.759623,592.164754,0.000000
4173.613306,-9400.615463,0.000000,-536.266849
4173.613635,-9770.718434,148.041188,-536.266849
4173.613965,-10066.800811,592.164754,-766.095498
4173.614295,-9326.594869,74.020594,-766.095498
4173.614624,-9252.574275,518.144159,-76.609550
4173.614954,-10140.821405,888.247130,-229.828649
4173.615283,-10658.965565,-74.020594,0.000000
4173.615613,-10140.821405,0.000000,0.000000
4173.615943,-9326.594869,0.000000,153.219100
4173.616272,-9844.739029,0.000000,689.485948
4173.616602,-9844.739029,0.000000,1608.800546
4173.616932,-9992.780217,0.000000,2145.067394
4173.617261,-10510.924376,592.164754,919.314598
4173.617591,-9770.718434,0.000000,-229.828649
4173.617921,-9918.759623,-592.164754,-383.047749
4173.618250,-9474.636058,-296.082377,0.000000
4173.618580,-10288.862594,148.041188,995.924147
4173.618910,-10066.800811,-148.041188,1149.143247
4173.619239,-9400.615463,296.082377,-153.219100
4173.619569,-9548.656652,222.061783,-459.657299
4173.619899,-10584.944971,0.000000,-612.876398
4173.620228,-10732.986159,0.000000,153.219100
4173.620558,-9548.656652,-592.164754,995.924147
4173.620888,-8586.388927,-370.102971,1072.533697
4173.621217,-9104.533087,-518.144159,995.924147
4173.621547,-9548.656652,-666.185348,919.314598
4173.621877,-9400.615463,-222.061783,76.609550
4173.622206,-8956.491898,0.000000,0.000000
4173.622536,-9992.780217,666.185348,-306.438199
4173.622866,-10881.027347,444.123565,-153.219100
4173.623195,-10214.842000,370.102971,-76.609550
4173.623525,-9252.574275,0.000000,-1455.581446
4173.623855,-9030.512492,222.061783,-1915.238745
4173.624184,-9622.677246,-222.061783,-1991.848295
4173.624514,-8956.491898,296.082377,-612.876398
4173.624844,-8438.347739,-814.226536,1762.019645
4173.625173,-9474.636058,296.082377,1991.848295
4173.625503,-10288.862594,74.020594,1838.629195
4173.625833,-10658.965565,0.000000,306.438199
4173.626162,-9326.594869,-444.123565,-383.047749
4173.626492,-8956.491898,0.000000,-306.438199
4173.626822,-10510.924376,814.226536,1532.190996
4173.627151,-11103.089130,1406.391290,2374.896044
4173.627481,-9992.780217,1036.288319,1378.971896
4173.627811,-9548.656652,1110.308913,-1072.533697
4173.628140,-10288.862594,1480.411884,-2068.457845
4173.628470,-10955.047942,592.164754,-1225.752797
4173.628800,-9992.780217,0.000000,229.828649
4173.629129,-9104.533087,592.164754,1302.362347
4173.629459,-9030.512492,518.144159,1072.533697
4173.629789,-10214.842000,296.082377,306.438199
4173.630118,-10436.903782,0.000000,-383.047749
4173.630448,-9622.677246,444.123565,-306.438199
4173.630778,-9474.636058,666.185348,0.000000
4173.631107,-9992.780217,222.061783,2221.676944
4173.631437,-9696.697840,370.102971,2604.724693
4173.631767,-9770.718434,-444.123565,1302.362347
4173.632096,-10288.862594,0.000000,-1302.362347
4173.632426,-9548.656652,-518.144159,-2298.286494
4173.632756,-8438.347739,-888.247130,-766.095498
4173.633085,-8290.306550,0.000000,612.876398
4173.633415,-9474.636058,148.041188,2374.896044
4173.633744,-10140.821405,0.000000,1225.752797
4173.634074,-10288.862594,370.102971,-459.657299
4173.634404,-9992.780217,0.000000,-689.485948
4173.634733,-11103.089130,0.000000,0.000000
4173.635063,-10807.006753,518.144159,76.609550
4173.635393,-8956.491898,-592.164754,842.705048
4173.635722,-8660.409521,0.000000,229.828649
4173.636052,-9770.718434,74.020594,0.000000
4173.636382,-10807.006753,-296.082377,229.828649
4173.636711,-10436.903782,-296.082377,-919.314598
4173.637041,-8882.471304,-740.205942,-306.438199
4173.637371,-8956.491898,-222.061783,1378.971896
4173.637700,-9474.636058,-592.164754,2757.943793
4173.638030,-10510.924376,-740.205942,2145.067394
4173.638360,-9400.615463,-296.082377,229.828649
4173.638689,-9770.718434,-296.082377,-689.485948
4173.639019,-10881.027347,-296.082377,0.000000
4173.639349,-10881.027347,370.102971,689.485948
4173.639678,-9474.636058,-592.164754,383.047749
4173.640008,-8586.388927,-296.082377,76.609550
4173.640338,-9030.512492,-296.082377,-383.047749
4173.640667,-10066.800811,-370.102971,0.000000
4173.640997,-10732.986159,-666.185348,0.000000
4173.641327,-10066.800811,-962.267725,1532.190996
4173.641656,-9474.636058,-740.205942,1762.019645
4173.641986,-8956.491898,-814.226536,1149.143247
4173.642316,-9992.780217,0.000000,1072.533697
4173.642645,-10066.800811,148.041188,842.705048
4173.642975,-9474.636058,666.185348,-383.047749
4173.643305,-9696.697840,0.000000,-1149.143247
4173.643634,-10214.842000,740.205942,-1378.971896
4173.643964,-9622.677246,0.000000,-919.314598
4173.644294,-8660.409521,-518.144159,-536.266849
4173.644623,-8290.306550,-962.267725,-153.219100
4173.644953,-9326.594869,-888.247130,229.828649
4173.645283,-9622.677246,-888.247130,612.876398
4173.645612,-9918.759623,-518.144159,1455.581446
4173.645942,-9400.615463,0.000000,1685.410096
4173.646272,-9326.594869,370.102971,919.314598
4173.646601,-10658.965565,518.144159,995.924147
4173.646931,-10658.965565,814.226536,0.000000
4173.647261,-10436.903782,962.267725,0.000000
4173.647590,-10214.842000,148.041188,-919.314598
4173.647920,-9696.697840,222.061783,-1225.752797
4173.648250,-9622.677246,222.061783,-536.266849
4173.648579,-9474.636058,0.000000,0.000000
4173.648909,-9178.553681,-444.123565,459.657299
4173.649239,-9696.697840,0.000000,306.438199
4173.649568,-9770.718434,0.000000,0.000000
4173.649898,-10214.842000,0.000000,459.657299
4173.650228,-9844.739029,370.102971,1378.971896
4173.650557,-9770.718434,1184.329507,1225.752797
4173.650887,-10955.047942,1258.350101,459.657299
4173.651217,-10140.821405,592.164754,-459.657299
4173.651546,-9622.677246,518.144159,-995.924147
4173.651876,-9622.677246,148.041188,-766.095498
4173.652205,-9918.759623,666.185348,-689.485948
4173.652535,-9770.718434,222.061783,-459.657299
4173.652865,-8660.409521,-370.102971,-76.609550
4173.653194,-8734.430116,148.041188,-306.438199
4173.653524,-9548.656652,592.164754,229.828649
4173.653854,-10807.006753,222.061783,383.047749
4173.654183,-10214.842000,444.123565,536.266849
4173.654513,-9622.677246,148.041188,459.657299
4173.654843,-10732.986159,1110.308913,1302.362347
4173.655172,-10288.862594,1332.370696,229.828649
4173.655502,-9844.739029,370.102971,-1072.533697
4173.655832,-9030.512492,518.144159,-2298.286494
4173.656161,-9474.636058,148.041188,-689.485948
4173.656491,-9844.739029,0.000000,0.000000
4173.656821,-9030.512492,-666.185348,612.876398
4173.657150,-8660.409521,0.000000,1302.362347
4173.657480,-9622.677246,148.041188,919.314598
4173.657810,-10658.965565,222.061783,-689.485948
4173.658139,-9918.759623,74.020594,-536.266849
4173.658469,-9326.594869,592.164754,383.047749
4173.658799,-9918.759623,74.020594,1149.143247
4173.659128,-11177.109724,888.247130,842.705048
4173.659458,-10732.986159,370.102971,459.657299
4173.659788,-9326.594869,0.000000,-306.438199
4173.660117,-9770.718434,-370.102971,-1225.752797
4173.660447,-9770.718434,-888.247130,-612.876398
4173.660777,-8956.491898,-740.205942,306.438199
4173.661106,-7698.141797,-370.102971,459.657299
4173.661436,-8734.430116,0.000000,689.485948
4173.661766,-10881.027347,370.102971,-459.657299
4173.662095,-11769.274478,-148.041188,-766.095498
4173.662425,-10214.842000,-222.061783,229.828649
4173.662755,-9548.656652,222.061783,1302.362347
4173.663084,-9918.759623,0.000000,1608.800546
4173.663414,-10214.842000,-666.185348,1302.362347
4173.663744,-9326.594869,-518.144159,536.266849
4173.664073,-9104.533087,-518.144159,-536.266849
4173.664403,-9474.636058,-444.123565,-612.876398
4173.664733,-9770.718434,0.000000,76.609550
4173.665062,-9178.553681,0.000000,1149.143247
4173.665392,-9326.594869,0.000000,153.219100
4173.665722,-10140.821405,-296.082377,306.438199
4173.666051,-10584.944971,0.000000,229.828649
4173.666381,-9918.759623,-222.061783,-536.266849
4173.666711,-9400.615463,-370.102971,0.000000
4173.667040,-9474.636058,74.020594,919.314598
4173.667370,-9770.718434,-148.041188,1455.581446
4173.667700,-10362.883188,-296.082377,1149.143247
4173.668029,-9622.677246,-74.020594,153.219100
4173.668359,-9622.677246,0.000000,-306.438199
4173.668689,-9474.636058,0.000000,459.657299
4173.669018,-9844.739029,0.000000,536.266849
4173.669348,-9770.718434,0.000000,1225.752797
4173.669677,-9548.656652,0.000000,306.438199
4173.670007,-9178.553681,148.041188,-689.485948
4173.670337,-9252.574275,0.000000,-1455.581446
4173.670666,-10362.883188,222.061783,-1149.143247
4173.670996,-10140.821405,0.000000,0.000000
4173.671326,-10214.842000,-148.041188,536.266849
4173.671655,-9400.615463,-222.061783,459.657299
4173.671985,-9622.677246,-518.144159,1378.971896
4173.672315,-9622.677246,-740.205942,1302.362347
4173.672644,-9252.574275,-592.164754,766.095498
4173.672974,-9548.656652,0.000000,-229.828649
4173.673304,-10066.800811,74.020594,229.828649
4173.673633,-9622.677246,-740.205942,995.924147
4173.673963,-9474.636058,0.000000,842.705048
4173.674293,-9326.594869,592.164754,0.000000
4173.674622,-10214.842000,592.164754,-153.219100
4173.674952,-10362.883188,222.061783,-919.314598
4173.675282,-10066.800811,-74.020594,-536.266849
4173.675611,-9696.697840,0.000000,76.609550
4173.675941,-9474.636058,518.144159,383.047749
4173.676271,-9400.615463,0.000000,153.219100
4173.676600,-9474.636058,518.144159,76.609550
4173.676930,-9326.594869,518.144159,0.000000
4173.677260,-10658.965565,296.082377,306.438199
4173.677589,-10807.006753,148.041188,383.047749
4173.677919,-9696.697840,-296.082377,919.314598
4173.678249,-9252.574275,0.000000,1225.752797
4173.678578,-10214.842000,592.164754,689.485948
4173.678908,-10066.800811,518.144159,0.000000
4173.679238,-9474.636058,296.082377,-766.095498
4173.679567,-8660.409521,1184.329507,-1149.143247
4173.679897,-9918.759623,592.164754,-459.657299
4173.680227,-10658.965565,1332.370696,459.657299
4173.680556,-8956.491898,444.123565,0.000000
4173.680886,-9474.636058,74.020594,-306.438199
4173.681216,-10658.965565,1036.288319,-1072.533697
4173.681545,-10140.821405,0.000000,-536.266849
4173.681875,-9474.636058,148.041188,153.219100
4173.682205,-7476.080014,296.082377,306.438199
4173.682534,-9992.780217,296.082377,1225.752797
4173.682864,-10955.047942,518.144159,1378.971896
4173.683194,-9918.759623,296.082377,76.609550
4173.683523,-9696.697840,1036.288319,-383.047749
4173.683853,-10362.883188,296.082377,-1378.971896
4173.684183,-10955.047942,666.185348,383.047749
4173.684512,-9622.677246,0.000000,1225.752797
4173.684842,-8512.368333,222.061783,689.485948
4173.685172,-8438.347739,-518.144159,306.438199
4173.685501,-9918.759623,0.000000,-153.219100
4173.685831,-9696.697840,-444.123565,0.000000
4173.686161,-10436.903782,-148.041188,153.219100
4173.686490,-10584.944971,592.164754,689.485948
4173.686820,-10584.944971,0.000000,536.266849
4173.687150,-9548.656652,518.144159,0.000000
4173.687479,-8068.244768,-222.061783,-459.657299
4173.687809,-10214.842000,370.102971,229.828649
4173.688138,-12287.418637,518.144159,766.095498
4173.688468,-10807.006753,296.082377,76.609550
4173.688798,-8290.306550,-296.082377,-995.924147
4173.689127,-8290.306550,-74.020594,-689.485948
4173.689457,-9178.553681,-1110.308913,459.657299
4173.689787,-9548.656652,-296.082377,689.485948
4173.690116,-8660.409521,-592.164754,76.609550
4173.690446,-8808.450710,0.000000,0.000000
4173.690776,-9770.718434,370.102971,76.609550
4173.691105,-11843.295072,296.082377,612.876398
4173.691435,-11843.295072,370.102971,919.314598
4173.691765,-9992.780217,-296.082377,229.828649
4173.692094,-8142.265362,-222.061783,0.000000
4173.692424,-8808.450710,0.000000,-76.609550
4173.692754,-9252.574275,296.082377,459.657299
4173.693083,-10066.800811,-296.082377,0.000000
4173.693413,-9844.739029,666.185348,-306.438199
4173.693743,-10807.006753,0.000000,-153.219100
4173.694072,-11029.068536,0.000000,0.000000
4173.694402,-9548.656652,-666.185348,306.438199
4173.694732,-8956.491898,-518.144159,1149.143247
4173.695061,-9104.533087,0.000000,919.314598
4173.695391,-9770.718434,370.102971,459.657299
4173.695721,-10066.800811,592.164754,1302.362347
4173.696050,-10881.027347,370.102971,842.705048
4173.696380,-10732.986159,296.082377,842.705048
4173.696710,-10140.821405,0.000000,0.000000
4173.697039,-9400.615463,-518.144159,-612.876398
4173.697369,-8216.285956,-888.247130,-459.657299
4173.697699,-8216.285956,-740.205942,-306.438199
4173.698028,-8512.368333,-592.164754,536.266849
4173.698358,-9622.677246,0.000000,1685.410096
4173.698688,-10881.027347,370.102971,1838.629195
4173.699017,-11325.150913,148.041188,995.924147
4173.699347,-11473.192101,518.144159,459.657299
4173.699677,-10140.821405,-74.020594,76.609550
4173.700006,-9104.533087,-592.164754,459.657299
4173.700336,-9178.553681,-666.185348,1532.190996
4173.700666,-9548.656652,148.041188,1378.971896
4173.700995,-9622.677246,518.144159,153.219100
4173.701325,-9326.594869,74.020594,-229.828649
4173.701655,-9474.636058,-666.185348,-612.876398
4173.701985,-9918.759623,-518.144159,-459.657299
4173.702314,-9770.718434,0.000000,0.000000
4173.702644,-9030.512492,-296.082377,229.828649
4173.702974,-8290.306550,0.000000,-459.657299
4173.703303,-9474.636058,-444.123565,153.219100
4173.703633,-10881.027347,444.123565,0.000000
4173.703963,-11325.150913,592.164754,-153.219100
4173.704292,-9548.656652,0.000000,76.609550
4173.704622,-8956.491898,148.041188,153.219100
4173.704952,-9770.718434,0.000000,306.438199
4173.705282,-10584.944971,-666.185348,0.000000
4173.705611,-9178.553681,-740.205942,-306.438199
4173.705941,-7994.224174,-148.041188,-383.047749
4173.706271,-9326.594869,0.000000,76.609550
4173.706600,-10066.800811,370.102971,536.266849
4173.706930,-10214.842000,222.061783,689.485948
4173.707260,-10066.800811,888.247130,383.047749
4173.707589,-10436.903782,592.164754,-689.485948
4173.707919,-10732.986159,296.082377,-689.485948
4173.708249,-9252.574275,296.082377,-459.657299
4173.708579,-9252.574275,0.000000,766.095498
4173.708908,-10066.800811,518.144159,383.047749
4173.709238,-10955.047942,296.082377,-306.438199
4173.709568,-8882.471304,-148.041188,-536.266849
4173.709897,-8068.244768,518.144159,383.047749
4173.710227,-9030.512492,1036.288319,0.000000
4173.710557,-11473.192101,740.205942,383.047749
4173.710886,-11251.130318,1110.308913,536.266849
4173.711216,-9844.739029,740.205942,306.438199
4173.711546,-9548.656652,814.226536,-536.266849
4173.711876,-9474.636058,222.061783,-536.266849
4173.712205,-10140.821405,518.144159,0.000000
4173.712535,-9770.718434,592.164754,1302.362347
4173.712865,-9252.574275,74.020594,766.095498
4173.713194,-9844.739029,-370.102971,306.438199
4173.713524,-9548.656652,0.000000,0.000000
4173.713854,-9548.656652,0.000000,536.266849
4173.714184,-9844.739029,-222.061783,689.485948
4173.714513,-9548.656652,296.082377,536.266849
4173.714843,-9326.594869,148.041188,306.438199
4173.715173,-9548.656652,444.123565,-689.485948
4173.715502,-10066.800811,222.061783,-612.876398
4173.715832,-11473.192101,0.000000,1455.581446
4173.716162,-9918.759623,-444.123565,1762.019645
4173.716491,-8512.368333,-888.247130,536.266849
4173.716821,-8882.471304,-592.164754,306.438199
4173.717151,-9104.533087,-740.205942,459.657299
4173.717481,-10214.842000,-592.164754,459.657299
4173.717810,-9918.759623,-592.164754,612.876398
4173.718140,-9844.739029,0.000000,1072.533697
4173.718470,-10288.862594,0.000000,2068.457845
4173.718799,-9474.636058,-296.082377,536.266849
4173.719129,-10362.883188,-296.082377,306.438199
4173.719459,-10436.903782,-296.082377,-612.876398
4173.719788,-9770.718434,-444.123565,-612.876398
4173.720118,-9252.574275,-296.082377,-383.047749
4173.720448,-9178.553681,-148.041188,76.609550
4173.720778,-9474.636058,-444.123565,995.924147
4173.721107,-10362.883188,-740.205942,842.705048
4173.721437,-9548.656652,-888.247130,-153.219100
4173.721767,-9770.718434,-1258.350101,0.000000
4173.722096,-9622.677246,-444.123565,306.438199
4173.722426,-9030.512492,-740.205942,1072.533697
4173.722756,-9696.697840,-370.102971,766.095498
4173.723085,-10214.842000,148.041188,0.000000
4173.723415,-10881.027347,-296.082377,-919.314598
4173.723745,-9992.780217,-370.102971,-766.095498
4173.724075,-9622.677246,-444.123565,-536.266849
4173.724404,-10066.800811,-518.144159,919.314598
4173.724734,-9918.759623,-518.144159,766.095498
4173.725064,-8956.491898,-962.267725,383.047749
4173.725393,-9104.533087,-592.164754,0.000000
4173.725723,-9622.677246,0.000000,-766.095498
4173.726053,-10732.986159,0.000000,459.657299
4173.726382,-10288.862594,370.102971,229.828649
4173.726712,-9696.697840,814.226536,459.657299
4173.727042,-9992.780217,962.267725,0.000000
4173.727372,-10732.986159,814.226536,-1532.190996
4173.727701,-10288.862594,592.164754,-1685.410096
4173.728031,-9548.656652,0.000000,-1072.533697
4173.728361,-9400.615463,814.226536,306.438199
4173.728690,-9548.656652,-148.041188,153.219100
4173.729020,-9548.656652,518.144159,153.219100
4173.729350,-8438.347739,592.164754,0.000000
4173.729679,-8512.368333,222.061783,-229.828649
4173.730009,-10362.883188,1184.329507,383.047749
4173.730339,-11473.192101,888.247130,1149.143247
4173.730669,-10066.800811,0.000000,919.314598
4173.730998,-9030.512492,592.164754,1149.143247
4173.731328,-9622.677246,370.102971,1378.971896
4173.731658,-10288.862594,444.123565,612.876398
4173.731987,-9326.594869,1036.288319,459.657299
4173.732317,-8512.368333,962.267725,-689.485948
4173.732647,-9622.677246,1332.370696,-229.828649
4173.732976,-11029.068536,1332.370696,766.095498
4173.733306,-11621.233289,1258.350101,919.314598
4173.733636,-10362.883188,1332.370696,0.000000
4173.733966,-8586.388927,666.185348,-1225.752797
4173.734295,-8808.450710,74.020594,-1685.410096
4173.734625,-9104.533087,0.000000,-153.219100
4173.734955,-9548.656652,0.000000,1838.629195
4173.735284,-9548.656652,0.000000,2451.505594
4173.735614,-10066.800811,296.082377,1991.848295
4173.735944,-10362.883188,444.123565,1225.752797
4173.736273,-10140.821405,518.144159,306.438199
4173.736603,-10436.903782,0.000000,-536.266849
4173.736933,-10510.924376,814.226536,229.828649
4173.737263,-9474.636058,222.061783,76.609550
4173.737592,-8808.450710,148.041188,-689.485948
4173.737922,-9030.512492,296.082377,-766.095498
4173.738252,-9770.718434,0.000000,76.609550
4173.738581,-9770.718434,-518.144159,-1072.533697
4173.738911,-8660.409521,0.000000,-612.876398
4173.739241,-9622.677246,-814.226536,919.314598
4173.739570,-10214.842000,-148.041188,2681.334243
4173.739900,-9992.780217,-296.082377,2374.896044
4173.740230,-10658.965565,-370.102971,76.609550
4173.740560,-9622.677246,0.000000,-1072.533697
4173.740889,-10510.924376,-444.123565,-1149.143247
4173.741219,-10066.800811,-666.185348,-766.095498
4173.741549,-8660.409521,-592.164754,306.438199
4173.741878,-9326.594869,-370.102971,919.314598
4173.742208,-9918.759623,-222.061783,0.000000
4173.742538,-10066.800811,-888.247130,-306.438199
4173.742868,-10362.883188,-518.144159,-842.705048
4173.743197,-9770.718434,-592.164754,-1378.971896
4173.743527,-9918.759623,-740.205942,0.000000
4173.743857,-10066.800811,-222.061783,919.314598
4173.744186,-9770.718434,-592.164754,153.219100
4173.744516,-9030.512492,-962.267725,229.828649
4173.744846,-9104.533087,-444.123565,306.438199
4173.745175,-9992.780217,0.000000,459.657299
4173.745505,-10658.965565,0.000000,306.438199
4173.745835,-10288.862594,-592.164754,153.219100
4173.746165,-10288.862594,-444.123565,536.266849
4173.746494,-9326.594869,-444.123565,-306.438199
4173.746824,-8808.450710,-592.164754,-306.438199
4173.747154,-9548.656652,-296.082377,919.314598
4173.747483,-9992.780217,296.082377,1302.362347
4173.747813,-9918.759623,-592.164754,459.657299
4173.748143,-9622.677246,148.041188,-612.876398
4173.748472,-9400.615463,74.020594,-612.876398
4173.748802,-9992.780217,296.082377,1225.752797
4173.749132,-10140.821405,0.000000,1225.752797
4173.749462,-9474.636058,74.020594,919.314598
4173.749791,-9400.615463,148.041188,842.705048
4173.750121,-9474.636058,0.000000,306.438199
4173.750451,-10140.821405,0.000000,1072.533697
4173.750780,-10955.047942,888.247130,995.924147
4173.751110,-9474.636058,0.000000,-229.828649
4173.751440,-8734.430116,-370.102971,-1072.533697
4173.751769,-8660.409521,740.205942,-306.438199
4173.752099,-8882.471304,148.041188,0.000000
4173.752429,-10510.924376,518.144159,76.609550
4173.752759,-10584.944971,592.164754,153.219100
4173.753088,-10362.883188,74.020594,612.876398
4173.753418,-9178.553681,-296.082377,153.219100
4173.753748,-9178.553681,0.000000,383.047749
4173.754077,-10140.821405,-666.185348,1149.143247
4173.754407,-9474.636058,-148.041188,1762.019645
4173.754737,-8882.471304,222.061783,1149.143247
4173.755066,-9770.718434,592.164754,229.828649
4173.755396,-11399.171507,740.205942,-459.657299
4173.755726,-10732.986159,-444.123565,-229.828649
4173.756056,-9770.718434,444.123565,-1072.533697
4173.756385,-7994.224174,74.020594,-1762.019645
4173.756715,-9030.512492,0.000000,153.219100
4173.757045,-10140.821405,296.082377,612.876398
4173.757374,-10140.821405,222.061783,76.609550
4173.757704,-9770.718434,370.102971,0.000000
4173.758034,-10807.006753,518.144159,153.219100
4173.758363,-11177.109724,888.247130,1072.533697
4173.758693,-10658.965565,518.144159,536.266849
4173.759023,-9548.656652,222.061783,-306.438199
4173.759353,-8956.491898,-518.144159,76.609550
4173.759682,-9622.677246,0.000000,0.000000
4173.760012,-9622.677246,296.082377,383.047749
4173.760342,-9622.677246,0.000000,-306.438199
4173.760671,-9548.656652,0.000000,-612.876398
4173.761001,-10214.842000,-444.123565,766.095498
4173.761331,-9992.780217,0.000000,1378.971896
4173.761660,-9770.718434,-296.082377,0.000000
4173.761990,-9326.594869,-148.041188,-383.047749
4173.762320,-9252.574275,0.000000,-612.876398
4173.762650,-9400.615463,-148.041188,-153.219100
4173.762979,-10584.944971,148.041188,76.609550
4173.763309,-10584.944971,296.082377,383.047749
4173.763639,-9548.656652,-370.102971,0.000000
4173.763968,-8660.409521,296.082377,-919.314598
4173.764298,-8364.327145,-222.061783,-1072.533697
4173.764628,-10584.944971,740.205942,0.000000
4173.764957,-11325.150913,-148.041188,-766.095498
4173.765287,-9770.718434,-370.102971,-612.876398
4173.765617,-8142.265362,222.061783,-536.266849
4173.765947,-8956.491898,296.082377,76.609550
4173.766276,-10214.842000,-148.041188,1532.190996
4173.766606,-10510.924376,666.185348,1072.533697
4173.766936,-10066.800811,814.226536,-1532.190996
4173.767265,-9696.697840,148.041188,-1378.971896
4173.767595,-10214.842000,888.247130,-842.705048
4173.767925,-9548.656652,296.082377,153.219100
4173.768254,-9548.656652,1110.308913,-536.266849
4173.768584,-9622.677246,888.247130,-1685.410096
4173.768914,-9622.677246,592.164754,-2068.457845
4173.769244,-9474.636058,740.205942,-1378.971896
4173.769573,-8956.491898,1406.391290,-1225.752797
4173.769903,-9548.656652,888.247130,-536.266849
4173.770233,-10807.006753,1110.308913,459.657299
4173.770562,-10066.800811,888.247130,1072.533697
4173.770892,-9400.615463,1258.350101,76.609550
4173.771222,-9770.718434,1850.514855,-1455.581446
4173.771552,-10214.842000,1184.329507,-1225.752797
4173.771881,-10732.986159,1628.453072,-536.266849
4173.772211,-9770.718434,1628.453072,-842.705048
4173.772541,-9474.636058,1554.432478,-919.314598
4173.772870,-9474.636058,1628.453072,-995.924147
4173.773200,-8512.368333,888.247130,-1915.238745
4173.773530,-9104.533087,1776.494261,-1838.629195
4173.773859,-9918.759623,1998.556043,-2528.115143
4173.774189,-10140.821405,1776.494261,-1378.971896
4173.774519,-9844.739029,2220.617826,-842.705048
4173.774849,-9178.553681,1850.514855,-2374.896044
4173.775178,-9400.615463,1480.411884,-2834.553343
4173.775508,-9400.615463,1628.453072,-2451.505594
4173.775838,-9252.574275,1110.308913,-842.705048
4173.776167,-8734.430116,1480.411884,0.000000
4173.776497,-8956.491898,2368.659014,-536.266849
4173.776827,-9844.739029,1998.556043,-1149.143247
4173.777156,-10288.862594,3034.844362,-1915.238745
4173.777486,-10214.842000,3256.906145,-3140.991542
4173.777816,-11103.089130,2442.679609,-4290.134789
4173.778146,-11251.130318,3182.885551,-3447.429741
4173.778475,-9548.656652,2442.679609,-1608.800546
4173.778805,-8734.430116,1998.556043,-1225.752797
4173.779135,-8142.265362,2220.617826,-2221.676944
4173.779464,-9104.533087,2368.659014,-2374.896044
4173.779794,-10140.821405,2590.720797,-1915.238745
4173.780124,-9474.636058,2738.761985,-1915.238745
4173.780453,-9474.636058,2664.741391,-1915.238745
4173.780783,-10214.842000,2590.720797,-1532.190996
4173.781113,-11473.192101,3256.906145,-2068.457845
4173.781443,-10362.883188,2664.741391,-2221.676944
4173.781772,-9918.759623,2738.761985,-2757.943793
4173.782102,-9252.574275,2664.741391,-2911.162892
4173.782432,-9178.553681,1924.535449,-1838.629195
4173.782761,-9252.574275,2368.659014,-1225.752797
4173.783091,-9178.553681,2590.720797,-2604.724693
4173.783421,-9030.512492,2368.659014,-3294.210641
4173.783750,-9918.759623,2072.576638,-2911.162892
4173.784080,-10066.800811,2294.638420,-1762.019645
4173.784410,-10362.883188,2516.700203,-766.095498
4173.784740,-9696.697840,2368.659014,-1991.848295
4173.785069,-9178.553681,2146.597232,-2451.505594
4173.785399,-9252.574275,1924.535449,-2298.286494
4173.785729,-9622.677246,1406.391290,-1991.848295
4173.786058,-9326.594869,2146.597232,-842.705048
4173.786388,-9548.656652,1628.453072,0.000000
4173.786718,-9400.615463,1554.432478,-1072.533697
4173.787047,-9326.594869,1702.473667,-1991.848295
4173.787377,-9548.656652,1628.453072,-2451.505594
4173.787707,-9770.718434,2516.700203,-3064.381992
4173.788037,-10066.800811,2368.659014,-2451.505594
4173.788366,-10214.842000,2220.617826,-2451.505594
4173.788696,-10510.924376,2738.761985,-1608.800546
4173.789026,-9770.718434,1924.535449,-1302.362347
4173.789355,-10066.800811,1628.453072,-2298.286494
4173.789685,-8068.244768,814.226536,-1991.848295
4173.790015,-10214.842000,666.185348,-612.876398
4173.790344,-8512.368333,1924.535449,306.438199
4173.790674,-9696.697840,2368.659014,-1149.143247
4173.791004,-11843.295072,2146.597232,-2221.676944
4173.791334,-8512.368333,1628.453072,-1225.752797
4173.791663,-9326.594869,2294.638420,-1608.800546
4173.791993,-10658.965565,2220.617826,-2298.286494
4173.792323,-10288.862594,2368.659014,-1838.629195
4173.792652,-9178.553681,2812.782580,-2374.896044
4173.792982,-9178.553681,2368.659014,-3064.381992
4173.793312,-11177.109724,2368.659014,-2298.286494
4173.793641,-10584.944971,2590.720797,-2451.505594
4173.793971,-10436.903782,2220.617826,-3677.258390
4173.794301,-8734.430116,1332.370696,-2987.772442
4173.794631,-8882.471304,1184.329507,-1532.190996
4173.794960,-9178.553681,1110.308913,-689.485948
4173.795290,-8956.491898,888.247130,-536.266849
4173.795620,-8586.388927,1702.473667,-842.705048
4173.795949,-9326.594869,1702.473667,-766.095498
4173.796279,-10732.986159,2516.700203,-689.485948
4173.796609,-11029.068536,2442.679609,-766.095498
4173.796938,-10807.006753,2442.679609,-2451.505594
4173.797268,-10362.883188,3034.844362,-3447.429741
4173.797598,-9326.594869,2072.576638,-2757.943793
4173.797928,-9400.615463,2368.659014,-1915.238745
4173.798257,-9326.594869,2072.576638,-2298.286494
4173.798587,-8808.450710,1924.535449,-3294.210641
4173.798917,-8660.409521,1554.432478,-2987.772442
4173.799246,-9474.636058,1998.556043,-2604.724693
4173.799576,-9992.780217,2072.576638,-1149.143247
4173.799906,-10732.986159,2072.576638,153.219100
4173.800236,-10658.965565,2368.659014,-76.609550
4173.800565,-10288.862594,2368.659014,-1302.362347
4173.800895,-9622.677246,2368.659014,-2374.896044
4173.801225,-9770.718434,2368.659014,-1915.238745
4173.801554,-9918.759623,2368.659014,-1225.752797
4173.801884,-9844.739029,2368.659014,-1302.362347
4173.802214,-9474.636058,2220.617826,-2604.724693
4173.802543,-9326.594869,2886.803174,-3447.429741
4173.802873,-9400.615463,2516.700203,-3983.696590
4173.803203,-9696.697840,2442.679609,-3524.039291
4173.803533,-9696.697840,2442.679609,-3217.601092
4173.803862,-10288.862594,3034.844362,-1455.581446
4173.804192,-10140.821405,2812.782580,-1149.143247
4173.804522,-9918.759623,2960.823768,-1608.800546
4173.804852,-10214.842000,1702.473667,-2298.286494
4173.805181,-10288.862594,1554.432478,-1762.019645
4173.805511,-9844.739029,1776.494261,-1302.362347
4173.805841,-8808.450710,1110.308913,-153.219100
4173.806170,-8512.368333,1628.453072,0.000000
4173.806500,-8882.471304,1924.535449,-919.314598
4173.806830,-9844.739029,2516.700203,-2145.067394
4173.807160,-10807.006753,2738.761985,-2451.505594
4173.807489,-10362.883188,3034.844362,-3217.601092
4173.807819,-9992.780217,2960.823768,-3294.210641
4173.808149,-10214.842000,2812.782580,-2451.505594
4173.808478,-10881.027347,2516.700203,-1149.143247
4173.808808,-9696.697840,2368.659014,-1532.190996
4173.809138,-8956.491898,1776.494261,-2681.334243
4173.809468,-8586.388927,1036.288319,-3524.039291
4173.809797,-9104.533087,1406.391290,-2451.505594
4173.810127,-9474.636058,1406.391290,-536.266849
4173.810457,-9178.553681,1332.370696,0.000000
4173.810786,-9992.780217,1850.514855,0.000000
4173.811116,-10214.842000,1850.514855,-1149.143247
4173.811446,-10510.924376,2368.659014,-2298.286494
4173.811776,-10066.800811,2442.679609,-2068.457845
4173.812105,-10362.883188,2368.659014,-1225.752797
4173.812435,-10732.986159,2294.638420,-229.828649
4173.812765,-10214.842000,2146.597232,-1915.238745
4173.813094,-9252.574275,2072.576638,-3907.087040
4173.813424,-8808.450710,1924.535449,-4596.572988
4173.813754,-8882.471304,2072.576638,-4060.306139
4173.814084,-9104.533087,1776.494261,-3217.601092
4173.814413,-9474.636058,2072.576638,-1302.362347
4173.814743,-9474.636058,1924.535449,-383.047749
4173.815073,-9770.718434,1998.556043,-842.705048
4173.815403,-10140.821405,1776.494261,-2145.067394
4173.815732,-10510.924376,1924.535449,-2911.162892
4173.816062,-10362.883188,1998.556043,-1762.019645
4173.816392,-9696.697840,1850.514855,0.000000
4173.816721,-9400.615463,1406.391290,0.000000
4173.817051,-9400.615463,1850.514855,-842.705048
4173.817381,-10066.800811,2072.576638,-2911.162892
4173.817711,-9770.718434,2368.659014,-3447.429741
4173.818040,-9474.636058,1998.556043,-3140.991542
4173.818370,-9252.574275,1924.535449,-2911.162892
4173.818700,-9178.553681,2146.597232,-1762.019645
4173.819029,-9770.718434,2072.576638,-766.095498
4173.819359,-10214.842000,1998.556043,-842.705048
4173.819689,-9770.718434,1628.453072,-2298.286494
4173.820019,-9992.780217,1554.432478,-2068.457845
4173.820348,-10436.903782,1776.494261,-766.095498
4173.820678,-10214.842000,1776.494261,76.609550
4173.821008,-9474.636058,2072.576638,-766.095498
4173.821337,-9104.533087,2072.576638,-1455.581446
4173.821667,-9844.739029,1850.514855,-1685.410096
4173.821997,-10288.862594,2368.659014,-2374.896044
4173.822327,-9622.677246,2442.679609,-2757.943793
4173.822656,-9326.594869,2146.597232,-2987.772442
4173.822986,-9474.636058,2220.617826,-2451.505594
4173.823316,-9918.759623,2072.576638,-2374.896044
4173.823645,-9696.697840,2146.597232,-2374.896044
4173.823975,-9474.636058,1776.494261,-2145.067394
4173.824305,-9474.636058,1554.432478,-1608.800546
4173.824635,-9770.718434,1924.535449,-842.705048
4173.824964,-9770.718434,2146.597232,-612.876398
4173.825294,-9918.759623,2368.659014,-1378.971896
4173.825624,-10658.965565,2072.576638,-1378.971896
4173.825954,-10732.986159,1776.494261,-919.314598
4173.826283,-10140.821405,1776.494261,-919.314598
4173.826613,-9474.636058,1332.370696,-766.095498
4173.826943,-9474.636058,1258.350101,-842.705048
4173.827272,-9252.574275,1258.350101,-612.876398
4173.827602,-9178.553681,1184.329507,-1378.971896
4173.827932,-9252.574275,1258.350101,-1378.971896
4173.828262,-9844.739029,1480.411884,-2145.067394
4173.828591,-9548.656652,1850.514855,-2528.115143
4173.828921,-9326.594869,1554.432478,-2604.724693
4173.829251,-9400.615463,1332.370696,-1915.238745
4173.829580,-9844.739029,1628.453072,-995.924147
4173.829910,-10362.883188,1554.432478,-1532.190996
4173.830240,-9474.636058,1258.350101,-2604.724693
4173.830570,-8956.491898,1406.391290,-3064.381992
4173.830899,-8808.450710,1184.329507,-2528.115143
4173.831229,-9622.677246,1184.329507,-1072.533697
4173.831559,-9918.759623,1110.308913,-1149.143247
4173.831888,-9104.533087,888.247130,-1838.629195
4173.832218,-9030.512492,1554.432478,-2681.334243
4173.832548,-9696.697840,1406.391290,-2528.115143
4173.832878,-10510.924376,2146.597232,-2681.334243
4173.833207,-9844.739029,1924.535449,-3140.991542
4173.833537,-9400.615463,1924.535449,-2987.772442
4173.833867,-9696.697840,1998.556043,-2221.676944
4173.834197,-10436.903782,2516.700203,-1685.410096
4173.834526,-9918.759623,2220.617826,-2298.286494
4173.834856,-10362.883188,2146.597232,-2374.896044
4173.835186,-10140.821405,2368.659014,-1915.238745
4173.835515,-9622.677246,1998.556043,-1685.410096
4173.835845,-9696.697840,2368.659014,-2221.676944
4173.836175,-9474.636058,2590.720797,-2451.505594
4173.836505,-9104.533087,2738.761985,-2681.334243
4173.836834,-9992.780217,2812.782580,-2068.457845
4173.837164,-10436.903782,3182.885551,-1532.190996
4173.837494,-10510.924376,3330.926739,-1685.410096
4173.837823,-10140.821405,3552.988522,-3064.381992
4173.838153,-9622.677246,3256.906145,-3064.381992
4173.838483,-9548.656652,2960.823768,-2757.943793
4173.838813,-9918.759623,2738.761985,-1532.190996
4173.839142,-10066.800811,3034.844362,-1072.533697
4173.839472,-9548.656652,3404.947333,-1915.238745
4173.839802,-8882.471304,3552.988522,-3217.601092
4173.840131,-9178.553681,3701.029710,-3677.258390
4173.840461,-9918.759623,3775.050304,-2757.943793
4173.840791,-9696.697840,3701.029710,-2145.067394
4173.841121,-9918.759623,3552.988522,-1302.362347
4173.841450,-9178.553681,3034.844362,-1302.362347
4173.841780,-9104.533087,2812.782580,-1455.581446
4173.842110,-10140.821405,3404.947333,-2298.286494
4173.842439,-10584.944971,2960.823768,-2145.067394
4173.842769,-9178.553681,2886.803174,-2298.286494
4173.843099,-8808.450710,3330.926739,-2221.676944
4173.843429,-9252.574275,3330.926739,-1838.629195
4173.843758,-9992.780217,3627.009116,-2298.286494
4173.844088,-9844.739029,3552.988522,-3217.601092
4173.844418,-9474.636058,3182.885551,-3600.648841
4173.844748,-9770.718434,2960.823768,-2604.724693
4173.845077,-10362.883188,2368.659014,-536.266849
4173.845407,-10288.862594,2516.700203,0.000000
4173.845737,-9104.533087,1776.494261,-1608.800546
4173.846066,-8660.409521,1406.391290,-3370.820191
4173.846396,-8956.491898,1998.556043,-3064.381992
4173.846726,-9770.718434,1776.494261,-995.924147
4173.847056,-9770.718434,1702.473667,0.000000
4173.847385,-9474.636058,2072.576638,-612.876398
4173.847715,-10214.842000,2368.659014,-1838.629195
4173.848045,-10510.924376,1998.556043,-2987.772442
4173.848374,-10807.006753,2072.576638,-3447.429741
4173.848704,-9918.759623,1702.473667,-2298.286494
4173.849034,-9770.718434,740.205942,-919.314598
4173.849364,-9548.656652,962.267725,-1072.533697
4173.849693,-9030.512492,222.061783,-2068.457845
4173.850023,-8956.491898,148.041188,-3064.381992
4173.850353,-8882.471304,148.041188,-2374.896044
4173.850682,-9474.636058,592.164754,-842.705048
4173.851012,-9770.718434,0.000000,76.609550
4173.851342,-10066.800811,888.247130,536.266849
4173.851672,-10584.944971,1184.329507,-383.047749
4173.852001,-10658.965565,888.247130,-1915.238745
4173.852331,-10584.944971,888.247130,-2911.162892
4173.852661,-10658.965565,1036.288319,-2451.505594
4173.852990,-9918.759623,962.267725,-1532.190996
4173.853320,-9844.739029,814.226536,-1608.800546
4173.853650,-9030.512492,518.144159,-2757.943793
4173.853980,-8290.306550,-222.061783,-2911.162892
4173.854309,-9622.677246,222.061783,-2221.676944
4173.854639,-10436.903782,444.123565,-76.609550
4173.854969,-10140.821405,814.226536,459.657299
4173.855299,-8882.471304,1258.350101,-689.485948
4173.855628,-8882.471304,1332.370696,-689.485948
4173.855958,-11769.274478,2146.597232,-1302.362347
4173.856288,-12065.356855,2812.782580,-2374.896044
4173.856617,-10214.842000,1628.453072,-2987.772442
4173.856947,-8882.471304,1702.473667,-3140.991542
4173.857277,-8734.430116,1998.556043,-2451.505594
4173.857607,-9474.636058,1480.411884,-2221.676944
4173.857936,-9400.615463,2146.597232,-3217.601092
4173.858266,-8364.327145,1850.514855,-3753.867940
4173.858596,-8734.430116,1924.535449,-2681.334243
4173.858925,-9844.739029,2442.679609,-459.657299
4173.859255,-10288.862594,2516.700203,0.000000
4173.859585,-10140.821405,2664.741391,-919.314598
4173.859915,-9548.656652,2664.741391,-1838.629195
4173.860244,-10732.986159,2590.720797,-2221.676944
4173.860574,-10510.924376,3108.864956,-1608.800546
4173.860904,-9622.677246,2812.782580,-2298.286494
4173.861233,-8142.265362,2812.782580,-2451.505594
4173.861563,-8660.409521,3256.906145,-2834.553343
4173.861893,-9252.574275,3552.988522,-2451.505594
4173.862223,-9622.677246,3404.947333,-2528.115143
4173.862552,-9844.739029,3478.967927,-3064.381992
4173.862882,-9474.636058,2886.803174,-3064.381992
4173.863212,-10436.903782,3108.864956,-2681.334243
4173.863542,-10362.883188,3182.885551,-1762.019645
4173.863871,-9252.574275,3108.864956,-2145.067394
4173.864201,-8734.430116,2960.823768,-1532.190996
4173.864531,-9400.615463,2590.720797,-1378.971896
4173.864860,-9992.780217,2886.803174,-995.924147
4173.865190,-9474.636058,2590.720797,-1225.752797
4173.865520,-9844.739029,2442.679609,-1915.238745
4173.865850,-8660.409521,2738.761985,-2604.724693
4173.866179,-9104.533087,2368.659014,-2757.943793
4173.866509,-9326.594869,2886.803174,-2528.115143
4173.866839,-10436.903782,3404.947333,-2298.286494
4173.867168,-10584.944971,3404.947333,-2451.505594
4173.867498,-9474.636058,2960.823768,-1838.629195
4173.867828,-9474.636058,2590.720797,-2451.505594
4173.868158,-10214.842000,2516.700203,-1149.143247
4173.868487,-10732.986159,2516.700203,-995.924147
4173.868817,-9918.759623,1628.453072,-2068.457845
4173.869147,-8734.430116,2294.638420,-2451.505594
4173.869476,-9474.636058,2146.597232,-2451.505594
4173.869806,-10658.965565,2294.638420,-1608.800546
4173.870136,-10510.924376,2590.720797,-1685.410096
4173.870466,-9548.656652,2072.576638,-2298.286494
4173.870795,-9844.739029,2146.597232,-1991.848295
4173.871125,-10436.903782,2220.617826,-1225.752797
4173.871455,-10658.965565,2294.638420,-995.924147
4173.871784,-9992.780217,1258.350101,-1838.629195
4173.872114,-9548.656652,1776.494261,-2068.457845
4173.872444,-9474.636058,1110.308913,-2298.286494
4173.872774,-9622.677246,740.205942,-1762.019645
4173.873103,-9474.636058,1036.288319,-1455.581446
4173.873433,-9474.636058,518.144159,-919.314598
4173.873763,-9622.677246,1258.350101,-1225.752797
4173.874093,-9696.697840,1480.411884,-842.705048
4173.874422,-10807.006753,2072.576638,-612.876398
4173.874752,-11399.171507,1702.473667,0.000000
4173.875082,-11251.130318,2072.576638,-383.047749
4173.875411,-9548.656652,962.267725,-1302.362347
4173.875741,-9030.512492,1110.308913,-2068.457845
4173.876071,-8956.491898,592.164754,-1532.190996
4173.876401,-9770.718434,0.000000,-2068.457845
4173.876730,-9474.636058,0.000000,-1225.752797
4173.877060,-8364.327145,-222.061783,-76.609550
4173.877390,-9326.594869,814.226536,919.314598
4173.877719,-9474.636058,1258.350101,459.657299
4173.878049,-9696.697840,1110.308913,-306.438199
4173.878379,-9918.759623,1480.411884,-1608.800546
4173.878709,-10807.006753,1036.288319,-1915.238745
4173.879038,-11547.212695,518.144159,229.828649
4173.879368,-9918.759623,518.144159,919.314598
4173.879698,-8068.244768,296.082377,306.438199
4173.880027,-8512.368333,0.000000,-995.924147
4173.880357,-8586.388927,-444.123565,-1915.238745
4173.880687,-8734.430116,-666.185348,-1455.581446
4173.881017,-9178.553681,74.020594,-536.266849
4173.881346,-9622.677246,370.102971,536.266849
4173.881676,-9918.759623,370.102971,1455.581446
4173.882006,-9104.533087,148.041188,766.095498
4173.882335,-9326.594869,222.061783,306.438199
4173.882665,-10955.047942,370.102971,612.876398
4173.882995,-11917.315666,222.061783,0.000000
4173.883325,-10436.903782,0.000000,-229.828649
4173.883654,-8956.491898,0.000000,459.657299
4173.883984,-9030.512492,-370.102971,-153.219100
4173.884314,-8734.430116,-518.144159,0.000000
4173.884644,-9030.512492,0.000000,-536.266849
4173.884973,-9548.656652,666.185348,-153.219100
4173.885303,-10362.883188,666.185348,0.000000
4173.885633,-11991.336260,1406.391290,-689.485948
4173.885962,-11399.171507,1036.288319,-689.485948
4173.886292,-11177.109724,814.226536,-766.095498
4173.886622,-10807.006753,0.000000,-919.314598
4173.886952,-9622.677246,-740.205942,-153.219100
4173.887281,-8734.430116,-888.247130,612.876398
4173.887611,-7846.182985,-814.226536,919.314598
4173.887941,-8808.450710,-666.185348,1608.800546
4173.888270,-9844.739029,-888.247130,1455.581446
4173.888600,-9252.574275,-518.144159,1455.581446
4173.888930,-9104.533087,0.000000,229.828649
4173.889260,-9844.739029,444.123565,-766.095498
4173.889589,-11103.089130,592.164754,-766.095498
4173.889919,-11843.295072,1036.288319,-229.828649
4173.890249,-9844.739029,1036.288319,-842.705048
4173.890578,-9030.512492,74.020594,-1302.362347
4173.890908,-9474.636058,148.041188,-229.828649
4173.891238,-8734.430116,-148.041188,76.609550
4173.891568,-8438.347739,0.000000,229.828649
4173.891897,-8586.388927,0.000000,-842.705048
4173.892227,-9104.533087,0.000000,-459.657299
4173.892557,-10140.821405,370.102971,306.438199
4173.892886,-10584.944971,1184.329507,842.705048
4173.893216,-10436.903782,370.102971,1378.971896
4173.893546,-11473.192101,592.164754,612.876398
4173.893876,-11177.109724,740.205942,612.876398
4173.894205,-9770.718434,148.041188,229.828649
4173.894535,-8660.409521,666.185348,76.609550
4173.894865,-9474.636058,518.144159,612.876398
4173.895195,-11029.068536,1036.288319,689.485948
4173.895524,-9918.759623,1110.308913,-306.438199
4173.895854,-8882.471304,222.061783,-1225.752797
4173.896184,-9178.553681,0.000000,-1455.581446
4173.896513,-9622.677246,518.144159,153.219100
4173.896843,-10066.800811,296.082377,995.924147
4173.897173,-9548.656652,444.123565,459.657299
4173.897503,-9844.739029,0.000000,689.485948
4173.897832,-10362.883188,148.041188,1072.533697
4173.898162,-9992.780217,592.164754,919.314598
4173.898492,-10140.821405,0.000000,1072.533697
4173.898821,-10807.006753,296.082377,995.924147
4173.899151,-9696.697840,222.061783,306.438199
4173.899481,-8438.347739,222.061783,229.828649
4173.899811,-8660.409521,148.041188,-306.438199
4173.900140,-10066.800811,0.000000,0.000000
4173.900470,-10066.800811,-222.061783,-842.705048
4173.900800,-8438.347739,-814.226536,-1608.800546
4173.901129,-8512.368333,0.000000,-842.705048
4173.901459,-9696.697840,0.000000,306.438199
4173.901789,-10658.965565,0.000000,1608.800546
4173.902118,-10066.800811,-296.082377,919.314598
4173.902448,-9326.594869,222.061783,459.657299
4173.902778,-10658.965565,-148.041188,459.657299
4173.903107,-11325.150913,-814.226536,919.314598
4173.903437,-9474.636058,-962.267725,1149.143247
4173.903767,-8068.244768,-1480.411884,842.705048
4173.904096,-9326.594869,-1406.391290,306.438199
4173.904426,-9992.780217,-1702.473667,1302.362347
4173.904756,-9252.574275,-1406.391290,153.219100
4173.905085,-9104.533087,-814.226536,0.000000
4173.905415,-10362.883188,-296.082377,459.657299
4173.905745,-11843.295072,-296.082377,1532.190996
4173.906075,-10881.027347,-518.144159,1685.410096
4173.906404,-9770.718434,-888.247130,1608.800546
4173.906734,-10140.821405,-1036.288319,1532.190996
4173.907064,-10436.903782,-1258.350101,536.266849
4173.907393,-9548.656652,-962.267725,306.438199
4173.907723,-8142.265362,-888.247130,76.609550
4173.908053,-9178.553681,-814.226536,-153.219100
4173.908382,-9548.656652,-962.267725,0.000000
4173.908712,-9326.594869,-740.205942,1455.581446
4173.909042,-9918.759623,0.000000,842.705048
4173.909371,-10658.965565,148.041188,1378.971896
4173.909701,-11325.150913,0.000000,842.705048
4173.910031,-10436.903782,296.082377,0.000000
4173.910360,-9696.697840,74.020594,-536.266849
4173.910690,-10214.842000,-222.061783,0.000000
4173.911020,-10436.903782,-592.164754,229.828649
4173.911349,-9400.615463,-222.061783,459.657299
4173.911679,-8808.450710,-370.102971,-306.438199
4173.912009,-8882.471304,-444.123565,-536.266849
4173.912338,-9548.656652,-444.123565,459.657299
4173.912668,-9548.656652,1036.288319,459.657299
4173.912998,-9326.594869,740.205942,76.609550
4173.913327,-10140.821405,814.226536,-306.438199
4173.913657,-10066.800811,666.185348,-536.266849
4173.913987,-11029.068536,444.123565,0.000000
4173.914316,-10881.027347,740.205942,-459.657299
4173.914646,-9252.574275,518.144159,-1378.971896
4173.914976,-8216.285956,0.000000,-842.705048
4173.915305,-7920.203579,518.144159,-459.657299
4173.915635,-9252.574275,592.164754,-76.609550
4173.915965,-10140.821405,444.123565,0.000000
4173.916294,-10362.883188,1110.308913,536.266849
4173.916624,-9326.594869,814.226536,0.000000
4173.916954,-9844.739029,1184.329507,-766.095498
4173.917283,-10362.883188,814.226536,-459.657299
4173.917613,-10140.821405,592.164754,-689.485948
4173.917943,-9548.656652,740.205942,-306.438199
4173.918272,-9548.656652,814.226536,-766.095498
4173.918602,-9622.677246,888.247130,459.657299
4173.918932,-9474.636058,740.205942,76.609550
4173.919261,-9178.553681,148.041188,-459.657299
4173.919591,-9548.656652,518.144159,-229.828649
4173.919921,-9178.553681,666.185348,-612.876398
4173.920250,-9474.636058,296.082377,536.266849
4173.920580,-9548.656652,814.226536,1455.581446
4173.920910,-10214.842000,592.164754,1532.190996
4173.921239,-10584.944971,888.247130,612.876398
4173.921569,-11103.089130,740.205942,-459.657299
4173.921899,-10214.842000,296.082377,-459.657299
4173.922228,-9474.636058,370.102971,153.219100
4173.922558,-9770.718434,1036.288319,842.705048
4173.922888,-10214.842000,0.000000,2221.676944
4173.923217,-10732.986159,370.102971,995.924147
4173.923547,-9326.594869,-222.061783,-842.705048
4173.923877,-9252.574275,-296.082377,-1225.752797
4173.924207,-10140.821405,222.061783,0.000000
4173.924536,-10658.965565,370.102971,1838.629195
4173.924866,-10510.924376,518.144159,2451.505594
4173.925196,-9696.697840,814.226536,689.485948
4173.925525,-10288.862594,-370.102971,-612.876398
4173.925855,-10436.903782,0.000000,-919.314598
4173.926185,-10362.883188,0.000000,-383.047749
4173.926514,-9104.533087,-888.247130,1302.362347
4173.926844,-8586.388927,-814.226536,2298.286494
4173.927174,-9548.656652,-1702.473667,2528.115143
4173.927503,-10066.800811,-1036.288319,1072.533697
4173.927833,-9326.594869,-666.185348,0.000000
4173.928163,-9030.512492,-592.164754,536.266849
4173.928492,-9770.718434,-148.041188,1455.581446
4173.928822,-10584.944971,666.185348,1838.629195
4173.929152,-10584.944971,0.000000,766.095498
4173.929481,-9770.718434,518.144159,-842.705048
4173.929811,-10214.842000,-148.041188,-1378.971896
4173.930141,-10362.883188,0.000000,-1302.362347
4173.930470,-8882.471304,-814.226536,-306.438199
4173.930800,-8660.409521,-592.164754,919.314598
4173.931130,-8808.450710,-740.205942,1072.533697
4173.931459,-10066.800811,0.000000,459.657299
4173.931789,-11103.089130,-814.226536,-459.657299
4173.932119,-9622.677246,-962.267725,0.000000
4173.932448,-8660.409521,-1332.370696,1072.533697
4173.932778,-9252.574275,-444.123565,1302.362347
4173.933108,-10658.965565,74.020594,1149.143247
4173.933437,-9844.739029,-296.082377,459.657299
4173.933767,-9844.739029,0.000000,-1072.533697
4173.934097,-10066.800811,-222.061783,-1838.629195
4173.934426,-9474.636058,-148.041188,-1685.410096
4173.934756,-8734.430116,0.000000,-995.924147
4173.935086,-7994.224174,-1110.308913,-689.485948
4173.935415,-9178.553681,-740.205942,-766.095498
4173.935745,-9770.718434,-518.144159,-459.657299
4173.936075,-9844.739029,-814.226536,-612.876398
4173.936404,-9992.780217,0.000000,536.266849
4173.936734,-10584.944971,148.041188,1532.190996
4173.937064,-10732.986159,0.000000,1225.752797
4173.937393,-9696.697840,740.205942,536.266849
4173.937723,-9400.615463,74.020594,76.609550
4173.938053,-10807.006753,222.061783,-306.438199
4173.938382,-11029.068536,222.061783,153.219100
4173.938712,-9992.780217,-222.061783,0.000000
4173.939042,-8808.450710,-74.020594,153.219100
4173.939371,-8142.265362,-296.082377,153.219100
4173.939701,-9770.718434,0.000000,536.266849
4173.940031,-10140.821405,296.082377,76.609550
4173.940360,-10362.883188,-148.041188,689.485948
4173.940690,-9844.739029,0.000000,1225.752797
4173.941020,-10066.800811,222.061783,2221.676944
4173.941349,-10288.862594,814.226536,2145.067394
4173.941679,-10362.883188,666.185348,995.924147
4173.942009,-9622.677246,222.061783,-459.657299
4173.942338,-9252.574275,74.020594,-153.219100
4173.942668,-9474.636058,592.164754,536.266849
4173.942998,-9770.718434,148.041188,1455.581446
4173.943328,-9696.697840,444.123565,1532.190996
4173.943657,-9844.739029,148.041188,766.095498
4173.943987,-9696.697840,-74.020594,-153.219100
4173.944317,-9474.636058,370.102971,-459.657299
4173.944646,-9474.636058,444.123565,76.609550
4173.944976,-9844.739029,740.205942,229.828649
4173.945306,-9992.780217,1702.473667,153.219100
4173.945635,-9844.739029,1184.329507,0.000000
4173.945965,-10584.944971,1036.288319,-842.705048
4173.946295,-9696.697840,444.123565,-1072.533697
4173.946624,-9696.697840,962.267725,-612.876398
4173.946954,-8808.450710,1184.329507,919.314598
4173.947284,-9696.697840,0.000000,1762.019645
4173.947613,-10214.842000,148.041188,766.095498
4173.947943,-9252.574275,592.164754,-306.438199
4173.948273,-9696.697840,592.164754,-1149.143247
4173.948602,-9770.718434,740.205942,-1378.971896
4173.948932,-9770.718434,1184.329507,-153.219100
4173.949262,-9474.636058,888.247130,306.438199
4173.949591,-9400.615463,1480.411884,0.000000
4173.949921,-10584.944971,592.164754,229.828649
4173.950251,-10584.944971,888.247130,-995.924147
4173.950580,-9548.656652,740.205942,-383.047749
4173.950910,-10066.800811,518.144159,153.219100
4173.951240,-9918.759623,148.041188,-76.609550
4173.951569,-9326.594869,-296.082377,-612.876398
4173.951899,-8068.244768,370.102971,-536.266849
4173.952229,-8290.306550,296.082377,-919.314598
4173.952558,-10584.944971,518.144159,0.000000
4173.952888,-11177.109724,296.082377,1302.362347
4173.953218,-10214.842000,740.205942,766.095498
4173.953547,-9622.677246,222.061783,153.219100
4173.953877,-10066.800811,296.082377,-306.438199
4173.954207,-9844.739029,0.000000,0.000000
4173.954536,-9548.656652,-296.082377,-153.219100
4173.954866,-9548.656652,148.041188,0.000000
4173.955196,-9992.780217,-1036.288319,536.266849
4173.955525,-9326.594869,0.000000,1455.581446
4173.955855,-9252.574275,-296.082377,459.657299
4173.956185,-9178.553681,0.000000,153.219100
4173.956514,-10066.800811,222.061783,229.828649
4173.956844,-11325.150913,-592.164754,995.924147
4173.957174,-10658.965565,-740.205942,612.876398
4173.957503,-9474.636058,-222.061783,76.609550
4173.957833,-10510.924376,-962.267725,459.657299
4173.958163,-10955.047942,-666.185348,766.095498
4173.958492,-10066.800811,-962.267725,536.266849
4173.958822,-8512.368333,-888.247130,0.000000
4173.959152,-8586.388927,-592.164754,306.438199
4173.959481,-9770.718434,-740.205942,1072.533697
4173.959811,-10436.903782,-740.205942,766.095498
4173.960141,-10214.842000,-666.185348,1072.533697
4173.960470,-10066.800811,-1036.288319,1225.752797
4173.960800,-10288.862594,-814.226536,1762.019645
4173.961130,-9474.636058,-888.247130,1302.362347
4173.961459,-9696.697840,-814.226536,1608.800546
4173.961789,-10066.800811,-592.164754,1608.800546
4173.962119,-10955.047942,-1184.329507,1302.362347
4173.962449,-9696.697840,-962.267725,766.095498
4173.962778,-8882.471304,-1258.350101,76.609550
4173.963108,-8734.430116,-1110.308913,612.876398
4173.963438,-9474.636058,-962.267725,1762.019645
4173.963767,-9622.677246,-518.144159,1455.581446
4173.964097,-9992.780217,-148.041188,459.657299
4173.964427,-11251.130318,444.123565,-459.657299
4173.964756,-10288.862594,-740.205942,-229.828649
4173.965086,-9622.677246,0.000000,-153.219100
4173.965416,-9252.574275,666.185348,76.609550
4173.965745,-10214.842000,-296.082377,1149.143247
4173.966075,-10066.800811,-148.041188,306.438199
4173.966405,-9104.533087,-592.164754,-383.047749
4173.966734,-9844.739029,222.061783,-689.485948
4173.967064,-9178.553681,-296.082377,-229.828649
