#time,accel_x,accel_y,accel_z
3988.335243,-10214.842000,0.000000,1072.533697
3988.335573,-10510.924376,0.000000,383.047749
3988.335903,-9992.780217,0.000000,766.095498
3988.336233,-10288.862594,-962.267725,995.924147
3988.336563,-9548.656652,-1776.494261,2298.286494
3988.336893,-7328.038826,-2516.700203,2451.505594
3988.337223,-7105.977043,-1924.535449,2221.676944
3988.337553,-7550.100608,-962.267725,1915.238745
3988.337883,-9992.780217,-592.164754,1225.752797
3988.338213,-10807.006753,592.164754,1608.800546
3988.338543,-11621.233289,1258.350101,2298.286494
3988.338873,-11325.150913,1702.473667,2528.115143
3988.339203,-11399.171507,1110.308913,2451.505594
3988.339533,-10807.006753,740.205942,1149.143247
3988.339863,-10288.862594,444.123565,689.485948
3988.340193,-9844.739029,74.020594,766.095498
3988.340523,-9474.636058,-148.041188,919.314598
3988.340853,-9474.636058,0.000000,612.876398
3988.341184,-8956.491898,296.082377,459.657299
3988.341514,-10362.883188,592.164754,612.876398
3988.341844,-10807.006753,888.247130,842.705048
3988.342174,-10881.027347,296.082377,1915.238745
3988.342504,-10362.883188,444.123565,2451.505594
3988.342834,-9992.780217,222.061783,2451.505594
3988.343164,-9844.739029,74.020594,2834.553343
3988.343494,-8586.388927,-888.247130,3983.696590
3988.343824,-10066.800811,-444.123565,2911.162892
3988.344154,-9844.739029,-814.226536,1302.362347
3988.344484,-9474.636058,-518.144159,1532.190996
3988.344814,-10214.842000,0.000000,2987.772442
3988.345144,-9178.553681,-592.164754,2451.505594
3988.345474,-9696.697840,-592.164754,1225.752797
3988.345804,-9474.636058,-888.247130,-536.266849
3988.346134,-9178.553681,-1776.494261,-1455.581446
3988.346464,-9252.574275,-1406.391290,995.924147
3988.346794,-9400.615463,-2146.597232,4136.915689
3988.347124,-9252.574275,-2146.597232,5975.544884
3988.347454,-9326.594869,-2664.741391,4826.401637
3988.347784,-9474.636058,-2664.741391,3140.991542
3988.348114,-9918.759623,-2664.741391,1991.848295
3988.348444,-10732.986159,-2294.638420,2374.896044
3988.348774,-9844.739029,-1850.514855,1378.971896
3988.349104,-9770.718434,-1110.308913,995.924147
3988.349434,-10066.800811,-1184.329507,612.876398
3988.349764,-10807.006753,-1480.411884,842.705048
3988.350094,-11029.068536,-1480.411884,1762.019645
3988.350424,-10436.903782,-1480.411884,1302.362347
3988.350754,-9844.739029,-2664.741391,1225.752797
3988.351084,-9770.718434,-3478.967927,1915.238745
3988.351414,-9770.718434,-4145.153275,2528.115143
3988.351744,-9696.697840,-4219.173869,5439.278036
3988.352074,-10214.842000,-4293.194464,6128.763984
3988.352404,-10510.924376,-3478.967927,5515.887586
3988.352734,-10584.944971,-2590.720797,3217.601092
3988.353064,-10510.924376,-1924.535449,1225.752797
3988.353394,-10955.047942,-1776.494261,842.705048
3988.353724,-11843.295072,-1406.391290,76.609550
3988.354054,-11251.130318,-2442.679609,306.438199
3988.354385,-9844.739029,-3182.885551,-383.047749
3988.354715,-7994.224174,-4219.173869,-1455.581446
3988.355045,-7179.997637,-4441.235652,-1455.581446
3988.355375,-7254.018232,-4811.338623,-995.924147
3988.355705,-7254.018232,-4811.338623,536.266849
3988.356035,-8142.265362,-4071.132681,3677.258390
3988.356365,-9178.553681,-3034.844362,3677.258390
3988.356695,-10288.862594,-2516.700203,2298.286494
3988.357025,-10658.965565,-1776.494261,-766.095498
3988.357355,-10881.027347,-1998.556043,-2528.115143
3988.357684,-11103.089130,-1924.535449,-1532.190996
3988.358014,-9844.739029,-2368.659014,-153.219100
3988.358344,-8586.388927,-2590.720797,842.705048
3988.358674,-6883.915261,-2516.700203,-229.828649
3988.359003,-7550.100608,-2664.741391,-1838.629195
3988.359333,-9030.512492,-2368.659014,-1608.800546
3988.359663,-10732.986159,-1850.514855,-1149.143247
3988.359993,-10510.924376,-1332.370696,1072.533697
3988.360322,-9992.780217,-296.082377,1991.848295
3988.360652,-10732.986159,370.102971,919.314598
3988.360982,-11547.212695,370.102971,-766.095498
3988.361312,-11917.315666,1110.308913,-1608.800546
3988.361641,-12287.418637,1184.329507,-306.438199
3988.361971,-11029.068536,814.226536,536.266849
3988.362301,-8956.491898,296.082377,1149.143247
3988.362631,-7920.203579,-370.102971,1225.752797
3988.362960,-8882.471304,-666.185348,1149.143247
3988.363290,-9992.780217,-666.185348,76.609550
3988.363620,-9474.636058,-222.061783,-995.924147
3988.363950,-8808.450710,666.185348,-383.047749
3988.364279,-9104.533087,1850.514855,-76.609550
3988.364609,-10214.842000,2664.741391,689.485948
3988.364939,-11399.171507,2738.761985,689.485948
3988.365268,-11325.150913,3034.844362,383.047749
3988.365598,-10881.027347,2590.720797,383.047749
3988.365928,-9992.780217,2220.617826,1915.238745
3988.366258,-9474.636058,1924.535449,1838.629195
3988.366587,-8882.471304,1332.370696,766.095498
3988.366917,-8660.409521,1184.329507,-919.314598
3988.367247,-8142.265362,1628.453072,-1915.238745
3988.367577,-7920.203579,1924.535449,-2068.457845
3988.367906,-8438.347739,2812.782580,-919.314598
3988.368236,-9178.553681,3256.906145,76.609550
3988.368566,-10066.800811,3849.070898,459.657299
3988.368896,-10584.944971,3701.029710,153.219100
3988.369225,-10288.862594,3552.988522,306.438199
3988.369555,-10584.944971,3404.947333,689.485948
3988.369885,-10584.944971,2812.782580,842.705048
3988.370215,-9992.780217,2368.659014,459.657299
3988.370544,-9474.636058,2146.597232,-842.705048
3988.370874,-8734.430116,2294.638420,-2604.724693
3988.371204,-8586.388927,2812.782580,-3217.601092
3988.371534,-8512.368333,2960.823768,-3064.381992
3988.371863,-9326.594869,3108.864956,-2298.286494
3988.372193,-10732.986159,3552.988522,-689.485948
3988.372523,-11399.171507,3478.967927,76.609550
3988.372852,-11103.089130,2516.700203,536.266849
3988.373182,-10732.986159,1480.411884,612.876398
3988.373512,-10807.006753,814.226536,1072.533697
3988.373842,-10881.027347,74.020594,1608.800546
3988.374171,-10066.800811,0.000000,689.485948
3988.374501,-8956.491898,0.000000,-459.657299
3988.374831,-8734.430116,0.000000,-1378.971896
3988.375161,-9178.553681,0.000000,-689.485948
3988.375490,-9770.718434,592.164754,-153.219100
3988.375820,-9770.718434,148.041188,-689.485948
3988.376150,-9770.718434,0.000000,-306.438199
3988.376480,-9474.636058,-1110.308913,76.609550
3988.376809,-9622.677246,-1702.473667,919.314598
3988.377139,-10066.800811,-2590.720797,2451.505594
3988.377469,-10881.027347,-2368.659014,2068.457845
3988.377799,-10140.821405,-2664.741391,1225.752797
3988.378128,-9104.533087,-2368.659014,76.609550
3988.378458,-8734.430116,-2368.659014,-459.657299
3988.378788,-9252.574275,-2072.576638,612.876398
3988.379118,-9474.636058,-1628.453072,1225.752797
3988.379447,-9992.780217,-1554.432478,766.095498
3988.379777,-9474.636058,-1850.514855,459.657299
3988.380107,-9548.656652,-2220.617826,842.705048
3988.380437,-10214.842000,-2664.741391,1608.800546
3988.380766,-11103.089130,-2960.823768,1991.848295
3988.381096,-10140.821405,-2886.803174,1685.410096
3988.381426,-9548.656652,-2738.761985,1072.533697
3988.381755,-8956.491898,-2072.576638,612.876398
3988.382085,-9474.636058,-1702.473667,919.314598
3988.382415,-10732.986159,-1036.288319,1685.410096
3988.382745,-11547.212695,-444.123565,1072.533697
3988.383074,-11029.068536,-444.123565,229.828649
3988.383404,-9918.759623,-1110.308913,76.609550
3988.383734,-9474.636058,-1406.391290,0.000000
3988.384064,-9844.739029,-1554.432478,1072.533697
3988.384393,-10436.903782,-1184.329507,2298.286494
3988.384723,-10658.965565,-1332.370696,1149.143247
3988.385053,-9252.574275,-1110.308913,153.219100
3988.385383,-9030.512492,-444.123565,-766.095498
3988.385712,-9030.512492,-370.102971,-459.657299
3988.386042,-10066.800811,370.102971,612.876398
3988.386372,-10510.924376,518.144159,1149.143247
3988.386702,-9770.718434,518.144159,1532.190996
3988.387031,-9104.533087,148.041188,612.876398
3988.387361,-9104.533087,74.020594,76.609550
3988.387691,-9770.718434,222.061783,383.047749
3988.388021,-10214.842000,74.020594,536.266849
3988.388350,-9770.718434,370.102971,-153.219100
3988.388680,-8216.285956,666.185348,0.000000
3988.389010,-8216.285956,962.267725,-612.876398
3988.389339,-8956.491898,888.247130,76.609550
3988.389669,-9992.780217,1554.432478,0.000000
3988.389999,-9474.636058,1406.391290,-536.266849
3988.390329,-9178.553681,1406.391290,-842.705048
3988.390658,-9326.594869,1332.370696,-306.438199
3988.390988,-9844.739029,1332.370696,459.657299
3988.391318,-10584.944971,1332.370696,1072.533697
3988.391648,-10436.903782,1258.350101,383.047749
3988.391977,-9770.718434,1776.494261,-995.924147
3988.392307,-9326.594869,2072.576638,-1915.238745
3988.392637,-8808.450710,1924.535449,-2221.676944
3988.392967,-9104.533087,2368.659014,-1608.800546
3988.393296,-9770.718434,2072.576638,-919.314598
3988.393626,-10214.842000,2294.638420,-536.266849
3988.393956,-9992.780217,1924.535449,-689.485948
3988.394286,-9178.553681,1406.391290,-536.266849
3988.394615,-10288.862594,1258.350101,0.000000
3988.394945,-10955.047942,1184.329507,383.047749
3988.395275,-11177.109724,1480.411884,0.000000
3988.395605,-10066.800811,1480.411884,-229.828649
3988.395934,-9400.615463,1036.288319,-229.828649
3988.396264,-9548.656652,1258.350101,0.000000
3988.396594,-10140.821405,1258.350101,0.000000
3988.396923,-10214.842000,1406.391290,-383.047749
3988.397253,-9548.656652,962.267725,-383.047749
3988.397583,-8734.430116,296.082377,-536.266849
3988.397913,-9030.512492,148.041188,0.000000
3988.398242,-9474.636058,0.000000,1378.971896
3988.398572,-10510.924376,0.000000,1991.848295
3988.398902,-10584.944971,0.000000,919.314598
3988.399232,-9548.656652,0.000000,-153.219100
3988.399561,-9178.553681,222.061783,-612.876398
3988.399891,-9474.636058,518.144159,153.219100
3988.400221,-10288.862594,74.020594,1225.752797
3988.400551,-10288.862594,296.082377,1762.019645
3988.400880,-9622.677246,-444.123565,459.657299
3988.401210,-9400.615463,-518.144159,0.000000
3988.401540,-9474.636058,-1036.288319,612.876398
3988.401870,-10140.821405,-1110.308913,842.705048
3988.402199,-10066.800811,-962.267725,842.705048
3988.402529,-9696.697840,-814.226536,76.609550
3988.402859,-9104.533087,-888.247130,459.657299
3988.403189,-9548.656652,-518.144159,306.438199
3988.403518,-10362.883188,-370.102971,919.314598
3988.403848,-10881.027347,-296.082377,1149.143247
3988.404178,-10214.842000,-888.247130,383.047749
3988.404508,-9622.677246,-888.247130,0.000000
3988.404837,-9178.553681,-1554.432478,0.000000
3988.405167,-9326.594869,-1480.411884,919.314598
3988.405497,-9992.780217,-1406.391290,1838.629195
3988.405826,-10140.821405,-1184.329507,1378.971896
3988.406156,-9844.739029,-1184.329507,536.266849
3988.406486,-9326.594869,-666.185348,-383.047749
3988.406816,-9622.677246,-592.164754,-1149.143247
3988.407145,-9770.718434,-444.123565,-383.047749
3988.407475,-10510.924376,-370.102971,919.314598
3988.407805,-10140.821405,-592.164754,1072.533697
3988.408135,-8808.450710,-1258.350101,459.657299
3988.408464,-8882.471304,-1184.329507,306.438199
3988.408794,-9548.656652,-1480.411884,459.657299
3988.409124,-10288.862594,-1406.391290,1532.190996
3988.409454,-9992.780217,-1110.308913,1072.533697
3988.409783,-9104.533087,-888.247130,459.657299
3988.410113,-8808.450710,0.000000,459.657299
3988.410443,-9400.615463,-222.061783,306.438199
3988.410773,-10658.965565,148.041188,1455.581446
3988.411102,-10732.986159,148.041188,1225.752797
3988.411432,-9696.697840,0.000000,153.219100
3988.411762,-9178.553681,-296.082377,0.000000
3988.412092,-9326.594869,-518.144159,229.828649
3988.412421,-9844.739029,-666.185348,1149.143247
3988.412751,-10140.821405,-444.123565,1225.752797
3988.413081,-9844.739029,-518.144159,459.657299
3988.413410,-9400.615463,74.020594,-919.314598
3988.413740,-9030.512492,296.082377,-1225.752797
3988.414070,-9696.697840,740.205942,-459.657299
3988.414400,-10288.862594,666.185348,383.047749
3988.414729,-10510.924376,1036.288319,995.924147
3988.415059,-9400.615463,592.164754,459.657299
3988.415389,-9104.533087,444.123565,153.219100
3988.415719,-9326.594869,0.000000,0.000000
3988.416048,-10214.842000,0.000000,-306.438199
3988.416378,-10288.862594,0.000000,-153.219100
3988.416708,-9548.656652,592.164754,-383.047749
3988.417038,-8438.347739,444.123565,-153.219100
3988.417367,-8734.430116,1036.288319,0.000000
3988.417697,-9844.739029,1110.308913,76.609550
3988.418027,-10955.047942,1480.411884,76.609550
3988.418357,-10807.006753,1406.391290,-536.266849
3988.418686,-9918.759623,1036.288319,-76.609550
3988.419016,-9622.677246,592.164754,153.219100
3988.419346,-9622.677246,370.102971,919.314598
3988.419676,-10362.883188,592.164754,1149.143247
3988.420005,-10510.924376,592.164754,0.000000
3988.420335,-9696.697840,1036.288319,-995.924147
3988.420665,-8808.450710,814.226536,-1762.019645
3988.420994,-9326.594869,1110.308913,-1072.533697
3988.421324,-10066.800811,1036.288319,229.828649
3988.421654,-10510.924376,1258.350101,1149.143247
3988.421984,-10288.862594,888.247130,689.485948
3988.422313,-9696.697840,444.123565,0.000000
3988.422643,-9770.718434,74.020594,-459.657299
3988.422973,-9918.759623,0.000000,689.485948
3988.423303,-10807.006753,222.061783,1455.581446
3988.423632,-9844.739029,222.061783,536.266849
3988.423962,-9030.512492,666.185348,0.000000
3988.424292,-8734.430116,592.164754,-689.485948
3988.424622,-9474.636058,592.164754,76.609550
3988.424951,-10510.924376,592.164754,306.438199
3988.425281,-10510.924376,592.164754,459.657299
3988.425611,-9696.697840,592.164754,76.609550
3988.425941,-9326.594869,-148.041188,-76.609550
3988.426270,-9252.574275,-592.164754,306.438199
3988.426600,-9992.780217,-518.144159,1225.752797
3988.426930,-10214.842000,-444.123565,1532.190996
3988.427260,-9622.677246,0.000000,229.828649
3988.427589,-9252.574275,0.000000,-842.705048
3988.427919,-8882.471304,0.000000,-919.314598
3988.428249,-9104.533087,296.082377,229.828649
3988.428578,-10288.862594,-148.041188,1072.533697
3988.428908,-10140.821405,0.000000,919.314598
3988.429238,-9400.615463,-592.164754,383.047749
3988.429568,-9104.533087,-962.267725,-76.609550
3988.429897,-9474.636058,-666.185348,0.000000
3988.430227,-10510.924376,-1110.308913,459.657299
3988.430557,-10584.944971,-740.205942,766.095498
3988.430887,-9548.656652,-222.061783,229.828649
3988.431216,-8808.450710,0.000000,919.314598
3988.431546,-9474.636058,-296.082377,229.828649
3988.431876,-10658.965565,0.000000,1072.533697
3988.432206,-11029.068536,0.000000,1225.752797
3988.432535,-10510.924376,-148.041188,842.705048
3988.432865,-9696.697840,-814.226536,0.000000
3988.433195,-9474.636058,-814.226536,76.609550
3988.433525,-9770.718434,-814.226536,1072.533697
3988.433854,-10436.903782,-1036.288319,1838.629195
3988.434184,-10436.903782,-666.185348,1072.533697
3988.434514,-9474.636058,-518.144159,0.000000
3988.434844,-9252.574275,-296.082377,-689.485948
3988.435173,-9474.636058,-222.061783,0.000000
3988.435503,-10362.883188,0.000000,153.219100
3988.435833,-10510.924376,-296.082377,1225.752797
3988.436163,-9844.739029,-592.164754,995.924147
3988.436492,-9178.553681,-666.185348,383.047749
3988.436822,-9178.553681,-740.205942,-76.609550
3988.437152,-9918.759623,-666.185348,766.095498
3988.437481,-10436.903782,-518.144159,612.876398
3988.437811,-9622.677246,0.000000,76.609550
3988.438141,-8660.409521,444.123565,-612.876398
3988.438471,-8660.409521,444.123565,0.000000
3988.438800,-9474.636058,592.164754,306.438199
3988.439130,-10658.965565,740.205942,459.657299
3988.439460,-10955.047942,740.205942,76.609550
3988.439790,-9770.718434,518.144159,-766.095498
3988.440119,-8956.491898,74.020594,-612.876398
3988.440449,-9030.512492,0.000000,0.000000
3988.440779,-10140.821405,370.102971,1225.752797
3988.441109,-10436.903782,592.164754,1378.971896
3988.441438,-9918.759623,666.185348,153.219100
3988.441768,-9252.574275,962.267725,-766.095498
3988.442098,-9400.615463,962.267725,-1149.143247
3988.442428,-10066.800811,1110.308913,-306.438199
3988.442757,-10732.986159,1036.288319,919.314598
3988.443087,-10436.903782,1332.370696,766.095498
3988.443417,-9622.677246,888.247130,0.000000
3988.443747,-9030.512492,222.061783,-612.876398
3988.444076,-9474.636058,148.041188,-153.219100
3988.444406,-10140.821405,222.061783,383.047749
3988.444736,-10288.862594,814.226536,229.828649
3988.445065,-9104.533087,814.226536,-153.219100
3988.445395,-8660.409521,444.123565,0.000000
3988.445725,-9474.636058,814.226536,0.000000
3988.446055,-10288.862594,962.267725,612.876398
3988.446384,-10732.986159,888.247130,383.047749
3988.446714,-10066.800811,814.226536,-229.828649
3988.447044,-9104.533087,222.061783,-459.657299
3988.447374,-9030.512492,222.061783,0.000000
3988.447703,-9400.615463,222.061783,1072.533697
3988.448033,-9622.677246,0.000000,1302.362347
3988.448363,-9992.780217,370.102971,229.828649
3988.448693,-8956.491898,148.041188,-919.314598
3988.449022,-8734.430116,222.061783,-1455.581446
3988.449352,-9252.574275,296.082377,-919.314598
3988.449682,-10288.862594,444.123565,689.485948
3988.450012,-10658.965565,518.144159,1302.362347
3988.450341,-9992.780217,370.102971,842.705048
3988.450671,-9326.594869,-370.102971,459.657299
3988.451001,-9104.533087,-740.205942,0.000000
3988.451331,-10214.842000,-740.205942,995.924147
3988.451660,-10807.006753,-370.102971,766.095498
3988.451990,-9770.718434,-444.123565,612.876398
3988.452320,-8808.450710,0.000000,-153.219100
3988.452649,-9178.553681,74.020594,383.047749
3988.452979,-10214.842000,148.041188,536.266849
3988.453309,-10732.986159,148.041188,766.095498
3988.453639,-10955.047942,74.020594,153.219100
3988.453968,-9844.739029,0.000000,-306.438199
3988.454298,-9326.594869,-962.267725,-153.219100
3988.454628,-9400.615463,-666.185348,842.705048
3988.454958,-10288.862594,-1036.288319,2221.676944
3988.455287,-10362.883188,-444.123565,1455.581446
3988.455617,-10066.800811,-592.164754,306.438199
3988.455947,-9326.594869,-222.061783,-459.657299
3988.456277,-9474.636058,-296.082377,-383.047749
3988.456606,-9622.677246,148.041188,383.047749
3988.456936,-10584.944971,74.020594,1532.190996
3988.457266,-10436.903782,0.000000,1225.752797
3988.457596,-9474.636058,-296.082377,0.000000
3988.457925,-9030.512492,-444.123565,-1149.143247
3988.458255,-9474.636058,-666.185348,0.000000
3988.458585,-10436.903782,-592.164754,842.705048
3988.458915,-10066.800811,-370.102971,842.705048
3988.459244,-9030.512492,-370.102971,0.000000
3988.459574,-8808.450710,148.041188,-306.438199
3988.459904,-9474.636058,-148.041188,76.609550
3988.460233,-10362.883188,74.020594,459.657299
3988.460563,-10807.006753,296.082377,229.828649
3988.460892,-9918.759623,296.082377,229.828649
3988.461222,-9326.594869,0.000000,-459.657299
3988.461551,-9252.574275,-444.123565,0.000000
3988.461881,-9770.718434,-444.123565,1149.143247
3988.462211,-9622.677246,-296.082377,1378.971896
3988.462540,-9548.656652,0.000000,383.047749
3988.462870,-8956.491898,-222.061783,-612.876398
3988.463199,-8882.471304,74.020594,-1378.971896
3988.463529,-9548.656652,370.102971,-536.266849
3988.463858,-10658.965565,592.164754,689.485948
3988.464188,-10584.944971,370.102971,995.924147
3988.464517,-9918.759623,296.082377,306.438199
3988.464847,-9474.636058,222.061783,76.609550
3988.465177,-9252.574275,-592.164754,153.219100
3988.465506,-10436.903782,0.000000,842.705048
3988.465836,-10436.903782,222.061783,842.705048
3988.466165,-9770.718434,148.041188,76.609550
3988.466495,-9104.533087,370.102971,-995.924147
3988.466824,-9030.512492,518.144159,0.000000
3988.467154,-9770.718434,518.144159,459.657299
3988.467483,-10658.965565,962.267725,612.876398
3988.467813,-10436.903782,592.164754,153.219100
3988.468143,-9474.636058,518.144159,-459.657299
3988.468472,-8882.471304,0.000000,0.000000
3988.468802,-9696.697840,148.041188,842.705048
3988.469131,-10436.903782,222.061783,1608.800546
3988.469461,-10510.924376,148.041188,766.095498
3988.469790,-9548.656652,518.144159,-459.657299
3988.470120,-9030.512492,666.185348,-1608.800546
3988.470450,-9474.636058,1036.288319,-1225.752797
3988.470779,-9918.759623,1184.329507,-612.876398
3988.471109,-10510.924376,1184.329507,536.266849
3988.471438,-10214.842000,888.247130,76.609550
3988.471768,-9622.677246,518.144159,-612.876398
3988.472097,-9400.615463,148.041188,-995.924147
3988.472427,-9770.718434,0.000000,383.047749
3988.472756,-10658.965565,0.000000,689.485948
3988.473086,-9918.759623,0.000000,153.219100
3988.473416,-8956.491898,0.000000,0.000000
3988.473745,-8808.450710,370.102971,459.657299
3988.474075,-9770.718434,370.102971,689.485948
3988.474404,-10658.965565,518.144159,689.485948
3988.474734,-10510.924376,518.144159,0.000000
3988.475063,-9474.636058,814.226536,-383.047749
3988.475393,-8882.471304,0.000000,-459.657299
3988.475722,-8882.471304,-222.061783,0.000000
3988.476052,-9548.656652,0.000000,1302.362347
3988.476382,-9770.718434,0.000000,1532.190996
3988.476711,-10140.821405,0.000000,0.000000
3988.477041,-9400.615463,148.041188,-1149.143247
3988.477370,-9178.553681,148.041188,-1225.752797
3988.477700,-9474.636058,592.164754,76.609550
3988.478029,-10214.842000,444.123565,1149.143247
3988.478359,-10214.842000,518.144159,766.095498
3988.478689,-9622.677246,0.000000,0.000000
3988.479018,-8956.491898,-296.082377,-766.095498
3988.479348,-9474.636058,-222.061783,536.266849
3988.479677,-10436.903782,-740.205942,1302.362347
3988.480007,-10362.883188,-370.102971,1378.971896
3988.480336,-8956.491898,-666.185348,306.438199
3988.480666,-8438.347739,-296.082377,229.828649
3988.480995,-9400.615463,74.020594,153.219100
3988.481325,-10436.903782,444.123565,842.705048
3988.481655,-11029.068536,518.144159,842.705048
3988.481984,-10807.006753,370.102971,229.828649
3988.482314,-9770.718434,222.061783,0.000000
3988.482643,-9400.615463,-444.123565,153.219100
3988.482973,-9548.656652,-444.123565,842.705048
3988.483302,-10214.842000,-740.205942,1302.362347
3988.483632,-9918.759623,-740.205942,1302.362347
3988.483961,-9326.594869,-666.185348,383.047749
3988.484291,-8586.388927,-592.164754,-383.047749
3988.484621,-9400.615463,-444.123565,-536.266849
3988.484950,-10214.842000,740.205942,229.828649
3988.485280,-10658.965565,0.000000,1072.533697
3988.485609,-10066.800811,74.020594,919.314598
3988.485939,-9474.636058,-296.082377,459.657299
3988.486268,-9326.594869,-370.102971,153.219100
3988.486598,-9992.780217,-666.185348,766.095498
3988.486928,-10658.965565,-592.164754,995.924147
3988.487257,-9548.656652,-592.164754,153.219100
3988.487587,-9030.512492,-666.185348,-153.219100
3988.487916,-8882.471304,0.000000,-689.485948
3988.488246,-9770.718434,74.020594,459.657299
3988.488575,-10658.965565,148.041188,689.485948
3988.488905,-10881.027347,74.020594,306.438199
3988.489234,-9992.780217,592.164754,-459.657299
3988.489564,-9400.615463,0.000000,-153.219100
3988.489894,-9622.677246,0.000000,459.657299
3988.490223,-10288.862594,-296.082377,1532.190996
3988.490553,-10362.883188,148.041188,919.314598
3988.490882,-10140.821405,-148.041188,383.047749
3988.491212,-9474.636058,-148.041188,-1225.752797
3988.491541,-8660.409521,0.000000,-1532.190996
3988.491871,-9400.615463,0.000000,-306.438199
3988.492200,-9992.780217,592.164754,766.095498
3988.492530,-10288.862594,814.226536,689.485948
3988.492860,-9474.636058,518.144159,766.095498
3988.493189,-9400.615463,148.041188,-76.609550
3988.493519,-9770.718434,518.144159,-306.438199
3988.493848,-10658.965565,0.000000,842.705048
3988.494178,-10510.924376,0.000000,612.876398
3988.494507,-9178.553681,0.000000,383.047749
3988.494837,-8364.327145,148.041188,-153.219100
3988.495167,-9400.615463,592.164754,-229.828649
3988.495496,-10732.986159,1258.350101,0.000000
3988.495826,-10881.027347,1184.329507,-536.266849
3988.496155,-10584.944971,1184.329507,-1072.533697
3988.496485,-9548.656652,888.247130,-153.219100
3988.496814,-8808.450710,74.020594,459.657299
3988.497144,-9474.636058,0.000000,1225.752797
3988.497473,-10288.862594,-148.041188,1455.581446
3988.497803,-10066.800811,-222.061783,766.095498
3988.498133,-9400.615463,-148.041188,-229.828649
3988.498462,-9178.553681,0.000000,-612.876398
3988.498792,-9474.636058,444.123565,0.000000
3988.499121,-9992.780217,740.205942,229.828649
3988.499451,-10214.842000,666.185348,919.314598
3988.499780,-9622.677246,666.185348,76.609550
3988.500110,-9252.574275,296.082377,0.000000
3988.500439,-9474.636058,222.061783,-766.095498
3988.500769,-9992.780217,296.082377,383.047749
3988.501099,-10362.883188,-148.041188,459.657299
3988.501428,-9622.677246,222.061783,153.219100
3988.501758,-9104.533087,0.000000,-306.438199
3988.502087,-8882.471304,74.020594,-153.219100
3988.502417,-9326.594869,74.020594,76.609550
3988.502746,-10658.965565,666.185348,0.000000
3988.503076,-10584.944971,592.164754,0.000000
3988.503405,-9622.677246,518.144159,-383.047749
3988.503735,-9252.574275,148.041188,76.609550
3988.504065,-9474.636058,-666.185348,612.876398
3988.504394,-10436.903782,-740.205942,2374.896044
3988.504724,-10140.821405,-592.164754,2068.457845
3988.505053,-9622.677246,-370.102971,459.657299
3988.505383,-9326.594869,74.020594,-689.485948
3988.505712,-9474.636058,148.041188,-1072.533697
3988.506042,-9918.759623,296.082377,-689.485948
3988.506372,-10807.006753,592.164754,612.876398
3988.506701,-10362.883188,666.185348,612.876398
3988.507031,-9326.594869,0.000000,153.219100
3988.507360,-9178.553681,-740.205942,-153.219100
3988.507690,-9474.636058,-740.205942,383.047749
3988.508019,-10362.883188,-1184.329507,1378.971896
3988.508349,-10140.821405,-888.247130,1608.800546
3988.508678,-9178.553681,-740.205942,383.047749
3988.509008,-8660.409521,-222.061783,766.095498
3988.509338,-9474.636058,0.000000,153.219100
3988.509667,-10510.924376,222.061783,459.657299
3988.509997,-11029.068536,592.164754,306.438199
3988.510326,-9770.718434,518.144159,0.000000
3988.510656,-9252.574275,0.000000,0.000000
3988.510985,-9104.533087,-296.082377,153.219100
3988.511315,-9696.697840,-740.205942,1072.533697
3988.511644,-10362.883188,-740.205942,1302.362347
3988.511974,-9770.718434,-740.205942,766.095498
3988.512304,-9326.594869,-740.205942,-153.219100
3988.512633,-8882.471304,0.000000,-842.705048
3988.512963,-9030.512492,0.000000,-383.047749
3988.513292,-9844.739029,296.082377,995.924147
3988.513622,-10584.944971,592.164754,612.876398
3988.513951,-10140.821405,666.185348,459.657299
3988.514281,-9178.553681,74.020594,-153.219100
3988.514611,-9030.512492,-148.041188,0.000000
3988.514940,-10214.842000,-222.061783,842.705048
3988.515270,-10288.862594,-444.123565,689.485948
3988.515599,-9622.677246,-148.041188,0.000000
3988.515929,-8882.471304,0.000000,-383.047749
3988.516258,-9030.512492,370.102971,-536.266849
3988.516588,-9696.697840,666.185348,0.000000
3988.516917,-10732.986159,740.205942,153.219100
3988.517247,-10510.924376,1110.308913,-153.219100
3988.517577,-9548.656652,814.226536,-766.095498
3988.517906,-9474.636058,0.000000,229.828649
3988.518236,-9992.780217,0.000000,995.924147
3988.518565,-10807.006753,-296.082377,1838.629195
3988.518895,-10510.924376,-148.041188,842.705048
3988.519224,-9696.697840,-148.041188,306.438199
3988.519554,-9178.553681,0.000000,-842.705048
3988.519883,-9104.533087,222.061783,-1072.533697
3988.520213,-9696.697840,1332.370696,0.000000
3988.520543,-10510.924376,1110.308913,919.314598
3988.520872,-10436.903782,1036.288319,766.095498
3988.521202,-9622.677246,296.082377,0.000000
3988.521531,-9400.615463,0.000000,-383.047749
3988.521861,-9918.759623,-222.061783,459.657299
3988.522190,-10584.944971,-518.144159,1149.143247
3988.522520,-9770.718434,-592.164754,612.876398
3988.522850,-8956.491898,-370.102971,0.000000
3988.523179,-8512.368333,222.061783,76.609550
3988.523509,-9326.594869,370.102971,76.609550
3988.523838,-10436.903782,1110.308913,383.047749
3988.524168,-10436.903782,814.226536,0.000000
3988.524497,-10288.862594,1332.370696,-76.609550
3988.524827,-9548.656652,444.123565,-306.438199
3988.525156,-9252.574275,0.000000,0.000000
3988.525486,-9770.718434,-296.082377,612.876398
3988.525816,-10510.924376,-148.041188,1455.581446
3988.526145,-9844.739029,0.000000,306.438199
3988.526475,-9178.553681,0.000000,-766.095498
3988.526804,-9104.533087,370.102971,-1838.629195
3988.527134,-9770.718434,814.226536,-1072.533697
3988.527463,-11177.109724,1406.391290,76.609550
3988.527793,-10807.006753,962.267725,689.485948
3988.528122,-10140.821405,518.144159,153.219100
3988.528452,-9252.574275,-296.082377,-153.219100
3988.528782,-9474.636058,-444.123565,0.000000
3988.529111,-10510.924376,-592.164754,1072.533697
3988.529441,-10362.883188,-740.205942,1225.752797
3988.529770,-9622.677246,-518.144159,689.485948
3988.530100,-8808.450710,-444.123565,153.219100
3988.530429,-9104.533087,148.041188,-76.609550
3988.530759,-10066.800811,296.082377,76.609550
3988.531089,-10732.986159,592.164754,536.266849
3988.531418,-10584.944971,370.102971,153.219100
3988.531748,-9622.677246,296.082377,-153.219100
3988.532077,-9030.512492,-370.102971,0.000000
3988.532407,-9696.697840,-740.205942,995.924147
3988.532736,-10288.862594,-814.226536,1532.190996
3988.533066,-9992.780217,-296.082377,1225.752797
3988.533395,-9104.533087,-518.144159,-306.438199
3988.533725,-8512.368333,0.000000,-689.485948
3988.534055,-9178.553681,296.082377,-612.876398
3988.534384,-9992.780217,962.267725,76.609550
3988.534714,-10436.903782,592.164754,536.266849
3988.535043,-9844.739029,296.082377,0.000000
3988.535373,-9326.594869,0.000000,76.609550
3988.535702,-9474.636058,-296.082377,0.000000
3988.536032,-9918.759623,-518.144159,842.705048
3988.536361,-10510.924376,-592.164754,1149.143247
3988.536691,-9992.780217,-518.144159,459.657299
3988.537021,-9326.594869,-296.082377,-612.876398
3988.537350,-8734.430116,222.061783,-919.314598
3988.537680,-9622.677246,592.164754,-306.438199
3988.538009,-10658.965565,1110.308913,153.219100
3988.538339,-11029.068536,1184.329507,0.000000
3988.538668,-10066.800811,888.247130,-689.485948
3988.538998,-9474.636058,74.020594,-229.828649
3988.539328,-9474.636058,-148.041188,153.219100
3988.539657,-9918.759623,-740.205942,1685.410096
3988.539987,-10658.965565,-962.267725,1762.019645
3988.540316,-9918.759623,-592.164754,383.047749
3988.540646,-9104.533087,-370.102971,-689.485948
3988.540975,-8882.471304,0.000000,-919.314598
3988.541305,-9252.574275,0.000000,-229.828649
3988.541634,-10140.821405,666.185348,1378.971896
3988.541964,-10584.944971,518.144159,1302.362347
3988.542294,-9770.718434,74.020594,612.876398
3988.542623,-9326.594869,-370.102971,0.000000
3988.542953,-9326.594869,-370.102971,229.828649
3988.543282,-10214.842000,-666.185348,1072.533697
3988.543612,-10066.800811,-592.164754,766.095498
3988.543941,-9104.533087,-296.082377,0.000000
3988.544271,-8512.368333,-222.061783,-842.705048
3988.544600,-8956.491898,370.102971,-153.219100
3988.544930,-10436.903782,666.185348,0.000000
3988.545260,-10584.944971,740.205942,306.438199
3988.545589,-10066.800811,740.205942,-76.609550
3988.545919,-9326.594869,296.082377,-612.876398
3988.546248,-9252.574275,0.000000,306.438199
3988.546578,-9918.759623,-148.041188,1072.533697
3988.546907,-10584.944971,-222.061783,1762.019645
3988.547237,-10362.883188,0.000000,1225.752797
3988.547567,-9548.656652,0.000000,-229.828649
3988.547896,-9252.574275,222.061783,-1072.533697
3988.548226,-9474.636058,666.185348,-1072.533697
3988.548555,-10214.842000,1036.288319,306.438199
3988.548885,-10807.006753,1332.370696,689.485948
3988.549214,-10066.800811,666.185348,153.219100
3988.549544,-9548.656652,592.164754,-229.828649
3988.549873,-9696.697840,0.000000,-689.485948
3988.550203,-10214.842000,-296.082377,0.000000
3988.550533,-10658.965565,-444.123565,689.485948
3988.550862,-9622.677246,-370.102971,536.266849
3988.551192,-8734.430116,-222.061783,153.219100
3988.551521,-8882.471304,518.144159,76.609550
3988.551851,-9474.636058,592.164754,306.438199
3988.552180,-10658.965565,1036.288319,995.924147
3988.552510,-10732.986159,740.205942,536.266849
3988.552839,-10362.883188,666.185348,689.485948
3988.553169,-9252.574275,0.000000,153.219100
3988.553499,-9252.574275,0.000000,459.657299
3988.553828,-9770.718434,-518.144159,1302.362347
3988.554158,-9992.780217,-518.144159,919.314598
3988.554487,-9326.594869,-222.061783,-383.047749
3988.554817,-8882.471304,0.000000,-1072.533697
3988.555146,-9030.512492,370.102971,-1378.971896
3988.555476,-9770.718434,518.144159,76.609550
3988.555806,-10362.883188,444.123565,1149.143247
3988.556135,-10807.006753,666.185348,1302.362347
3988.556465,-9770.718434,0.000000,689.485948
3988.556794,-8956.491898,-444.123565,306.438199
3988.557124,-9548.656652,-296.082377,229.828649
3988.557453,-10584.944971,-888.247130,1532.190996
3988.557783,-10214.842000,-666.185348,459.657299
3988.558112,-9400.615463,-740.205942,0.000000
3988.558442,-8882.471304,0.000000,-612.876398
3988.558772,-9178.553681,148.041188,-536.266849
3988.559101,-10066.800811,518.144159,689.485948
3988.559431,-10436.903782,444.123565,383.047749
3988.559760,-10288.862594,370.102971,0.000000
3988.560090,-9622.677246,74.020594,-689.485948
3988.560420,-9474.636058,-370.102971,76.609550
3988.560749,-9770.718434,-740.205942,1532.190996
3988.561079,-10510.924376,-888.247130,1762.019645
3988.561408,-10732.986159,-148.041188,1762.019645
3988.561738,-9030.512492,-370.102971,153.219100
3988.562067,-8512.368333,0.000000,-1072.533697
3988.562397,-9400.615463,148.041188,-536.266849
3988.562727,-10510.924376,444.123565,612.876398
3988.563056,-10881.027347,518.144159,612.876398
3988.563386,-10214.842000,296.082377,229.828649
3988.563715,-9326.594869,-222.061783,0.000000
3988.564045,-9178.553681,-814.226536,-689.485948
3988.564375,-9770.718434,-962.267725,766.095498
3988.564704,-10214.842000,-888.247130,689.485948
3988.565034,-9696.697840,-444.123565,153.219100
3988.565363,-8808.450710,-74.020594,0.000000
3988.565693,-8660.409521,148.041188,-306.438199
3988.566023,-9696.697840,518.144159,459.657299
3988.566352,-11029.068536,592.164754,1072.533697
3988.566682,-10955.047942,444.123565,229.828649
3988.567011,-9992.780217,0.000000,0.000000
3988.567341,-9400.615463,0.000000,0.000000
3988.567670,-9474.636058,-518.144159,383.047749
3988.568000,-10362.883188,-592.164754,1455.581446
3988.568330,-10362.883188,-444.123565,995.924147
3988.568659,-9770.718434,74.020594,-229.828649
3988.568989,-8734.430116,222.061783,-995.924147
3988.569318,-9030.512492,518.144159,-1225.752797
3988.569648,-9918.759623,962.267725,0.000000
3988.569978,-10807.006753,888.247130,1302.362347
3988.570307,-10436.903782,592.164754,995.924147
3988.570637,-9474.636058,444.123565,76.609550
3988.570966,-9178.553681,-222.061783,-383.047749
3988.571296,-9770.718434,-222.061783,842.705048
3988.571626,-9696.697840,-1036.288319,995.924147
3988.571955,-9696.697840,0.000000,689.485948
3988.572285,-8808.450710,74.020594,153.219100
3988.572614,-8512.368333,370.102971,0.000000
3988.572944,-9400.615463,592.164754,153.219100
3988.573273,-10288.862594,1036.288319,306.438199
3988.573603,-10955.047942,962.267725,76.609550
3988.573933,-10362.883188,518.144159,-306.438199
3988.574262,-9030.512492,0.000000,-383.047749
3988.574592,-8808.450710,-592.164754,306.438199
3988.574921,-9400.615463,-296.082377,1225.752797
3988.575251,-10140.821405,-370.102971,1302.362347
3988.575581,-10140.821405,222.061783,612.876398
3988.575910,-9326.594869,296.082377,-842.705048
3988.576240,-9104.533087,666.185348,-1225.752797
3988.576569,-9844.739029,888.247130,-153.219100
3988.576899,-10881.027347,814.226536,1378.971896
3988.577229,-10881.027347,1036.288319,919.314598
3988.577558,-9918.759623,518.144159,153.219100
3988.577888,-8956.491898,-148.041188,-306.438199
3988.578217,-9474.636058,-296.082377,-153.219100
3988.578547,-10288.862594,-370.102971,1149.143247
3988.578876,-10732.986159,-518.144159,1149.143247
3988.579206,-9992.780217,74.020594,536.266849
3988.579536,-8734.430116,0.000000,0.000000
3988.579865,-8734.430116,0.000000,229.828649
3988.580195,-9918.759623,444.123565,383.047749
3988.580524,-10955.047942,592.164754,995.924147
3988.580854,-10732.986159,370.102971,306.438199
3988.581184,-9844.739029,-222.061783,459.657299
3988.581513,-9474.636058,-518.144159,76.609550
3988.581843,-9400.615463,-814.226536,459.657299
3988.582172,-10140.821405,-814.226536,1608.800546
3988.582502,-9844.739029,-444.123565,1302.362347
3988.582832,-8808.450710,-370.102971,0.000000
3988.583161,-8586.388927,0.000000,-1072.533697
3988.583491,-9178.553681,148.041188,-995.924147
3988.583820,-10214.842000,518.144159,-306.438199
3988.584150,-10584.944971,370.102971,536.266849
3988.584479,-10288.862594,222.061783,919.314598
3988.584809,-9400.615463,-518.144159,459.657299
3988.585139,-8882.471304,-1110.308913,-306.438199
3988.585468,-9400.615463,-1110.308913,459.657299
3988.585798,-9918.759623,-814.226536,612.876398
3988.586127,-9696.697840,-444.123565,229.828649
3988.586457,-9104.533087,0.000000,-153.219100
3988.586787,-9030.512492,0.000000,306.438199
3988.587116,-9770.718434,444.123565,229.828649
3988.587446,-10658.965565,518.144159,76.609550
3988.587775,-10881.027347,296.082377,229.828649
3988.588105,-9918.759623,0.000000,-229.828649
3988.588435,-9104.533087,-296.082377,-153.219100
3988.588764,-9104.533087,-592.164754,459.657299
3988.589094,-10066.800811,-592.164754,1378.971896
3988.589423,-10510.924376,-370.102971,1685.410096
3988.589753,-10510.924376,0.000000,1149.143247
3988.590082,-9474.636058,0.000000,-919.314598
3988.590412,-9178.553681,74.020594,-1302.362347
3988.590742,-9770.718434,222.061783,0.000000
3988.591071,-10584.944971,0.000000,2145.067394
3988.591401,-10140.821405,0.000000,1685.410096
3988.591730,-9548.656652,-296.082377,612.876398
3988.592060,-9252.574275,-814.226536,-229.828649
3988.592390,-9474.636058,-888.247130,383.047749
3988.592719,-10066.800811,-962.267725,1149.143247
3988.593049,-9992.780217,-592.164754,1149.143247
3988.593378,-9178.553681,0.000000,153.219100
3988.593708,-8882.471304,0.000000,0.000000
3988.594038,-9400.615463,0.000000,-306.438199
3988.594367,-9918.759623,740.205942,229.828649
3988.594697,-10732.986159,518.144159,612.876398
3988.595026,-10214.842000,296.082377,76.609550
3988.595356,-9326.594869,-296.082377,0.000000
3988.595685,-9030.512492,-370.102971,0.000000
3988.596015,-9770.718434,-370.102971,383.047749
3988.596345,-10881.027347,-222.061783,1378.971896
3988.596674,-10584.944971,0.000000,459.657299
3988.597004,-9918.759623,296.082377,-459.657299
3988.597333,-9252.574275,518.144159,-1302.362347
3988.597663,-9326.594869,518.144159,-919.314598
3988.597993,-10510.924376,666.185348,0.000000
3988.598322,-10807.006753,740.205942,459.657299
3988.598652,-10510.924376,518.144159,383.047749
3988.598981,-9474.636058,296.082377,0.000000
3988.599311,-9474.636058,-370.102971,0.000000
3988.599641,-10066.800811,0.000000,1072.533697
3988.599970,-10436.903782,-222.061783,842.705048
3988.600300,-10066.800811,370.102971,229.828649
3988.600629,-9178.553681,74.020594,76.609550
3988.600959,-9030.512492,666.185348,0.000000
3988.601288,-9696.697840,962.267725,459.657299
3988.601618,-10955.047942,888.247130,536.266849
3988.601948,-10955.047942,666.185348,306.438199
3988.602277,-9844.739029,518.144159,-842.705048
3988.602607,-9178.553681,74.020594,-383.047749
3988.602936,-9252.574275,0.000000,0.000000
3988.603266,-9992.780217,0.000000,1532.190996
3988.603596,-10214.842000,0.000000,995.924147
3988.603925,-9326.594869,222.061783,-306.438199
3988.604255,-8660.409521,-148.041188,-1149.143247
3988.604584,-8586.388927,518.144159,-1225.752797
3988.604914,-9622.677246,518.144159,229.828649
3988.605244,-10214.842000,1110.308913,1608.800546
3988.605573,-10658.965565,814.226536,1072.533697
3988.605903,-9770.718434,296.082377,0.000000
3988.606232,-8956.491898,-444.123565,-612.876398
3988.606562,-9696.697840,-74.020594,229.828649
3988.606891,-10584.944971,-74.020594,995.924147
3988.607221,-10066.800811,0.000000,995.924147
3988.607551,-9104.533087,74.020594,0.000000
3988.607880,-8808.450710,592.164754,-153.219100
3988.608210,-9326.594869,370.102971,-306.438199
3988.608539,-10510.924376,592.164754,766.095498
3988.608869,-10955.047942,296.082377,842.705048
3988.609199,-10584.944971,74.020594,306.438199
3988.609528,-9474.636058,-148.041188,1225.752797
3988.609858,-9104.533087,-814.226536,689.485948
3988.610187,-9696.697840,-222.061783,1149.143247
3988.610517,-10955.047942,-296.082377,1455.581446
3988.610847,-10362.883188,74.020594,536.266849
3988.611176,-9474.636058,0.000000,-766.095498
3988.611506,-8808.450710,0.000000,-612.876398
3988.611835,-9622.677246,0.000000,0.000000
3988.612165,-10436.903782,-74.020594,842.705048
3988.612494,-10214.842000,-296.082377,612.876398
3988.612824,-9696.697840,-518.144159,536.266849
3988.613154,-9104.533087,-888.247130,76.609550
3988.613483,-9400.615463,-1110.308913,76.609550
3988.613813,-9622.677246,-1184.329507,995.924147
3988.614142,-10214.842000,-888.247130,1149.143247
3988.614472,-9474.636058,-296.082377,306.438199
3988.614802,-8882.471304,-444.123565,0.000000
3988.615131,-8882.471304,-222.061783,306.438199
3988.615461,-9770.718434,0.000000,689.485948
3988.615790,-10955.047942,148.041188,1072.533697
3988.616120,-10807.006753,0.000000,153.219100
3988.616450,-9770.718434,0.000000,-612.876398
3988.616779,-9030.512492,-518.144159,-766.095498
3988.617109,-9252.574275,-444.123565,0.000000
3988.617438,-10362.883188,-518.144159,1149.143247
3988.617768,-10436.903782,-148.041188,766.095498
3988.618097,-9992.780217,0.000000,0.000000
3988.618427,-9252.574275,0.000000,-766.095498
3988.618757,-9474.636058,296.082377,-689.485948
3988.619086,-10214.842000,518.144159,383.047749
3988.619416,-11029.068536,222.061783,1378.971896
3988.619745,-10140.821405,0.000000,1149.143247
3988.620075,-9178.553681,-148.041188,229.828649
3988.620405,-9104.533087,-222.061783,-76.609550
3988.620734,-9474.636058,222.061783,306.438199
3988.621064,-10658.965565,296.082377,842.705048
3988.621393,-10214.842000,444.123565,536.266849
3988.621723,-9400.615463,370.102971,-459.657299
3988.622053,-8956.491898,888.247130,-383.047749
3988.622382,-9992.780217,666.185348,-612.876398
3988.622712,-10732.986159,1036.288319,383.047749
3988.623041,-10732.986159,962.267725,306.438199
3988.623371,-10436.903782,1110.308913,-536.266849
3988.623700,-9030.512492,740.205942,-383.047749
3988.624030,-8956.491898,296.082377,0.000000
3988.624360,-9548.656652,296.082377,1149.143247
3988.624689,-10362.883188,148.041188,1378.971896
3988.625019,-10288.862594,888.247130,766.095498
3988.625348,-9252.574275,148.041188,-306.438199
3988.625678,-9030.512492,518.144159,-1072.533697
3988.626008,-9844.739029,740.205942,-536.266849
3988.626337,-10658.965565,962.267725,76.609550
3988.626667,-10140.821405,592.164754,766.095498
3988.626996,-9474.636058,592.164754,0.000000
3988.627326,-8956.491898,296.082377,-459.657299
3988.627656,-9104.533087,-222.061783,-383.047749
3988.627985,-9844.739029,-296.082377,612.876398
3988.628315,-10288.862594,0.000000,612.876398
3988.628644,-9696.697840,0.000000,-153.219100
3988.628974,-8882.471304,296.082377,-229.828649
3988.629303,-9104.533087,0.000000,842.705048
3988.629633,-9918.759623,518.144159,306.438199
3988.629963,-11029.068536,444.123565,383.047749
3988.630292,-10732.986159,666.185348,153.219100
3988.630622,-9696.697840,74.020594,-536.266849
3988.630951,-8882.471304,0.000000,-612.876398
3988.631281,-9474.636058,-444.123565,0.000000
3988.631611,-10140.821405,-148.041188,1608.800546
3988.631940,-10436.903782,-444.123565,919.314598
3988.632270,-10140.821405,-444.123565,0.000000
3988.632599,-9178.553681,-444.123565,-1072.533697
3988.632929,-9474.636058,0.000000,-459.657299
3988.633259,-10214.842000,0.000000,689.485948
3988.633588,-10510.924376,-148.041188,2145.067394
3988.633918,-10436.903782,0.000000,1532.190996
3988.634247,-9622.677246,-518.144159,459.657299
3988.634577,-9474.636058,-888.247130,0.000000
3988.634906,-9844.739029,-1036.288319,1455.581446
3988.635236,-10510.924376,-962.267725,1149.143247
3988.635566,-9918.759623,-666.185348,1072.533697
3988.635895,-8882.471304,-740.205942,76.609550
3988.636225,-8660.409521,0.000000,-459.657299
3988.636554,-9178.553681,-370.102971,306.438199
3988.636884,-10362.883188,296.082377,689.485948
3988.637214,-10732.986159,0.000000,766.095498
3988.637543,-10288.862594,148.041188,153.219100
3988.637873,-9326.594869,-518.144159,229.828649
3988.638202,-9178.553681,-740.205942,0.000000
3988.638532,-9696.697840,-370.102971,1302.362347
3988.638862,-10436.903782,-148.041188,1378.971896
3988.639191,-9918.759623,0.000000,1149.143247
3988.639521,-9178.553681,-222.061783,-459.657299
3988.639850,-9178.553681,148.041188,-995.924147
3988.640180,-9548.656652,222.061783,-153.219100
3988.640509,-10732.986159,518.144159,536.266849
3988.640839,-10214.842000,592.164754,766.095498
3988.641169,-9622.677246,296.082377,383.047749
3988.641498,-9104.533087,-148.041188,-306.438199
3988.641828,-9696.697840,-296.082377,-229.828649
3988.642157,-9992.780217,0.000000,1072.533697
3988.642487,-10214.842000,-148.041188,689.485948
3988.642817,-9400.615463,0.000000,76.609550
3988.643146,-9030.512492,0.000000,-229.828649
3988.643476,-8882.471304,370.102971,536.266849
3988.643805,-10066.800811,296.082377,842.705048
3988.644135,-10881.027347,444.123565,919.314598
3988.644465,-10658.965565,518.144159,0.000000
3988.644794,-9622.677246,222.061783,-459.657299
3988.645124,-8956.491898,-296.082377,-383.047749
3988.645453,-9252.574275,0.000000,689.485948
3988.645783,-10436.903782,0.000000,1455.581446
3988.646112,-10288.862594,0.000000,1149.143247
3988.646442,-9474.636058,0.000000,0.000000
3988.646772,-8734.430116,296.082377,-766.095498
3988.647101,-9474.636058,444.123565,-766.095498
3988.647431,-9992.780217,518.144159,0.000000
3988.647760,-10732.986159,740.205942,919.314598
3988.648090,-10436.903782,666.185348,842.705048
3988.648420,-9548.656652,0.000000,229.828649
3988.648749,-9178.553681,0.000000,0.000000
3988.649079,-9770.718434,0.000000,459.657299
3988.649408,-10584.944971,0.000000,1225.752797
3988.649738,-9844.739029,148.041188,689.485948
3988.650068,-9030.512492,0.000000,-229.828649
3988.650397,-8586.388927,148.041188,-229.828649
3988.650727,-9844.739029,740.205942,153.219100
3988.651056,-10510.924376,592.164754,229.828649
3988.651386,-10807.006753,962.267725,153.219100
3988.651715,-9918.759623,814.226536,0.000000
3988.652045,-9326.594869,222.061783,306.438199
3988.652375,-9252.574275,0.000000,612.876398
3988.652704,-10510.924376,74.020594,1072.533697
3988.653034,-10658.965565,0.000000,1378.971896
3988.653363,-9918.759623,74.020594,766.095498
3988.653693,-9030.512492,148.041188,-919.314598
3988.654023,-8882.471304,296.082377,-1225.752797
3988.654352,-9400.615463,370.102971,-612.876398
3988.654682,-10214.842000,814.226536,612.876398
3988.655011,-10807.006753,666.185348,842.705048
3988.655341,-9548.656652,370.102971,0.000000
3988.655671,-8808.450710,0.000000,-536.266849
3988.656000,-9474.636058,-222.061783,-229.828649
3988.656330,-10288.862594,0.000000,842.705048
3988.656659,-10436.903782,-74.020594,995.924147
3988.656989,-9474.636058,-518.144159,0.000000
3988.657318,-8956.491898,-74.020594,-229.828649
3988.657648,-8956.491898,0.000000,-229.828649
3988.657978,-10066.800811,518.144159,536.266849
3988.658308,-10881.027347,740.205942,842.705048
3988.658637,-10510.924376,666.185348,153.219100
3988.658967,-9918.759623,148.041188,-229.828649
3988.659297,-9622.677246,0.000000,0.000000
3988.659627,-9622.677246,-592.164754,536.266849
3988.659956,-10362.883188,-666.185348,1072.533697
3988.660286,-9622.677246,-666.185348,919.314598
3988.660616,-9326.594869,-370.102971,0.000000
3988.660945,-8586.388927,-444.123565,-766.095498
3988.661275,-9030.512492,0.000000,0.000000
3988.661605,-10510.924376,444.123565,459.657299
3988.661935,-10732.986159,518.144159,919.314598
3988.662264,-9992.780217,148.041188,536.266849
3988.662594,-9400.615463,-296.082377,76.609550
3988.662924,-9474.636058,-666.185348,153.219100
3988.663253,-9770.718434,-666.185348,1149.143247
3988.663583,-10288.862594,-888.247130,919.314598
3988.663913,-9548.656652,-888.247130,306.438199
3988.664243,-8882.471304,-666.185348,0.000000
3988.664572,-8734.430116,-296.082377,0.000000
3988.664902,-9474.636058,0.000000,459.657299
3988.665232,-10436.903782,296.082377,1072.533697
3988.665562,-10807.006753,222.061783,995.924147
3988.665891,-10140.821405,296.082377,153.219100
3988.666221,-9326.594869,0.000000,0.000000
3988.666551,-9400.615463,-296.082377,306.438199
3988.666880,-10214.842000,-518.144159,1685.410096
3988.667210,-10510.924376,-148.041188,1915.238745
3988.667540,-9918.759623,-296.082377,1072.533697
3988.667870,-9178.553681,0.000000,-766.095498
3988.668199,-9252.574275,444.123565,-1149.143247
3988.668529,-9918.759623,666.185348,-612.876398
3988.668859,-10584.944971,740.205942,383.047749
3988.669188,-10658.965565,740.205942,612.876398
3988.669518,-9918.759623,518.144159,0.000000
3988.669848,-9252.574275,74.020594,-536.266849
3988.670178,-9844.739029,148.041188,76.609550
3988.670507,-10955.047942,-222.061783,1149.143247
3988.670837,-10955.047942,-296.082377,919.314598
3988.671167,-9622.677246,-296.082377,229.828649
3988.671497,-8586.388927,0.000000,0.000000
3988.671826,-9104.533087,0.000000,766.095498
3988.672156,-9918.759623,518.144159,689.485948
3988.672486,-11029.068536,1036.288319,536.266849
3988.672815,-10140.821405,888.247130,-229.828649
3988.673145,-9474.636058,296.082377,-919.314598
3988.673475,-9178.553681,0.000000,-766.095498
3988.673805,-9400.615463,74.020594,919.314598
3988.674134,-10362.883188,-296.082377,1149.143247
3988.674464,-9770.718434,0.000000,612.876398
3988.674794,-9178.553681,0.000000,-612.876398
3988.675123,-8512.368333,0.000000,-842.705048
3988.675453,-9326.594869,296.082377,-306.438199
3988.675783,-10214.842000,666.185348,306.438199
3988.676113,-10066.800811,1258.350101,536.266849
3988.676442,-9474.636058,518.144159,459.657299
3988.676772,-9104.533087,222.061783,0.000000
3988.677102,-9474.636058,222.061783,0.000000
3988.677432,-10140.821405,0.000000,919.314598
3988.677761,-10510.924376,0.000000,766.095498
3988.678091,-9770.718434,0.000000,229.828649
3988.678421,-9030.512492,0.000000,-536.266849
3988.678750,-9104.533087,74.020594,-766.095498
3988.679080,-9770.718434,518.144159,-306.438199
3988.679410,-10510.924376,814.226536,-459.657299
3988.679740,-10658.965565,888.247130,0.000000
3988.680069,-9918.759623,962.267725,0.000000
3988.680399,-9252.574275,74.020594,0.000000
3988.680729,-9622.677246,296.082377,76.609550
3988.681058,-10807.006753,-222.061783,2221.676944
3988.681388,-10658.965565,-518.144159,1838.629195
3988.681718,-10066.800811,-444.123565,536.266849
3988.682048,-8956.491898,0.000000,-766.095498
3988.682377,-9252.574275,0.000000,-1072.533697
3988.682707,-9770.718434,296.082377,0.000000
3988.683037,-10288.862594,592.164754,536.266849
3988.683367,-10288.862594,1110.308913,76.609550
3988.683696,-9474.636058,444.123565,0.000000
3988.684026,-9474.636058,-222.061783,-229.828649
3988.684356,-9770.718434,-518.144159,306.438199
3988.684685,-10658.965565,-666.185348,919.314598
3988.685015,-10288.862594,-888.247130,689.485948
3988.685345,-9252.574275,-1110.308913,0.000000
3988.685675,-8512.368333,-814.226536,76.609550
3988.686004,-9030.512492,-222.061783,0.000000
3988.686334,-10732.986159,814.226536,842.705048
3988.686664,-11029.068536,444.123565,1149.143247
3988.686993,-10436.903782,666.185348,459.657299
3988.687323,-9696.697840,-370.102971,229.828649
3988.687653,-9326.594869,-444.123565,459.657299
3988.687983,-9992.780217,-740.205942,1302.362347
3988.688312,-10584.944971,-1036.288319,1378.971896
3988.688642,-10066.800811,-888.247130,536.266849
3988.688972,-9326.594869,-888.247130,-689.485948
3988.689302,-8512.368333,-370.102971,-612.876398
3988.689631,-9252.574275,0.000000,-536.266849
3988.689961,-10436.903782,666.185348,383.047749
3988.690291,-10732.986159,740.205942,1149.143247
3988.690620,-9326.594869,370.102971,689.485948
3988.690950,-9104.533087,0.000000,153.219100
3988.691280,-9326.594869,-222.061783,0.000000
3988.691610,-9992.780217,-518.144159,919.314598
3988.691939,-10436.903782,-814.226536,612.876398
3988.692269,-9326.594869,-444.123565,0.000000
3988.692599,-8586.388927,-370.102971,-689.485948
3988.692928,-8882.471304,592.164754,-536.266849
3988.693258,-9474.636058,740.205942,0.000000
3988.693588,-10584.944971,1332.370696,383.047749
3988.693918,-11029.068536,1184.329507,0.000000
3988.694247,-9844.739029,888.247130,-536.266849
3988.694577,-9326.594869,0.000000,-306.438199
3988.694907,-9252.574275,-74.020594,1532.190996
3988.695237,-10584.944971,-666.185348,2374.896044
3988.695566,-10436.903782,-740.205942,1838.629195
3988.695896,-9548.656652,-518.144159,153.219100
3988.696226,-8956.491898,-444.123565,-919.314598
3988.696555,-9400.615463,518.144159,-1225.752797
3988.696885,-9622.677246,592.164754,0.000000
3988.697215,-10436.903782,1110.308913,766.095498
3988.697545,-10436.903782,962.267725,919.314598
3988.697874,-9696.697840,666.185348,383.047749
3988.698204,-9548.656652,0.000000,-76.609550
3988.698534,-10140.821405,-74.020594,153.219100
3988.698863,-10955.047942,-296.082377,919.314598
3988.699193,-10214.842000,0.000000,229.828649
3988.699523,-8660.409521,-444.123565,-76.609550
3988.699853,-8512.368333,370.102971,-229.828649
3988.700182,-9104.533087,592.164754,0.000000
3988.700512,-10214.842000,1258.350101,-306.438199
3988.700842,-10807.006753,1110.308913,383.047749
3988.701172,-10140.821405,814.226536,459.657299
3988.701501,-9548.656652,296.082377,0.000000
3988.701831,-9474.636058,-222.061783,536.266849
3988.702161,-9992.780217,-370.102971,1072.533697
3988.702490,-10436.903782,-518.144159,1455.581446
3988.702820,-9992.780217,-296.082377,153.219100
3988.703150,-9178.553681,-148.041188,-689.485948
3988.703480,-8808.450710,518.144159,-1302.362347
3988.703809,-9770.718434,666.185348,-612.876398
3988.704139,-10510.924376,962.267725,0.000000
3988.704469,-10955.047942,1184.329507,306.438199
3988.704798,-9844.739029,1036.288319,-842.705048
3988.705128,-9326.594869,74.020594,-383.047749
3988.705458,-9474.636058,-148.041188,76.609550
3988.705788,-10436.903782,-666.185348,536.266849
3988.706117,-10658.965565,-592.164754,1072.533697
3988.706447,-9474.636058,-814.226536,-153.219100
3988.706777,-8660.409521,-370.102971,-459.657299
3988.707107,-8882.471304,74.020594,-536.266849
3988.707436,-9844.739029,592.164754,612.876398
3988.707766,-10510.924376,666.185348,995.924147
3988.708096,-10658.965565,1036.288319,536.266849
3988.708425,-9844.739029,444.123565,-229.828649
3988.708755,-9400.615463,0.000000,-306.438199
3988.709085,-9326.594869,-296.082377,1149.143247
3988.709415,-10362.883188,-962.267725,1455.581446
3988.709744,-9918.759623,-888.247130,1225.752797
3988.710074,-8956.491898,-592.164754,-76.609550
3988.710404,-8290.306550,-148.041188,-1302.362347
3988.710733,-8808.450710,0.000000,-995.924147
3988.711063,-10066.800811,222.061783,0.000000
3988.711393,-10584.944971,592.164754,1378.971896
3988.711723,-10658.965565,592.164754,1225.752797
3988.712052,-9474.636058,-148.041188,229.828649
3988.712382,-9400.615463,-666.185348,229.828649
3988.712712,-9992.780217,-888.247130,842.705048
3988.713042,-10288.862594,-1480.411884,1378.971896
3988.713371,-9400.615463,-888.247130,306.438199
3988.713701,-8660.409521,-1036.288319,-76.609550
3988.714031,-8586.388927,0.000000,0.000000
3988.714360,-9326.594869,148.041188,306.438199
3988.714690,-10140.821405,740.205942,383.047749
3988.715020,-10510.924376,814.226536,0.000000
3988.715350,-10140.821405,814.226536,-459.657299
3988.715679,-9400.615463,0.000000,-306.438199
3988.716009,-9696.697840,-148.041188,383.047749
3988.716339,-10214.842000,-592.164754,1149.143247
3988.716668,-10732.986159,-370.102971,1608.800546
3988.716998,-10066.800811,-296.082377,383.047749
3988.717328,-9474.636058,0.000000,-919.314598
3988.717658,-9030.512492,444.123565,-1532.190996
3988.717987,-9696.697840,518.144159,-229.828649
3988.718317,-10658.965565,1110.308913,995.924147
3988.718647,-10881.027347,1110.308913,842.705048
3988.718977,-9622.677246,370.102971,306.438199
3988.719306,-9400.615463,-296.082377,-153.219100
3988.719636,-9548.656652,-518.144159,0.000000
3988.719966,-10362.883188,-962.267725,612.876398
3988.720295,-10214.842000,-814.226536,689.485948
3988.720625,-9178.553681,0.000000,612.876398
3988.720955,-8586.388927,74.020594,0.000000
3988.721285,-9030.512492,444.123565,-689.485948
3988.721614,-9770.718434,592.164754,-306.438199
3988.721944,-10881.027347,1332.370696,383.047749
3988.722274,-10732.986159,1184.329507,0.000000
3988.722603,-9548.656652,148.041188,-306.438199
3988.722933,-9104.533087,-148.041188,0.000000
3988.723263,-9178.553681,-222.061783,689.485948
3988.723593,-10066.800811,-740.205942,1455.581446
3988.723922,-9918.759623,-518.144159,1225.752797
3988.724252,-9178.553681,0.000000,0.000000
3988.724582,-9104.533087,444.123565,-1072.533697
3988.724912,-9252.574275,1036.288319,-1302.362347
3988.725241,-10288.862594,888.247130,153.219100
3988.725571,-10955.047942,1110.308913,766.095498
3988.725901,-10584.944971,1036.288319,612.876398
3988.726230,-9474.636058,296.082377,0.000000
3988.726560,-8882.471304,0.000000,-153.219100
3988.726890,-9400.615463,-296.082377,153.219100
3988.727220,-10140.821405,-444.123565,612.876398
3988.727549,-9918.759623,222.061783,229.828649
3988.727879,-9474.636058,148.041188,-766.095498
3988.728209,-8956.491898,888.247130,-536.266849
3988.728538,-10066.800811,814.226536,-306.438199
3988.728868,-10955.047942,1036.288319,76.609550
3988.729198,-10955.047942,1258.350101,-612.876398
3988.729528,-10362.883188,814.226536,0.000000
3988.729857,-9474.636058,-296.082377,153.219100
3988.730187,-9548.656652,-518.144159,842.705048
3988.730517,-10214.842000,-592.164754,1685.410096
3988.730847,-10436.903782,-888.247130,1685.410096
3988.731176,-9844.739029,-888.247130,919.314598
3988.731506,-9252.574275,-222.061783,-306.438199
3988.731836,-8882.471304,0.000000,-612.876398
3988.732165,-9400.615463,296.082377,-76.609550
3988.732495,-10658.965565,740.205942,1149.143247
3988.732825,-10436.903782,592.164754,995.924147
3988.733155,-9622.677246,148.041188,229.828649
3988.733484,-8660.409521,-444.123565,-306.438199
3988.733814,-9252.574275,-740.205942,383.047749
3988.734144,-10510.924376,-888.247130,1072.533697
3988.734473,-10214.842000,-888.247130,689.485948
3988.734803,-8882.471304,0.000000,-612.876398
3988.735133,-8438.347739,-296.082377,-306.438199
3988.735463,-9252.574275,148.041188,-229.828649
3988.735792,-10214.842000,518.144159,306.438199
3988.736122,-10955.047942,370.102971,766.095498
3988.736452,-11029.068536,296.082377,229.828649
3988.736782,-9918.759623,-370.102971,306.438199
3988.737111,-9326.594869,-666.185348,766.095498
3988.737441,-9474.636058,-888.247130,1149.143247
3988.737771,-10436.903782,-740.205942,2068.457845
3988.738100,-10362.883188,-518.144159,842.705048
3988.738430,-9474.636058,-370.102971,-306.438199
3988.738760,-9104.533087,74.020594,-1225.752797
3988.739090,-9178.553681,370.102971,-766.095498
3988.739419,-10140.821405,666.185348,153.219100
3988.739749,-10807.006753,740.205942,1378.971896
3988.740079,-10288.862594,222.061783,536.266849
3988.740408,-9548.656652,-592.164754,229.828649
3988.740738,-9400.615463,-814.226536,0.000000
3988.741068,-9770.718434,-740.205942,919.314598
3988.741398,-10362.883188,-740.205942,1378.971896
3988.741727,-9696.697840,-592.164754,153.219100
3988.742057,-8808.450710,-296.082377,-383.047749
3988.742387,-8512.368333,74.020594,-306.438199
3988.742717,-9622.677246,888.247130,0.000000
3988.743046,-10807.006753,592.164754,766.095498
3988.743376,-10881.027347,814.226536,0.000000
3988.743706,-9548.656652,444.123565,-153.219100
3988.744035,-8660.409521,-148.041188,0.000000
3988.744365,-9104.533087,0.000000,459.657299
3988.744695,-10214.842000,-296.082377,1378.971896
3988.745025,-10584.944971,0.000000,1149.143247
3988.745354,-9474.636058,74.020594,0.000000
3988.745684,-9030.512492,888.247130,-995.924147
3988.746014,-9104.533087,888.247130,-1455.581446
3988.746343,-9992.780217,1036.288319,-153.219100
3988.746673,-10955.047942,1184.329507,1149.143247
3988.747003,-10658.965565,814.226536,689.485948
3988.747333,-9992.780217,518.144159,383.047749
3988.747662,-9178.553681,296.082377,-229.828649
3988.747992,-9474.636058,-148.041188,229.828649
3988.748322,-10658.965565,-148.041188,689.485948
3988.748652,-10066.800811,-370.102971,689.485948
3988.748981,-8956.491898,74.020594,-612.876398
3988.749311,-8808.450710,222.061783,-306.438199
3988.749641,-9030.512492,592.164754,-229.828649
3988.749970,-10584.944971,1036.288319,0.000000
3988.750300,-11029.068536,1036.288319,459.657299
3988.750630,-10658.965565,1036.288319,229.828649
3988.750960,-9696.697840,444.123565,76.609550
3988.751289,-9400.615463,-148.041188,0.000000
3988.751619,-9622.677246,-444.123565,1072.533697
3988.751949,-10066.800811,-592.164754,1532.190996
3988.752278,-10140.821405,0.000000,383.047749
3988.752608,-9474.636058,0.000000,-612.876398
3988.752938,-8882.471304,444.123565,-1225.752797
3988.753268,-9178.553681,814.226536,-995.924147
3988.753597,-10214.842000,814.226536,306.438199
3988.753927,-10658.965565,740.205942,766.095498
3988.754257,-9992.780217,666.185348,459.657299
3988.754587,-9400.615463,-222.061783,-766.095498
3988.754916,-9326.594869,-222.061783,0.000000
3988.755246,-10214.842000,-740.205942,612.876398
3988.755576,-10214.842000,-740.205942,766.095498
3988.755905,-9400.615463,-666.185348,153.219100
3988.756235,-8512.368333,0.000000,-612.876398
3988.756565,-8808.450710,444.123565,-306.438199
3988.756895,-9918.759623,222.061783,536.266849
3988.757224,-10584.944971,1110.308913,153.219100
3988.757554,-10732.986159,592.164754,0.000000
3988.757884,-10140.821405,296.082377,-306.438199
3988.758214,-9178.553681,-444.123565,0.000000
3988.758543,-9474.636058,-740.205942,1302.362347
3988.758873,-10214.842000,-814.226536,2374.896044
3988.759203,-10584.944971,-518.144159,1762.019645
3988.759532,-9400.615463,-740.205942,229.828649
3988.759863,-8882.471304,0.000000,-919.314598
3988.760193,-9104.533087,0.000000,-919.314598
3988.760522,-9918.759623,370.102971,0.000000
3988.760852,-10807.006753,370.102971,1225.752797
3988.761182,-10658.965565,296.082377,919.314598
3988.761512,-9474.636058,-592.164754,229.828649
3988.761841,-9104.533087,-1258.350101,-689.485948
3988.762171,-9696.697840,-888.247130,536.266849
3988.762501,-10288.862594,-888.247130,1072.533697
3988.762831,-9844.739029,-666.185348,1072.533697
3988.763160,-8734.430116,-666.185348,-306.438199
3988.763490,-8364.327145,0.000000,-153.219100
3988.763820,-9104.533087,0.000000,-306.438199
3988.764149,-10436.903782,370.102971,536.266849
3988.764479,-11103.089130,296.082377,919.314598
3988.764809,-10288.862594,296.082377,612.876398
3988.765139,-9474.636058,-518.144159,306.438199
3988.765468,-9178.553681,-592.164754,153.219100
3988.765798,-9770.718434,-814.226536,1149.143247
3988.766128,-10510.924376,-370.102971,1378.971896
3988.766458,-10214.842000,-222.061783,612.876398
3988.766787,-9178.553681,0.000000,-229.828649
3988.767117,-9104.533087,444.123565,-995.924147
3988.767447,-9622.677246,666.185348,-995.924147
3988.767777,-10732.986159,666.185348,689.485948
3988.768106,-10881.027347,592.164754,689.485948
3988.768436,-9696.697840,0.000000,229.828649
3988.768766,-9178.553681,-222.061783,-1149.143247
3988.769096,-9400.615463,-222.061783,0.000000
3988.769425,-10510.924376,-518.144159,1072.533697
3988.769755,-10288.862594,-148.041188,612.876398
3988.770085,-9548.656652,148.041188,0.000000
3988.770415,-9104.533087,370.102971,-459.657299
3988.770744,-9104.533087,518.144159,-612.876398
3988.771074,-9918.759623,666.185348,0.000000
3988.771404,-10881.027347,1110.308913,459.657299
3988.771734,-10584.944971,1110.308913,76.609550
3988.772063,-9622.677246,74.020594,-766.095498
3988.772393,-8956.491898,-74.020594,-766.095498
3988.772723,-9252.574275,0.000000,919.314598
3988.773053,-9992.780217,-222.061783,1608.800546
3988.773382,-10658.965565,0.000000,1378.971896
3988.773712,-9696.697840,222.061783,0.000000
3988.774042,-9104.533087,148.041188,-1149.143247
3988.774371,-9178.553681,444.123565,-842.705048
3988.774701,-10066.800811,888.247130,383.047749
3988.775031,-10658.965565,740.205942,1532.190996
3988.775361,-10214.842000,444.123565,1072.533697
3988.775690,-9178.553681,0.000000,-306.438199
3988.776020,-8882.471304,-296.082377,-306.438199
3988.776350,-9918.759623,-444.123565,306.438199
3988.776680,-10362.883188,-222.061783,919.314598
3988.777009,-9548.656652,0.000000,766.095498
3988.777339,-8438.347739,222.061783,229.828649
3988.777669,-8438.347739,148.041188,-536.266849
3988.777999,-9696.697840,370.102971,-306.438199
3988.778328,-10881.027347,518.144159,766.095498
3988.778658,-11029.068536,740.205942,766.095498
3988.778988,-10214.842000,518.144159,459.657299
3988.779318,-9252.574275,0.000000,76.609550
3988.779647,-9030.512492,-296.082377,459.657299
3988.779977,-10066.800811,-370.102971,1072.533697
3988.780307,-10510.924376,0.000000,689.485948
3988.780637,-10214.842000,74.020594,153.219100
3988.780966,-8882.471304,0.000000,-612.876398
3988.781296,-8882.471304,296.082377,-1072.533697
3988.781626,-9770.718434,444.123565,-76.609550
3988.781956,-10658.965565,296.082377,1149.143247
3988.782285,-10510.924376,444.123565,766.095498
3988.782615,-9622.677246,0.000000,536.266849
3988.782945,-8808.450710,-370.102971,-153.219100
3988.783275,-9474.636058,-444.123565,153.219100
3988.783604,-10510.924376,-518.144159,1378.971896
3988.783934,-10362.883188,-370.102971,612.876398
3988.784264,-9622.677246,-296.082377,-153.219100
3988.784594,-8660.409521,0.000000,-689.485948
3988.784923,-9104.533087,0.000000,-229.828649
3988.785253,-10362.883188,222.061783,536.266849
3988.785583,-11029.068536,370.102971,306.438199
3988.785912,-10288.862594,814.226536,-306.438199
3988.786242,-9326.594869,0.000000,-766.095498
3988.786572,-9326.594869,-296.082377,-383.047749
3988.786902,-9474.636058,-296.082377,612.876398
3988.787231,-10436.903782,-74.020594,1455.581446
3988.787561,-10436.903782,-296.082377,842.705048
3988.787891,-9622.677246,-444.123565,-536.266849
3988.788221,-9030.512492,148.041188,-1378.971896
3988.788550,-9104.533087,148.041188,-459.657299
3988.788880,-10214.842000,592.164754,766.095498
3988.789210,-10807.006753,518.144159,1455.581446
3988.789540,-10288.862594,0.000000,919.314598
3988.789869,-9326.594869,-370.102971,0.000000
3988.790199,-8956.491898,-370.102971,-995.924147
3988.790529,-10066.800811,-444.123565,459.657299
3988.790859,-10510.924376,-370.102971,919.314598
3988.791188,-9918.759623,74.020594,229.828649
3988.791518,-8882.471304,222.061783,-689.485948
3988.791848,-8734.430116,222.061783,-459.657299
3988.792178,-9696.697840,814.226536,383.047749
3988.792507,-10881.027347,518.144159,919.314598
3988.792837,-10807.006753,962.267725,153.219100
3988.793167,-9696.697840,296.082377,-383.047749
3988.793497,-8586.388927,-444.123565,-306.438199
3988.793826,-8882.471304,-296.082377,0.000000
3988.794156,-9918.759623,-518.144159,1149.143247
3988.794486,-10436.903782,-148.041188,1608.800546
3988.794816,-9918.759623,0.000000,459.657299
3988.795145,-9030.512492,0.000000,-459.657299
3988.795475,-8956.491898,222.061783,-536.266849
3988.795805,-9918.759623,888.247130,-689.485948
3988.796134,-11103.089130,740.205942,1225.752797
3988.796464,-10436.903782,814.226536,919.314598
3988.796794,-9474.636058,222.061783,153.219100
3988.797124,-9030.512492,296.082377,-612.876398
3988.797453,-9622.677246,0.000000,306.438199
3988.797783,-10510.924376,-370.102971,612.876398
3988.798113,-10140.821405,74.020594,229.828649
3988.798443,-9474.636058,-222.061783,-153.219100
3988.798772,-8660.409521,222.061783,0.000000
3988.799102,-9252.574275,296.082377,153.219100
3988.799432,-10510.924376,592.164754,459.657299
3988.799762,-10955.047942,740.205942,229.828649
3988.800091,-10214.842000,666.185348,-383.047749
3988.800421,-9474.636058,0.000000,-612.876398
3988.800751,-8882.471304,0.000000,0.000000
3988.801081,-9474.636058,-148.041188,995.924147
3988.801410,-9992.780217,-518.144159,1608.800546
3988.801740,-10362.883188,0.000000,689.485948
3988.802070,-9548.656652,0.000000,-229.828649
3988.802400,-9252.574275,296.082377,-1225.752797
3988.802729,-9696.697840,0.000000,-306.438199
3988.803059,-10584.944971,370.102971,1072.533697
3988.803389,-10362.883188,148.041188,1149.143247
3988.803719,-9918.759623,0.000000,766.095498
3988.804048,-9326.594869,-296.082377,0.000000
3988.804378,-8956.491898,-518.144159,76.609550
3988.804708,-10140.821405,-370.102971,995.924147
3988.805038,-10658.965565,-296.082377,1072.533697
3988.805367,-9622.677246,-222.061783,229.828649
3988.805697,-8660.409521,0.000000,0.000000
3988.806027,-8660.409521,222.061783,-995.924147
3988.806356,-9474.636058,296.082377,0.000000
3988.806686,-10955.047942,740.205942,306.438199
3988.807016,-10807.006753,666.185348,0.000000
3988.807346,-9696.697840,74.020594,-153.219100
3988.807675,-8808.450710,-370.102971,76.609550
3988.808005,-9030.512492,-148.041188,459.657299
3988.808335,-10214.842000,-148.041188,1685.410096
3988.808665,-10658.965565,0.000000,1225.752797
3988.808994,-9622.677246,0.000000,76.609550
3988.809324,-9030.512492,74.020594,-689.485948
3988.809654,-9474.636058,296.082377,-689.485948
3988.809984,-9844.739029,296.082377,76.609550
3988.810313,-10658.965565,518.144159,766.095498
3988.810643,-10436.903782,518.144159,306.438199
3988.810973,-9548.656652,444.123565,0.000000
3988.811303,-8956.491898,296.082377,-1378.971896
3988.811632,-9548.656652,148.041188,459.657299
3988.811962,-10955.047942,-148.041188,842.705048
3988.812292,-10732.986159,0.000000,383.047749
3988.812622,-9474.636058,-370.102971,0.000000
3988.812951,-9030.512492,222.061783,0.000000
3988.813281,-9400.615463,0.000000,306.438199
3988.813611,-10140.821405,74.020594,1072.533697
3988.813941,-10510.924376,296.082377,919.314598
3988.814270,-9696.697840,370.102971,229.828649
3988.814600,-9474.636058,0.000000,-153.219100
3988.814930,-9252.574275,0.000000,0.000000
3988.815260,-9918.759623,-444.123565,919.314598
3988.815589,-10362.883188,0.000000,1378.971896
3988.815919,-10066.800811,-666.185348,612.876398
3988.816249,-8660.409521,-518.144159,-689.485948
3988.816579,-8142.265362,-222.061783,-1225.752797
3988.816908,-8882.471304,74.020594,-612.876398
3988.817238,-10214.842000,0.000000,689.485948
3988.817568,-10658.965565,592.164754,919.314598
3988.817897,-9844.739029,370.102971,459.657299
3988.818227,-9474.636058,148.041188,153.219100
3988.818557,-9400.615463,-370.102971,0.000000
3988.818887,-10288.862594,-592.164754,995.924147
3988.819216,-10066.800811,-296.082377,612.876398
3988.819546,-9400.615463,0.000000,-153.219100
3988.819876,-8364.327145,296.082377,-919.314598
3988.820206,-9252.574275,370.102971,-306.438199
3988.820535,-9844.739029,518.144159,229.828649
3988.820865,-10807.006753,666.185348,306.438199
3988.821195,-10807.006753,1036.288319,0.000000
3988.821525,-9548.656652,74.020594,-842.705048
3988.821854,-8882.471304,0.000000,-612.876398
3988.822184,-9474.636058,148.041188,536.266849
3988.822514,-10732.986159,-148.041188,1685.410096
3988.822844,-11251.130318,0.000000,1685.410096
3988.823173,-9844.739029,-296.082377,383.047749
3988.823503,-9252.574275,-370.102971,-306.438199
3988.823833,-9178.553681,74.020594,-383.047749
3988.824163,-9474.636058,0.000000,995.924147
3988.824492,-10362.883188,518.144159,1225.752797
3988.824822,-10066.800811,518.144159,536.266849
3988.825152,-9252.574275,74.020594,0.000000
3988.825482,-9252.574275,-148.041188,0.000000
3988.825811,-9474.636058,-444.123565,229.828649
3988.826141,-10436.903782,-370.102971,766.095498
3988.826471,-9992.780217,-222.061783,459.657299
3988.826801,-8956.491898,-444.123565,76.609550
3988.827130,-8660.409521,0.000000,-76.609550
3988.827460,-9178.553681,370.102971,0.000000
3988.827790,-10362.883188,296.082377,766.095498
3988.828119,-10584.944971,666.185348,229.828649
3988.828449,-9844.739029,592.164754,-306.438199
3988.828779,-9252.574275,222.061783,-995.924147
3988.829109,-9252.574275,0.000000,0.000000
3988.829438,-10214.842000,-222.061783,1302.362347
3988.829768,-10732.986159,0.000000,1991.848295
3988.830098,-9918.759623,222.061783,842.705048
3988.830428,-9178.553681,222.061783,-383.047749
3988.830757,-9252.574275,444.123565,-842.705048
3988.831087,-9696.697840,962.267725,-459.657299
3988.831417,-10955.047942,1036.288319,612.876398
3988.831747,-11029.068536,888.247130,1149.143247
3988.832076,-9548.656652,296.082377,459.657299
3988.832406,-8882.471304,0.000000,-689.485948
3988.832736,-9474.636058,0.000000,76.609550
3988.833066,-10436.903782,-444.123565,842.705048
3988.833395,-10584.944971,-222.061783,536.266849
3988.833725,-9548.656652,-296.082377,229.828649
3988.834055,-8956.491898,296.082377,-1072.533697
3988.834385,-9400.615463,296.082377,0.000000
3988.834714,-10214.842000,370.102971,229.828649
3988.835044,-10807.006753,666.185348,383.047749
3988.835374,-10066.800811,814.226536,0.000000
3988.835704,-9030.512492,0.000000,-766.095498
3988.836033,-8586.388927,-444.123565,-612.876398
3988.836363,-9178.553681,-444.123565,612.876398
3988.836693,-10288.862594,-592.164754,1838.629195
3988.837023,-10214.842000,-444.123565,766.095498
3988.837352,-9326.594869,-666.185348,0.000000
3988.837682,-8734.430116,-518.144159,-536.266849
3988.838012,-9252.574275,0.000000,-459.657299
3988.838341,-9918.759623,296.082377,919.314598
3988.838671,-10436.903782,296.082377,1455.581446
3988.839001,-10214.842000,666.185348,842.705048
3988.839331,-9104.533087,0.000000,-76.609550
3988.839660,-9326.594869,296.082377,-689.485948
3988.839990,-10362.883188,-444.123565,459.657299
3988.840320,-10955.047942,-296.082377,1378.971896
3988.840650,-9770.718434,-444.123565,76.609550
3988.840979,-9030.512492,-518.144159,0.000000
3988.841309,-8808.450710,148.041188,-229.828649
3988.841639,-9474.636058,74.020594,0.000000
3988.841969,-10584.944971,518.144159,689.485948
3988.842298,-10807.006753,666.185348,76.609550
3988.842628,-10214.842000,370.102971,-76.609550
3988.842958,-9104.533087,74.020594,-612.876398
3988.843288,-9474.636058,0.000000,459.657299
3988.843617,-10140.821405,-592.164754,1532.190996
3988.843947,-10362.883188,-444.123565,1455.581446
3988.844277,-9844.739029,-444.123565,766.095498
3988.844607,-9252.574275,-296.082377,-306.438199
3988.844936,-9178.553681,0.000000,-536.266849
3988.845266,-9770.718434,444.123565,536.266849
3988.845596,-10658.965565,296.082377,842.705048
3988.845926,-10436.903782,814.226536,766.095498
3988.846255,-9474.636058,296.082377,153.219100
3988.846585,-8882.471304,-74.020594,-153.219100
3988.846915,-9400.615463,-370.102971,153.219100
3988.847245,-10362.883188,-740.205942,919.314598
3988.847574,-10436.903782,-518.144159,766.095498
3988.847904,-9326.594869,-296.082377,0.000000
3988.848234,-8660.409521,-148.041188,-229.828649
3988.848564,-9030.512492,74.020594,383.047749
3988.848893,-10214.842000,518.144159,459.657299
3988.849223,-10732.986159,888.247130,612.876398
3988.849553,-10214.842000,666.185348,0.000000
3988.849882,-9326.594869,-74.020594,-153.219100
3988.850212,-9030.512492,0.000000,-383.047749
3988.850542,-9252.574275,-518.144159,919.314598
3988.850872,-10362.883188,-666.185348,1225.752797
3988.851201,-9918.759623,-444.123565,766.095498
3988.851531,-8808.450710,-592.164754,-766.095498
3988.851861,-8290.306550,0.000000,-1532.190996
3988.852191,-9400.615463,370.102971,-1149.143247
3988.852520,-10807.006753,962.267725,306.438199
3988.852850,-10881.027347,740.205942,766.095498
3988.853180,-10066.800811,962.267725,306.438199
3988.853510,-9326.594869,222.061783,-306.438199
3988.853839,-9474.636058,0.000000,-76.609550
3988.854169,-10066.800811,-444.123565,459.657299
3988.854499,-10436.903782,-444.123565,689.485948
3988.854829,-9918.759623,0.000000,0.000000
3988.855158,-9104.533087,0.000000,-306.438199
3988.855488,-9104.533087,444.123565,-766.095498
3988.855818,-9844.739029,814.226536,0.000000
3988.856148,-10584.944971,962.267725,76.609550
3988.856477,-10732.986159,1036.288319,383.047749
3988.856807,-10214.842000,592.164754,-153.219100
3988.857137,-9030.512492,148.041188,-229.828649
3988.857467,-9548.656652,-296.082377,1072.533697
3988.857796,-10362.883188,-592.164754,2068.457845
3988.858126,-10214.842000,-518.144159,1838.629195
3988.858456,-9104.533087,-518.144159,459.657299
3988.858786,-9030.512492,-370.102971,-612.876398
3988.859115,-9104.533087,148.041188,-766.095498
3988.859445,-10140.821405,444.123565,-306.438199
3988.859775,-10436.903782,666.185348,919.314598
3988.860104,-10584.944971,888.247130,766.095498
3988.860434,-9696.697840,370.102971,0.000000
3988.860764,-9252.574275,-370.102971,306.438199
3988.861094,-9696.697840,-296.082377,459.657299
3988.861423,-10584.944971,-1184.329507,1378.971896
3988.861753,-10436.903782,-444.123565,995.924147
3988.862083,-9326.594869,-1036.288319,153.219100
3988.862413,-8882.471304,-222.061783,-306.438199
3988.862743,-8956.491898,-148.041188,-153.219100
3988.863073,-10140.821405,296.082377,229.828649
3988.863402,-10584.944971,592.164754,76.609550
3988.863732,-10362.883188,888.247130,-229.828649
3988.864062,-9474.636058,222.061783,76.609550
3988.864392,-9178.553681,-370.102971,0.000000
3988.864722,-9770.718434,-370.102971,1225.752797
3988.865052,-10140.821405,-888.247130,1455.581446
3988.865382,-9770.718434,-740.205942,612.876398
3988.865711,-9178.553681,-814.226536,-689.485948
3988.866041,-8660.409521,-148.041188,-766.095498
3988.866371,-9326.594869,222.061783,-612.876398
3988.866701,-10510.924376,666.185348,229.828649
3988.867031,-10881.027347,814.226536,1302.362347
3988.867361,-10288.862594,888.247130,229.828649
3988.867691,-9474.636058,74.020594,-306.438199
3988.868020,-9548.656652,-370.102971,0.000000
3988.868350,-10066.800811,-444.123565,1608.800546
3988.868680,-10436.903782,-814.226536,1455.581446
3988.869010,-9548.656652,-370.102971,459.657299
3988.869340,-8808.450710,-370.102971,-306.438199
3988.869670,-9030.512492,74.020594,-842.705048
3988.870000,-10140.821405,592.164754,-306.438199
3988.870329,-10732.986159,740.205942,995.924147
3988.870659,-10881.027347,888.247130,612.876398
3988.870989,-9548.656652,592.164754,0.000000
3988.871319,-9474.636058,370.102971,-306.438199
3988.871649,-9548.656652,0.000000,612.876398
3988.871979,-10288.862594,-740.205942,1532.190996
3988.872308,-10066.800811,-740.205942,1378.971896
3988.872638,-9400.615463,0.000000,612.876398
3988.872968,-8956.491898,74.020594,-612.876398
3988.873298,-8660.409521,444.123565,-919.314598
3988.873628,-9844.739029,962.267725,-536.266849
3988.873958,-10510.924376,1406.391290,383.047749
3988.874288,-10584.944971,1628.453072,306.438199
3988.874617,-9844.739029,962.267725,0.000000
3988.874947,-9548.656652,74.020594,153.219100
3988.875277,-9696.697840,0.000000,689.485948
3988.875607,-10362.883188,-370.102971,459.657299
3988.875937,-10066.800811,-296.082377,0.000000
3988.876267,-9178.553681,-296.082377,-689.485948
3988.876597,-8660.409521,444.123565,-229.828649
3988.876926,-9326.594869,518.144159,383.047749
3988.877256,-10362.883188,1036.288319,689.485948
3988.877586,-10881.027347,1110.308913,612.876398
3988.877916,-10658.965565,1110.308913,0.000000
3988.878246,-9622.677246,74.020594,229.828649
3988.878576,-9622.677246,0.000000,383.047749
3988.878906,-9770.718434,-370.102971,1302.362347
3988.879235,-10288.862594,-740.205942,1455.581446
3988.879565,-9844.739029,-296.082377,919.314598
3988.879895,-9104.533087,-296.082377,-383.047749
3988.880225,-9030.512492,0.000000,-1532.190996
3988.880555,-9474.636058,296.082377,-766.095498
3988.880885,-10436.903782,740.205942,689.485948
3988.881214,-11325.150913,888.247130,1072.533697
3988.881544,-9770.718434,296.082377,842.705048
3988.881874,-9326.594869,0.000000,-383.047749
3988.882204,-9696.697840,-148.041188,153.219100
3988.882534,-10658.965565,-962.267725,1378.971896
3988.882864,-10658.965565,-666.185348,1072.533697
3988.883194,-9252.574275,-444.123565,76.609550
3988.883523,-8512.368333,-592.164754,-842.705048
3988.883853,-8734.430116,74.020594,-612.876398
3988.884183,-9548.656652,0.000000,0.000000
3988.884513,-10436.903782,666.185348,306.438199
3988.884843,-10658.965565,740.205942,0.000000
3988.885173,-9474.636058,222.061783,0.000000
3988.885503,-9178.553681,0.000000,0.000000
3988.885832,-9622.677246,-518.144159,919.314598
3988.886162,-10584.944971,-1184.329507,1991.848295
3988.886492,-10807.006753,-814.226536,1378.971896
3988.886822,-9696.697840,-888.247130,76.609550
3988.887152,-8808.450710,-74.020594,-1072.533697
3988.887482,-8956.491898,222.061783,-1072.533697
3988.887812,-9992.780217,592.164754,383.047749
3988.888141,-10584.944971,370.102971,919.314598
3988.888471,-10362.883188,962.267725,766.095498
3988.888801,-9844.739029,296.082377,76.609550
3988.889131,-9770.718434,-74.020594,0.000000
3988.889461,-10066.800811,-888.247130,689.485948
3988.889791,-10584.944971,-1110.308913,1149.143247
3988.890121,-9918.759623,-888.247130,459.657299
3988.890450,-9104.533087,-962.267725,229.828649
3988.890780,-8290.306550,-222.061783,-229.828649
3988.891110,-9030.512492,0.000000,306.438199
3988.891440,-10510.924376,740.205942,612.876398
3988.891770,-11103.089130,888.247130,689.485948
3988.892100,-10066.800811,592.164754,153.219100
3988.892429,-9252.574275,-296.082377,76.609550
3988.892759,-9474.636058,-592.164754,383.047749
3988.893089,-10140.821405,-1184.329507,1455.581446
3988.893419,-10214.842000,-1702.473667,1532.190996
3988.893749,-9474.636058,-888.247130,383.047749
3988.894079,-8438.347739,-666.185348,-689.485948
3988.894409,-8290.306550,0.000000,-1455.581446
3988.894738,-9622.677246,518.144159,-229.828649
3988.895068,-11029.068536,1036.288319,1072.533697
3988.895398,-10732.986159,1184.329507,995.924147
3988.895728,-9992.780217,370.102971,306.438199
3988.896058,-9400.615463,0.000000,-306.438199
3988.896388,-9400.615463,0.000000,-306.438199
3988.896718,-9992.780217,-962.267725,1072.533697
3988.897047,-9918.759623,-222.061783,536.266849
3988.897377,-9030.512492,-74.020594,-383.047749
3988.897707,-8364.327145,74.020594,-612.876398
3988.898037,-8808.450710,592.164754,-766.095498
3988.898367,-10288.862594,1184.329507,0.000000
3988.898697,-11251.130318,1406.391290,0.000000
3988.899027,-10807.006753,1406.391290,0.000000
3988.899356,-10066.800811,814.226536,0.000000
3988.899686,-9400.615463,0.000000,459.657299
3988.900016,-9992.780217,0.000000,1149.143247
3988.900346,-10584.944971,-518.144159,1302.362347
3988.900676,-10362.883188,-296.082377,842.705048
3988.901006,-9474.636058,-296.082377,0.000000
3988.901335,-8882.471304,296.082377,-766.095498
3988.901665,-8808.450710,296.082377,-612.876398
3988.901995,-9918.759623,592.164754,0.000000
3988.902325,-10955.047942,1332.370696,842.705048
3988.902655,-10140.821405,814.226536,689.485948
3988.902985,-9474.636058,222.061783,153.219100
3988.903315,-9474.636058,-148.041188,229.828649
3988.903644,-10066.800811,-518.144159,1302.362347
3988.903974,-10362.883188,-666.185348,1532.190996
3988.904304,-9474.636058,-296.082377,612.876398
3988.904634,-8586.388927,-296.082377,-612.876398
3988.904964,-8290.306550,148.041188,-766.095498
3988.905294,-9326.594869,740.205942,-306.438199
3988.905624,-10732.986159,1110.308913,306.438199
3988.905953,-10955.047942,1258.350101,0.000000
3988.906283,-10288.862594,814.226536,-383.047749
3988.906613,-9400.615463,0.000000,-842.705048
3988.906943,-9474.636058,-296.082377,0.000000
3988.907273,-10214.842000,-740.205942,1455.581446
3988.907603,-10584.944971,-370.102971,1762.019645
3988.907933,-9918.759623,-222.061783,229.828649
3988.908262,-9326.594869,-222.061783,-689.485948
3988.908592,-8734.430116,0.000000,-1225.752797
3988.908922,-9622.677246,370.102971,0.000000
3988.909252,-10584.944971,740.205942,1302.362347
3988.909582,-10732.986159,296.082377,1455.581446
3988.909912,-9844.739029,74.020594,1149.143247
3988.910242,-9400.615463,-370.102971,229.828649
3988.910571,-9696.697840,-814.226536,612.876398
3988.910901,-10732.986159,-1332.370696,1149.143247
3988.911231,-10436.903782,-666.185348,1072.533697
3988.911561,-9030.512492,-666.185348,0.000000
3988.911891,-8364.327145,-222.061783,-153.219100
3988.912221,-9104.533087,148.041188,-536.266849
3988.912550,-9992.780217,444.123565,153.219100
3988.912880,-10807.006753,888.247130,383.047749
3988.913210,-10584.944971,666.185348,0.000000
3988.913540,-9548.656652,0.000000,-612.876398
3988.913870,-8734.430116,-666.185348,-383.047749
3988.914200,-9326.594869,-1036.288319,689.485948
3988.914530,-10066.800811,-814.226536,1455.581446
3988.914859,-9992.780217,-444.123565,842.705048
3988.915189,-8882.471304,-962.267725,-459.657299
3988.915519,-8586.388927,0.000000,-995.924147
3988.915849,-9326.594869,370.102971,-766.095498
3988.916179,-10288.862594,592.164754,536.266849
3988.916509,-10807.006753,888.247130,995.924147
3988.916839,-10436.903782,666.185348,536.266849
3988.917168,-9400.615463,0.000000,0.000000
3988.917498,-9326.594869,-444.123565,76.609550
3988.917828,-9992.780217,-888.247130,1072.533697
3988.918158,-10362.883188,-444.123565,1455.581446
3988.918488,-9918.759623,-148.041188,0.000000
3988.918818,-8882.471304,0.000000,-842.705048
3988.919148,-8882.471304,370.102971,-689.485948
3988.919477,-9918.759623,666.185348,0.000000
3988.919807,-11029.068536,814.226536,766.095498
3988.920137,-11325.150913,962.267725,536.266849
3988.920467,-9992.780217,0.000000,0.000000
3988.920797,-8956.491898,222.061783,-459.657299
3988.921127,-9474.636058,-296.082377,689.485948
3988.921457,-10362.883188,-740.205942,1455.581446
3988.921786,-10362.883188,-814.226536,1378.971896
3988.922116,-9474.636058,-444.123565,-229.828649
3988.922446,-8586.388927,0.000000,-919.314598
3988.922776,-8512.368333,222.061783,-919.314598
3988.923106,-9400.615463,592.164754,-306.438199
3988.923436,-10584.944971,444.123565,1149.143247
3988.923765,-10807.006753,740.205942,1072.533697
3988.924095,-9474.636058,74.020594,153.219100
3988.924425,-9252.574275,-592.164754,0.000000
3988.924755,-9622.677246,-444.123565,842.705048
3988.925085,-10362.883188,-592.164754,689.485948
3988.925415,-10584.944971,-74.020594,612.876398
3988.925745,-9104.533087,-148.041188,-229.828649
3988.926074,-8438.347739,222.061783,-612.876398
3988.926404,-9252.574275,740.205942,-229.828649
3988.926734,-10584.944971,962.267725,536.266849
3988.927064,-10881.027347,1036.288319,459.657299
3988.927394,-10510.924376,592.164754,-153.219100
3988.927724,-9252.574275,74.020594,0.000000
3988.928054,-8956.491898,-592.164754,153.219100
3988.928383,-9770.718434,-444.123565,1378.971896
3988.928713,-10658.965565,-592.164754,1762.019645
3988.929043,-10436.903782,370.102971,612.876398
3988.929373,-9252.574275,0.000000,-766.095498
3988.929703,-8660.409521,222.061783,-1378.971896
3988.930033,-9548.656652,592.164754,-766.095498
3988.930363,-10732.986159,1110.308913,612.876398
3988.930692,-11251.130318,1480.411884,306.438199
3988.931022,-9992.780217,814.226536,229.828649
3988.931352,-9030.512492,370.102971,-383.047749
3988.931682,-9400.615463,-148.041188,0.000000
3988.932012,-10066.800811,-518.144159,459.657299
3988.932342,-10510.924376,-74.020594,995.924147
3988.932671,-9474.636058,0.000000,-229.828649
3988.933001,-8660.409521,148.041188,-76.609550
3988.933331,-8364.327145,296.082377,-229.828649
3988.933661,-9474.636058,740.205942,153.219100
3988.933991,-10732.986159,740.205942,1072.533697
3988.934321,-10881.027347,814.226536,459.657299
3988.934651,-9918.759623,370.102971,-689.485948
3988.934980,-9104.533087,148.041188,-1149.143247
3988.935310,-9474.636058,-74.020594,0.000000
3988.935640,-10584.944971,-592.164754,1455.581446
3988.935970,-10362.883188,0.000000,919.314598
3988.936300,-9844.739029,222.061783,0.000000
3988.936630,-8882.471304,0.000000,-919.314598
3988.936960,-8882.471304,370.102971,-1149.143247
3988.937289,-10214.842000,666.185348,0.000000
3988.937619,-10881.027347,740.205942,919.314598
3988.937949,-10288.862594,370.102971,995.924147
3988.938279,-9622.677246,0.000000,995.924147
3988.938609,-9326.594869,-296.082377,229.828649
3988.938939,-9918.759623,-444.123565,842.705048
3988.939269,-10584.944971,-518.144159,919.314598
3988.939598,-10214.842000,-518.144159,766.095498
3988.939928,-9400.615463,-148.041188,0.000000
3988.940258,-8660.409521,-74.020594,0.000000
3988.940588,-9030.512492,444.123565,-153.219100
3988.940918,-10288.862594,370.102971,995.924147
3988.941248,-10807.006753,592.164754,459.657299
3988.941578,-10362.883188,444.123565,0.000000
3988.941907,-9474.636058,74.020594,-383.047749
3988.942237,-9326.594869,-444.123565,0.000000
3988.942567,-9696.697840,-814.226536,1455.581446
3988.942897,-10510.924376,-592.164754,1455.581446
3988.943227,-9844.739029,-444.123565,766.095498
3988.943557,-8660.409521,-370.102971,-919.314598
3988.943886,-8438.347739,0.000000,-995.924147
3988.944216,-9326.594869,222.061783,-459.657299
3988.944546,-10510.924376,518.144159,1072.533697
3988.944876,-10658.965565,814.226536,76.609550
3988.945206,-10066.800811,222.061783,383.047749
3988.945536,-8882.471304,-444.123565,-459.657299
3988.945866,-9474.636058,-666.185348,0.000000
3988.946195,-10658.965565,-296.082377,995.924147
3988.946525,-10362.883188,-518.144159,612.876398
3988.946855,-9622.677246,0.000000,0.000000
3988.947185,-8956.491898,148.041188,-536.266849
3988.947515,-9474.636058,296.082377,-306.438199
3988.947845,-10362.883188,666.185348,383.047749
3988.948175,-11399.171507,814.226536,766.095498
3988.948504,-11103.089130,666.185348,536.266849
3988.948834,-9770.718434,74.020594,0.000000
3988.949164,-8882.471304,-370.102971,-842.705048
3988.949494,-9548.656652,-518.144159,459.657299
3988.949824,-10510.924376,-740.205942,1455.581446
3988.950154,-10214.842000,-296.082377,1762.019645
3988.950484,-9548.656652,0.000000,306.438199
3988.950813,-8956.491898,0.000000,-766.095498
3988.951143,-9104.533087,296.082377,-919.314598
3988.951473,-10140.821405,296.082377,153.219100
3988.951803,-10658.965565,518.144159,919.314598
3988.952133,-10140.821405,518.144159,995.924147
3988.952463,-9326.594869,0.000000,383.047749
3988.952792,-9030.512492,-296.082377,153.219100
3988.953122,-9696.697840,-370.102971,383.047749
3988.953452,-10288.862594,-148.041188,383.047749
3988.953782,-9918.759623,0.000000,0.000000
3988.954112,-8882.471304,0.000000,-229.828649
3988.954442,-8438.347739,0.000000,-383.047749
3988.954772,-9400.615463,962.267725,229.828649
3988.955101,-10362.883188,296.082377,612.876398
3988.955431,-11177.109724,592.164754,459.657299
3988.955761,-9992.780217,296.082377,-153.219100
3988.956091,-8808.450710,-444.123565,-536.266849
3988.956421,-8734.430116,-518.144159,0.000000
3988.956751,-9622.677246,-740.205942,1072.533697
3988.957081,-10066.800811,-444.123565,1302.362347
3988.957410,-9622.677246,0.000000,459.657299
3988.957740,-9178.553681,74.020594,-383.047749
3988.958070,-9178.553681,444.123565,-995.924147
3988.958400,-10066.800811,666.185348,0.000000
3988.958730,-11103.089130,888.247130,1072.533697
3988.959060,-10584.944971,592.164754,153.219100
3988.959390,-9844.739029,444.123565,0.000000
3988.959719,-8660.409521,-370.102971,-919.314598
3988.960049,-9548.656652,-296.082377,383.047749
3988.960379,-10881.027347,0.000000,1225.752797
3988.960709,-10584.944971,0.000000,919.314598
3988.961039,-9474.636058,0.000000,0.000000
3988.961369,-8882.471304,0.000000,-383.047749
3988.961699,-9326.594869,148.041188,306.438199
3988.962028,-10214.842000,370.102971,1378.971896
3988.962358,-10807.006753,148.041188,1225.752797
3988.962688,-10288.862594,296.082377,383.047749
3988.963018,-9474.636058,-74.020594,-76.609550
3988.963348,-8882.471304,-518.144159,-919.314598
3988.963678,-9622.677246,-370.102971,689.485948
3988.964007,-10510.924376,-444.123565,1762.019645
3988.964337,-10140.821405,-222.061783,919.314598
3988.964667,-9104.533087,148.041188,0.000000
3988.964997,-8660.409521,0.000000,-919.314598
3988.965327,-9548.656652,370.102971,-766.095498
3988.965657,-10510.924376,296.082377,306.438199
3988.965987,-10732.986159,444.123565,1072.533697
3988.966316,-9474.636058,518.144159,459.657299
3988.966646,-9030.512492,0.000000,-229.828649
3988.966976,-9326.594869,0.000000,-536.266849
3988.967306,-10140.821405,-148.041188,229.828649
3988.967636,-10658.965565,148.041188,153.219100
3988.967966,-9992.780217,444.123565,0.000000
3988.968296,-8882.471304,148.041188,-612.876398
3988.968625,-8734.430116,370.102971,-383.047749
3988.968955,-9770.718434,1110.308913,0.000000
3988.969285,-10807.006753,814.226536,612.876398
3988.969615,-11251.130318,888.247130,229.828649
3988.969945,-9992.780217,666.185348,-689.485948
3988.970275,-9178.553681,148.041188,-995.924147
3988.970605,-9252.574275,0.000000,-153.219100
3988.970934,-10510.924376,-222.061783,1302.362347
3988.971264,-10658.965565,-222.061783,1455.581446
3988.971594,-9918.759623,-148.041188,229.828649
3988.971924,-8364.327145,0.000000,-1455.581446
3988.972254,-8586.388927,0.000000,-919.314598
3988.972584,-9548.656652,148.041188,612.876398
3988.972914,-10658.965565,444.123565,1302.362347
3988.973244,-10288.862594,888.247130,842.705048
3988.973573,-9622.677246,74.020594,536.266849
3988.973903,-9400.615463,-592.164754,76.609550
3988.974233,-9770.718434,-296.082377,459.657299
3988.974563,-10436.903782,-296.082377,1072.533697
3988.974893,-10214.842000,0.000000,612.876398
3988.975223,-9178.553681,-74.020594,0.000000
3988.975553,-8586.388927,0.000000,-76.609550
3988.975883,-9252.574275,74.020594,229.828649
3988.976213,-10214.842000,444.123565,919.314598
3988.976542,-10658.965565,74.020594,306.438199
3988.976872,-10066.800811,222.061783,-153.219100
3988.977202,-9252.574275,-370.102971,-612.876398
3988.977532,-8956.491898,-444.123565,0.000000
3988.977862,-9844.739029,74.020594,842.705048
3988.978192,-10807.006753,-444.123565,1532.190996
3988.978522,-10436.903782,-296.082377,689.485948
3988.978852,-9696.697840,-444.123565,0.000000
3988.979182,-9474.636058,0.000000,-306.438199
3988.979511,-9622.677246,148.041188,0.000000
3988.979841,-10658.965565,222.061783,689.485948
3988.980171,-10584.944971,518.144159,842.705048
3988.980501,-9992.780217,0.000000,536.266849
3988.980831,-9474.636058,222.061783,-766.095498
3988.981161,-9474.636058,-222.061783,-229.828649
3988.981491,-10584.944971,-222.061783,995.924147
3988.981821,-10658.965565,-296.082377,1149.143247
3988.982150,-9992.780217,370.102971,153.219100
3988.982480,-9030.512492,0.000000,-383.047749
3988.982810,-8808.450710,0.000000,-536.266849
3988.983140,-9770.718434,74.020594,459.657299
3988.983470,-10584.944971,518.144159,919.314598
3988.983800,-10510.924376,296.082377,459.657299
3988.984130,-9326.594869,222.061783,-306.438199
3988.984460,-8882.471304,0.000000,-536.266849
3988.984790,-9474.636058,0.000000,153.219100
3988.985119,-10658.965565,0.000000,1072.533697
3988.985449,-10807.006753,0.000000,995.924147
3988.985779,-9474.636058,-148.041188,0.000000
3988.986109,-8734.430116,-222.061783,-766.095498
3988.986439,-8808.450710,370.102971,-995.924147
3988.986769,-9770.718434,148.041188,0.000000
3988.987099,-10362.883188,222.061783,766.095498
3988.987429,-9992.780217,296.082377,919.314598
3988.987759,-9030.512492,0.000000,306.438199
3988.988088,-8808.450710,-444.123565,229.828649
3988.988418,-9844.739029,-370.102971,919.314598
3988.988748,-10510.924376,-518.144159,919.314598
3988.989078,-9918.759623,0.000000,0.000000
3988.989408,-9104.533087,0.000000,-536.266849
3988.989738,-8808.450710,148.041188,-689.485948
3988.990068,-9474.636058,740.205942,0.000000
3988.990398,-10362.883188,370.102971,306.438199
3988.990727,-10732.986159,740.205942,76.609550
3988.991057,-10214.842000,444.123565,-459.657299
3988.991387,-9326.594869,0.000000,-689.485948
3988.991717,-8882.471304,-444.123565,229.828649
3988.992047,-9548.656652,-592.164754,1149.143247
3988.992377,-10955.047942,-74.020594,1762.019645
3988.992707,-10362.883188,0.000000,612.876398
3988.993037,-9400.615463,0.000000,0.000000
3988.993367,-8660.409521,0.000000,-383.047749
3988.993696,-9326.594869,222.061783,-306.438199
3988.994026,-10658.965565,666.185348,842.705048
3988.994356,-10584.944971,740.205942,766.095498
3988.994686,-9992.780217,888.247130,0.000000
3988.995016,-9400.615463,148.041188,-689.485948
3988.995346,-9326.594869,148.041188,-612.876398
3988.995676,-10288.862594,-296.082377,689.485948
3988.996006,-10362.883188,-222.061783,766.095498
3988.996336,-9400.615463,0.000000,229.828649
3988.996665,-9178.553681,-222.061783,0.000000
3988.996995,-8956.491898,74.020594,153.219100
3988.997325,-10214.842000,518.144159,766.095498
3988.997655,-10881.027347,888.247130,995.924147
3988.997985,-11177.109724,1110.308913,536.266849
3988.998315,-9474.636058,444.123565,-689.485948
3988.998645,-8660.409521,-148.041188,-383.047749
3988.998975,-9030.512492,0.000000,229.828649
3988.999304,-10510.924376,-518.144159,1225.752797
3988.999634,-10362.883188,-222.061783,842.705048
3988.999964,-9622.677246,0.000000,-383.047749
3989.000294,-8882.471304,0.000000,-842.705048
3989.000624,-9252.574275,0.000000,-842.705048
3989.000954,-10214.842000,74.020594,766.095498
3989.001284,-10807.006753,74.020594,1225.752797
3989.001614,-10066.800811,222.061783,1378.971896
3989.001944,-9400.615463,-222.061783,842.705048
3989.002273,-9178.553681,-296.082377,536.266849
3989.002603,-9696.697840,-370.102971,919.314598
3989.002933,-10288.862594,-370.102971,766.095498
3989.003263,-9474.636058,0.000000,153.219100
3989.003593,-8956.491898,0.000000,-306.438199
3989.003923,-8586.388927,74.020594,-383.047749
3989.004253,-9474.636058,370.102971,-306.438199
3989.004583,-10510.924376,740.205942,0.000000
3989.004913,-10658.965565,444.123565,-76.609550
3989.005242,-10066.800811,444.123565,-766.095498
3989.005572,-9030.512492,0.000000,-536.266849
3989.005902,-9030.512492,-148.041188,229.828649
3989.006232,-9918.759623,-222.061783,1608.800546
3989.006562,-10436.903782,-518.144159,1762.019645
3989.006892,-9992.780217,-148.041188,383.047749
3989.007222,-9030.512492,-296.082377,-153.219100
3989.007552,-8956.491898,296.082377,-1072.533697
3989.007881,-9918.759623,222.061783,0.000000
3989.008211,-10732.986159,592.164754,995.924147
3989.008541,-10510.924376,666.185348,689.485948
3989.008871,-9622.677246,666.185348,76.609550
3989.009201,-8956.491898,0.000000,-153.219100
3989.009531,-9696.697840,0.000000,0.000000
3989.009861,-10436.903782,0.000000,612.876398
3989.010191,-10658.965565,-74.020594,766.095498
3989.010521,-9252.574275,0.000000,0.000000
3989.010850,-8586.388927,0.000000,-76.609550
3989.011180,-9030.512492,74.020594,306.438199
3989.011510,-10510.924376,740.205942,995.924147
3989.011840,-11399.171507,888.247130,1532.190996
3989.012170,-10955.047942,888.247130,842.705048
3989.012500,-9474.636058,222.061783,-612.876398
3989.012830,-8882.471304,148.041188,-229.828649
3989.013160,-9326.594869,-296.082377,995.924147
3989.013490,-10288.862594,-296.082377,1532.190996
3989.013819,-9918.759623,-370.102971,995.924147
3989.014149,-9252.574275,-296.082377,0.000000
3989.014479,-8808.450710,-148.041188,-919.314598
3989.014809,-9030.512492,222.061783,-383.047749
3989.015139,-9918.759623,370.102971,153.219100
3989.015469,-10658.965565,814.226536,995.924147
3989.015799,-9844.739029,962.267725,459.657299
3989.016129,-9030.512492,222.061783,689.485948
3989.016459,-9326.594869,-148.041188,0.000000
3989.016788,-10140.821405,0.000000,842.705048
3989.017118,-10732.986159,-370.102971,536.266849
3989.017448,-9400.615463,-296.082377,76.609550
3989.017778,-8586.388927,-444.123565,-459.657299
3989.018108,-8586.388927,0.000000,0.000000
3989.018438,-9326.594869,444.123565,306.438199
3989.018768,-10584.944971,666.185348,229.828649
3989.019098,-10881.027347,1036.288319,306.438199
3989.019427,-10140.821405,888.247130,-306.438199
3989.019757,-9474.636058,0.000000,-612.876398
3989.020087,-9770.718434,0.000000,229.828649
3989.020417,-10140.821405,-444.123565,1915.238745
3989.020747,-9918.759623,-518.144159,1685.410096
3989.021077,-9548.656652,-518.144159,306.438199
3989.021407,-8956.491898,-296.082377,-995.924147
3989.021737,-8882.471304,0.000000,-1225.752797
3989.022067,-9474.636058,370.102971,-612.876398
3989.022396,-10584.944971,518.144159,842.705048
3989.022726,-10436.903782,740.205942,1225.752797
3989.023056,-9474.636058,74.020594,383.047749
3989.023386,-9252.574275,-370.102971,-153.219100
3989.023716,-10140.821405,-296.082377,153.219100
3989.024046,-10658.965565,-814.226536,1149.143247
3989.024376,-10362.883188,-592.164754,1225.752797
3989.024706,-9178.553681,-962.267725,153.219100
3989.025036,-8438.347739,-888.247130,459.657299
3989.025365,-8882.471304,0.000000,0.000000
3989.025695,-10140.821405,0.000000,612.876398
3989.026025,-11029.068536,666.185348,383.047749
3989.026355,-10362.883188,666.185348,-459.657299
3989.026685,-9622.677246,296.082377,-459.657299
3989.027015,-9326.594869,0.000000,-536.266849
3989.027345,-9992.780217,-222.061783,1302.362347
3989.027675,-10584.944971,-814.226536,1532.190996
3989.028004,-10066.800811,-814.226536,1149.143247
3989.028334,-8660.409521,-740.205942,-306.438199
3989.028664,-8438.347739,-518.144159,-842.705048
3989.028994,-9474.636058,148.041188,-383.047749
3989.029324,-10214.842000,296.082377,1072.533697
3989.029654,-10510.924376,666.185348,766.095498
3989.029984,-9992.780217,444.123565,459.657299
3989.030314,-9326.594869,-296.082377,0.000000
3989.030644,-9178.553681,-444.123565,459.657299
3989.030973,-10288.862594,-740.205942,919.314598
3989.031303,-10584.944971,-666.185348,995.924147
3989.031633,-9622.677246,-370.102971,536.266849
3989.031963,-8586.388927,-370.102971,76.609550
3989.032293,-8882.471304,0.000000,0.000000
3989.032623,-9548.656652,592.164754,383.047749
3989.032953,-10881.027347,1036.288319,842.705048
3989.033283,-10807.006753,1110.308913,383.047749
3989.033613,-9770.718434,666.185348,-153.219100
3989.033942,-9474.636058,444.123565,-229.828649
3989.034272,-9622.677246,370.102971,229.828649
3989.034602,-10436.903782,0.000000,1838.629195
3989.034932,-10288.862594,0.000000,1225.752797
3989.035262,-9770.718434,0.000000,0.000000
3989.035592,-8512.368333,148.041188,-842.705048
3989.035922,-8956.491898,444.123565,-1302.362347
3989.036252,-9918.759623,1184.329507,-995.924147
3989.036581,-10436.903782,1110.308913,612.876398
3989.036911,-10584.944971,1036.288319,459.657299
3989.037241,-9474.636058,666.185348,0.000000
3989.037571,-9104.533087,0.000000,-229.828649
3989.037901,-9696.697840,0.000000,919.314598
3989.038231,-10510.924376,-296.082377,1149.143247
3989.038561,-10584.944971,148.041188,612.876398
3989.038891,-9178.553681,-148.041188,-76.609550
3989.039221,-8660.409521,74.020594,-766.095498
3989.039550,-9178.553681,666.185348,153.219100
3989.039880,-10066.800811,814.226536,383.047749
3989.040210,-10732.986159,1332.370696,306.438199
3989.040540,-10066.800811,1258.350101,-1225.752797
3989.040870,-9400.615463,296.082377,-766.095498
3989.041200,-9548.656652,0.000000,0.000000
3989.041530,-10288.862594,-74.020594,1225.752797
3989.041860,-10807.006753,0.000000,1838.629195
3989.042190,-10140.821405,-148.041188,612.876398
3989.042519,-9178.553681,-444.123565,-612.876398
3989.042849,-8586.388927,0.000000,-1225.752797
3989.043179,-9400.615463,148.041188,-306.438199
3989.043509,-10362.883188,740.205942,689.485948
3989.043839,-10807.006753,740.205942,919.314598
3989.044169,-9622.677246,888.247130,153.219100
3989.044499,-9030.512492,0.000000,-383.047749
3989.044829,-9030.512492,0.000000,-612.876398
3989.045158,-10288.862594,-518.144159,766.095498
3989.045488,-10732.986159,-740.205942,995.924147
3989.045818,-9326.594869,-222.061783,0.000000
3989.046148,-8734.430116,-148.041188,306.438199
3989.046478,-8512.368333,0.000000,0.000000
3989.046808,-9992.780217,74.020594,1149.143247
3989.047138,-11177.109724,444.123565,995.924147
3989.047468,-10955.047942,814.226536,0.000000
3989.047798,-9622.677246,148.041188,-612.876398
3989.048127,-9326.594869,-74.020594,-383.047749
3989.048457,-9400.615463,-296.082377,153.219100
3989.048787,-10288.862594,-888.247130,1838.629195
3989.049117,-10140.821405,-444.123565,1072.533697
3989.049447,-9548.656652,-740.205942,76.609550
3989.049777,-9104.533087,-666.185348,-842.705048
3989.050107,-9178.553681,-222.061783,-383.047749
3989.050437,-10066.800811,0.000000,842.705048
3989.050767,-10881.027347,74.020594,1608.800546
3989.051096,-10288.862594,0.000000,1378.971896
3989.051426,-9400.615463,-666.185348,536.266849
3989.051756,-9474.636058,-814.226536,229.828649
3989.052086,-10066.800811,-740.205942,1302.362347
3989.052416,-10955.047942,-1036.288319,1838.629195
3989.052746,-9992.780217,-1110.308913,689.485948
3989.053076,-8660.409521,-1332.370696,229.828649
3989.053406,-8290.306550,-518.144159,-383.047749
3989.053735,-9030.512492,0.000000,0.000000
3989.054065,-10140.821405,370.102971,383.047749
3989.054395,-10436.903782,444.123565,229.828649
3989.054725,-9992.780217,518.144159,-229.828649
3989.055055,-9252.574275,0.000000,-842.705048
3989.055385,-9474.636058,-444.123565,-612.876398
3989.055715,-10140.821405,-370.102971,1532.190996
3989.056045,-10732.986159,-296.082377,1762.019645
3989.056375,-10066.800811,-296.082377,612.876398
3989.056704,-9326.594869,-222.061783,-612.876398
3989.057034,-9030.512492,222.061783,-995.924147
3989.057364,-9770.718434,814.226536,-689.485948
3989.057694,-10510.924376,666.185348,689.485948
3989.058024,-10807.006753,1184.329507,766.095498
3989.058354,-9918.759623,814.226536,0.000000
3989.058684,-9104.533087,74.020594,-689.485948
3989.059014,-9178.553681,148.041188,153.219100
3989.059344,-10510.924376,-222.061783,995.924147
3989.059673,-10362.883188,0.000000,766.095498
3989.060003,-9474.636058,74.020594,153.219100
3989.060333,-8882.471304,74.020594,76.609550
3989.060663,-9474.636058,592.164754,0.000000
3989.060993,-9770.718434,740.205942,919.314598
3989.061323,-10807.006753,1332.370696,919.314598
3989.061653,-10807.006753,1480.411884,0.000000
3989.061983,-10140.821405,1110.308913,-459.657299
3989.062312,-9326.594869,370.102971,-306.438199
3989.062642,-9622.677246,296.082377,919.314598
3989.062972,-10658.965565,-74.020594,1608.800546
3989.063302,-10288.862594,0.000000,612.876398
3989.063632,-9030.512492,0.000000,-383.047749
3989.063962,-8290.306550,148.041188,-1685.410096
3989.064292,-8734.430116,740.205942,-995.924147
3989.064622,-9918.759623,1184.329507,0.000000
3989.064952,-11029.068536,1258.350101,919.314598
3989.065281,-10288.862594,1036.288319,306.438199
3989.065611,-9474.636058,444.123565,0.000000
3989.065941,-9326.594869,-296.082377,-76.609550
3989.066271,-9622.677246,-444.123565,383.047749
3989.066601,-10510.924376,-666.185348,1149.143247
3989.066931,-9992.780217,0.000000,459.657299
3989.067261,-8734.430116,-148.041188,-153.219100
3989.067591,-8290.306550,148.041188,-995.924147
3989.067921,-9548.656652,740.205942,-153.219100
3989.068250,-10732.986159,592.164754,306.438199
3989.068580,-10955.047942,814.226536,153.219100
3989.068910,-9548.656652,666.185348,-919.314598
3989.069240,-9252.574275,0.000000,-229.828649
3989.069570,-9770.718434,-148.041188,229.828649
3989.069900,-10436.903782,-962.267725,1762.019645
3989.070230,-10807.006753,-370.102971,1762.019645
3989.070559,-9696.697840,-592.164754,229.828649
3989.070889,-9030.512492,-592.164754,-536.266849
3989.071219,-9104.533087,0.000000,-1072.533697
3989.071549,-9622.677246,74.020594,-383.047749
3989.071879,-10510.924376,666.185348,919.314598
3989.072208,-10732.986159,666.185348,995.924147
3989.072538,-9770.718434,0.000000,0.000000
3989.072868,-9104.533087,-444.123565,-229.828649
3989.073198,-9474.636058,-888.247130,536.266849
3989.073527,-10140.821405,-1332.370696,919.314598
3989.073857,-10288.862594,-1184.329507,766.095498
3989.074187,-9178.553681,-814.226536,0.000000
3989.074517,-7994.224174,-740.205942,153.219100
3989.074847,-8956.491898,0.000000,0.000000
3989.075176,-10214.842000,296.082377,766.095498
3989.075506,-11103.089130,592.164754,919.314598
3989.075836,-10955.047942,814.226536,153.219100
3989.076166,-9770.718434,-222.061783,-536.266849
3989.076496,-9400.615463,-740.205942,-153.219100
3989.076825,-9770.718434,-814.226536,1149.143247
3989.077155,-10584.944971,-888.247130,1838.629195
3989.077485,-9844.739029,-740.205942,1072.533697
3989.077815,-9252.574275,-592.164754,-229.828649
3989.078145,-9104.533087,0.000000,-1302.362347
3989.078474,-9326.594869,148.041188,-919.314598
3989.078804,-9992.780217,296.082377,153.219100
3989.079134,-10732.986159,666.185348,1455.581446
3989.079464,-10066.800811,592.164754,612.876398
3989.079794,-9474.636058,-148.041188,0.000000
3989.080123,-9326.594869,-222.061783,76.609550
3989.080453,-10066.800811,-740.205942,842.705048
3989.080783,-10955.047942,-518.144159,1149.143247
3989.081113,-9770.718434,-74.020594,612.876398
3989.081443,-8734.430116,-148.041188,-229.828649
3989.081772,-8290.306550,222.061783,-536.266849
3989.082102,-9696.697840,666.185348,229.828649
3989.082432,-11029.068536,1110.308913,383.047749
3989.082762,-11029.068536,1036.288319,153.219100
3989.083092,-9548.656652,814.226536,-612.876398
3989.083421,-8882.471304,74.020594,-383.047749
3989.083751,-9252.574275,-148.041188,536.266849
3989.084081,-9992.780217,-592.164754,1378.971896
3989.084411,-9918.759623,74.020594,612.876398
3989.084741,-9326.594869,74.020594,0.000000
3989.085070,-8586.388927,444.123565,-689.485948
3989.085400,-8734.430116,740.205942,-1149.143247
3989.085730,-10066.800811,1110.308913,-383.047749
3989.086060,-10881.027347,1480.411884,995.924147
3989.086389,-10807.006753,1480.411884,306.438199
3989.086719,-9696.697840,370.102971,0.000000
3989.087049,-9400.615463,296.082377,-536.266849
3989.087379,-9400.615463,0.000000,383.047749
3989.087709,-10510.924376,-370.102971,1072.533697
3989.088038,-10066.800811,0.000000,383.047749
3989.088368,-9400.615463,0.000000,-612.876398
3989.088698,-8438.347739,518.144159,-919.314598
3989.089028,-9400.615463,592.164754,0.000000
3989.089358,-10658.965565,962.267725,306.438199
3989.089687,-11103.089130,1110.308913,306.438199
3989.090017,-10510.924376,1184.329507,0.000000
3989.090347,-9770.718434,222.061783,-536.266849
3989.090677,-9252.574275,0.000000,0.000000
3989.091007,-9770.718434,-370.102971,1225.752797
3989.091336,-10510.924376,-592.164754,1838.629195
3989.091666,-10066.800811,-148.041188,1455.581446
3989.091996,-8956.491898,-222.061783,-612.876398
3989.092326,-8882.471304,296.082377,-1532.190996
3989.092656,-9622.677246,444.123565,-842.705048
3989.092985,-10436.903782,444.123565,1072.533697
3989.093315,-10658.965565,740.205942,1532.190996
3989.093645,-9548.656652,0.000000,919.314598
3989.093975,-9178.553681,-666.185348,153.219100
3989.094305,-9178.553681,-592.164754,229.828649
3989.094634,-10288.862594,-1184.329507,1072.533697
3989.094964,-10362.883188,-888.247130,842.705048
3989.095294,-9474.636058,-518.144159,76.609550
3989.095624,-8882.471304,-370.102971,0.000000
3989.095954,-8882.471304,0.000000,0.000000
3989.096283,-9918.759623,0.000000,0.000000
3989.096613,-10881.027347,296.082377,459.657299
3989.096943,-10584.944971,370.102971,-229.828649
3989.097273,-9474.636058,0.000000,-1072.533697
3989.097603,-8512.368333,-666.185348,-459.657299
3989.097932,-9104.533087,-962.267725,612.876398
3989.098262,-10362.883188,-1184.329507,1915.238745
3989.098592,-10140.821405,-740.205942,1225.752797
3989.098922,-9548.656652,-592.164754,-153.219100
3989.099251,-8882.471304,-518.144159,-995.924147
3989.099581,-9474.636058,222.061783,-766.095498
3989.099911,-10362.883188,222.061783,612.876398
3989.100241,-10658.965565,296.082377,1532.190996
3989.100571,-10584.944971,518.144159,995.924147
3989.100900,-9548.656652,-296.082377,-536.266849
3989.101230,-9178.553681,-740.205942,-842.705048
3989.101560,-9548.656652,-370.102971,76.609550
3989.101890,-10881.027347,-666.185348,1378.971896
3989.102220,-10436.903782,-592.164754,459.657299
3989.102549,-9104.533087,-666.185348,-459.657299
3989.102879,-8586.388927,0.000000,-1378.971896
3989.103209,-9474.636058,74.020594,76.609550
3989.103539,-10584.944971,444.123565,612.876398
3989.103869,-10881.027347,518.144159,1072.533697
3989.104198,-9918.759623,962.267725,229.828649
3989.104528,-9474.636058,-296.082377,-306.438199
3989.104858,-9770.718434,-370.102971,306.438199
3989.105188,-10288.862594,-592.164754,1608.800546
3989.105518,-10658.965565,-444.123565,2145.067394
3989.105847,-9844.739029,0.000000,995.924147
3989.106177,-8808.450710,-222.061783,-612.876398
3989.106507,-8586.388927,296.082377,-1072.533697
3989.106837,-9548.656652,740.205942,-689.485948
3989.107167,-10658.965565,1332.370696,1149.143247
3989.107496,-10732.986159,1110.308913,842.705048
3989.107826,-9622.677246,666.185348,0.000000
3989.108156,-9178.553681,74.020594,-459.657299
3989.108486,-9474.636058,296.082377,0.000000
3989.108816,-10362.883188,-444.123565,766.095498
3989.109145,-10362.883188,-74.020594,689.485948
3989.109475,-9326.594869,222.061783,76.609550
3989.109805,-8660.409521,518.144159,-383.047749
3989.110135,-8808.450710,1184.329507,-229.828649
3989.110465,-10214.842000,1110.308913,0.000000
3989.110794,-10881.027347,1258.350101,153.219100
3989.111124,-10732.986159,1258.350101,-306.438199
3989.111454,-9474.636058,296.082377,-383.047749
3989.111784,-8586.388927,0.000000,-383.047749
3989.112114,-9030.512492,0.000000,306.438199
3989.112443,-10436.903782,-296.082377,1149.143247
3989.112773,-10066.800811,0.000000,766.095498
3989.113103,-9622.677246,222.061783,-766.095498
3989.113433,-9104.533087,370.102971,-1225.752797
3989.113762,-9400.615463,592.164754,-689.485948
3989.114092,-9918.759623,518.144159,919.314598
3989.114422,-10584.944971,444.123565,1378.971896
3989.114752,-9622.677246,296.082377,689.485948
3989.115082,-9252.574275,-370.102971,0.000000
3989.115411,-9104.533087,-518.144159,0.000000
3989.115741,-9770.718434,-592.164754,1149.143247
3989.116071,-10584.944971,-592.164754,1532.190996
3989.116401,-9770.718434,0.000000,306.438199
3989.116731,-9030.512492,0.000000,-536.266849
3989.117060,-8956.491898,592.164754,-766.095498
3989.117390,-9918.759623,592.164754,153.219100
3989.117720,-11251.130318,1036.288319,995.924147
3989.118050,-11325.150913,518.144159,459.657299
3989.118380,-9918.759623,370.102971,-383.047749
3989.118709,-8882.471304,-518.144159,-612.876398
3989.119039,-9252.574275,-518.144159,306.438199
3989.119369,-10436.903782,-666.185348,1685.410096
3989.119699,-10584.944971,-370.102971,1608.800546
3989.120029,-10214.842000,0.000000,459.657299
3989.120358,-9474.636058,-74.020594,-612.876398
3989.120688,-9252.574275,74.020594,-919.314598
3989.121018,-9918.759623,74.020594,-306.438199
3989.121348,-10436.903782,444.123565,612.876398
3989.121678,-10436.903782,148.041188,1072.533697
3989.122007,-9178.553681,-370.102971,306.438199
3989.122337,-8734.430116,-666.185348,-306.438199
3989.122667,-9696.697840,0.000000,76.609550
3989.122997,-10732.986159,-888.247130,995.924147
3989.123327,-10436.903782,-592.164754,612.876398
3989.123656,-9474.636058,-222.061783,0.000000
3989.123986,-8586.388927,0.000000,-383.047749
3989.124316,-9252.574275,222.061783,-153.219100
3989.124646,-10288.862594,222.061783,612.876398
3989.124976,-11103.089130,444.123565,536.266849
3989.125305,-10436.903782,296.082377,-153.219100
3989.125635,-8882.471304,0.000000,-995.924147
3989.125965,-8660.409521,-592.164754,0.000000
3989.126295,-9252.574275,-666.185348,1072.533697
3989.126624,-10584.944971,-740.205942,2068.457845
3989.126954,-10288.862594,148.041188,919.314598
3989.127284,-9696.697840,0.000000,-306.438199
3989.127614,-8956.491898,148.041188,-1072.533697
3989.127944,-9622.677246,592.164754,-229.828649
3989.128273,-10140.821405,296.082377,1072.533697
3989.128603,-10584.944971,370.102971,1762.019645
3989.128933,-9844.739029,444.123565,842.705048
3989.129263,-9178.553681,0.000000,-229.828649
3989.129593,-9178.553681,-370.102971,-612.876398
3989.129922,-9992.780217,-222.061783,153.219100
3989.130252,-10436.903782,-296.082377,1225.752797
3989.130582,-9696.697840,0.000000,459.657299
3989.130912,-8956.491898,-222.061783,0.000000
3989.131242,-8290.306550,296.082377,229.828649
3989.131571,-9770.718434,592.164754,306.438199
3989.131901,-10955.047942,592.164754,1072.533697
3989.132231,-10584.944971,518.144159,536.266849
3989.132561,-9548.656652,370.102971,306.438199
3989.132891,-8808.450710,0.000000,0.000000
3989.133220,-9252.574275,0.000000,0.000000
3989.133550,-10288.862594,0.000000,612.876398
3989.133880,-10436.903782,0.000000,766.095498
3989.134210,-9696.697840,370.102971,-689.485948
3989.134540,-8586.388927,222.061783,-1608.800546
3989.134869,-8808.450710,296.082377,-1072.533697
3989.135199,-9622.677246,592.164754,-76.609550
3989.135529,-10214.842000,592.164754,1072.533697
3989.135859,-10214.842000,444.123565,612.876398
3989.136189,-9400.615463,74.020594,0.000000
3989.136518,-9474.636058,0.000000,0.000000
3989.136848,-10214.842000,0.000000,995.924147
3989.137178,-10955.047942,-370.102971,1302.362347
3989.137508,-10584.944971,0.000000,689.485948
3989.137838,-9178.553681,0.000000,-536.266849
3989.138167,-8808.450710,370.102971,-536.266849
3989.138497,-9622.677246,666.185348,76.609550
3989.138827,-10436.903782,740.205942,689.485948
3989.139157,-10955.047942,814.226536,306.438199
3989.139486,-10214.842000,888.247130,-459.657299
3989.139816,-9400.615463,0.000000,-766.095498
3989.140146,-8956.491898,-370.102971,-536.266849
3989.140476,-9844.739029,-370.102971,766.095498
3989.140806,-10584.944971,-666.185348,1532.190996
3989.141135,-10362.883188,222.061783,1302.362347
3989.141465,-9030.512492,-444.123565,0.000000
3989.141795,-9104.533087,74.020594,-919.314598
3989.142125,-9696.697840,444.123565,-76.609550
3989.142455,-10436.903782,148.041188,1225.752797
3989.142784,-10436.903782,148.041188,1608.800546
3989.143114,-9474.636058,0.000000,459.657299
3989.143444,-8734.430116,-444.123565,-459.657299
3989.143774,-9178.553681,-592.164754,-459.657299
3989.144104,-9622.677246,-518.144159,-153.219100
3989.144433,-10140.821405,-444.123565,766.095498
3989.144763,-9474.636058,-296.082377,76.609550
3989.145093,-8660.409521,-296.082377,76.609550
3989.145423,-8586.388927,444.123565,306.438199
3989.145753,-10140.821405,370.102971,1072.533697
3989.146082,-10955.047942,296.082377,689.485948
3989.146412,-10807.006753,666.185348,229.828649
3989.146742,-9326.594869,0.000000,-1072.533697
3989.147072,-8734.430116,-370.102971,-536.266849
3989.147402,-9252.574275,-296.082377,689.485948
3989.147731,-10807.006753,-222.061783,1302.362347
3989.148061,-10584.944971,0.000000,1149.143247
3989.148391,-9548.656652,0.000000,-76.609550
3989.148721,-9178.553681,74.020594,-612.876398
3989.149051,-9252.574275,296.082377,-612.876398
3989.149380,-10288.862594,74.020594,689.485948
3989.149710,-10436.903782,74.020594,1302.362347
3989.150040,-10214.842000,296.082377,919.314598
3989.150370,-9252.574275,-222.061783,76.609550
3989.150700,-9104.533087,-370.102971,-306.438199
3989.151029,-10066.800811,-370.102971,153.219100
3989.151359,-10807.006753,-592.164754,1072.533697
3989.151689,-10214.842000,-74.020594,689.485948
3989.152019,-8956.491898,-222.061783,0.000000
3989.152349,-8660.409521,0.000000,0.000000
3989.152678,-9622.677246,0.000000,689.485948
3989.153008,-10881.027347,74.020594,1149.143247
3989.153338,-10807.006753,148.041188,995.924147
3989.153668,-9844.739029,370.102971,-229.828649
3989.153997,-8660.409521,-370.102971,-766.095498
3989.154327,-9178.553681,0.000000,0.000000
3989.154657,-9992.780217,-444.123565,612.876398
3989.154987,-10732.986159,-74.020594,1149.143247
3989.155317,-9918.759623,222.061783,76.609550
3989.155646,-9326.594869,-148.041188,-995.924147
3989.155976,-8734.430116,-74.020594,-1455.581446
3989.156306,-9252.574275,0.000000,-536.266849
3989.156636,-10214.842000,370.102971,229.828649
3989.156966,-10436.903782,370.102971,995.924147
3989.157295,-9622.677246,444.123565,306.438199
3989.157625,-8956.491898,-222.061783,-306.438199
3989.157955,-9770.718434,0.000000,229.828649
3989.158285,-10584.944971,0.000000,383.047749
3989.158615,-11177.109724,0.000000,536.266849
3989.158944,-9548.656652,222.061783,-306.438199
3989.159274,-8882.471304,222.061783,-229.828649
3989.159604,-9030.512492,1036.288319,-383.047749
3989.159934,-10140.821405,666.185348,306.438199
3989.160264,-11325.150913,814.226536,612.876398
3989.160593,-10214.842000,592.164754,-153.219100
3989.160923,-8956.491898,370.102971,-842.705048
3989.161253,-8734.430116,0.000000,-153.219100
3989.161583,-9474.636058,222.061783,766.095498
3989.161913,-10658.965565,-222.061783,2221.676944
3989.162242,-10881.027347,0.000000,1302.362347
3989.162572,-9474.636058,0.000000,0.000000
3989.162902,-8956.491898,296.082377,-995.924147
3989.163232,-9104.533087,296.082377,-383.047749
3989.163562,-9918.759623,444.123565,689.485948
