#time,accel_x,accel_y,accel_z
3737.625456,-9918.759623,0.000000,536.266849
3737.625786,-9770.718434,222.061783,76.609550
3737.626116,-9474.636058,370.102971,-536.266849
3737.626446,-9696.697840,222.061783,0.000000
3737.626776,-9770.718434,0.000000,0.000000
3737.627106,-9770.718434,-148.041188,536.266849
3737.627436,-9992.780217,0.000000,229.828649
3737.627766,-9918.759623,0.000000,383.047749
3737.628097,-9770.718434,0.000000,306.438199
3737.628427,-9770.718434,0.000000,306.438199
3737.628757,-9696.697840,0.000000,459.657299
3737.629087,-9696.697840,444.123565,0.000000
3737.629417,-9622.677246,0.000000,229.828649
3737.629747,-9548.656652,0.000000,612.876398
3737.630077,-9548.656652,0.000000,536.266849
3737.630407,-9622.677246,222.061783,0.000000
3737.630737,-10214.842000,0.000000,0.000000
3737.631067,-9622.677246,0.000000,-383.047749
3737.631397,-9918.759623,74.020594,-383.047749
3737.631727,-9622.677246,-74.020594,-229.828649
3737.632057,-9622.677246,-222.061783,-383.047749
3737.632387,-9844.739029,0.000000,153.219100
3737.632717,-9844.739029,-370.102971,76.609550
3737.633047,-9844.739029,-444.123565,306.438199
3737.633378,-9326.594869,-740.205942,-459.657299
3737.633708,-9548.656652,-370.102971,-919.314598
3737.634038,-9326.594869,-296.082377,-612.876398
3737.634368,-9918.759623,-666.185348,-842.705048
3737.634698,-9622.677246,0.000000,-689.485948
3737.635028,-10288.862594,-222.061783,306.438199
3737.635358,-10510.924376,-222.061783,0.000000
3737.635688,-9992.780217,-666.185348,-766.095498
3737.636018,-10066.800811,-592.164754,-1532.190996
3737.636348,-9548.656652,-814.226536,-2145.067394
3737.636678,-9474.636058,-1110.308913,-1762.019645
3737.637008,-9548.656652,-1184.329507,-1225.752797
3737.637338,-9400.615463,-1184.329507,-229.828649
3737.637668,-9178.553681,-1036.288319,-612.876398
3737.637998,-9622.677246,-1036.288319,-229.828649
3737.638328,-9918.759623,-1036.288319,-689.485948
3737.638658,-10362.883188,-888.247130,-995.924147
3737.638989,-9622.677246,-740.205942,-842.705048
3737.639319,-10214.842000,-740.205942,-1149.143247
3737.639649,-10584.944971,-740.205942,-1302.362347
3737.639979,-10214.842000,-1110.308913,-1532.190996
3737.640309,-9548.656652,-1332.370696,-2604.724693
3737.640639,-10140.821405,-1480.411884,-2528.115143
3737.640969,-9918.759623,-1924.535449,-2681.334243
3737.641299,-9622.677246,-1998.556043,-2068.457845
3737.641629,-8586.388927,-2146.597232,-2451.505594
3737.641959,-8068.244768,-2146.597232,-1685.410096
3737.642289,-8660.409521,-1924.535449,-766.095498
3737.642619,-9474.636058,-1554.432478,-459.657299
3737.642949,-10066.800811,-1406.391290,0.000000
3737.643279,-11103.089130,-962.267725,-306.438199
3737.643609,-11843.295072,-1480.411884,-383.047749
3737.643939,-12139.377449,-1850.514855,-1302.362347
3737.644269,-11473.192101,-2516.700203,-3524.039291
3737.644600,-9918.759623,-3108.864956,-5132.839837
3737.644930,-8216.285956,-3997.112087,-4903.011187
3737.645260,-7031.956449,-3552.988522,-3217.601092
3737.645590,-7476.080014,-2590.720797,-1455.581446
3737.645920,-9104.533087,-1332.370696,-995.924147
3737.646250,-9992.780217,-1332.370696,-2604.724693
3737.646580,-10732.986159,-1332.370696,-4136.915689
3737.646910,-11325.150913,-2294.638420,-5056.230287
3737.647240,-11843.295072,-3775.050304,-4443.353888
3737.647570,-10140.821405,-4737.318029,-2757.943793
3737.647900,-8512.368333,-5773.606348,-1685.410096
3737.648230,-7031.956449,-5255.462188,-1915.238745
3737.648560,-7105.977043,-4515.256246,-2298.286494
3737.648890,-8586.388927,-3034.844362,-2374.896044
3737.649220,-10066.800811,-2072.576638,-1991.848295
3737.649550,-10955.047942,-1332.370696,-1532.190996
3737.649881,-11621.233289,-1110.308913,-2145.067394
3737.650211,-11103.089130,-2072.576638,-3524.039291
3737.650541,-10288.862594,-3627.009116,-4903.011187
3737.650871,-9474.636058,-4811.338623,-4979.620737
3737.651201,-8956.491898,-5181.441594,-3830.477490
3737.651531,-8660.409521,-4737.318029,-1532.190996
3737.651861,-8364.327145,-4219.173869,306.438199
3737.652191,-8068.244768,-3478.967927,1072.533697
3737.652521,-9548.656652,-2368.659014,1072.533697
3737.652851,-11843.295072,-1406.391290,-919.314598
3737.653181,-12435.459826,-1628.453072,-1915.238745
3737.653511,-11251.130318,-2294.638420,-3447.429741
3737.653841,-9474.636058,-3182.885551,-3064.381992
3737.654171,-9178.553681,-4145.153275,-2451.505594
3737.654501,-8882.471304,-4441.235652,-1685.410096
3737.654831,-8586.388927,-4219.173869,-1225.752797
3737.655161,-8364.327145,-3108.864956,-1455.581446
3737.655492,-8956.491898,-3108.864956,-1532.190996
3737.655822,-10510.924376,-2516.700203,-229.828649
3737.656152,-11399.171507,-518.144159,689.485948
3737.656482,-11177.109724,-888.247130,-689.485948
3737.656812,-11103.089130,-1480.411884,-995.924147
3737.657142,-9178.553681,-2294.638420,-689.485948
3737.657472,-9252.574275,-2220.617826,-2374.896044
3737.657802,-10288.862594,-2442.679609,-3140.991542
3737.658132,-10584.944971,-2368.659014,-2834.553343
3737.658462,-9252.574275,-2146.597232,-2681.334243
3737.658792,-8364.327145,-2072.576638,-842.705048
3737.659122,-9770.718434,-1776.494261,842.705048
3737.659452,-10214.842000,-1258.350101,0.000000
3737.659782,-9104.533087,-1702.473667,-2451.505594
3737.660112,-8956.491898,-1184.329507,-3217.601092
3737.660442,-9844.739029,-1258.350101,-2834.553343
3737.660772,-10658.965565,-1258.350101,-1072.533697
3737.661103,-9918.759623,-1258.350101,383.047749
3737.661433,-10140.821405,-888.247130,-76.609550
3737.661763,-10288.862594,-444.123565,-2757.943793
3737.662093,-10955.047942,-1110.308913,-4903.011187
3737.662423,-10140.821405,-1258.350101,-4826.401637
3737.662753,-9474.636058,-1480.411884,-3447.429741
3737.663083,-9992.780217,-962.267725,-2221.676944
3737.663413,-9030.512492,-1332.370696,-1378.971896
3737.663743,-7179.997637,-1628.453072,-2374.896044
3737.664073,-6587.832884,-1628.453072,-3830.477490
3737.664403,-7624.121203,-1110.308913,-2528.115143
3737.664733,-10732.986159,-592.164754,0.000000
3737.665063,-12065.356855,148.041188,842.705048
3737.665393,-11473.192101,-296.082377,0.000000
3737.665723,-10955.047942,-814.226536,-2145.067394
3737.666053,-10881.027347,-1036.288319,-3983.696590
3737.666384,-11399.171507,-1628.453072,-4596.572988
3737.666714,-9992.780217,-1628.453072,-3677.258390
3737.667044,-7994.224174,-1776.494261,-1991.848295
3737.667374,-6883.915261,-1406.391290,-766.095498
3737.667704,-8142.265362,-962.267725,-995.924147
3737.668034,-10881.027347,-1036.288319,-2528.115143
3737.668364,-10362.883188,-888.247130,-3524.039291
3737.668694,-8438.347739,-1036.288319,-2528.115143
3737.669024,-8882.471304,-1628.453072,-995.924147
3737.669354,-10658.965565,-1850.514855,919.314598
3737.669684,-11991.336260,-1924.535449,1532.190996
3737.670014,-11029.068536,-2590.720797,0.000000
3737.670344,-10066.800811,-2516.700203,-1072.533697
3737.670674,-10732.986159,-2294.638420,-383.047749
3737.671004,-10288.862594,-2368.659014,0.000000
3737.671334,-8364.327145,-1850.514855,-995.924147
3737.671664,-7254.018232,-814.226536,-1685.410096
3737.671995,-9030.512492,-518.144159,-2451.505594
3737.672325,-11917.315666,-370.102971,-1915.238745
3737.672655,-11769.274478,-1702.473667,-2068.457845
3737.672985,-9770.718434,-1628.453072,-2221.676944
3737.673315,-9252.574275,-2812.782580,-1915.238745
3737.673645,-10214.842000,-3256.906145,-1302.362347
3737.673975,-9770.718434,-3552.988522,-383.047749
3737.674305,-8364.327145,-3552.988522,0.000000
3737.674635,-8290.306550,-3034.844362,-76.609550
3737.674965,-9844.739029,-2146.597232,76.609550
3737.675295,-11177.109724,-1850.514855,383.047749
3737.675625,-10362.883188,-1480.411884,689.485948
3737.675955,-9696.697840,-2146.597232,-1225.752797
3737.676285,-9400.615463,-1850.514855,-2681.334243
3737.676615,-9030.512492,-2220.617826,-3064.381992
3737.676945,-9252.574275,-2294.638420,-1149.143247
3737.677275,-9548.656652,-1554.432478,-459.657299
3737.677606,-10066.800811,-1850.514855,-612.876398
3737.677936,-9030.512492,-2368.659014,-1455.581446
3737.678266,-9252.574275,-2220.617826,153.219100
3737.678596,-10140.821405,-1036.288319,1991.848295
3737.678926,-11103.089130,-740.205942,2145.067394
3737.679256,-9252.574275,-1110.308913,1072.533697
3737.679586,-8216.285956,-370.102971,-766.095498
3737.679916,-8956.491898,296.082377,-383.047749
3737.680246,-11177.109724,0.000000,1149.143247
3737.680576,-11769.274478,148.041188,1302.362347
3737.680906,-10955.047942,-370.102971,306.438199
3737.681235,-10066.800811,-740.205942,-766.095498
3737.681565,-9400.615463,-1110.308913,153.219100
3737.681895,-8660.409521,-518.144159,766.095498
3737.682225,-8438.347739,0.000000,459.657299
3737.682555,-8438.347739,592.164754,612.876398
3737.682885,-9326.594869,592.164754,1608.800546
3737.683215,-9992.780217,740.205942,1991.848295
3737.683544,-11177.109724,740.205942,2068.457845
3737.683874,-11325.150913,814.226536,1455.581446
3737.684204,-10288.862594,370.102971,76.609550
3737.684534,-8956.491898,74.020594,-689.485948
3737.684864,-8586.388927,740.205942,459.657299
3737.685194,-10288.862594,1184.329507,1838.629195
3737.685524,-10584.944971,1702.473667,1608.800546
3737.685853,-9400.615463,1406.391290,76.609550
3737.686183,-9696.697840,1702.473667,-536.266849
3737.686513,-10436.903782,1554.432478,229.828649
3737.686843,-11399.171507,1480.411884,689.485948
3737.687173,-9326.594869,1258.350101,0.000000
3737.687503,-7920.203579,1036.288319,-536.266849
3737.687833,-8734.430116,1850.514855,536.266849
3737.688162,-10362.883188,1258.350101,0.000000
3737.688492,-10288.862594,1184.329507,-1072.533697
3737.688822,-9252.574275,888.247130,-919.314598
3737.689152,-9548.656652,1406.391290,0.000000
3737.689482,-10140.821405,1554.432478,1608.800546
3737.689812,-9992.780217,1554.432478,612.876398
3737.690142,-8882.471304,1628.453072,-306.438199
3737.690471,-8882.471304,1480.411884,-1762.019645
3737.690801,-9474.636058,1776.494261,-1225.752797
3737.691131,-10436.903782,1332.370696,1149.143247
3737.691461,-10807.006753,2072.576638,1532.190996
3737.691791,-9992.780217,1924.535449,383.047749
3737.692121,-9918.759623,1924.535449,-1608.800546
3737.692451,-9992.780217,1776.494261,-1302.362347
3737.692780,-10732.986159,1998.556043,0.000000
3737.693110,-10510.924376,1332.370696,689.485948
3737.693440,-9030.512492,814.226536,536.266849
3737.693770,-8512.368333,814.226536,1378.971896
3737.694100,-9770.718434,740.205942,1455.581446
3737.694430,-10881.027347,814.226536,1532.190996
3737.694760,-10362.883188,148.041188,995.924147
3737.695089,-9252.574275,296.082377,842.705048
3737.695419,-9400.615463,518.144159,1915.238745
3737.695749,-9696.697840,814.226536,2834.553343
3737.696079,-10362.883188,518.144159,2451.505594
3737.696409,-10214.842000,740.205942,766.095498
3737.696739,-9844.739029,148.041188,-1378.971896
3737.697069,-10066.800811,148.041188,-766.095498
3737.697398,-10436.903782,222.061783,1225.752797
3737.697728,-9992.780217,-74.020594,1378.971896
3737.698058,-8734.430116,0.000000,-229.828649
3737.698388,-9178.553681,-666.185348,-766.095498
3737.698718,-10066.800811,-740.205942,-766.095498
3737.699048,-10362.883188,-370.102971,-229.828649
3737.699378,-9992.780217,-666.185348,0.000000
3737.699707,-9918.759623,-666.185348,-306.438199
3737.700037,-9696.697840,-666.185348,0.000000
3737.700367,-10288.862594,-1258.350101,-153.219100
3737.700697,-9548.656652,-1776.494261,76.609550
3737.701027,-9548.656652,-1776.494261,306.438199
3737.701357,-9474.636058,-1258.350101,0.000000
3737.701687,-8734.430116,-1332.370696,-536.266849
3737.702016,-9030.512492,-1480.411884,0.000000
3737.702346,-9474.636058,-666.185348,0.000000
3737.702676,-9548.656652,-888.247130,-689.485948
3737.703006,-9770.718434,-962.267725,-1455.581446
3737.703336,-9548.656652,-1184.329507,-153.219100
3737.703666,-10066.800811,-1258.350101,689.485948
3737.703996,-10362.883188,-666.185348,612.876398
3737.704325,-9696.697840,-888.247130,-1149.143247
3737.704655,-9548.656652,-1258.350101,-1149.143247
3737.704985,-10066.800811,-1332.370696,-612.876398
3737.705315,-10214.842000,-666.185348,689.485948
3737.705645,-9696.697840,-370.102971,459.657299
3737.705975,-9326.594869,-666.185348,1225.752797
3737.706305,-9770.718434,-962.267725,1149.143247
3737.706634,-9992.780217,-592.164754,1532.190996
3737.706964,-9696.697840,-444.123565,1149.143247
3737.707294,-10214.842000,-814.226536,536.266849
3737.707624,-10140.821405,-296.082377,766.095498
3737.707954,-10214.842000,-888.247130,1532.190996
3737.708284,-10658.965565,-74.020594,1838.629195
3737.708614,-10362.883188,-518.144159,1378.971896
3737.708943,-9770.718434,-296.082377,229.828649
3737.709273,-9474.636058,0.000000,766.095498
3737.709603,-9548.656652,-296.082377,612.876398
3737.709933,-9400.615463,222.061783,536.266849
3737.710263,-9474.636058,444.123565,383.047749
3737.710593,-9696.697840,0.000000,0.000000
3737.710923,-9992.780217,444.123565,-383.047749
3737.711252,-9696.697840,666.185348,-1302.362347
3737.711582,-10214.842000,296.082377,-842.705048
3737.711912,-9770.718434,74.020594,0.000000
3737.712242,-9844.739029,222.061783,-306.438199
3737.712572,-9030.512492,0.000000,-383.047749
3737.712902,-8808.450710,444.123565,-383.047749
3737.713232,-9252.574275,1110.308913,0.000000
3737.713561,-9844.739029,888.247130,-995.924147
3737.713891,-9548.656652,1406.391290,-1685.410096
3737.714221,-9030.512492,962.267725,-919.314598
3737.714551,-9770.718434,1702.473667,76.609550
3737.714881,-9770.718434,1184.329507,383.047749
3737.715211,-9770.718434,888.247130,-306.438199
3737.715541,-9474.636058,1110.308913,0.000000
3737.715870,-9474.636058,888.247130,-842.705048
3737.716200,-9326.594869,1110.308913,-229.828649
3737.716530,-10140.821405,1628.453072,0.000000
3737.716860,-10510.924376,1110.308913,229.828649
3737.717190,-9918.759623,1110.308913,0.000000
3737.717520,-9252.574275,962.267725,306.438199
3737.717850,-9992.780217,1184.329507,995.924147
3737.718179,-9696.697840,814.226536,766.095498
3737.718509,-9622.677246,1184.329507,1149.143247
3737.718839,-9548.656652,1184.329507,1455.581446
3737.719169,-10214.842000,1702.473667,842.705048
3737.719499,-11251.130318,1258.350101,766.095498
3737.719829,-10584.944971,814.226536,612.876398
3737.720159,-10362.883188,1110.308913,306.438199
3737.720488,-10214.842000,592.164754,612.876398
3737.720818,-10288.862594,0.000000,1149.143247
3737.721148,-9918.759623,0.000000,1915.238745
3737.721478,-9104.533087,-296.082377,1378.971896
3737.721808,-9178.553681,-370.102971,229.828649
3737.722138,-9400.615463,-148.041188,766.095498
3737.722468,-9918.759623,-222.061783,919.314598
3737.722797,-10510.924376,-370.102971,995.924147
3737.723127,-10214.842000,-592.164754,0.000000
3737.723457,-9400.615463,-1184.329507,0.000000
3737.723787,-9326.594869,-888.247130,842.705048
3737.724117,-9474.636058,-888.247130,459.657299
3737.724447,-9400.615463,-1184.329507,536.266849
3737.724777,-8882.471304,-1184.329507,-306.438199
3737.725106,-8882.471304,-740.205942,612.876398
3737.725436,-9548.656652,0.000000,536.266849
3737.725766,-10140.821405,-148.041188,536.266849
3737.726096,-10288.862594,148.041188,76.609550
3737.726426,-10066.800811,0.000000,-459.657299
3737.726756,-10214.842000,-222.061783,-1302.362347
3737.727086,-10807.006753,296.082377,-459.657299
3737.727415,-10288.862594,0.000000,153.219100
3737.727745,-9992.780217,0.000000,-459.657299
3737.728075,-9548.656652,0.000000,-766.095498
3737.728405,-9696.697840,0.000000,-612.876398
3737.728735,-10732.986159,-370.102971,-76.609550
3737.729065,-10066.800811,-518.144159,76.609550
3737.729395,-9030.512492,-296.082377,229.828649
3737.729724,-9252.574275,-666.185348,1455.581446
3737.730054,-9992.780217,-222.061783,1378.971896
3737.730384,-10436.903782,-518.144159,842.705048
3737.730714,-10288.862594,-740.205942,689.485948
3737.731044,-9844.739029,-740.205942,1608.800546
3737.731374,-10584.944971,-296.082377,1532.190996
3737.731704,-10288.862594,0.000000,1762.019645
3737.732033,-9844.739029,-814.226536,1685.410096
3737.732363,-9252.574275,-444.123565,842.705048
3737.732693,-9696.697840,0.000000,153.219100
3737.733023,-10066.800811,0.000000,0.000000
3737.733353,-9474.636058,148.041188,536.266849
3737.733683,-9548.656652,0.000000,689.485948
3737.734013,-9474.636058,296.082377,-306.438199
3737.734342,-9252.574275,-148.041188,-919.314598
3737.734672,-9918.759623,0.000000,-995.924147
3737.735002,-10066.800811,-296.082377,-383.047749
3737.735332,-9622.677246,-888.247130,-612.876398
3737.735662,-9326.594869,-444.123565,0.000000
3737.735992,-9326.594869,-592.164754,-76.609550
3737.736322,-9178.553681,-370.102971,-689.485948
3737.736651,-9400.615463,-148.041188,-306.438199
3737.736981,-10066.800811,148.041188,-153.219100
3737.737311,-8956.491898,0.000000,-459.657299
3737.737641,-8882.471304,296.082377,-229.828649
3737.737971,-9474.636058,296.082377,0.000000
3737.738301,-9474.636058,814.226536,-536.266849
3737.738631,-9696.697840,222.061783,-1302.362347
3737.738960,-9992.780217,666.185348,-1532.190996
3737.739290,-9696.697840,518.144159,-689.485948
3737.739620,-9770.718434,444.123565,459.657299
3737.739950,-9474.636058,518.144159,0.000000
3737.740280,-9474.636058,666.185348,383.047749
3737.740610,-9918.759623,1332.370696,383.047749
3737.740940,-10510.924376,888.247130,383.047749
3737.741269,-10362.883188,1184.329507,0.000000
3737.741599,-9696.697840,1184.329507,0.000000
3737.741929,-9844.739029,1184.329507,229.828649
3737.742259,-10584.944971,962.267725,766.095498
3737.742589,-9992.780217,814.226536,1225.752797
3737.742919,-9844.739029,1036.288319,1455.581446
3737.743249,-10362.883188,814.226536,1149.143247
3737.743578,-10658.965565,962.267725,766.095498
3737.743908,-10584.944971,740.205942,1225.752797
3737.744238,-10066.800811,370.102971,1378.971896
3737.744568,-8586.388927,-148.041188,1302.362347
3737.744898,-8512.368333,0.000000,1532.190996
3737.745228,-9770.718434,0.000000,1915.238745
3737.745558,-9992.780217,148.041188,1532.190996
3737.745887,-10066.800811,370.102971,612.876398
3737.746217,-9474.636058,-148.041188,0.000000
3737.746547,-9844.739029,0.000000,153.219100
3737.746877,-10214.842000,-148.041188,919.314598
3737.747207,-9178.553681,-740.205942,842.705048
3737.747537,-8290.306550,-444.123565,842.705048
3737.747867,-9104.533087,-370.102971,383.047749
3737.748196,-10214.842000,148.041188,-1532.190996
3737.748526,-9844.739029,222.061783,-919.314598
3737.748856,-9548.656652,0.000000,-153.219100
3737.749186,-10214.842000,148.041188,536.266849
3737.749516,-9992.780217,888.247130,689.485948
3737.749846,-9770.718434,-222.061783,0.000000
3737.750176,-9178.553681,0.000000,-229.828649
3737.750505,-9474.636058,74.020594,-842.705048
3737.750835,-10436.903782,592.164754,-1072.533697
3737.751165,-10510.924376,296.082377,-919.314598
3737.751495,-10214.842000,222.061783,-689.485948
3737.751825,-9696.697840,0.000000,-612.876398
3737.752155,-9918.759623,-74.020594,0.000000
3737.752485,-9770.718434,-296.082377,0.000000
3737.752814,-9622.677246,-296.082377,0.000000
3737.753144,-8956.491898,222.061783,-383.047749
3737.753474,-9770.718434,0.000000,0.000000
3737.753804,-11547.212695,444.123565,995.924147
3737.754134,-11325.150913,-518.144159,1455.581446
3737.754464,-10584.944971,-740.205942,1302.362347
3737.754794,-9178.553681,-444.123565,1608.800546
3737.755123,-9252.574275,-1184.329507,1072.533697
3737.755453,-9770.718434,-370.102971,919.314598
3737.755783,-9400.615463,0.000000,1608.800546
3737.756113,-9400.615463,296.082377,1991.848295
3737.756443,-10140.821405,0.000000,612.876398
3737.756773,-10584.944971,0.000000,0.000000
3737.757103,-9992.780217,-296.082377,-306.438199
3737.757432,-10066.800811,-666.185348,0.000000
3737.757762,-9178.553681,-1036.288319,-306.438199
3737.758092,-8882.471304,-444.123565,-383.047749
3737.758422,-9326.594869,-592.164754,459.657299
3737.758752,-9696.697840,-222.061783,0.000000
3737.759082,-9770.718434,-444.123565,-536.266849
3737.759412,-9548.656652,-592.164754,-766.095498
3737.759741,-9252.574275,-518.144159,229.828649
3737.760071,-9104.533087,-518.144159,766.095498
3737.760401,-9622.677246,-518.144159,306.438199
3737.760731,-9548.656652,-592.164754,-153.219100
3737.761061,-9474.636058,-740.205942,-689.485948
3737.761391,-9474.636058,-222.061783,-306.438199
3737.761721,-9252.574275,222.061783,-229.828649
3737.762051,-9548.656652,296.082377,229.828649
3737.762380,-9474.636058,222.061783,0.000000
3737.762710,-10288.862594,740.205942,0.000000
3737.763040,-10584.944971,814.226536,-995.924147
3737.763370,-10732.986159,814.226536,-612.876398
3737.763700,-10066.800811,962.267725,-919.314598
3737.764030,-9252.574275,814.226536,0.000000
3737.764360,-9474.636058,1036.288319,0.000000
3737.764689,-9770.718434,1110.308913,76.609550
3737.765019,-10436.903782,962.267725,-383.047749
3737.765349,-10584.944971,1480.411884,229.828649
3737.765679,-10436.903782,1258.350101,0.000000
3737.766009,-10288.862594,592.164754,842.705048
3737.766339,-9474.636058,518.144159,689.485948
3737.766669,-8734.430116,-222.061783,1149.143247
3737.766998,-8512.368333,0.000000,1302.362347
3737.767328,-10140.821405,370.102971,1378.971896
3737.767658,-10732.986159,666.185348,1838.629195
3737.767988,-10584.944971,518.144159,2374.896044
3737.768318,-10510.924376,740.205942,1838.629195
3737.768648,-10214.842000,666.185348,1149.143247
3737.768978,-9770.718434,0.000000,306.438199
3737.769307,-9326.594869,444.123565,1072.533697
3737.769637,-9400.615463,444.123565,612.876398
3737.769967,-9770.718434,814.226536,-229.828649
3737.770297,-10362.883188,888.247130,-383.047749
3737.770627,-10436.903782,518.144159,-612.876398
3737.770957,-10140.821405,148.041188,-459.657299
3737.771287,-9252.574275,-592.164754,0.000000
3737.771616,-9104.533087,-592.164754,536.266849
3737.771946,-9178.553681,-666.185348,1378.971896
3737.772276,-9474.636058,0.000000,689.485948
3737.772606,-9548.656652,-518.144159,383.047749
3737.772936,-9918.759623,-370.102971,-766.095498
3737.773266,-9844.739029,-814.226536,-766.095498
3737.773596,-9548.656652,-518.144159,-229.828649
3737.773925,-9178.553681,-740.205942,536.266849
3737.774255,-8956.491898,-1036.288319,842.705048
3737.774585,-8956.491898,-814.226536,0.000000
3737.774915,-9474.636058,0.000000,-612.876398
3737.775245,-10584.944971,444.123565,-689.485948
3737.775575,-11029.068536,666.185348,-689.485948
3737.775905,-10214.842000,444.123565,-919.314598
3737.776234,-9622.677246,0.000000,0.000000
3737.776564,-10584.944971,370.102971,459.657299
3737.776894,-10584.944971,370.102971,-383.047749
3737.777224,-9696.697840,74.020594,-1072.533697
3737.777554,-9622.677246,222.061783,-919.314598
3737.777884,-9992.780217,148.041188,-229.828649
3737.778214,-10510.924376,222.061783,1378.971896
3737.778543,-9992.780217,0.000000,1378.971896
3737.778873,-9474.636058,-296.082377,1762.019645
3737.779203,-9622.677246,-222.061783,1455.581446
3737.779533,-9770.718434,-370.102971,1072.533697
3737.779862,-9918.759623,-666.185348,1072.533697
3737.780192,-10436.903782,-222.061783,1302.362347
3737.780522,-9696.697840,-222.061783,919.314598
3737.780852,-9696.697840,-296.082377,995.924147
3737.781181,-9622.677246,-148.041188,1149.143247
3737.781511,-10066.800811,0.000000,842.705048
3737.781841,-9696.697840,-444.123565,0.000000
3737.782170,-9326.594869,-370.102971,-612.876398
3737.782500,-8956.491898,-370.102971,0.000000
3737.782830,-9030.512492,-296.082377,-612.876398
3737.783159,-9548.656652,0.000000,-919.314598
3737.783489,-9252.574275,-444.123565,-612.876398
3737.783819,-9992.780217,-518.144159,0.000000
3737.784149,-9844.739029,-592.164754,0.000000
3737.784478,-9548.656652,-740.205942,-689.485948
3737.784808,-8882.471304,-962.267725,0.000000
3737.785138,-8290.306550,-814.226536,0.000000
3737.785467,-9770.718434,-370.102971,229.828649
3737.785797,-9918.759623,0.000000,0.000000
3737.786127,-9622.677246,148.041188,0.000000
3737.786457,-9252.574275,74.020594,-995.924147
3737.786786,-9104.533087,444.123565,-919.314598
3737.787116,-10955.047942,592.164754,0.000000
3737.787446,-11621.233289,666.185348,0.000000
3737.787775,-9918.759623,296.082377,-536.266849
3737.788105,-9474.636058,222.061783,-842.705048
3737.788435,-10288.862594,222.061783,383.047749
3737.788765,-10732.986159,740.205942,612.876398
3737.789094,-10362.883188,518.144159,229.828649
3737.789424,-9844.739029,1036.288319,383.047749
3737.789754,-9844.739029,296.082377,459.657299
3737.790083,-10658.965565,444.123565,459.657299
3737.790413,-10288.862594,666.185348,612.876398
3737.790743,-9474.636058,296.082377,1072.533697
3737.791073,-9104.533087,0.000000,1072.533697
3737.791402,-9474.636058,-74.020594,1455.581446
3737.791732,-9844.739029,222.061783,1685.410096
3737.792062,-10362.883188,222.061783,2221.676944
3737.792391,-9918.759623,-148.041188,1685.410096
3737.792721,-10362.883188,0.000000,1072.533697
3737.793051,-9992.780217,74.020594,1455.581446
3737.793381,-9622.677246,0.000000,1455.581446
3737.793710,-9474.636058,0.000000,842.705048
3737.794040,-8364.327145,-370.102971,0.000000
3737.794370,-8660.409521,0.000000,383.047749
3737.794699,-9696.697840,296.082377,459.657299
3737.795029,-9400.615463,-296.082377,-229.828649
3737.795359,-8882.471304,-370.102971,-229.828649
3737.795689,-9030.512492,0.000000,76.609550
3737.796018,-9918.759623,-296.082377,306.438199
3737.796348,-10066.800811,-370.102971,383.047749
3737.796678,-9474.636058,-518.144159,0.000000
3737.797007,-8956.491898,-370.102971,-995.924147
3737.797337,-10066.800811,148.041188,-306.438199
3737.797667,-10436.903782,148.041188,229.828649
3737.797996,-9548.656652,0.000000,995.924147
3737.798326,-8956.491898,518.144159,0.000000
3737.798656,-8956.491898,370.102971,-1378.971896
3737.798986,-10214.842000,370.102971,-689.485948
3737.799315,-10807.006753,592.164754,0.000000
3737.799645,-10658.965565,962.267725,383.047749
3737.799975,-10436.903782,740.205942,-612.876398
3737.800304,-10214.842000,296.082377,-995.924147
3737.800634,-9918.759623,74.020594,-1072.533697
3737.800964,-9770.718434,296.082377,0.000000
3737.801294,-9474.636058,518.144159,766.095498
3737.801623,-10140.821405,740.205942,1378.971896
3737.801953,-10658.965565,444.123565,459.657299
3737.802283,-9844.739029,592.164754,229.828649
3737.802612,-9548.656652,0.000000,-76.609550
3737.802942,-9918.759623,0.000000,766.095498
3737.803272,-9400.615463,-666.185348,612.876398
3737.803602,-9326.594869,0.000000,1149.143247
3737.803931,-9844.739029,-592.164754,995.924147
3737.804261,-10955.047942,0.000000,1608.800546
3737.804591,-10658.965565,-296.082377,689.485948
3737.804920,-9622.677246,-666.185348,919.314598
3737.805250,-9030.512492,-444.123565,1455.581446
3737.805580,-8290.306550,-518.144159,1685.410096
3737.805910,-9326.594869,-222.061783,1225.752797
3737.806239,-9770.718434,0.000000,153.219100
3737.806569,-9844.739029,-518.144159,0.000000
3737.806899,-10288.862594,0.000000,-919.314598
3737.807228,-9992.780217,-814.226536,-1455.581446
3737.807558,-8512.368333,-1036.288319,0.000000
3737.807888,-8364.327145,-962.267725,383.047749
3737.808218,-8734.430116,-740.205942,-153.219100
3737.808547,-9474.636058,-666.185348,306.438199
3737.808877,-10807.006753,0.000000,766.095498
3737.809207,-10658.965565,0.000000,536.266849
3737.809536,-9918.759623,0.000000,0.000000
3737.809866,-9178.553681,-370.102971,459.657299
3737.810196,-9030.512492,0.000000,76.609550
3737.810526,-9400.615463,-296.082377,-306.438199
3737.810855,-9770.718434,0.000000,-919.314598
3737.811185,-10288.862594,74.020594,-612.876398
3737.811515,-10658.965565,518.144159,-383.047749
3737.811844,-10658.965565,592.164754,0.000000
3737.812174,-10362.883188,222.061783,-229.828649
3737.812504,-9400.615463,666.185348,-536.266849
3737.812834,-9474.636058,518.144159,-842.705048
3737.813163,-10066.800811,666.185348,76.609550
3737.813493,-10881.027347,814.226536,1225.752797
3737.813823,-10955.047942,666.185348,1915.238745
3737.814152,-10807.006753,740.205942,766.095498
3737.814482,-9992.780217,148.041188,229.828649
3737.814812,-9474.636058,296.082377,689.485948
3737.815141,-9548.656652,-148.041188,1532.190996
3737.815471,-9474.636058,148.041188,1608.800546
3737.815801,-9696.697840,74.020594,2068.457845
3737.816131,-9622.677246,592.164754,1685.410096
3737.816460,-9918.759623,74.020594,1225.752797
3737.816790,-10732.986159,518.144159,1149.143247
3737.817120,-10214.842000,148.041188,612.876398
3737.817449,-10066.800811,370.102971,229.828649
3737.817779,-8660.409521,-222.061783,306.438199
3737.818109,-8438.347739,-74.020594,919.314598
3737.818439,-9548.656652,0.000000,766.095498
3737.818768,-9696.697840,444.123565,459.657299
3737.819098,-9400.615463,74.020594,-306.438199
3737.819428,-9770.718434,222.061783,0.000000
3737.819757,-10362.883188,0.000000,1072.533697
3737.820087,-10436.903782,148.041188,842.705048
3737.820417,-8882.471304,-148.041188,76.609550
3737.820747,-9252.574275,370.102971,-76.609550
3737.821076,-9326.594869,592.164754,-995.924147
3737.821406,-9548.656652,296.082377,-1225.752797
3737.821736,-9548.656652,444.123565,-1608.800546
3737.822065,-8956.491898,592.164754,-1915.238745
3737.822395,-9918.759623,0.000000,-1302.362347
3737.822725,-10288.862594,444.123565,-766.095498
3737.823055,-10214.842000,0.000000,153.219100
3737.823384,-9918.759623,222.061783,-153.219100
3737.823714,-9770.718434,148.041188,0.000000
3737.824044,-9918.759623,0.000000,229.828649
3737.824373,-9844.739029,296.082377,689.485948
3737.824703,-10510.924376,370.102971,766.095498
3737.825033,-10584.944971,814.226536,153.219100
3737.825363,-9770.718434,370.102971,-689.485948
3737.825692,-9918.759623,444.123565,0.000000
3737.826022,-11325.150913,296.082377,536.266849
3737.826352,-10658.965565,0.000000,1225.752797
3737.826681,-9474.636058,-666.185348,229.828649
3737.827011,-9178.553681,-370.102971,459.657299
3737.827341,-9548.656652,-444.123565,766.095498
3737.827671,-10214.842000,0.000000,1762.019645
3737.828000,-10510.924376,0.000000,1302.362347
3737.828330,-9770.718434,0.000000,766.095498
3737.828660,-9992.780217,0.000000,459.657299
3737.828989,-10066.800811,-370.102971,919.314598
3737.829319,-10066.800811,-74.020594,919.314598
3737.829649,-8956.491898,-888.247130,-383.047749
3737.829978,-8586.388927,-962.267725,-995.924147
3737.830308,-9770.718434,-740.205942,76.609550
3737.830638,-9992.780217,-592.164754,1225.752797
3737.830968,-9104.533087,-962.267725,612.876398
3737.831297,-8438.347739,-962.267725,153.219100
3737.831627,-9252.574275,-814.226536,0.000000
3737.831957,-9770.718434,-1036.288319,-383.047749
3737.832286,-9696.697840,-666.185348,-459.657299
3737.832616,-9104.533087,-814.226536,229.828649
3737.832946,-9474.636058,-370.102971,689.485948
3737.833276,-9770.718434,-592.164754,612.876398
3737.833605,-9844.739029,-518.144159,536.266849
3737.833935,-9622.677246,74.020594,153.219100
3737.834265,-9548.656652,370.102971,-459.657299
3737.834594,-9844.739029,444.123565,-842.705048
3737.834924,-9918.759623,740.205942,229.828649
3737.835254,-10510.924376,1110.308913,919.314598
3737.835584,-11325.150913,1258.350101,229.828649
3737.835913,-11029.068536,592.164754,-689.485948
3737.836243,-9548.656652,222.061783,-1302.362347
3737.836573,-8734.430116,962.267725,0.000000
3737.836902,-10510.924376,888.247130,766.095498
3737.837232,-10881.027347,1184.329507,1225.752797
3737.837562,-9844.739029,666.185348,383.047749
3737.837892,-9770.718434,1110.308913,0.000000
3737.838221,-10066.800811,888.247130,383.047749
3737.838551,-10807.006753,592.164754,1302.362347
3737.838881,-10140.821405,814.226536,1685.410096
3737.839210,-9178.553681,444.123565,1455.581446
3737.839540,-9178.553681,148.041188,1225.752797
3737.839870,-10214.842000,222.061783,1455.581446
3737.840200,-10732.986159,444.123565,1838.629195
3737.840529,-10066.800811,296.082377,1762.019645
3737.840859,-9252.574275,370.102971,612.876398
3737.841189,-9178.553681,370.102971,536.266849
3737.841518,-9252.574275,222.061783,0.000000
3737.841848,-9622.677246,518.144159,-1302.362347
3737.842178,-9844.739029,74.020594,-1225.752797
3737.842508,-9918.759623,0.000000,-383.047749
3737.842837,-9252.574275,-370.102971,306.438199
3737.843167,-8734.430116,-148.041188,766.095498
3737.843497,-9770.718434,-370.102971,919.314598
3737.843826,-9844.739029,-592.164754,-153.219100
3737.844156,-9918.759623,-592.164754,-459.657299
3737.844486,-9474.636058,-296.082377,383.047749
3737.844815,-9918.759623,0.000000,1762.019645
3737.845145,-10140.821405,0.000000,766.095498
3737.845475,-9474.636058,-444.123565,-229.828649
3737.845805,-8882.471304,0.000000,-1149.143247
3737.846134,-10140.821405,148.041188,-1149.143247
3737.846464,-10658.965565,0.000000,-1685.410096
3737.846794,-9548.656652,-148.041188,-1915.238745
3737.847123,-9030.512492,74.020594,-919.314598
3737.847453,-9548.656652,888.247130,229.828649
3737.847783,-11177.109724,814.226536,229.828649
3737.848113,-10658.965565,148.041188,0.000000
3737.848442,-9918.759623,148.041188,0.000000
3737.848772,-10658.965565,74.020594,306.438199
3737.849102,-10584.944971,518.144159,1608.800546
3737.849431,-10436.903782,0.000000,1532.190996
3737.849761,-9104.533087,74.020594,612.876398
3737.850091,-9030.512492,0.000000,-229.828649
3737.850421,-9696.697840,0.000000,383.047749
3737.850750,-10362.883188,370.102971,1455.581446
3737.851080,-10140.821405,222.061783,1455.581446
3737.851410,-9770.718434,0.000000,689.485948
3737.851739,-9548.656652,-740.205942,612.876398
3737.852069,-9696.697840,-814.226536,1072.533697
3737.852399,-9622.677246,-1036.288319,1532.190996
3737.852729,-9548.656652,-592.164754,1532.190996
3737.853058,-9622.677246,-592.164754,1915.238745
3737.853388,-9400.615463,-370.102971,1991.848295
3737.853718,-9770.718434,-296.082377,612.876398
3737.854047,-10066.800811,-296.082377,229.828649
3737.854377,-9992.780217,-370.102971,459.657299
3737.854707,-9622.677246,-370.102971,153.219100
3737.855037,-8882.471304,-370.102971,0.000000
3737.855366,-9252.574275,-444.123565,995.924147
3737.855696,-9474.636058,-370.102971,76.609550
3737.856026,-9770.718434,-222.061783,-995.924147
3737.856355,-9326.594869,148.041188,-1991.848295
3737.856685,-9622.677246,0.000000,-1608.800546
3737.857015,-9696.697840,370.102971,-306.438199
3737.857345,-9104.533087,-296.082377,76.609550
3737.857674,-9178.553681,296.082377,-383.047749
3737.858004,-9844.739029,518.144159,0.000000
3737.858334,-10510.924376,0.000000,-536.266849
3737.858663,-10214.842000,148.041188,-689.485948
3737.858993,-9696.697840,444.123565,-1072.533697
3737.859323,-10510.924376,592.164754,383.047749
3737.859653,-9622.677246,222.061783,1072.533697
3737.859982,-9696.697840,370.102971,1149.143247
3737.860312,-9992.780217,592.164754,383.047749
3737.860642,-10732.986159,592.164754,-1072.533697
3737.860971,-10288.862594,1184.329507,-1532.190996
3737.861301,-9992.780217,592.164754,-1072.533697
3737.861631,-10732.986159,666.185348,76.609550
3737.861960,-10140.821405,444.123565,919.314598
3737.862290,-9992.780217,370.102971,536.266849
3737.862620,-9252.574275,74.020594,0.000000
3737.862950,-9770.718434,296.082377,995.924147
3737.863279,-11029.068536,592.164754,1685.410096
3737.863609,-10807.006753,370.102971,1149.143247
3737.863939,-10214.842000,148.041188,1302.362347
3737.864268,-9622.677246,0.000000,1685.410096
3737.864598,-10066.800811,-296.082377,1608.800546
3737.864928,-10066.800811,-296.082377,1532.190996
3737.865258,-9178.553681,-296.082377,1149.143247
3737.865587,-8660.409521,0.000000,76.609550
3737.865917,-9252.574275,444.123565,-459.657299
3737.866247,-9992.780217,370.102971,-229.828649
3737.866576,-10140.821405,-222.061783,-229.828649
3737.866906,-9104.533087,-444.123565,-383.047749
3737.867236,-8364.327145,-888.247130,0.000000
3737.867566,-8956.491898,-296.082377,1302.362347
3737.867895,-9548.656652,-370.102971,766.095498
3737.868225,-9622.677246,-148.041188,0.000000
3737.868555,-9030.512492,-370.102971,-919.314598
3737.868884,-9178.553681,-296.082377,0.000000
3737.869214,-9918.759623,-222.061783,306.438199
3737.869544,-9992.780217,-666.185348,1072.533697
3737.869874,-8734.430116,-370.102971,536.266849
3737.870203,-8068.244768,-222.061783,-306.438199
3737.870533,-9400.615463,666.185348,-1225.752797
3737.870863,-10436.903782,222.061783,-766.095498
3737.871192,-10955.047942,592.164754,76.609550
3737.871522,-10140.821405,370.102971,76.609550
3737.871852,-9400.615463,74.020594,-229.828649
3737.872182,-10140.821405,222.061783,229.828649
3737.872511,-10658.965565,370.102971,229.828649
3737.872841,-10807.006753,592.164754,0.000000
3737.873171,-10288.862594,740.205942,-229.828649
3737.873500,-10584.944971,740.205942,153.219100
3737.873830,-10807.006753,518.144159,1302.362347
3737.874160,-9844.739029,444.123565,1225.752797
3737.874490,-9696.697840,0.000000,919.314598
3737.874819,-10214.842000,0.000000,919.314598
3737.875149,-10362.883188,74.020594,229.828649
3737.875479,-10066.800811,444.123565,612.876398
3737.875808,-9474.636058,444.123565,459.657299
3737.876138,-9178.553681,444.123565,76.609550
3737.876468,-10510.924376,222.061783,612.876398
3737.876797,-10732.986159,-148.041188,612.876398
3737.877127,-10140.821405,-370.102971,689.485948
3737.877457,-9030.512492,-222.061783,-689.485948
3737.877787,-8660.409521,-444.123565,153.219100
3737.878116,-9252.574275,-518.144159,76.609550
3737.878446,-9474.636058,0.000000,612.876398
3737.878776,-9696.697840,148.041188,689.485948
3737.879105,-9622.677246,-518.144159,0.000000
3737.879435,-9770.718434,-666.185348,612.876398
3737.879765,-9844.739029,-296.082377,1378.971896
3737.880095,-10066.800811,-370.102971,842.705048
3737.880424,-8956.491898,-592.164754,-153.219100
3737.880754,-8734.430116,-444.123565,-1302.362347
3737.881084,-8808.450710,-296.082377,-919.314598
3737.881413,-9474.636058,0.000000,0.000000
3737.881743,-10214.842000,0.000000,766.095498
3737.882073,-10214.842000,444.123565,689.485948
3737.882403,-9844.739029,0.000000,0.000000
3737.882732,-9696.697840,444.123565,-1149.143247
3737.883062,-9918.759623,666.185348,-1838.629195
3737.883392,-10288.862594,592.164754,-612.876398
3737.883721,-10140.821405,592.164754,-536.266849
3737.884051,-9844.739029,0.000000,0.000000
3737.884381,-9992.780217,222.061783,383.047749
3737.884711,-9918.759623,222.061783,306.438199
3737.885040,-9474.636058,666.185348,-306.438199
3737.885370,-9696.697840,666.185348,-153.219100
3737.885700,-10288.862594,740.205942,229.828649
3737.886029,-10658.965565,1110.308913,459.657299
3737.886359,-10140.821405,592.164754,1225.752797
3737.886689,-10140.821405,0.000000,1378.971896
3737.887019,-10288.862594,148.041188,1225.752797
3737.887348,-9992.780217,740.205942,76.609550
3737.887678,-9474.636058,148.041188,153.219100
3737.888008,-9252.574275,370.102971,0.000000
3737.888337,-9474.636058,296.082377,0.000000
3737.888667,-9844.739029,740.205942,383.047749
3737.888997,-9548.656652,148.041188,1685.410096
3737.889326,-9548.656652,-370.102971,1225.752797
3737.889656,-9252.574275,0.000000,229.828649
3737.889986,-9178.553681,-518.144159,-383.047749
3737.890316,-9548.656652,-370.102971,0.000000
3737.890645,-9918.759623,-592.164754,306.438199
3737.890975,-9548.656652,-518.144159,766.095498
3737.891305,-9474.636058,-518.144159,1149.143247
3737.891634,-9548.656652,-296.082377,-76.609550
3737.891964,-9844.739029,-592.164754,306.438199
3737.892294,-9474.636058,-518.144159,0.000000
3737.892624,-9548.656652,-740.205942,459.657299
3737.892953,-9326.594869,-148.041188,1225.752797
3737.893283,-9770.718434,-148.041188,0.000000
3737.893613,-9622.677246,-370.102971,-612.876398
3737.893942,-9548.656652,0.000000,-766.095498
3737.894272,-10140.821405,-370.102971,-1149.143247
3737.894602,-10510.924376,0.000000,-766.095498
3737.894932,-10066.800811,-74.020594,-842.705048
3737.895261,-9622.677246,-148.041188,-612.876398
3737.895591,-9400.615463,0.000000,0.000000
3737.895921,-9400.615463,296.082377,-612.876398
3737.896250,-9548.656652,-222.061783,0.000000
3737.896580,-9918.759623,296.082377,383.047749
3737.896910,-10510.924376,666.185348,0.000000
3737.897240,-10881.027347,1036.288319,919.314598
3737.897569,-10510.924376,740.205942,76.609550
3737.897899,-10436.903782,592.164754,383.047749
3737.898229,-10214.842000,592.164754,-459.657299
3737.898558,-9918.759623,296.082377,76.609550
3737.898888,-9400.615463,592.164754,766.095498
3737.899218,-9548.656652,148.041188,1378.971896
3737.899548,-10362.883188,666.185348,1608.800546
3737.899877,-10140.821405,370.102971,1532.190996
3737.900207,-10658.965565,518.144159,1455.581446
3737.900537,-9844.739029,0.000000,919.314598
3737.900866,-8956.491898,-1036.288319,1225.752797
3737.901196,-8808.450710,-370.102971,1685.410096
3737.901526,-9178.553681,0.000000,2451.505594
3737.901855,-9326.594869,0.000000,1532.190996
3737.902185,-10066.800811,0.000000,995.924147
3737.902515,-10140.821405,74.020594,0.000000
3737.902845,-9696.697840,74.020594,-153.219100
3737.903174,-8808.450710,-518.144159,-76.609550
3737.903504,-9030.512492,0.000000,612.876398
3737.903834,-9622.677246,74.020594,766.095498
3737.904163,-9474.636058,0.000000,-153.219100
3737.904493,-9326.594869,-296.082377,-1072.533697
3737.904823,-9548.656652,444.123565,-383.047749
3737.905153,-10288.862594,444.123565,229.828649
3737.905482,-10584.944971,148.041188,612.876398
3737.905812,-9918.759623,-518.144159,766.095498
3737.906142,-9252.574275,0.000000,689.485948
3737.906471,-9992.780217,370.102971,0.000000
3737.906801,-10362.883188,148.041188,-612.876398
3737.907131,-9918.759623,444.123565,-612.876398
3737.907461,-9622.677246,1036.288319,-689.485948
3737.907790,-9474.636058,888.247130,-612.876398
3737.908120,-9992.780217,814.226536,-306.438199
3737.908450,-10584.944971,1258.350101,-459.657299
3737.908779,-10732.986159,370.102971,-459.657299
3737.909109,-9918.759623,814.226536,-1149.143247
3737.909439,-9918.759623,222.061783,-536.266849
3737.909769,-10214.842000,444.123565,459.657299
3737.910098,-9992.780217,296.082377,1302.362347
3737.910428,-9474.636058,74.020594,1838.629195
3737.910758,-9474.636058,0.000000,1762.019645
3737.911087,-9548.656652,296.082377,1302.362347
3737.911417,-10436.903782,740.205942,1072.533697
3737.911747,-9918.759623,370.102971,995.924147
3737.912077,-10140.821405,740.205942,689.485948
3737.912406,-10066.800811,74.020594,229.828649
3737.912736,-9918.759623,-592.164754,-76.609550
3737.913066,-9622.677246,-518.144159,76.609550
3737.913395,-9104.533087,-888.247130,0.000000
3737.913725,-8660.409521,-740.205942,153.219100
3737.914055,-9400.615463,-518.144159,766.095498
3737.914384,-9844.739029,0.000000,995.924147
3737.914714,-10288.862594,-370.102971,383.047749
3737.915044,-10214.842000,-518.144159,229.828649
3737.915374,-10140.821405,-592.164754,383.047749
3737.915703,-9992.780217,-666.185348,612.876398
3737.916033,-9400.615463,-666.185348,0.000000
3737.916363,-8660.409521,-814.226536,-459.657299
3737.916692,-8882.471304,-666.185348,-766.095498
3737.917022,-9326.594869,-222.061783,0.000000
3737.917352,-9918.759623,0.000000,0.000000
3737.917682,-10214.842000,74.020594,459.657299
3737.918011,-10214.842000,-296.082377,306.438199
3737.918341,-9918.759623,-296.082377,-612.876398
3737.918671,-9104.533087,-592.164754,-153.219100
3737.919000,-9400.615463,-222.061783,0.000000
3737.919330,-9844.739029,814.226536,0.000000
3737.919660,-10214.842000,592.164754,-536.266849
3737.919990,-10362.883188,296.082377,-153.219100
3737.920319,-10214.842000,296.082377,-153.219100
3737.920649,-10436.903782,0.000000,229.828649
3737.920979,-9992.780217,0.000000,229.828649
3737.921308,-9474.636058,-148.041188,536.266849
3737.921638,-8660.409521,0.000000,842.705048
3737.921968,-9696.697840,518.144159,842.705048
3737.922298,-10510.924376,814.226536,383.047749
3737.922627,-10658.965565,370.102971,689.485948
3737.922957,-10362.883188,518.144159,-459.657299
3737.923287,-9918.759623,74.020594,0.000000
3737.923616,-9548.656652,0.000000,0.000000
3737.923946,-9178.553681,740.205942,1991.848295
3737.924276,-10510.924376,0.000000,459.657299
3737.924606,-9548.656652,-296.082377,-995.924147
3737.924935,-9474.636058,444.123565,-229.828649
3737.925265,-9844.739029,296.082377,229.828649
3737.925595,-10732.986159,74.020594,612.876398
3737.925924,-9622.677246,0.000000,919.314598
3737.926254,-9696.697840,-666.185348,1378.971896
3737.926584,-9696.697840,0.000000,536.266849
3737.926913,-9696.697840,-740.205942,0.000000
3737.927243,-8734.430116,-740.205942,-612.876398
3737.927573,-8364.327145,-740.205942,-153.219100
3737.927903,-9030.512492,-814.226536,536.266849
3737.928232,-9474.636058,-666.185348,1685.410096
3737.928562,-10066.800811,-148.041188,1608.800546
3737.928892,-9548.656652,-666.185348,995.924147
3737.929221,-9474.636058,-296.082377,-306.438199
3737.929551,-9400.615463,-370.102971,-383.047749
3737.929881,-9474.636058,1036.288319,1149.143247
3737.930211,-9252.574275,0.000000,306.438199
3737.930540,-9326.594869,0.000000,-76.609550
3737.930870,-10288.862594,592.164754,383.047749
3737.931200,-11325.150913,1110.308913,919.314598
3737.931529,-11325.150913,740.205942,-229.828649
3737.931859,-10955.047942,666.185348,-689.485948
3737.932189,-9918.759623,518.144159,-842.705048
3737.932519,-9252.574275,444.123565,459.657299
3737.932848,-9770.718434,666.185348,383.047749
3737.933178,-10140.821405,370.102971,229.828649
3737.933508,-10362.883188,1110.308913,0.000000
3737.933837,-10362.883188,666.185348,0.000000
3737.934167,-10362.883188,666.185348,76.609550
3737.934497,-10584.944971,592.164754,1302.362347
3737.934827,-9844.739029,74.020594,1378.971896
3737.935156,-9474.636058,222.061783,766.095498
3737.935486,-8660.409521,0.000000,76.609550
3737.935816,-9474.636058,-148.041188,919.314598
3737.936145,-10436.903782,444.123565,1532.190996
3737.936475,-10066.800811,518.144159,1225.752797
3737.936805,-10214.842000,592.164754,306.438199
3737.937134,-10066.800811,518.144159,0.000000
3737.937464,-9992.780217,148.041188,0.000000
3737.937794,-9548.656652,74.020594,-153.219100
3737.938124,-9178.553681,74.020594,383.047749
3737.938453,-9400.615463,0.000000,536.266849
3737.938783,-8586.388927,0.000000,0.000000
3737.939113,-8660.409521,0.000000,-536.266849
3737.939442,-9548.656652,222.061783,306.438199
3737.939772,-9474.636058,-370.102971,0.000000
3737.940102,-9770.718434,-148.041188,306.438199
3737.940432,-8882.471304,-666.185348,383.047749
3737.940761,-9474.636058,-370.102971,689.485948
3737.941091,-9252.574275,-370.102971,842.705048
3737.941421,-9400.615463,-296.082377,0.000000
3737.941750,-9400.615463,74.020594,229.828649
3737.942080,-9770.718434,74.020594,612.876398
3737.942410,-10288.862594,296.082377,612.876398
3737.942740,-9548.656652,444.123565,612.876398
3737.943069,-9548.656652,370.102971,-153.219100
3737.943399,-10510.924376,1036.288319,76.609550
3737.943729,-11251.130318,814.226536,-153.219100
3737.944058,-10436.903782,666.185348,-153.219100
3737.944388,-9474.636058,814.226536,-1072.533697
3737.944718,-9474.636058,518.144159,-766.095498
3737.945048,-10214.842000,666.185348,0.000000
3737.945377,-10658.965565,740.205942,1455.581446
3737.945707,-9844.739029,518.144159,995.924147
3737.946037,-10140.821405,592.164754,689.485948
3737.946366,-10436.903782,222.061783,1302.362347
3737.946696,-10881.027347,74.020594,1685.410096
3737.947026,-10658.965565,74.020594,919.314598
3737.947356,-9548.656652,-148.041188,612.876398
3737.947685,-9474.636058,-666.185348,536.266849
3737.948015,-9400.615463,0.000000,689.485948
3737.948345,-10140.821405,-296.082377,689.485948
3737.948674,-9918.759623,0.000000,689.485948
3737.949004,-9844.739029,-444.123565,689.485948
3737.949334,-10288.862594,-222.061783,0.000000
3737.949663,-10436.903782,-148.041188,-459.657299
3737.949993,-9326.594869,-962.267725,-919.314598
3737.950323,-8586.388927,-444.123565,-229.828649
3737.950653,-8808.450710,-1036.288319,-383.047749
3737.950982,-9326.594869,-962.267725,-459.657299
3737.951312,-9622.677246,-888.247130,-383.047749
3737.951642,-9918.759623,-518.144159,0.000000
3737.951971,-9622.677246,-962.267725,0.000000
3737.952301,-9252.574275,-592.164754,-229.828649
3737.952631,-9326.594869,-1554.432478,459.657299
3737.952961,-9104.533087,-1110.308913,459.657299
3737.953290,-9178.553681,-1184.329507,0.000000
3737.953620,-9326.594869,-666.185348,-383.047749
3737.953950,-9622.677246,0.000000,-229.828649
3737.954279,-9696.697840,-518.144159,-153.219100
3737.954609,-9400.615463,0.000000,0.000000
3737.954939,-10362.883188,370.102971,383.047749
3737.955269,-10584.944971,74.020594,689.485948
3737.955598,-10362.883188,0.000000,-459.657299
3737.955928,-9474.636058,0.000000,-306.438199
3737.956258,-9770.718434,518.144159,76.609550
3737.956587,-11103.089130,592.164754,229.828649
3737.956917,-11325.150913,814.226536,306.438199
3737.957247,-10436.903782,444.123565,459.657299
3737.957577,-9992.780217,592.164754,153.219100
3737.957906,-10140.821405,518.144159,76.609550
3737.958236,-10362.883188,740.205942,536.266849
3737.958566,-9918.759623,592.164754,1378.971896
3737.958895,-10214.842000,444.123565,995.924147
3737.959225,-10288.862594,296.082377,766.095498
3737.959555,-10362.883188,-74.020594,1762.019645
3737.959885,-9474.636058,0.000000,1608.800546
3737.960214,-9252.574275,-296.082377,1532.190996
3737.960544,-9178.553681,-148.041188,1378.971896
3737.960874,-9770.718434,0.000000,1532.190996
3737.961203,-10288.862594,222.061783,536.266849
3737.961533,-10214.842000,148.041188,-383.047749
3737.961863,-9030.512492,222.061783,-536.266849
3737.962192,-8956.491898,74.020594,76.609550
3737.962522,-9178.553681,296.082377,383.047749
3737.962852,-9400.615463,0.000000,76.609550
3737.963182,-9474.636058,0.000000,-229.828649
3737.963511,-9548.656652,0.000000,-689.485948
3737.963841,-9178.553681,0.000000,-1608.800546
3737.964171,-8956.491898,74.020594,-766.095498
3737.964500,-8808.450710,0.000000,-612.876398
3737.964830,-9104.533087,0.000000,-383.047749
3737.965160,-9548.656652,444.123565,0.000000
3737.965490,-9992.780217,370.102971,-459.657299
3737.965819,-10066.800811,222.061783,-612.876398
3737.966149,-10140.821405,222.061783,-536.266849
3737.966479,-9992.780217,74.020594,0.000000
3737.966808,-10066.800811,0.000000,459.657299
3737.967138,-10066.800811,222.061783,766.095498
3737.967468,-10066.800811,0.000000,383.047749
3737.967798,-9622.677246,518.144159,-612.876398
3737.968127,-9622.677246,814.226536,-459.657299
3737.968457,-10362.883188,888.247130,76.609550
3737.968787,-11029.068536,888.247130,0.000000
3737.969116,-11103.089130,518.144159,0.000000
3737.969446,-9696.697840,222.061783,0.000000
3737.969776,-9104.533087,-296.082377,-459.657299
3737.970106,-9030.512492,-370.102971,76.609550
3737.970435,-9770.718434,0.000000,1072.533697
3737.970765,-10140.821405,296.082377,1455.581446
3737.971095,-10732.986159,0.000000,919.314598
3737.971424,-10732.986159,148.041188,1149.143247
3737.971754,-10584.944971,0.000000,1838.629195
3737.972084,-10066.800811,0.000000,1149.143247
3737.972414,-9326.594869,-222.061783,1072.533697
3737.972743,-8956.491898,-592.164754,689.485948
3737.973073,-9104.533087,0.000000,1072.533697
3737.973403,-10214.842000,-296.082377,612.876398
3737.973732,-9474.636058,0.000000,0.000000
3737.974062,-9326.594869,-296.082377,0.000000
3737.974392,-9030.512492,0.000000,0.000000
3737.974721,-9622.677246,-518.144159,76.609550
3737.975051,-9770.718434,-518.144159,383.047749
3737.975381,-8956.491898,-592.164754,153.219100
3737.975711,-9548.656652,0.000000,-612.876398
3737.976040,-9844.739029,222.061783,-919.314598
3737.976370,-9918.759623,-222.061783,-536.266849
3737.976700,-9474.636058,-222.061783,76.609550
3737.977029,-8586.388927,-888.247130,76.609550
3737.977359,-8808.450710,-518.144159,0.000000
3737.977689,-9400.615463,-296.082377,612.876398
3737.978019,-9770.718434,0.000000,1225.752797
3737.978348,-10140.821405,370.102971,306.438199
3737.978678,-9696.697840,518.144159,-766.095498
3737.979008,-9696.697840,592.164754,-229.828649
3737.979337,-10140.821405,1036.288319,536.266849
3737.979667,-10288.862594,592.164754,383.047749
3737.979997,-10066.800811,592.164754,0.000000
3737.980327,-10584.944971,1036.288319,-842.705048
3737.980656,-10881.027347,666.185348,-1378.971896
3737.980986,-10140.821405,1480.411884,383.047749
3737.981316,-10881.027347,0.000000,459.657299
3737.981645,-10066.800811,370.102971,-383.047749
3737.981975,-8660.409521,0.000000,0.000000
3737.982305,-9178.553681,666.185348,689.485948
3737.982634,-9770.718434,888.247130,1685.410096
3737.982964,-10881.027347,592.164754,1915.238745
3737.983294,-10732.986159,666.185348,1149.143247
3737.983623,-10214.842000,370.102971,-306.438199
3737.983953,-10214.842000,148.041188,383.047749
3737.984283,-10214.842000,-296.082377,612.876398
3737.984612,-9104.533087,-666.185348,612.876398
3737.984942,-7698.141797,0.000000,689.485948
3737.985272,-7846.182985,74.020594,153.219100
3737.985601,-10066.800811,962.267725,-766.095498
3737.985931,-10658.965565,296.082377,-1455.581446
3737.986261,-10214.842000,740.205942,-1225.752797
3737.986590,-9178.553681,222.061783,-919.314598
3737.986920,-9474.636058,-444.123565,76.609550
3737.987250,-9696.697840,-592.164754,842.705048
3737.987579,-9400.615463,-518.144159,0.000000
3737.987909,-8808.450710,-740.205942,-383.047749
3737.988239,-9400.615463,-370.102971,-1149.143247
3737.988568,-9696.697840,-518.144159,-229.828649
3737.988898,-9770.718434,-296.082377,1302.362347
3737.989228,-9696.697840,0.000000,1225.752797
3737.989557,-10658.965565,-592.164754,919.314598
3737.989887,-10066.800811,-666.185348,-229.828649
3737.990217,-9622.677246,-444.123565,-536.266849
3737.990546,-9400.615463,0.000000,0.000000
3737.990876,-9992.780217,444.123565,995.924147
3737.991206,-10066.800811,444.123565,306.438199
3737.991535,-9696.697840,296.082377,0.000000
3737.991865,-9918.759623,296.082377,-306.438199
3737.992195,-10510.924376,1110.308913,-459.657299
3737.992524,-10658.965565,0.000000,-689.485948
3737.992854,-9844.739029,0.000000,0.000000
3737.993184,-9326.594869,-296.082377,1072.533697
3737.993513,-10066.800811,296.082377,2298.286494
3737.993843,-10510.924376,0.000000,1532.190996
3737.994173,-9844.739029,74.020594,459.657299
3737.994502,-9474.636058,0.000000,1149.143247
3737.994832,-10214.842000,148.041188,1838.629195
3737.995162,-10955.047942,444.123565,1838.629195
3737.995491,-10955.047942,444.123565,1302.362347
3737.995821,-9992.780217,296.082377,-229.828649
3737.996151,-8882.471304,0.000000,-612.876398
3737.996480,-9548.656652,74.020594,153.219100
3737.996810,-9770.718434,-74.020594,536.266849
3737.997140,-9696.697840,-444.123565,919.314598
3737.997469,-8882.471304,-444.123565,0.000000
3737.997799,-9252.574275,-222.061783,153.219100
3737.998129,-9844.739029,-148.041188,306.438199
3737.998458,-10214.842000,-296.082377,536.266849
3737.998788,-9918.759623,-222.061783,459.657299
3737.999118,-9178.553681,-666.185348,153.219100
3737.999447,-9474.636058,-666.185348,689.485948
3737.999777,-10140.821405,-962.267725,459.657299
3738.000107,-9474.636058,-444.123565,-229.828649
3738.000436,-8956.491898,-592.164754,-1149.143247
3738.000766,-8586.388927,0.000000,-1302.362347
3738.001096,-8808.450710,74.020594,-153.219100
3738.001425,-9474.636058,370.102971,76.609550
3738.001755,-10214.842000,814.226536,0.000000
3738.002085,-10140.821405,370.102971,-1685.410096
3738.002414,-10881.027347,666.185348,-1762.019645
3738.002744,-10732.986159,518.144159,-766.095498
3738.003074,-10658.965565,222.061783,689.485948
3738.003403,-9918.759623,148.041188,842.705048
3738.003733,-9992.780217,0.000000,612.876398
3738.004063,-10214.842000,0.000000,1072.533697
3738.004392,-9548.656652,222.061783,689.485948
3738.004722,-9770.718434,370.102971,-153.219100
3738.005052,-9474.636058,814.226536,-306.438199
3738.005381,-10288.862594,814.226536,536.266849
3738.005711,-10214.842000,296.082377,766.095498
3738.006041,-10066.800811,0.000000,0.000000
3738.006370,-9400.615463,-222.061783,0.000000
3738.006700,-9252.574275,-666.185348,0.000000
3738.007030,-8882.471304,-666.185348,766.095498
3738.007359,-9030.512492,0.000000,1532.190996
3738.007689,-9696.697840,148.041188,1991.848295
3738.008019,-11029.068536,740.205942,1378.971896
3738.008348,-10955.047942,518.144159,459.657299
3738.008678,-9918.759623,222.061783,153.219100
3738.009008,-9622.677246,740.205942,919.314598
3738.009337,-10066.800811,74.020594,689.485948
3738.009667,-10066.800811,74.020594,-766.095498
3738.009997,-9104.533087,-148.041188,-1455.581446
3738.010326,-9030.512492,74.020594,-1225.752797
3738.010656,-9252.574275,0.000000,-229.828649
3738.010986,-10140.821405,148.041188,229.828649
3738.011315,-9918.759623,-74.020594,76.609550
3738.011645,-9474.636058,-962.267725,-383.047749
3738.011975,-9622.677246,-518.144159,-995.924147
3738.012304,-10214.842000,-518.144159,766.095498
3738.012634,-9030.512492,-888.247130,995.924147
3738.012964,-8586.388927,-370.102971,995.924147
3738.013293,-8882.471304,-370.102971,612.876398
3738.013623,-10510.924376,-222.061783,1149.143247
3738.013953,-11103.089130,148.041188,1072.533697
3738.014282,-10436.903782,-296.082377,229.828649
3738.014612,-9918.759623,-148.041188,0.000000
3738.014942,-8956.491898,148.041188,-612.876398
3738.015271,-9474.636058,0.000000,76.609550
3738.015601,-9474.636058,370.102971,-1072.533697
3738.015931,-9252.574275,0.000000,-1149.143247
3738.016260,-10066.800811,962.267725,-306.438199
3738.016590,-10436.903782,518.144159,0.000000
3738.016920,-10214.842000,370.102971,459.657299
3738.017249,-10510.924376,148.041188,306.438199
3738.017579,-10214.842000,518.144159,536.266849
3738.017909,-9918.759623,-740.205942,842.705048
3738.018238,-9326.594869,-444.123565,1532.190996
3738.018568,-9326.594869,0.000000,2681.334243
3738.018898,-9696.697840,-296.082377,2374.896044
3738.019227,-9992.780217,148.041188,612.876398
3738.019557,-10214.842000,-296.082377,0.000000
3738.019887,-10140.821405,0.000000,0.000000
3738.020216,-9622.677246,-148.041188,459.657299
3738.020546,-9622.677246,-74.020594,153.219100
3738.020876,-8660.409521,-148.041188,536.266849
3738.021205,-9622.677246,0.000000,76.609550
3738.021535,-10658.965565,518.144159,76.609550
3738.021865,-10732.986159,0.000000,0.000000
3738.022194,-9992.780217,148.041188,-766.095498
3738.022524,-9030.512492,-296.082377,-306.438199
3738.022854,-9178.553681,0.000000,689.485948
3738.023183,-8660.409521,-444.123565,1302.362347
3738.023513,-8808.450710,222.061783,306.438199
3738.023843,-9400.615463,74.020594,-919.314598
3738.024172,-9548.656652,296.082377,-1685.410096
3738.024502,-10362.883188,592.164754,-383.047749
3738.024832,-9696.697840,222.061783,-229.828649
3738.025161,-10066.800811,0.000000,-153.219100
3738.025491,-9326.594869,-148.041188,689.485948
3738.025821,-9622.677246,222.061783,689.485948
3738.026150,-9178.553681,444.123565,76.609550
3738.026480,-9770.718434,814.226536,689.485948
3738.026810,-10510.924376,1110.308913,612.876398
3738.027139,-11103.089130,1702.473667,76.609550
3738.027469,-10807.006753,888.247130,0.000000
3738.027799,-10732.986159,740.205942,-306.438199
3738.028128,-10214.842000,962.267725,459.657299
3738.028458,-10362.883188,222.061783,306.438199
3738.028788,-9326.594869,222.061783,153.219100
3738.029117,-8586.388927,296.082377,76.609550
3738.029447,-9622.677246,814.226536,1378.971896
3738.029777,-10214.842000,518.144159,1378.971896
3738.030106,-9992.780217,0.000000,1072.533697
3738.030436,-9474.636058,518.144159,153.219100
3738.030766,-9030.512492,0.000000,1225.752797
3738.031095,-9548.656652,148.041188,1302.362347
3738.031425,-10288.862594,148.041188,1302.362347
3738.031755,-9992.780217,74.020594,919.314598
3738.032084,-9104.533087,296.082377,536.266849
3738.032414,-9030.512492,222.061783,-229.828649
3738.032744,-9770.718434,370.102971,383.047749
3738.033073,-9918.759623,370.102971,-76.609550
3738.033403,-10140.821405,0.000000,76.609550
3738.033733,-9622.677246,0.000000,-536.266849
3738.034062,-9696.697840,0.000000,-383.047749
3738.034392,-9400.615463,0.000000,-536.266849
3738.034722,-8882.471304,-222.061783,-1072.533697
3738.035051,-8586.388927,-518.144159,-536.266849
3738.035381,-9326.594869,0.000000,842.705048
3738.035711,-10510.924376,0.000000,229.828649
3738.036040,-10807.006753,148.041188,-536.266849
3738.036370,-10140.821405,-518.144159,-383.047749
3738.036700,-9252.574275,-814.226536,-229.828649
3738.037029,-9770.718434,-962.267725,0.000000
3738.037359,-9844.739029,-592.164754,459.657299
3738.037689,-9400.615463,-148.041188,842.705048
3738.038018,-9178.553681,-296.082377,0.000000
3738.038348,-9548.656652,-74.020594,-153.219100
3738.038678,-11029.068536,0.000000,1072.533697
3738.039007,-10955.047942,962.267725,306.438199
3738.039337,-11103.089130,74.020594,-459.657299
3738.039667,-9622.677246,-518.144159,-612.876398
3738.039996,-9548.656652,-74.020594,383.047749
3738.040326,-10140.821405,370.102971,689.485948
3738.040656,-10584.944971,148.041188,536.266849
3738.040985,-9992.780217,296.082377,0.000000
3738.041315,-10510.924376,74.020594,229.828649
3738.041645,-10214.842000,444.123565,383.047749
3738.041974,-10214.842000,-148.041188,842.705048
3738.042304,-9918.759623,-666.185348,1225.752797
3738.042634,-9178.553681,-814.226536,1225.752797
3738.042963,-9326.594869,-740.205942,1072.533697
3738.043293,-9252.574275,-814.226536,995.924147
3738.043623,-9844.739029,-370.102971,1072.533697
3738.043952,-9992.780217,-148.041188,459.657299
3738.044282,-9992.780217,-518.144159,-229.828649
3738.044612,-9104.533087,-222.061783,-842.705048
3738.044941,-8882.471304,-740.205942,306.438199
3738.045271,-9030.512492,-444.123565,0.000000
3738.045601,-9030.512492,-222.061783,-766.095498
3738.045930,-9326.594869,-74.020594,-1302.362347
3738.046260,-9622.677246,0.000000,-689.485948
3738.046590,-9770.718434,-444.123565,-689.485948
3738.046919,-9400.615463,-740.205942,-766.095498
3738.047249,-9474.636058,-222.061783,-612.876398
3738.047579,-9252.574275,-666.185348,-612.876398
3738.047908,-9326.594869,0.000000,-76.609550
3738.048238,-9770.718434,-296.082377,-383.047749
3738.048568,-9918.759623,0.000000,-689.485948
3738.048897,-9474.636058,0.000000,-1608.800546
3738.049227,-9548.656652,-74.020594,-612.876398
3738.049557,-9696.697840,-148.041188,383.047749
3738.049886,-9770.718434,74.020594,842.705048
3738.050216,-9548.656652,592.164754,0.000000
3738.050546,-9474.636058,444.123565,-1149.143247
3738.050875,-10066.800811,444.123565,-383.047749
3738.051205,-11103.089130,1036.288319,612.876398
3738.051535,-10732.986159,1110.308913,459.657299
3738.051864,-9844.739029,444.123565,0.000000
3738.052194,-9992.780217,1036.288319,0.000000
3738.052524,-10362.883188,370.102971,0.000000
3738.052853,-10732.986159,1036.288319,459.657299
3738.053183,-9696.697840,222.061783,1149.143247
3738.053513,-9992.780217,666.185348,1149.143247
3738.053842,-9844.739029,814.226536,1608.800546
3738.054172,-9474.636058,296.082377,1072.533697
3738.054502,-9918.759623,518.144159,1149.143247
3738.054831,-9548.656652,-296.082377,1455.581446
3738.055161,-9474.636058,0.000000,1762.019645
3738.055491,-9326.594869,-518.144159,2451.505594
3738.055820,-9326.594869,0.000000,2987.772442
3738.056150,-9104.533087,0.000000,2145.067394
3738.056480,-9400.615463,0.000000,766.095498
3738.056809,-10288.862594,518.144159,383.047749
3738.057139,-10066.800811,370.102971,0.000000
3738.057469,-9622.677246,962.267725,229.828649
3738.057798,-9844.739029,296.082377,76.609550
3738.058128,-9548.656652,296.082377,-383.047749
3738.058458,-9326.594869,370.102971,-536.266849
3738.058787,-9030.512492,-518.144159,-459.657299
3738.059117,-9400.615463,740.205942,0.000000
3738.059447,-10510.924376,592.164754,153.219100
3738.059776,-10807.006753,296.082377,0.000000
3738.060106,-9474.636058,0.000000,383.047749
3738.060436,-9474.636058,74.020594,842.705048
3738.060765,-10140.821405,222.061783,842.705048
3738.061095,-10214.842000,74.020594,-459.657299
3738.061425,-9474.636058,222.061783,-153.219100
3738.061754,-9474.636058,666.185348,459.657299
3738.062084,-10955.047942,740.205942,0.000000
3738.062414,-11103.089130,740.205942,-153.219100
3738.062743,-9770.718434,592.164754,-689.485948
3738.063073,-8882.471304,888.247130,-689.485948
3738.063403,-9326.594869,740.205942,-306.438199
3738.063732,-10140.821405,444.123565,153.219100
3738.064062,-10214.842000,1184.329507,383.047749
3738.064392,-10066.800811,666.185348,-153.219100
3738.064721,-10362.883188,592.164754,-306.438199
3738.065051,-10732.986159,74.020594,842.705048
3738.065381,-10510.924376,0.000000,1915.238745
3738.065710,-9696.697840,0.000000,1762.019645
3738.066040,-9326.594869,-148.041188,1072.533697
3738.066370,-9474.636058,296.082377,919.314598
3738.066699,-9400.615463,148.041188,229.828649
3738.067029,-9696.697840,370.102971,153.219100
3738.067359,-9252.574275,666.185348,229.828649
3738.067688,-9622.677246,0.000000,153.219100
3738.068018,-9844.739029,0.000000,76.609550
3738.068348,-10436.903782,-296.082377,76.609550
3738.068677,-10140.821405,-666.185348,919.314598
3738.069007,-9622.677246,-74.020594,689.485948
3738.069337,-9548.656652,-740.205942,0.000000
3738.069666,-9400.615463,-592.164754,459.657299
3738.069996,-9548.656652,-888.247130,1225.752797
3738.070326,-9622.677246,-370.102971,1072.533697
3738.070655,-9400.615463,-814.226536,-76.609550
3738.070985,-9400.615463,-1036.288319,-76.609550
3738.071315,-9696.697840,-518.144159,536.266849
3738.071644,-9844.739029,-740.205942,0.000000
3738.071974,-8882.471304,-444.123565,-383.047749
3738.072304,-8882.471304,-888.247130,-689.485948
3738.072633,-9326.594869,0.000000,383.047749
3738.072963,-10214.842000,666.185348,1072.533697
3738.073293,-10732.986159,740.205942,383.047749
3738.073622,-10955.047942,444.123565,-229.828649
3738.073952,-9992.780217,222.061783,-842.705048
3738.074282,-9992.780217,518.144159,0.000000
3738.074611,-9844.739029,444.123565,-76.609550
3738.074941,-10140.821405,148.041188,-689.485948
3738.075271,-10066.800811,74.020594,-536.266849
3738.075600,-9696.697840,74.020594,-459.657299
3738.075930,-10140.821405,296.082377,229.828649
3738.076260,-10881.027347,740.205942,1072.533697
3738.076589,-10658.965565,148.041188,995.924147
3738.076919,-9548.656652,0.000000,689.485948
3738.077249,-9104.533087,222.061783,1149.143247
3738.077578,-10510.924376,0.000000,1455.581446
3738.077908,-10436.903782,0.000000,1072.533697
3738.078238,-9474.636058,74.020594,1149.143247
3738.078567,-9178.553681,444.123565,766.095498
3738.078897,-9474.636058,296.082377,229.828649
3738.079227,-9844.739029,370.102971,229.828649
3738.079556,-9918.759623,444.123565,919.314598
3738.079886,-9844.739029,962.267725,459.657299
3738.080216,-10214.842000,518.144159,-76.609550
3738.080545,-10362.883188,518.144159,229.828649
3738.080875,-10214.842000,296.082377,0.000000
3738.081205,-10066.800811,74.020594,-842.705048
3738.081534,-9252.574275,-296.082377,-1302.362347
3738.081864,-9178.553681,-666.185348,0.000000
3738.082194,-8438.347739,-518.144159,1608.800546
3738.082524,-8808.450710,-296.082377,1455.581446
3738.082853,-8882.471304,-666.185348,689.485948
3738.083183,-9252.574275,-740.205942,-536.266849
3738.083513,-9474.636058,-814.226536,0.000000
3738.083843,-9474.636058,-888.247130,306.438199
3738.084173,-9326.594869,-1036.288319,689.485948
3738.084503,-9474.636058,-666.185348,919.314598
3738.084833,-9770.718434,-222.061783,842.705048
3738.085162,-9474.636058,-148.041188,229.828649
3738.085492,-9918.759623,370.102971,-306.438199
3738.085822,-9844.739029,222.061783,-842.705048
3738.086152,-10066.800811,222.061783,-1225.752797
3738.086482,-9548.656652,370.102971,-612.876398
3738.086812,-9770.718434,518.144159,-383.047749
3738.087142,-10066.800811,888.247130,-76.609550
3738.087471,-10140.821405,444.123565,-919.314598
3738.087801,-10436.903782,296.082377,-536.266849
3738.088131,-10584.944971,222.061783,0.000000
3738.088461,-10658.965565,666.185348,689.485948
3738.088791,-10362.883188,888.247130,842.705048
3738.089121,-10362.883188,592.164754,612.876398
3738.089451,-10584.944971,0.000000,1149.143247
3738.089780,-10584.944971,0.000000,766.095498
3738.090110,-9696.697840,-296.082377,1149.143247
3738.090440,-9474.636058,0.000000,1378.971896
3738.090770,-9622.677246,-592.164754,1149.143247
3738.091100,-9104.533087,0.000000,229.828649
3738.091430,-8882.471304,0.000000,536.266849
3738.091760,-10140.821405,0.000000,383.047749
3738.092089,-10140.821405,-518.144159,153.219100
3738.092419,-9400.615463,-592.164754,76.609550
3738.092749,-9770.718434,-444.123565,1072.533697
3738.093079,-11399.171507,-518.144159,842.705048
3738.093409,-10732.986159,-814.226536,306.438199
3738.093739,-8586.388927,-1406.391290,-459.657299
3738.094069,-8216.285956,-888.247130,-306.438199
3738.094398,-9104.533087,-962.267725,689.485948
3738.094728,-9622.677246,-592.164754,1608.800546
3738.095058,-9104.533087,-592.164754,1608.800546
3738.095388,-9178.553681,0.000000,229.828649
3738.095718,-10066.800811,-222.061783,-536.266849
3738.096048,-10584.944971,-296.082377,-306.438199
3738.096378,-10436.903782,-370.102971,536.266849
3738.096707,-9400.615463,-222.061783,153.219100
3738.097037,-9252.574275,0.000000,-383.047749
3738.097367,-9252.574275,-74.020594,-536.266849
3738.097697,-9030.512492,666.185348,0.000000
3738.098027,-9770.718434,814.226536,-229.828649
3738.098357,-10140.821405,1036.288319,-1225.752797
3738.098687,-10066.800811,666.185348,-1072.533697
3738.099016,-9992.780217,1110.308913,0.000000
3738.099346,-9844.739029,1036.288319,-306.438199
3738.099676,-9548.656652,888.247130,-689.485948
3738.100006,-9326.594869,1702.473667,-383.047749
3738.100336,-9992.780217,1258.350101,0.000000
3738.100666,-10955.047942,1480.411884,0.000000
3738.100996,-10955.047942,740.205942,919.314598
3738.101325,-11029.068536,1110.308913,1762.019645
3738.101655,-9844.739029,148.041188,919.314598
3738.101985,-8882.471304,222.061783,1455.581446
3738.102315,-9400.615463,444.123565,2145.067394
3738.102645,-9918.759623,888.247130,1608.800546
3738.102975,-9992.780217,888.247130,229.828649
3738.103305,-9622.677246,740.205942,-306.438199
3738.103634,-10732.986159,592.164754,612.876398
3738.103964,-10807.006753,296.082377,995.924147
3738.104294,-9844.739029,-222.061783,536.266849
3738.104624,-9474.636058,-370.102971,612.876398
3738.104954,-8882.471304,-370.102971,919.314598
3738.105284,-9400.615463,-592.164754,919.314598
3738.105614,-9548.656652,222.061783,459.657299
3738.105943,-9548.656652,-370.102971,153.219100
3738.106273,-9844.739029,-222.061783,459.657299
3738.106603,-9992.780217,0.000000,383.047749
3738.106933,-9918.759623,-74.020594,1072.533697
3738.107263,-9326.594869,-592.164754,842.705048
3738.107593,-9252.574275,-370.102971,-766.095498
3738.107923,-9696.697840,-370.102971,-1915.238745
3738.108252,-10214.842000,-222.061783,-1225.752797
3738.108582,-9548.656652,-592.164754,0.000000
3738.108912,-9400.615463,-296.082377,76.609550
3738.109242,-9252.574275,-888.247130,-229.828649
3738.109572,-9326.594869,-666.185348,-459.657299
3738.109902,-8364.327145,-740.205942,-612.876398
3738.110232,-9030.512492,148.041188,-689.485948
3738.110561,-10955.047942,370.102971,76.609550
3738.110891,-11547.212695,0.000000,0.000000
3738.111221,-10732.986159,0.000000,306.438199
3738.111551,-9696.697840,-666.185348,0.000000
3738.111881,-10140.821405,-518.144159,459.657299
3738.112211,-9918.759623,0.000000,-459.657299
3738.112541,-8882.471304,0.000000,-766.095498
3738.112870,-8808.450710,592.164754,-689.485948
3738.113200,-10584.944971,1110.308913,0.000000
3738.113530,-12065.356855,962.267725,0.000000
3738.113860,-11251.130318,74.020594,-306.438199
3738.114190,-9400.615463,-222.061783,229.828649
3738.114520,-9178.553681,-296.082377,919.314598
3738.114850,-10288.862594,0.000000,1149.143247
3738.115179,-10214.842000,0.000000,919.314598
3738.115509,-10214.842000,-74.020594,536.266849
3738.115839,-10436.903782,-222.061783,536.266849
3738.116169,-10436.903782,-518.144159,1072.533697
3738.116499,-9918.759623,-962.267725,1991.848295
3738.116829,-9474.636058,-444.123565,2911.162892
3738.117159,-8734.430116,-814.226536,1532.190996
3738.117488,-9178.553681,-592.164754,459.657299
3738.117818,-9326.594869,-444.123565,76.609550
3738.118148,-9696.697840,0.000000,383.047749
3738.118478,-9844.739029,222.061783,153.219100
3738.118808,-9770.718434,0.000000,536.266849
3738.119138,-9770.718434,-592.164754,153.219100
3738.119468,-9474.636058,-296.082377,153.219100
3738.119797,-9474.636058,74.020594,-383.047749
3738.120127,-9178.553681,-148.041188,-306.438199
3738.120457,-8882.471304,0.000000,0.000000
3738.120787,-8882.471304,148.041188,766.095498
3738.121117,-9696.697840,962.267725,1302.362347
3738.121447,-10140.821405,444.123565,536.266849
3738.121777,-9844.739029,0.000000,-536.266849
3738.122106,-9696.697840,296.082377,-842.705048
3738.122436,-9696.697840,1110.308913,-383.047749
3738.122766,-10658.965565,518.144159,-306.438199
3738.123096,-10140.821405,962.267725,-1072.533697
3738.123426,-9770.718434,592.164754,-1608.800546
3738.123756,-9400.615463,814.226536,-1072.533697
3738.124086,-9474.636058,888.247130,0.000000
3738.124415,-10288.862594,888.247130,0.000000
3738.124745,-9770.718434,962.267725,229.828649
3738.125075,-10066.800811,814.226536,229.828649
3738.125405,-11177.109724,962.267725,459.657299
3738.125735,-10362.883188,592.164754,383.047749
3738.126065,-9622.677246,74.020594,995.924147
3738.126395,-9622.677246,444.123565,689.485948
3738.126724,-10732.986159,370.102971,1532.190996
3738.127054,-10436.903782,592.164754,459.657299
3738.127384,-9622.677246,74.020594,0.000000
3738.127714,-9696.697840,222.061783,-153.219100
3738.128044,-9474.636058,0.000000,306.438199
3738.128374,-8586.388927,-592.164754,919.314598
3738.128704,-8956.491898,-592.164754,1685.410096
3738.129033,-9622.677246,-444.123565,1762.019645
3738.129363,-10066.800811,74.020594,536.266849
3738.129693,-9548.656652,-296.082377,0.000000
3738.130023,-9770.718434,0.000000,0.000000
3738.130353,-9992.780217,-74.020594,919.314598
3738.130683,-9474.636058,-666.185348,1455.581446
3738.131013,-8956.491898,-740.205942,766.095498
3738.131342,-9474.636058,-592.164754,689.485948
3738.131672,-9622.677246,-592.164754,-842.705048
3738.132002,-9548.656652,-444.123565,-1149.143247
3738.132332,-8882.471304,-518.144159,-1378.971896
3738.132662,-8956.491898,0.000000,-612.876398
3738.132992,-8808.450710,148.041188,229.828649
3738.133322,-9474.636058,-148.041188,1072.533697
3738.133651,-10066.800811,1036.288319,459.657299
3738.133981,-10510.924376,296.082377,-612.876398
3738.134311,-11177.109724,444.123565,-995.924147
3738.134641,-10732.986159,666.185348,-842.705048
3738.134971,-10214.842000,518.144159,229.828649
3738.135301,-9696.697840,296.082377,0.000000
3738.135630,-9474.636058,0.000000,-459.657299
3738.135960,-9474.636058,592.164754,-536.266849
3738.136290,-9844.739029,370.102971,-689.485948
3738.136620,-10362.883188,962.267725,-459.657299
3738.136950,-10584.944971,666.185348,229.828649
3738.137280,-11177.109724,814.226536,919.314598
3738.137610,-10584.944971,148.041188,995.924147
3738.137939,-10214.842000,-148.041188,1149.143247
3738.138269,-9548.656652,-592.164754,1532.190996
3738.138599,-9400.615463,-666.185348,1225.752797
3738.138929,-9770.718434,0.000000,1225.752797
3738.139259,-9548.656652,0.000000,1378.971896
3738.139589,-9770.718434,74.020594,1455.581446
3738.139919,-10066.800811,-370.102971,1225.752797
3738.140248,-9844.739029,-296.082377,-153.219100
3738.140578,-9104.533087,-814.226536,-689.485948
3738.140908,-8956.491898,-592.164754,459.657299
3738.141238,-8882.471304,-592.164754,1225.752797
3738.141568,-9400.615463,-592.164754,612.876398
3738.141898,-9622.677246,-740.205942,229.828649
3738.142228,-9770.718434,-740.205942,153.219100
3738.142557,-9844.739029,-888.247130,-306.438199
3738.142887,-9696.697840,-1110.308913,0.000000
3738.143217,-9548.656652,-962.267725,919.314598
3738.143547,-8808.450710,-1258.350101,229.828649
3738.143877,-8512.368333,-518.144159,76.609550
3738.144207,-9548.656652,-222.061783,229.828649
3738.144537,-10288.862594,-74.020594,-383.047749
3738.144866,-10214.842000,148.041188,-995.924147
3738.145196,-9696.697840,-444.123565,-1532.190996
3738.145526,-9474.636058,0.000000,0.000000
3738.145856,-9474.636058,-666.185348,-76.609550
3738.146186,-9696.697840,74.020594,-229.828649
3738.146516,-9696.697840,222.061783,-459.657299
3738.146846,-10362.883188,518.144159,-995.924147
3738.147175,-10510.924376,592.164754,-1149.143247
3738.147505,-10955.047942,148.041188,-919.314598
3738.147835,-9696.697840,296.082377,229.828649
3738.148165,-9770.718434,148.041188,459.657299
3738.148495,-10362.883188,444.123565,0.000000
3738.148825,-10066.800811,222.061783,0.000000
3738.149155,-10658.965565,518.144159,306.438199
3738.149484,-10584.944971,740.205942,612.876398
3738.149814,-10658.965565,814.226536,0.000000
3738.150144,-9770.718434,222.061783,919.314598
3738.150474,-10362.883188,148.041188,1455.581446
3738.150804,-10214.842000,148.041188,0.000000
3738.151134,-9326.594869,148.041188,-383.047749
3738.151464,-8956.491898,-148.041188,306.438199
3738.151793,-8660.409521,148.041188,1225.752797
3738.152123,-9770.718434,222.061783,1149.143247
3738.152453,-10214.842000,0.000000,1532.190996
3738.152783,-9622.677246,0.000000,1455.581446
3738.153113,-9252.574275,-518.144159,766.095498
3738.153443,-8956.491898,-444.123565,1225.752797
3738.153773,-9696.697840,0.000000,2221.676944
3738.154102,-9696.697840,222.061783,2068.457845
3738.154432,-9400.615463,148.041188,76.609550
3738.154762,-9474.636058,0.000000,-766.095498
3738.155092,-9770.718434,592.164754,-383.047749
3738.155422,-9474.636058,-518.144159,0.000000
3738.155752,-8882.471304,444.123565,0.000000
3738.156082,-8142.265362,74.020594,0.000000
3738.156411,-9474.636058,518.144159,0.000000
3738.156741,-10288.862594,962.267725,0.000000
3738.157071,-10807.006753,592.164754,-383.047749
3738.157401,-10214.842000,592.164754,0.000000
3738.157731,-9474.636058,74.020594,689.485948
3738.158061,-9622.677246,666.185348,1455.581446
3738.158391,-9696.697840,370.102971,1532.190996
3738.158720,-9918.759623,1258.350101,76.609550
3738.159050,-10436.903782,888.247130,-919.314598
3738.159380,-10807.006753,1554.432478,-1532.190996
3738.159710,-11177.109724,1702.473667,-459.657299
3738.160040,-10807.006753,1406.391290,0.000000
3738.160370,-9696.697840,444.123565,-766.095498
3738.160700,-8586.388927,370.102971,-153.219100
3738.161029,-9252.574275,518.144159,0.000000
3738.161359,-9992.780217,592.164754,383.047749
3738.161689,-10436.903782,518.144159,306.438199
3738.162019,-10436.903782,222.061783,1149.143247
3738.162349,-10732.986159,0.000000,1838.629195
3738.162679,-10510.924376,-666.185348,2451.505594
3738.163009,-9918.759623,-1110.308913,2145.067394
3738.163338,-8734.430116,-1184.329507,1991.848295
3738.163668,-8068.244768,-518.144159,1072.533697
3738.163998,-9548.656652,370.102971,995.924147
3738.164328,-10510.924376,296.082377,766.095498
3738.164658,-11251.130318,444.123565,1378.971896
3738.164988,-10658.965565,-148.041188,1149.143247
3738.165318,-10140.821405,0.000000,766.095498
3738.165647,-9548.656652,-518.144159,-229.828649
3738.165977,-9474.636058,-592.164754,-689.485948
3738.166307,-8734.430116,-518.144159,-689.485948
3738.166637,-8512.368333,-518.144159,-842.705048
3738.166967,-9548.656652,222.061783,383.047749
3738.167297,-10584.944971,0.000000,1149.143247
3738.167627,-10510.924376,-444.123565,1149.143247
3738.167956,-9548.656652,-592.164754,612.876398
3738.168286,-9696.697840,-296.082377,1149.143247
3738.168616,-9844.739029,0.000000,766.095498
3738.168946,-9770.718434,0.000000,612.876398
3738.169276,-9474.636058,296.082377,-306.438199
3738.169606,-9326.594869,222.061783,-919.314598
3738.169936,-9400.615463,222.061783,-1149.143247
3738.170265,-9770.718434,444.123565,-1302.362347
3738.170595,-9548.656652,296.082377,-919.314598
3738.170925,-9252.574275,370.102971,-995.924147
3738.171255,-9696.697840,444.123565,-1608.800546
3738.171585,-9400.615463,222.061783,-1225.752797
3738.171915,-9770.718434,518.144159,0.000000
3738.172245,-10584.944971,222.061783,689.485948
3738.172574,-9696.697840,74.020594,1149.143247
3738.172904,-9770.718434,0.000000,1838.629195
3738.173234,-10066.800811,444.123565,1072.533697
3738.173564,-10362.883188,296.082377,689.485948
3738.173894,-9474.636058,0.000000,153.219100
3738.174224,-9178.553681,518.144159,842.705048
3738.174554,-9844.739029,518.144159,842.705048
3738.174883,-10584.944971,370.102971,919.314598
3738.175213,-10066.800811,222.061783,229.828649
3738.175543,-9474.636058,370.102971,-1072.533697
3738.175873,-9548.656652,148.041188,-842.705048
3738.176203,-10288.862594,-222.061783,0.000000
3738.176533,-9918.759623,0.000000,1225.752797
3738.176863,-8956.491898,0.000000,1225.752797
3738.177192,-9326.594869,-296.082377,0.000000
3738.177522,-9622.677246,-296.082377,0.000000
3738.177852,-10214.842000,-592.164754,306.438199
3738.178182,-9992.780217,-296.082377,995.924147
3738.178512,-9992.780217,-222.061783,1072.533697
3738.178842,-9326.594869,-1110.308913,229.828649
3738.179172,-8734.430116,-962.267725,536.266849
3738.179501,-8956.491898,-1184.329507,153.219100
3738.179831,-9178.553681,-518.144159,0.000000
3738.180161,-9622.677246,-518.144159,459.657299
3738.180491,-9622.677246,0.000000,689.485948
3738.180821,-10066.800811,74.020594,383.047749
3738.181151,-10214.842000,0.000000,0.000000
3738.181481,-10436.903782,74.020594,-306.438199
3738.181810,-9622.677246,148.041188,-689.485948
3738.182140,-9400.615463,0.000000,-842.705048
3738.182470,-9400.615463,370.102971,-306.438199
3738.182800,-9918.759623,814.226536,612.876398
3738.183130,-10584.944971,962.267725,-153.219100
3738.183460,-11103.089130,1036.288319,-1378.971896
3738.183790,-11695.253884,962.267725,-919.314598
3738.184119,-10807.006753,370.102971,-919.314598
3738.184449,-10140.821405,444.123565,0.000000
3738.184779,-9548.656652,0.000000,995.924147
3738.185109,-9548.656652,74.020594,689.485948
3738.185439,-9844.739029,148.041188,842.705048
3738.185769,-9326.594869,0.000000,459.657299
3738.186099,-9178.553681,74.020594,536.266849
3738.186429,-10362.883188,518.144159,1762.019645
3738.186759,-11177.109724,74.020594,1608.800546
3738.187088,-10658.965565,0.000000,1225.752797
3738.187418,-9400.615463,-1036.288319,1149.143247
3738.187748,-8956.491898,-740.205942,1149.143247
3738.188078,-8956.491898,-592.164754,842.705048
3738.188408,-9104.533087,-74.020594,459.657299
3738.188738,-8956.491898,74.020594,842.705048
3738.189068,-9622.677246,222.061783,153.219100
3738.189398,-10066.800811,0.000000,-383.047749
3738.189727,-10140.821405,0.000000,-153.219100
3738.190057,-9844.739029,-370.102971,76.609550
3738.190387,-9030.512492,-518.144159,229.828649
3738.190717,-8290.306550,-814.226536,383.047749
3738.191047,-8438.347739,-222.061783,383.047749
3738.191377,-9326.594869,0.000000,-306.438199
3738.191707,-9474.636058,0.000000,-306.438199
3738.192037,-8956.491898,0.000000,153.219100
3738.192367,-9400.615463,74.020594,1072.533697
3738.192696,-9622.677246,370.102971,229.828649
3738.193026,-9696.697840,0.000000,-153.219100
3738.193356,-9474.636058,222.061783,-459.657299
3738.193686,-9918.759623,666.185348,-842.705048
3738.194016,-10362.883188,592.164754,-383.047749
3738.194346,-9992.780217,888.247130,-612.876398
3738.194676,-9696.697840,814.226536,-306.438199
3738.195006,-10436.903782,1110.308913,229.828649
3738.195336,-11399.171507,888.247130,-536.266849
3738.195665,-11325.150913,592.164754,-766.095498
3738.195995,-10436.903782,1036.288319,-612.876398
3738.196325,-9622.677246,518.144159,-536.266849
3738.196655,-9252.574275,0.000000,0.000000
3738.196985,-9326.594869,74.020594,612.876398
3738.197315,-9918.759623,444.123565,1302.362347
3738.197645,-10436.903782,370.102971,919.314598
3738.197975,-10066.800811,148.041188,536.266849
3738.198305,-10510.924376,0.000000,1378.971896
3738.198634,-10732.986159,0.000000,1762.019645
3738.198964,-10066.800811,0.000000,1455.581446
3738.199294,-9622.677246,-666.185348,1225.752797
3738.199624,-9030.512492,-296.082377,229.828649
3738.199954,-9030.512492,-222.061783,-153.219100
3738.200284,-9252.574275,-148.041188,76.609550
3738.200614,-9696.697840,0.000000,612.876398
3738.200944,-10140.821405,-370.102971,459.657299
3738.201273,-9474.636058,-518.144159,-306.438199
3738.201603,-9178.553681,-740.205942,0.000000
3738.201933,-9622.677246,-666.185348,153.219100
3738.202263,-9622.677246,-666.185348,459.657299
3738.202593,-9548.656652,-888.247130,0.000000
3738.202923,-9622.677246,-814.226536,689.485948
3738.203253,-10510.924376,-370.102971,612.876398
3738.203583,-9992.780217,-296.082377,229.828649
3738.203913,-9030.512492,-444.123565,229.828649
3738.204242,-8808.450710,-962.267725,-229.828649
3738.204572,-9474.636058,-370.102971,-383.047749
3738.204902,-9844.739029,0.000000,-459.657299
3738.205232,-9400.615463,-296.082377,0.000000
3738.205562,-9548.656652,444.123565,-229.828649
3738.205892,-10732.986159,592.164754,-153.219100
3738.206222,-10584.944971,814.226536,-459.657299
3738.206552,-10140.821405,0.000000,-536.266849
3738.206882,-9474.636058,296.082377,-536.266849
3738.207211,-9400.615463,0.000000,-612.876398
3738.207541,-10288.862594,74.020594,153.219100
3738.207871,-10955.047942,222.061783,153.219100
3738.208201,-10140.821405,148.041188,0.000000
3738.208531,-8956.491898,0.000000,-1072.533697
3738.208861,-9030.512492,0.000000,-76.609550
3738.209191,-10066.800811,296.082377,1072.533697
3738.209521,-10214.842000,222.061783,1762.019645
3738.209850,-9770.718434,-148.041188,1302.362347
3738.210180,-9992.780217,222.061783,842.705048
3738.210510,-10510.924376,74.020594,153.219100
3738.210840,-10510.924376,-370.102971,153.219100
3738.211170,-9474.636058,0.000000,1302.362347
3738.211500,-10066.800811,-296.082377,2068.457845
3738.211830,-9622.677246,148.041188,919.314598
3738.212160,-9252.574275,0.000000,-306.438199
3738.212490,-9252.574275,-296.082377,612.876398
3738.212819,-9252.574275,370.102971,306.438199
3738.213149,-9918.759623,0.000000,76.609550
3738.213479,-10362.883188,370.102971,306.438199
3738.213809,-10066.800811,-74.020594,229.828649
3738.214139,-9252.574275,-222.061783,229.828649
3738.214469,-9474.636058,-518.144159,-229.828649
3738.214799,-9696.697840,-592.164754,0.000000
3738.215129,-9178.553681,0.000000,306.438199
3738.215459,-8882.471304,-444.123565,229.828649
3738.215788,-9474.636058,296.082377,0.000000
3738.216118,-10066.800811,74.020594,383.047749
3738.216448,-10362.883188,222.061783,-383.047749
3738.216778,-9696.697840,296.082377,-383.047749
3738.217108,-8660.409521,0.000000,-995.924147
3738.217438,-8956.491898,296.082377,-76.609550
3738.217768,-10510.924376,962.267725,-459.657299
3738.218098,-10881.027347,518.144159,-612.876398
3738.218428,-10214.842000,888.247130,-459.657299
3738.218757,-10214.842000,1184.329507,0.000000
3738.219087,-11103.089130,888.247130,76.609550
3738.219417,-10362.883188,518.144159,0.000000
3738.219747,-9770.718434,740.205942,306.438199
3738.220077,-9622.677246,666.185348,842.705048
3738.220407,-9918.759623,740.205942,842.705048
3738.220737,-9992.780217,592.164754,689.485948
3738.221067,-10214.842000,814.226536,536.266849
3738.221396,-9178.553681,592.164754,766.095498
3738.221726,-9548.656652,518.144159,766.095498
3738.222056,-10140.821405,222.061783,1378.971896
3738.222386,-10881.027347,740.205942,1302.362347
3738.222716,-10807.006753,148.041188,306.438199
3738.223046,-9622.677246,74.020594,229.828649
3738.223376,-9326.594869,-592.164754,383.047749
3738.223706,-9474.636058,-370.102971,1455.581446
3738.224036,-9252.574275,-222.061783,1685.410096
3738.224365,-9178.553681,-148.041188,1302.362347
3738.224695,-9178.553681,0.000000,766.095498
3738.225025,-10510.924376,-444.123565,766.095498
3738.225355,-10288.862594,74.020594,306.438199
3738.225685,-10066.800811,-370.102971,153.219100
3738.226015,-9474.636058,-814.226536,-536.266849
3738.226345,-9400.615463,-1110.308913,-306.438199
3738.226675,-8808.450710,-1702.473667,153.219100
3738.227005,-8808.450710,-1184.329507,689.485948
3738.227334,-8364.327145,-814.226536,612.876398
3738.227664,-9252.574275,0.000000,-229.828649
3738.227994,-9548.656652,0.000000,-612.876398
3738.228324,-9622.677246,-444.123565,306.438199
3738.228654,-10140.821405,0.000000,459.657299
3738.228984,-10066.800811,-370.102971,153.219100
3738.229314,-9400.615463,-74.020594,-229.828649
3738.229644,-8882.471304,0.000000,-995.924147
3738.229974,-9474.636058,0.000000,-2068.457845
3738.230303,-10436.903782,444.123565,-1685.410096
3738.230633,-10288.862594,370.102971,-1072.533697
3738.230963,-10510.924376,0.000000,153.219100
3738.231293,-10436.903782,370.102971,153.219100
3738.231623,-10807.006753,444.123565,1149.143247
3738.231953,-10658.965565,814.226536,153.219100
3738.232283,-10288.862594,0.000000,-1072.533697
3738.232613,-10140.821405,296.082377,-995.924147
3738.232942,-10362.883188,296.082377,689.485948
3738.233272,-10658.965565,370.102971,2068.457845
3738.233602,-9992.780217,0.000000,2068.457845
3738.233932,-9474.636058,-296.082377,1072.533697
3738.234262,-9696.697840,-296.082377,1149.143247
3738.234592,-10732.986159,-814.226536,842.705048
3738.234922,-10436.903782,-518.144159,1378.971896
3738.235252,-9178.553681,-1036.288319,2221.676944
3738.235582,-8882.471304,-592.164754,2298.286494
3738.235911,-9548.656652,-444.123565,2068.457845
3738.236241,-9992.780217,-592.164754,1455.581446
3738.236571,-9622.677246,-148.041188,995.924147
3738.236901,-9104.533087,0.000000,0.000000
3738.237231,-9770.718434,370.102971,0.000000
3738.237561,-10140.821405,222.061783,766.095498
3738.237891,-9918.759623,-74.020594,842.705048
3738.238221,-9104.533087,0.000000,76.609550
3738.238551,-8882.471304,-296.082377,-536.266849
3738.238880,-9326.594869,0.000000,306.438199
3738.239210,-9548.656652,148.041188,612.876398
3738.239540,-8956.491898,0.000000,612.876398
3738.239870,-8734.430116,370.102971,612.876398
3738.240200,-9918.759623,740.205942,459.657299
3738.240530,-10807.006753,888.247130,153.219100
3738.240860,-10732.986159,1258.350101,0.000000
3738.241190,-9770.718434,444.123565,-766.095498
3738.241520,-9770.718434,962.267725,-919.314598
3738.241849,-9770.718434,814.226536,-459.657299
3738.242179,-9770.718434,1554.432478,229.828649
3738.242509,-9548.656652,1258.350101,-1225.752797
3738.242839,-9474.636058,1776.494261,-1532.190996
3738.243169,-9844.739029,1332.370696,-1608.800546
3738.243499,-10955.047942,1480.411884,-1072.533697
3738.243829,-10955.047942,1480.411884,0.000000
3738.244159,-10807.006753,888.247130,612.876398
3738.244488,-9622.677246,592.164754,153.219100
3738.244818,-9696.697840,0.000000,229.828649
3738.245148,-10510.924376,888.247130,76.609550
3738.245478,-10955.047942,518.144159,919.314598
3738.245808,-9992.780217,222.061783,689.485948
3738.246138,-9252.574275,222.061783,1685.410096
3738.246468,-10214.842000,0.000000,1608.800546
3738.246798,-10807.006753,0.000000,1225.752797
3738.247128,-9918.759623,-296.082377,0.000000
3738.247457,-8734.430116,-518.144159,-689.485948
3738.247787,-8956.491898,-740.205942,0.000000
3738.248117,-9622.677246,-444.123565,612.876398
3738.248447,-9918.759623,-222.061783,1455.581446
3738.248777,-9178.553681,-518.144159,536.266849
3738.249107,-8956.491898,-1036.288319,-383.047749
3738.249437,-10362.883188,-888.247130,-612.876398
3738.249767,-10807.006753,-962.267725,-383.047749
3738.250097,-9326.594869,-1184.329507,-229.828649
3738.250426,-7994.224174,-1850.514855,-459.657299
3738.250756,-7920.203579,-1776.494261,842.705048
3738.251086,-8586.388927,-1332.370696,1455.581446
3738.251416,-9696.697840,-740.205942,766.095498
3738.251746,-9622.677246,-222.061783,-229.828649
3738.252076,-10658.965565,74.020594,229.828649
3738.252406,-10881.027347,0.000000,153.219100
3738.252736,-10732.986159,-296.082377,0.000000
3738.253066,-10140.821405,-592.164754,-536.266849
3738.253395,-9252.574275,-296.082377,-306.438199
3738.253725,-9030.512492,-370.102971,-1225.752797
3738.254055,-9844.739029,296.082377,-1608.800546
3738.254385,-9992.780217,296.082377,-689.485948
3738.254715,-10584.944971,592.164754,0.000000
3738.255045,-9918.759623,592.164754,-459.657299
3738.255375,-9622.677246,-74.020594,-459.657299
3738.255705,-10658.965565,370.102971,1225.752797
3738.256034,-11769.274478,0.000000,2451.505594
3738.256364,-11251.130318,222.061783,1991.848295
3738.256694,-9548.656652,-370.102971,459.657299
3738.257024,-10658.965565,0.000000,1225.752797
3738.257354,-10584.944971,0.000000,1608.800546
3738.257684,-10066.800811,-148.041188,1302.362347
3738.258014,-8808.450710,-74.020594,995.924147
3738.258344,-8808.450710,148.041188,229.828649
3738.258674,-9770.718434,222.061783,306.438199
3738.259003,-9474.636058,0.000000,229.828649
3738.259333,-9252.574275,296.082377,229.828649
3738.259663,-9178.553681,74.020594,153.219100
3738.259993,-9918.759623,-222.061783,459.657299
3738.260323,-9918.759623,-370.102971,1455.581446
3738.260653,-9770.718434,0.000000,1991.848295
3738.260983,-9696.697840,0.000000,612.876398
3738.261313,-9622.677246,-444.123565,-383.047749
3738.261643,-9178.553681,0.000000,153.219100
3738.261972,-8734.430116,0.000000,689.485948
3738.262302,-8734.430116,0.000000,306.438199
3738.262632,-8364.327145,-518.144159,-612.876398
3738.262962,-8956.491898,222.061783,-383.047749
3738.263292,-9770.718434,222.061783,-689.485948
3738.263622,-9548.656652,370.102971,-306.438199
3738.263952,-9844.739029,370.102971,229.828649
3738.264282,-9474.636058,814.226536,0.000000
3738.264612,-9474.636058,740.205942,-995.924147
3738.264941,-9400.615463,444.123565,-612.876398
3738.265271,-10214.842000,740.205942,383.047749
3738.265601,-10362.883188,1184.329507,306.438199
3738.265931,-10066.800811,1184.329507,-153.219100
3738.266261,-9992.780217,1332.370696,-229.828649
3738.266591,-10362.883188,1036.288319,-536.266849
3738.266921,-10140.821405,1258.350101,-459.657299
3738.267251,-9844.739029,1480.411884,-1608.800546
3738.267580,-10288.862594,1480.411884,-1378.971896
3738.267910,-11029.068536,1480.411884,229.828649
3738.268240,-10732.986159,1110.308913,842.705048
3738.268570,-10658.965565,1110.308913,306.438199
3738.268900,-10288.862594,222.061783,-229.828649
3738.269230,-10140.821405,148.041188,842.705048
3738.269560,-9474.636058,148.041188,1149.143247
3738.269890,-9252.574275,-148.041188,1685.410096
3738.270220,-9474.636058,0.000000,2145.067394
3738.270549,-9992.780217,-222.061783,1685.410096
3738.270879,-10288.862594,222.061783,1072.533697
3738.271209,-10436.903782,-296.082377,1532.190996
3738.271539,-10658.965565,-148.041188,1302.362347
3738.271869,-9918.759623,-666.185348,1149.143247
3738.272199,-9400.615463,-1258.350101,1149.143247
3738.272529,-8734.430116,-1258.350101,1378.971896
3738.272859,-8808.450710,-1184.329507,1608.800546
3738.273189,-9844.739029,-518.144159,1149.143247
3738.273518,-9992.780217,-740.205942,536.266849
3738.273848,-9548.656652,-740.205942,-306.438199
3738.274178,-9474.636058,-962.267725,-229.828649
3738.274508,-9104.533087,-962.267725,-229.828649
3738.274838,-9548.656652,-1110.308913,995.924147
3738.275168,-9252.574275,-1480.411884,919.314598
3738.275498,-9030.512492,-1332.370696,383.047749
3738.275828,-9474.636058,-370.102971,229.828649
3738.276158,-10214.842000,-518.144159,306.438199
3738.276487,-10214.842000,-666.185348,-459.657299
3738.276817,-9474.636058,-740.205942,-1608.800546
3738.277147,-8808.450710,-666.185348,-612.876398
3738.277477,-9770.718434,148.041188,383.047749
3738.277807,-10214.842000,444.123565,-153.219100
3738.278137,-9548.656652,444.123565,-2068.457845
3738.278467,-10214.842000,888.247130,-2451.505594
3738.278797,-10955.047942,1184.329507,-1455.581446
3738.279126,-11769.274478,1110.308913,-919.314598
3738.279456,-10881.027347,0.000000,-229.828649
3738.279786,-9844.739029,0.000000,383.047749
3738.280116,-9104.533087,-666.185348,0.000000
3738.280446,-8808.450710,0.000000,536.266849
3738.280776,-9326.594869,0.000000,1072.533697
3738.281106,-10436.903782,592.164754,1225.752797
3738.281436,-11103.089130,518.144159,766.095498
3738.281766,-10362.883188,0.000000,306.438199
3738.282095,-10066.800811,-296.082377,1685.410096
3738.282425,-10362.883188,-666.185348,1455.581446
3738.282755,-9696.697840,-592.164754,1225.752797
3738.283085,-9030.512492,-518.144159,995.924147
3738.283415,-9104.533087,-148.041188,1455.581446
3738.283745,-9992.780217,518.144159,1302.362347
3738.284075,-10584.944971,222.061783,689.485948
3738.284405,-9622.677246,74.020594,459.657299
3738.284735,-9326.594869,222.061783,612.876398
3738.285064,-9770.718434,0.000000,153.219100
3738.285394,-9770.718434,-74.020594,76.609550
3738.285724,-9474.636058,0.000000,0.000000
3738.286054,-8808.450710,-296.082377,-536.266849
3738.286384,-8734.430116,-222.061783,-536.266849
3738.286714,-9104.533087,0.000000,76.609550
3738.287044,-9992.780217,0.000000,1072.533697
3738.287374,-9992.780217,-222.061783,383.047749
3738.287704,-9252.574275,-518.144159,0.000000
3738.288033,-9252.574275,0.000000,-153.219100
3738.288363,-9326.594869,-296.082377,76.609550
3738.288693,-9400.615463,1036.288319,-153.219100
3738.289023,-9178.553681,666.185348,-536.266849
3738.289353,-9474.636058,1110.308913,-1149.143247
3738.289683,-10362.883188,814.226536,-995.924147
3738.290013,-11473.192101,1480.411884,-919.314598
3738.290343,-10658.965565,1480.411884,0.000000
3738.290673,-9918.759623,1258.350101,-612.876398
3738.291002,-9104.533087,1110.308913,-689.485948
3738.291332,-9696.697840,1480.411884,-383.047749
3738.291662,-11251.130318,1998.556043,306.438199
3738.291992,-11843.295072,1850.514855,0.000000
3738.292322,-10955.047942,1036.288319,-383.047749
3738.292652,-9844.739029,962.267725,459.657299
3738.292982,-10584.944971,962.267725,1762.019645
3738.293312,-10658.965565,1110.308913,2374.896044
3738.293641,-9918.759623,592.164754,1378.971896
3738.293971,-9104.533087,296.082377,766.095498
3738.294301,-10066.800811,740.205942,536.266849
3738.294631,-10881.027347,222.061783,1991.848295
3738.294961,-10658.965565,-370.102971,1838.629195
3738.295291,-9178.553681,-740.205942,2374.896044
3738.295621,-8660.409521,-444.123565,1685.410096
3738.295951,-8882.471304,-888.247130,919.314598
3738.296281,-8882.471304,-1036.288319,919.314598
3738.296610,-8586.388927,-444.123565,1378.971896
3738.296940,-9474.636058,-666.185348,1225.752797
3738.297270,-9770.718434,-296.082377,1762.019645
3738.297600,-10288.862594,-666.185348,689.485948
3738.297930,-9400.615463,-1036.288319,536.266849
3738.298260,-8882.471304,-1110.308913,-306.438199
3738.298590,-9030.512492,-1258.350101,-153.219100
3738.298920,-9474.636058,-444.123565,1302.362347
3738.299250,-9548.656652,-592.164754,919.314598
3738.299579,-8956.491898,0.000000,0.000000
3738.299909,-9252.574275,-148.041188,-842.705048
3738.300239,-10066.800811,74.020594,-1532.190996
3738.300569,-10288.862594,0.000000,-1072.533697
3738.300899,-9844.739029,-222.061783,-1072.533697
3738.301229,-9178.553681,-222.061783,-306.438199
3738.301559,-9178.553681,74.020594,-1072.533697
3738.301889,-9844.739029,0.000000,-1225.752797
3738.302219,-10066.800811,148.041188,-766.095498
3738.302548,-10955.047942,592.164754,-306.438199
3738.302878,-10955.047942,222.061783,0.000000
3738.303208,-10658.965565,518.144159,-153.219100
3738.303538,-10362.883188,0.000000,-536.266849
3738.303868,-10807.006753,148.041188,0.000000
3738.304198,-10584.944971,0.000000,-383.047749
3738.304528,-9992.780217,-222.061783,-995.924147
3738.304858,-9474.636058,-74.020594,-459.657299
3738.305188,-9104.533087,-74.020594,612.876398
3738.305517,-10288.862594,222.061783,766.095498
3738.305847,-10658.965565,-518.144159,0.000000
3738.306177,-10214.842000,-296.082377,0.000000
3738.306507,-9326.594869,-1110.308913,-153.219100
3738.306837,-9992.780217,-222.061783,229.828649
3738.307167,-10066.800811,-518.144159,1302.362347
3738.307497,-9326.594869,-814.226536,2068.457845
3738.307827,-8660.409521,-888.247130,1302.362347
3738.308157,-9030.512492,-814.226536,459.657299
3738.308486,-9770.718434,-592.164754,842.705048
3738.308816,-9474.636058,-1110.308913,995.924147
3738.309146,-8956.491898,-740.205942,0.000000
3738.309476,-9178.553681,-740.205942,536.266849
3738.309806,-9548.656652,-1184.329507,689.485948
3738.310136,-9252.574275,-1036.288319,536.266849
3738.310466,-8364.327145,-1184.329507,0.000000
3738.310796,-8956.491898,-518.144159,0.000000
3738.311126,-9252.574275,-518.144159,0.000000
3738.311455,-9992.780217,0.000000,0.000000
3738.311785,-9992.780217,222.061783,-459.657299
3738.312115,-9474.636058,148.041188,383.047749
3738.312445,-9622.677246,444.123565,-153.219100
3738.312775,-9844.739029,222.061783,-153.219100
3738.313105,-9992.780217,592.164754,383.047749
3738.313435,-10066.800811,1110.308913,-229.828649
3738.313765,-10214.842000,1036.288319,-1225.752797
3738.314095,-10658.965565,1480.411884,-842.705048
3738.314424,-10732.986159,1110.308913,0.000000
3738.314754,-10584.944971,1184.329507,153.219100
3738.315084,-10066.800811,1258.350101,153.219100
3738.315414,-10362.883188,814.226536,-383.047749
3738.315744,-10658.965565,1554.432478,306.438199
3738.316074,-10288.862594,1184.329507,0.000000
3738.316404,-9844.739029,814.226536,689.485948
3738.316734,-10140.821405,1184.329507,1302.362347
3738.317063,-10807.006753,1036.288319,1072.533697
3738.317393,-10658.965565,1332.370696,383.047749
3738.317723,-9252.574275,666.185348,76.609550
3738.318053,-8586.388927,592.164754,919.314598
3738.318383,-9178.553681,518.144159,842.705048
3738.318713,-10288.862594,1110.308913,919.314598
3738.319043,-9992.780217,592.164754,1302.362347
3738.319373,-10066.800811,444.123565,1378.971896
3738.319703,-10436.903782,222.061783,919.314598
3738.320032,-10066.800811,148.041188,766.095498
3738.320362,-9400.615463,148.041188,1455.581446
3738.320692,-8956.491898,0.000000,1532.190996
3738.321022,-9548.656652,74.020594,766.095498
3738.321352,-9696.697840,296.082377,612.876398
3738.321682,-9622.677246,-518.144159,76.609550
3738.322012,-9770.718434,-222.061783,76.609550
3738.322342,-10066.800811,-370.102971,-306.438199
3738.322672,-9474.636058,-962.267725,-153.219100
3738.323001,-9104.533087,-666.185348,-76.609550
3738.323331,-8142.265362,-1184.329507,-76.609550
3738.323661,-8142.265362,-592.164754,-383.047749
3738.323991,-8882.471304,-296.082377,383.047749
3738.324321,-9474.636058,0.000000,689.485948
3738.324651,-9918.759623,148.041188,-153.219100
3738.324981,-10436.903782,148.041188,-536.266849
3738.325311,-10955.047942,296.082377,-383.047749
3738.325641,-10732.986159,0.000000,-536.266849
3738.325970,-10140.821405,296.082377,-1225.752797
3738.326300,-9474.636058,-74.020594,-1608.800546
3738.326630,-9178.553681,-148.041188,-1149.143247
3738.326960,-9474.636058,518.144159,-1149.143247
3738.327290,-10140.821405,592.164754,-1149.143247
3738.327620,-10584.944971,814.226536,306.438199
3738.327950,-10955.047942,666.185348,153.219100
3738.328280,-10807.006753,518.144159,0.000000
3738.328610,-10436.903782,222.061783,-536.266849
3738.328939,-10658.965565,74.020594,689.485948
3738.329269,-9844.739029,-592.164754,995.924147
3738.329599,-9326.594869,-592.164754,1149.143247
3738.329929,-9548.656652,-370.102971,1838.629195
3738.330259,-10881.027347,148.041188,2068.457845
3738.330589,-11251.130318,-148.041188,842.705048
3738.330919,-9474.636058,-444.123565,153.219100
3738.331249,-8882.471304,-370.102971,1302.362347
3738.331579,-9030.512492,-222.061783,2068.457845
3738.331908,-9474.636058,-814.226536,1838.629195
3738.332238,-9326.594869,-518.144159,1608.800546
3738.332568,-10066.800811,148.041188,995.924147
3738.332898,-10658.965565,-518.144159,-842.705048
3738.333228,-9844.739029,-740.205942,-919.314598
3738.333558,-8956.491898,-1036.288319,76.609550
3738.333888,-8808.450710,-962.267725,1149.143247
3738.334218,-8438.347739,-1036.288319,1149.143247
3738.334548,-8956.491898,-962.267725,459.657299
3738.334877,-8956.491898,-592.164754,153.219100
3738.335207,-8882.471304,-518.144159,-536.266849
3738.335537,-9030.512492,0.000000,-995.924147
3738.335867,-9474.636058,222.061783,-842.705048
3738.336197,-9844.739029,0.000000,0.000000
3738.336527,-9696.697840,74.020594,-306.438199
3738.336857,-9178.553681,0.000000,-766.095498
3738.337187,-9326.594869,518.144159,-383.047749
3738.337517,-10584.944971,740.205942,612.876398
3738.337846,-10658.965565,1036.288319,0.000000
3738.338176,-9918.759623,814.226536,-919.314598
3738.338506,-10066.800811,1036.288319,-766.095498
3738.338836,-11029.068536,888.247130,-229.828649
3738.339166,-11547.212695,1258.350101,0.000000
3738.339496,-10140.821405,1036.288319,0.000000
3738.339826,-9992.780217,1258.350101,-995.924147
3738.340156,-9696.697840,1406.391290,-1225.752797
3738.340485,-10214.842000,814.226536,-995.924147
3738.340815,-10658.965565,740.205942,153.219100
3738.341145,-9918.759623,592.164754,1149.143247
3738.341475,-9844.739029,666.185348,1915.238745
3738.341805,-10658.965565,296.082377,2451.505594
3738.342135,-10658.965565,444.123565,2451.505594
3738.342465,-10214.842000,-74.020594,1838.629195
3738.342795,-9474.636058,0.000000,612.876398
3738.343125,-9400.615463,0.000000,1455.581446
3738.343454,-10362.883188,0.000000,1455.581446
3738.343784,-9474.636058,-296.082377,919.314598
3738.344114,-8364.327145,-666.185348,536.266849
3738.344444,-9030.512492,148.041188,0.000000
3738.344774,-9696.697840,0.000000,-612.876398
3738.345104,-9548.656652,-296.082377,-766.095498
3738.345434,-8882.471304,-740.205942,-766.095498
3738.345764,-9252.574275,-370.102971,-612.876398
3738.346094,-8734.430116,-518.144159,459.657299
3738.346423,-8660.409521,-444.123565,229.828649
3738.346753,-8734.430116,-296.082377,459.657299
3738.347083,-9474.636058,-222.061783,76.609550
3738.347413,-8956.491898,-814.226536,153.219100
3738.347743,-9104.533087,-592.164754,0.000000
3738.348073,-9622.677246,0.000000,76.609550
3738.348403,-9696.697840,0.000000,0.000000
3738.348733,-9474.636058,0.000000,-1608.800546
3738.349063,-8660.409521,-74.020594,-1532.190996
3738.349392,-8660.409521,592.164754,-536.266849
3738.349722,-10658.965565,1258.350101,-459.657299
3738.350052,-11473.192101,1332.370696,-995.924147
3738.350382,-10732.986159,1480.411884,-1302.362347
3738.350712,-9992.780217,666.185348,-1225.752797
3738.351042,-10732.986159,518.144159,0.000000
3738.351372,-11843.295072,296.082377,689.485948
3738.351702,-10584.944971,740.205942,995.924147
3738.352032,-8808.450710,74.020594,536.266849
3738.352361,-9474.636058,1110.308913,536.266849
3738.352691,-11473.192101,740.205942,1302.362347
3738.353021,-11547.212695,592.164754,1072.533697
3738.353351,-10140.821405,222.061783,1225.752797
3738.353681,-8882.471304,0.000000,1455.581446
3738.354011,-10436.903782,0.000000,2757.943793
3738.354341,-11325.150913,-74.020594,2374.896044
3738.354671,-10066.800811,0.000000,919.314598
3738.355001,-8734.430116,296.082377,-76.609550
3738.355330,-10066.800811,296.082377,0.000000
3738.355660,-10658.965565,-370.102971,995.924147
3738.355990,-9696.697840,-296.082377,1455.581446
3738.356320,-8438.347739,-1036.288319,2221.676944
3738.356650,-9030.512492,-888.247130,1762.019645
3738.356980,-9326.594869,-1258.350101,0.000000
3738.357310,-7772.162391,-962.267725,-995.924147
3738.357640,-8142.265362,-888.247130,-612.876398
3738.357970,-9030.512492,-814.226536,0.000000
3738.358299,-9400.615463,-518.144159,612.876398
3738.358629,-9474.636058,-814.226536,1149.143247
3738.358959,-9622.677246,0.000000,689.485948
3738.359289,-9326.594869,-518.144159,-306.438199
3738.359619,-9326.594869,-518.144159,-1838.629195
3738.359949,-8882.471304,0.000000,-1608.800546
3738.360279,-8808.450710,592.164754,-383.047749
3738.360609,-9622.677246,740.205942,0.000000
3738.360939,-9770.718434,444.123565,-766.095498
3738.361268,-9918.759623,1036.288319,-1149.143247
3738.361598,-10658.965565,814.226536,-1455.581446
3738.361928,-11325.150913,1332.370696,-459.657299
3738.362258,-11103.089130,1258.350101,-536.266849
3738.362588,-10362.883188,962.267725,-995.924147
3738.362918,-10214.842000,814.226536,-919.314598
3738.363248,-10214.842000,666.185348,306.438199
3738.363578,-10955.047942,1036.288319,1685.410096
3738.363907,-11103.089130,1184.329507,1302.362347
3738.364237,-10510.924376,888.247130,0.000000
3738.364567,-9844.739029,814.226536,-689.485948
3738.364897,-10066.800811,296.082377,766.095498
3738.365227,-10214.842000,444.123565,1608.800546
3738.365557,-10140.821405,444.123565,1378.971896
3738.365887,-9474.636058,-444.123565,842.705048
3738.366217,-9696.697840,0.000000,1072.533697
3738.366547,-10140.821405,-444.123565,1378.971896
3738.366876,-9992.780217,-518.144159,995.924147
3738.367206,-9992.780217,-222.061783,306.438199
3738.367536,-8586.388927,-370.102971,0.000000
3738.367866,-8068.244768,-740.205942,-842.705048
3738.368196,-8586.388927,-1110.308913,459.657299
3738.368526,-10066.800811,-518.144159,1378.971896
3738.368856,-9252.574275,-1110.308913,842.705048
3738.369186,-8586.388927,-1258.350101,-689.485948
3738.369516,-8882.471304,-1110.308913,-919.314598
3738.369845,-9104.533087,-1258.350101,0.000000
3738.370175,-8290.306550,-1036.288319,229.828649
3738.370505,-8512.368333,-1184.329507,0.000000
3738.370835,-9548.656652,-666.185348,383.047749
3738.371165,-10066.800811,-740.205942,536.266849
3738.371495,-9474.636058,-444.123565,-612.876398
3738.371825,-9474.636058,-444.123565,-1455.581446
3738.372155,-9992.780217,-370.102971,-1225.752797
3738.372485,-10214.842000,74.020594,-612.876398
3738.372814,-9844.739029,222.061783,-766.095498
3738.373144,-9992.780217,296.082377,306.438199
3738.373474,-11029.068536,666.185348,-459.657299
3738.373804,-11325.150913,666.185348,-1149.143247
3738.374134,-11103.089130,740.205942,-229.828649
3738.374464,-10510.924376,740.205942,153.219100
3738.374794,-10732.986159,0.000000,459.657299
3738.375124,-10436.903782,0.000000,0.000000
3738.375454,-9918.759623,-148.041188,689.485948
3738.375783,-9918.759623,370.102971,1532.190996
3738.376113,-10584.944971,148.041188,2068.457845
3738.376443,-10288.862594,518.144159,1072.533697
3738.376773,-10510.924376,888.247130,766.095498
3738.377103,-10214.842000,888.247130,689.485948
3738.377433,-10584.944971,518.144159,536.266849
3738.377763,-10288.862594,0.000000,1149.143247
3738.378093,-9696.697840,0.000000,1532.190996
3738.378423,-9030.512492,-592.164754,1455.581446
3738.378752,-8586.388927,0.000000,995.924147
3738.379082,-9252.574275,222.061783,842.705048
3738.379412,-9844.739029,148.041188,1072.533697
3738.379742,-9622.677246,74.020594,306.438199
3738.380072,-9252.574275,-444.123565,-229.828649
3738.380402,-8956.491898,-222.061783,1532.190996
3738.380732,-9548.656652,-296.082377,2374.896044
3738.381062,-9844.739029,-222.061783,1072.533697
3738.381392,-8216.285956,-74.020594,153.219100
3738.381721,-8364.327145,0.000000,-1072.533697
3738.382051,-9178.553681,444.123565,-306.438199
3738.382381,-9770.718434,518.144159,-612.876398
3738.382711,-9474.636058,888.247130,-306.438199
3738.383041,-9326.594869,666.185348,-1302.362347
3738.383371,-9474.636058,740.205942,-1455.581446
3738.383701,-10214.842000,592.164754,-1302.362347
3738.384031,-9548.656652,518.144159,-536.266849
3738.384361,-8660.409521,222.061783,-153.219100
3738.384690,-9030.512492,888.247130,-612.876398
3738.385020,-9548.656652,296.082377,153.219100
3738.385350,-11029.068536,1258.350101,0.000000
3738.385680,-10881.027347,592.164754,-1302.362347
3738.386010,-10658.965565,1110.308913,-1302.362347
3738.386340,-9992.780217,444.123565,-383.047749
3738.386669,-9696.697840,666.185348,766.095498
3738.386999,-10214.842000,592.164754,689.485948
3738.387329,-9844.739029,444.123565,-536.266849
3738.387659,-9844.739029,444.123565,-689.485948
3738.387989,-9696.697840,592.164754,-306.438199
3738.388318,-10214.842000,592.164754,536.266849
3738.388648,-9844.739029,370.102971,995.924147
3738.388978,-10140.821405,592.164754,689.485948
3738.389308,-10214.842000,74.020594,0.000000
3738.389638,-10140.821405,-370.102971,383.047749
3738.389967,-10436.903782,-518.144159,1455.581446
3738.390297,-10584.944971,-666.185348,2528.115143
3738.390627,-9474.636058,0.000000,1225.752797
3738.390957,-9252.574275,-222.061783,612.876398
3738.391287,-9622.677246,0.000000,459.657299
3738.391616,-9770.718434,-148.041188,995.924147
3738.391946,-9622.677246,-296.082377,76.609550
3738.392276,-9104.533087,-592.164754,0.000000
3738.392606,-9474.636058,-592.164754,536.266849
3738.392936,-9474.636058,-888.247130,306.438199
3738.393265,-9252.574275,-1184.329507,0.000000
3738.393595,-9474.636058,-888.247130,-229.828649
3738.393925,-9474.636058,-888.247130,-383.047749
3738.394255,-9326.594869,-666.185348,0.000000
3738.394585,-8660.409521,-1406.391290,1302.362347
3738.394914,-8808.450710,-518.144159,1838.629195
3738.395244,-9474.636058,-1036.288319,1149.143247
3738.395574,-9030.512492,-518.144159,-459.657299
3738.395904,-9326.594869,-518.144159,-306.438199
3738.396234,-10288.862594,-222.061783,383.047749
3738.396563,-10732.986159,0.000000,306.438199
3738.396893,-9548.656652,-518.144159,-612.876398
3738.397223,-8734.430116,148.041188,-459.657299
3738.397553,-9252.574275,222.061783,-459.657299
3738.397883,-10732.986159,814.226536,-153.219100
3738.398212,-10436.903782,296.082377,-766.095498
3738.398542,-10066.800811,962.267725,-842.705048
3738.398872,-9770.718434,1258.350101,-383.047749
3738.399202,-10066.800811,296.082377,0.000000
3738.399532,-10807.006753,1480.411884,1225.752797
3738.399861,-10140.821405,666.185348,612.876398
3738.400191,-9844.739029,444.123565,-536.266849
3738.400521,-10288.862594,518.144159,536.266849
3738.400851,-11843.295072,592.164754,2298.286494
3738.401181,-10732.986159,666.185348,2221.676944
3738.401510,-9104.533087,0.000000,919.314598
3738.401840,-9474.636058,222.061783,306.438199
3738.402170,-10214.842000,592.164754,612.876398
3738.402500,-10288.862594,74.020594,612.876398
3738.402830,-8956.491898,296.082377,919.314598
3738.403159,-8660.409521,74.020594,383.047749
3738.403489,-9030.512492,222.061783,919.314598
3738.403819,-9622.677246,222.061783,306.438199
3738.404149,-9844.739029,0.000000,-919.314598
3738.404479,-9326.594869,296.082377,0.000000
3738.404808,-9104.533087,-222.061783,153.219100
3738.405138,-9474.636058,148.041188,459.657299
3738.405468,-9992.780217,148.041188,995.924147
3738.405798,-10955.047942,74.020594,1149.143247
3738.406128,-9548.656652,-814.226536,-536.266849
3738.406457,-7994.224174,-1776.494261,-1762.019645
3738.406787,-7550.100608,-1258.350101,-612.876398
3738.407117,-8364.327145,-1184.329507,1072.533697
3738.407447,-8438.347739,-666.185348,306.438199
3738.407777,-8808.450710,-592.164754,0.000000
3738.408106,-9992.780217,444.123565,-76.609550
3738.408436,-11103.089130,296.082377,-1302.362347
3738.408766,-11177.109724,74.020594,-919.314598
3738.409096,-9918.759623,0.000000,76.609550
3738.409426,-9622.677246,222.061783,-383.047749
3738.409755,-10510.924376,148.041188,-1149.143247
3738.410085,-9844.739029,222.061783,-1302.362347
3738.410415,-9400.615463,666.185348,-1149.143247
3738.410745,-9400.615463,1258.350101,-1302.362347
3738.411075,-10288.862594,1258.350101,-842.705048
3738.411404,-10807.006753,1332.370696,383.047749
3738.411734,-10658.965565,1406.391290,383.047749
3738.412064,-10658.965565,1110.308913,-689.485948
3738.412394,-10362.883188,1110.308913,-689.485948
3738.412724,-11251.130318,592.164754,229.828649
3738.413053,-10658.965565,444.123565,1762.019645
3738.413383,-10066.800811,148.041188,1455.581446
3738.413713,-9622.677246,518.144159,1149.143247
3738.414043,-9622.677246,1036.288319,1378.971896
3738.414373,-9844.739029,592.164754,919.314598
3738.414702,-9548.656652,592.164754,1608.800546
3738.415032,-10288.862594,962.267725,2374.896044
3738.415362,-9548.656652,296.082377,1915.238745
3738.415692,-9770.718434,518.144159,995.924147
3738.416022,-10584.944971,74.020594,766.095498
3738.416351,-10881.027347,0.000000,1685.410096
3738.416681,-10584.944971,-666.185348,689.485948
3738.417011,-9252.574275,-592.164754,306.438199
3738.417341,-8734.430116,-444.123565,919.314598
3738.417671,-9252.574275,-518.144159,1915.238745
3738.418000,-9474.636058,-296.082377,1072.533697
3738.418330,-8364.327145,-1110.308913,383.047749
3738.418660,-8142.265362,-1036.288319,0.000000
3738.418990,-9178.553681,-1036.288319,76.609550
3738.419320,-8882.471304,-1554.432478,459.657299
3738.419649,-7328.038826,-1702.473667,0.000000
3738.419979,-8290.306550,-1480.411884,76.609550
3738.420309,-9326.594869,-888.247130,-306.438199
3738.420639,-9548.656652,-444.123565,-689.485948
3738.420969,-9030.512492,-444.123565,-612.876398
3738.421298,-8956.491898,296.082377,-612.876398
3738.421628,-9474.636058,222.061783,-1149.143247
3738.421958,-9548.656652,0.000000,-1225.752797
3738.422288,-9696.697840,222.061783,-1225.752797
3738.422618,-10288.862594,592.164754,-1378.971896
3738.422947,-10881.027347,666.185348,-1455.581446
3738.423277,-10362.883188,518.144159,-1149.143247
3738.423607,-10658.965565,888.247130,-306.438199
3738.423937,-10436.903782,592.164754,-536.266849
3738.424267,-11325.150913,222.061783,-459.657299
3738.424596,-11473.192101,0.000000,0.000000
3738.424926,-10362.883188,-296.082377,383.047749
3738.425256,-9770.718434,296.082377,919.314598
3738.425586,-10362.883188,0.000000,1302.362347
3738.425916,-10955.047942,148.041188,1455.581446
3738.426245,-10288.862594,-518.144159,383.047749
3738.426575,-9548.656652,-296.082377,-306.438199
3738.426905,-9622.677246,-74.020594,842.705048
3738.427235,-10732.986159,0.000000,1685.410096
3738.427565,-10214.842000,-74.020594,1762.019645
3738.427894,-9474.636058,-222.061783,383.047749
3738.428224,-9474.636058,-740.205942,0.000000
3738.428554,-10658.965565,-814.226536,766.095498
3738.428884,-10214.842000,-1036.288319,1072.533697
3738.429214,-8956.491898,-1184.329507,1072.533697
3738.429543,-8068.244768,-296.082377,1455.581446
3738.429873,-8956.491898,-592.164754,1072.533697
3738.430203,-9104.533087,-370.102971,76.609550
3738.430533,-8512.368333,-666.185348,-766.095498
3738.430863,-8660.409521,222.061783,-153.219100
3738.431192,-9622.677246,-222.061783,689.485948
3738.431522,-9326.594869,-444.123565,536.266849
3738.431852,-8216.285956,-1036.288319,0.000000
3738.432182,-8438.347739,-740.205942,-229.828649
3738.432512,-9326.594869,74.020594,-766.095498
3738.432841,-9548.656652,0.000000,-536.266849
3738.433171,-8734.430116,888.247130,0.000000
3738.433501,-8364.327145,592.164754,76.609550
3738.433831,-9474.636058,2072.576638,153.219100
3738.434161,-10658.965565,1924.535449,-459.657299
3738.434490,-10881.027347,1628.453072,-689.485948
3738.434820,-10066.800811,1924.535449,-536.266849
3738.435150,-10955.047942,1628.453072,-459.657299
3738.435480,-11399.171507,1924.535449,0.000000
3738.435810,-10658.965565,1480.411884,-842.705048
3738.436139,-9326.594869,1332.370696,-383.047749
3738.436469,-8956.491898,1184.329507,842.705048
3738.436799,-11251.130318,1850.514855,2221.676944
3738.437129,-11769.274478,1554.432478,1915.238745
3738.437459,-10140.821405,1184.329507,306.438199
3738.437788,-9178.553681,1184.329507,689.485948
3738.438118,-10436.903782,1480.411884,1762.019645
3738.438448,-11399.171507,1036.288319,1762.019645
3738.438778,-10362.883188,962.267725,1149.143247
3738.439108,-9548.656652,666.185348,1072.533697
3738.439437,-9844.739029,592.164754,995.924147
3738.439767,-10732.986159,666.185348,689.485948
3738.440097,-9844.739029,0.000000,383.047749
3738.440427,-9326.594869,296.082377,842.705048
3738.440757,-9844.739029,-148.041188,995.924147
3738.441086,-9474.636058,-518.144159,612.876398
3738.441416,-8660.409521,-518.144159,229.828649
3738.441746,-8364.327145,-888.247130,0.000000
3738.442076,-8808.450710,-962.267725,0.000000
3738.442406,-9474.636058,-222.061783,306.438199
3738.442735,-10214.842000,-296.082377,536.266849
3738.443065,-9622.677246,-740.205942,153.219100
3738.443395,-9178.553681,-740.205942,-919.314598
3738.443725,-8586.388927,-1702.473667,-689.485948
3738.444055,-8882.471304,-1628.453072,-383.047749
3738.444384,-8808.450710,-1628.453072,76.609550
3738.444714,-8808.450710,-1480.411884,76.609550
3738.445044,-8660.409521,-962.267725,-229.828649
3738.445374,-8734.430116,-814.226536,-1302.362347
3738.445704,-9178.553681,0.000000,-1149.143247
3738.446033,-11547.212695,-222.061783,0.000000
3738.446363,-11177.109724,-592.164754,229.828649
3738.446693,-9696.697840,-444.123565,-153.219100
3738.447023,-10658.965565,592.164754,-612.876398
3738.447353,-11695.253884,148.041188,-153.219100
3738.447682,-11917.315666,222.061783,0.000000
3738.448012,-9992.780217,0.000000,-383.047749
3738.448342,-9178.553681,-592.164754,-689.485948
3738.448672,-10214.842000,-296.082377,612.876398
3738.449002,-11325.150913,296.082377,1225.752797
3738.449331,-9474.636058,666.185348,-383.047749
3738.449661,-9400.615463,-222.061783,-1072.533697
3738.449991,-11251.130318,814.226536,153.219100
3738.450321,-12139.377449,0.000000,1608.800546
3738.450651,-11177.109724,0.000000,995.924147
