#time,accel_x,accel_y,accel_z
4150.743150,-9622.677246,0.000000,383.047749
4150.743480,-9622.677246,74.020594,383.047749
4150.743810,-9844.739029,74.020594,383.047749
4150.744140,-9770.718434,148.041188,153.219100
4150.744470,-9770.718434,0.000000,76.609550
4150.744800,-9844.739029,0.000000,383.047749
4150.745130,-9696.697840,-74.020594,689.485948
4150.745460,-9770.718434,148.041188,306.438199
4150.745790,-9918.759623,148.041188,306.438199
4150.746120,-9696.697840,296.082377,0.000000
4150.746450,-9770.718434,74.020594,229.828649
4150.746780,-10066.800811,222.061783,0.000000
4150.747110,-9696.697840,0.000000,459.657299
4150.747440,-9548.656652,0.000000,0.000000
4150.747770,-9474.636058,0.000000,0.000000
4150.748100,-9770.718434,0.000000,0.000000
4150.748431,-9696.697840,-148.041188,76.609550
4150.748761,-10288.862594,370.102971,0.000000
4150.749091,-9844.739029,0.000000,536.266849
4150.749421,-9770.718434,0.000000,612.876398
4150.749751,-9770.718434,0.000000,612.876398
4150.750081,-9548.656652,-74.020594,536.266849
4150.750411,-9770.718434,0.000000,536.266849
4150.750741,-9770.718434,74.020594,0.000000
4150.751071,-9918.759623,296.082377,229.828649
4150.751401,-9918.759623,-148.041188,229.828649
4150.751731,-9696.697840,148.041188,306.438199
4150.752061,-9770.718434,-222.061783,0.000000
4150.752391,-9696.697840,74.020594,0.000000
4150.752721,-9992.780217,222.061783,76.609550
4150.753051,-9548.656652,0.000000,0.000000
4150.753381,-9770.718434,0.000000,0.000000
4150.753711,-9770.718434,222.061783,0.000000
4150.754041,-9918.759623,0.000000,612.876398
4150.754371,-9622.677246,0.000000,536.266849
4150.754701,-9992.780217,296.082377,536.266849
4150.755032,-9918.759623,0.000000,229.828649
4150.755362,-9844.739029,74.020594,76.609550
4150.755692,-9770.718434,0.000000,766.095498
4150.756022,-9918.759623,222.061783,536.266849
4150.756352,-9992.780217,0.000000,76.609550
4150.756682,-9844.739029,0.000000,76.609550
4150.757012,-9548.656652,-222.061783,76.609550
4150.757342,-9770.718434,0.000000,383.047749
4150.757672,-9548.656652,-370.102971,612.876398
4150.758002,-9548.656652,0.000000,153.219100
4150.758332,-9622.677246,222.061783,459.657299
4150.758662,-9844.739029,-148.041188,306.438199
4150.758992,-10140.821405,74.020594,0.000000
4150.759322,-10140.821405,0.000000,229.828649
4150.759652,-9918.759623,0.000000,383.047749
4150.759982,-9400.615463,-814.226536,1072.533697
4150.760312,-9548.656652,-444.123565,1685.410096
4150.760642,-9696.697840,-592.164754,1685.410096
4150.760972,-9992.780217,-370.102971,1225.752797
4150.761302,-10066.800811,-370.102971,153.219100
4150.761632,-9992.780217,-148.041188,-76.609550
4150.761963,-9770.718434,-148.041188,-306.438199
4150.762293,-9844.739029,-370.102971,536.266849
4150.762623,-9992.780217,-222.061783,1532.190996
4150.762953,-9770.718434,-148.041188,2451.505594
4150.763283,-9252.574275,-740.205942,2145.067394
4150.763613,-9104.533087,-888.247130,1762.019645
4150.763943,-9622.677246,-740.205942,2145.067394
4150.764273,-9770.718434,-1480.411884,2298.286494
4150.764603,-9770.718434,-444.123565,2987.772442
4150.764933,-9992.780217,-666.185348,3140.991542
4150.765263,-10066.800811,-666.185348,3753.867940
4150.765593,-10214.842000,-1332.370696,3140.991542
4150.765923,-10807.006753,-296.082377,2221.676944
4150.766253,-10510.924376,-370.102971,1991.848295
4150.766583,-9918.759623,-296.082377,1532.190996
4150.766913,-9548.656652,-518.144159,1378.971896
4150.767243,-9548.656652,-666.185348,2374.896044
4150.767573,-9252.574275,-1332.370696,2604.724693
4150.767903,-9622.677246,-1332.370696,2221.676944
4150.768233,-9918.759623,-1850.514855,2374.896044
4150.768564,-9326.594869,-2220.617826,2298.286494
4150.768894,-9252.574275,-2442.679609,2987.772442
4150.769224,-9326.594869,-2664.741391,3983.696590
4150.769554,-9992.780217,-2368.659014,4213.525239
4150.769884,-9918.759623,-1702.473667,4290.134789
4150.770214,-10658.965565,-2294.638420,3830.477490
4150.770544,-11547.212695,-2146.597232,2987.772442
4150.770874,-11695.253884,-1998.556043,2451.505594
4150.771204,-10732.986159,-2590.720797,1225.752797
4150.771534,-10140.821405,-2812.782580,1072.533697
4150.771864,-9326.594869,-3552.988522,1915.238745
4150.772194,-8734.430116,-3552.988522,2451.505594
4150.772524,-8142.265362,-3627.009116,2528.115143
4150.772854,-8512.368333,-4071.132681,3140.991542
4150.773184,-8956.491898,-4219.173869,2987.772442
4150.773514,-9326.594869,-4737.318029,2451.505594
4150.773844,-9104.533087,-4737.318029,2757.943793
4150.774174,-8808.450710,-4737.318029,2911.162892
4150.774504,-9918.759623,-4145.153275,3830.477490
4150.774834,-10214.842000,-3627.009116,2987.772442
4150.775165,-9992.780217,-3478.967927,1532.190996
4150.775495,-9918.759623,-2812.782580,383.047749
4150.775825,-9770.718434,-3330.926739,306.438199
4150.776155,-9474.636058,-3627.009116,1762.019645
4150.776485,-9474.636058,-3552.988522,2145.067394
4150.776815,-8882.471304,-4293.194464,1455.581446
4150.777145,-8956.491898,-3997.112087,842.705048
4150.777475,-9178.553681,-4441.235652,766.095498
4150.777805,-10140.821405,-3997.112087,2681.334243
4150.778135,-10955.047942,-3849.070898,4366.744339
4150.778465,-10732.986159,-2960.823768,4519.963438
4150.778795,-9918.759623,-3256.906145,2911.162892
4150.779125,-9474.636058,-3330.926739,2298.286494
4150.779455,-10140.821405,-2812.782580,2604.724693
4150.779785,-11103.089130,-2590.720797,3600.648841
4150.780115,-11177.109724,-2220.617826,2911.162892
4150.780445,-9992.780217,-2368.659014,2757.943793
4150.780775,-9844.739029,-2146.597232,2374.896044
4150.781105,-10288.862594,-2368.659014,1685.410096
4150.781435,-10214.842000,-1702.473667,1302.362347
4150.781765,-10066.800811,-1998.556043,1915.238745
4150.782096,-9474.636058,-1850.514855,2451.505594
4150.782426,-9326.594869,-1776.494261,3600.648841
4150.782756,-9918.759623,-1480.411884,4673.182538
4150.783086,-10584.944971,-1480.411884,4519.963438
4150.783416,-10362.883188,-1776.494261,3370.820191
4150.783746,-10436.903782,-1702.473667,2221.676944
4150.784076,-9252.574275,-1480.411884,3140.991542
4150.784406,-9252.574275,-1480.411884,3140.991542
4150.784736,-9178.553681,-1110.308913,3370.820191
4150.785066,-9474.636058,-740.205942,2374.896044
4150.785396,-9400.615463,-740.205942,1302.362347
4150.785726,-9252.574275,-740.205942,766.095498
4150.786056,-9030.512492,-592.164754,919.314598
4150.786386,-9474.636058,-518.144159,1685.410096
4150.786716,-9622.677246,0.000000,2298.286494
4150.787046,-9252.574275,-592.164754,2374.896044
4150.787376,-9992.780217,-296.082377,1991.848295
4150.787706,-9918.759623,-444.123565,1225.752797
4150.788036,-9770.718434,-222.061783,689.485948
4150.788366,-9474.636058,-222.061783,1149.143247
4150.788697,-10140.821405,0.000000,2528.115143
4150.789027,-9992.780217,74.020594,2834.553343
4150.789357,-9918.759623,74.020594,1532.190996
4150.789687,-9326.594869,148.041188,76.609550
4150.790017,-9918.759623,-370.102971,76.609550
4150.790347,-11029.068536,0.000000,1608.800546
4150.790677,-10510.924376,-222.061783,2451.505594
4150.791007,-9770.718434,-1110.308913,2374.896044
4150.791337,-9770.718434,-1332.370696,1608.800546
4150.791667,-9770.718434,-1554.432478,1302.362347
4150.791997,-10510.924376,-1924.535449,1991.848295
4150.792327,-9918.759623,-1776.494261,2604.724693
4150.792657,-9400.615463,-1998.556043,3370.820191
4150.792987,-10066.800811,-1406.391290,3294.210641
4150.793317,-9548.656652,-1554.432478,2451.505594
4150.793647,-10288.862594,-1850.514855,2298.286494
4150.793977,-11029.068536,-1776.494261,2374.896044
4150.794307,-10362.883188,-2516.700203,1302.362347
4150.794637,-9326.594869,-3108.864956,1608.800546
4150.794967,-8734.430116,-3552.988522,2145.067394
4150.795298,-9548.656652,-3034.844362,4136.915689
4150.795628,-10140.821405,-3627.009116,3600.648841
4150.795958,-9178.553681,-3627.009116,2528.115143
4150.796288,-8290.306550,-3701.029710,2911.162892
4150.796618,-9400.615463,-4219.173869,3677.258390
4150.796948,-10658.965565,-3552.988522,4443.353888
4150.797278,-10288.862594,-3849.070898,4519.963438
4150.797608,-9474.636058,-3923.091493,2911.162892
4150.797938,-9400.615463,-3330.926739,2528.115143
4150.798268,-10436.903782,-2664.741391,2145.067394
4150.798598,-10658.965565,-3478.967927,1685.410096
4150.798928,-10214.842000,-2886.803174,2757.943793
4150.799258,-10288.862594,-3108.864956,3064.381992
4150.799588,-10140.821405,-3330.926739,1991.848295
4150.799918,-10214.842000,-3627.009116,2298.286494
4150.800248,-9918.759623,-3478.967927,2374.896044
4150.800578,-9696.697840,-3404.947333,2834.553343
4150.800908,-9548.656652,-2886.803174,2834.553343
4150.801238,-9844.739029,-2738.761985,2987.772442
4150.801568,-10436.903782,-2516.700203,3217.601092
4150.801898,-10955.047942,-2220.617826,3524.039291
4150.802229,-11251.130318,-2368.659014,2987.772442
4150.802559,-10584.944971,-2220.617826,2298.286494
4150.802889,-9326.594869,-3034.844362,2068.457845
4150.803219,-9474.636058,-2072.576638,2604.724693
4150.803549,-10288.862594,-2664.741391,3140.991542
4150.803879,-10214.842000,-1924.535449,2604.724693
4150.804209,-9548.656652,-2590.720797,2221.676944
4150.804539,-10214.842000,-1850.514855,1532.190996
4150.804869,-10066.800811,-1924.535449,1991.848295
4150.805199,-9918.759623,-1776.494261,1838.629195
4150.805529,-8290.306550,-2146.597232,2528.115143
4150.805859,-8512.368333,-1998.556043,2834.553343
4150.806189,-10288.862594,-1554.432478,3140.991542
4150.806519,-10214.842000,-1850.514855,3140.991542
4150.806849,-9844.739029,-1702.473667,2145.067394
4150.807178,-9548.656652,-1554.432478,1532.190996
4150.807508,-9400.615463,-1332.370696,1685.410096
4150.807838,-9030.512492,-1628.453072,2451.505594
4150.808167,-8882.471304,-888.247130,2298.286494
4150.808497,-9178.553681,-962.267725,1455.581446
4150.808827,-8808.450710,-888.247130,1378.971896
4150.809156,-9326.594869,-888.247130,919.314598
4150.809486,-9844.739029,-222.061783,1149.143247
4150.809816,-9474.636058,0.000000,842.705048
4150.810145,-9474.636058,296.082377,842.705048
4150.810475,-9844.739029,-148.041188,612.876398
4150.810804,-9548.656652,74.020594,766.095498
4150.811134,-10510.924376,296.082377,-153.219100
4150.811464,-10288.862594,222.061783,-612.876398
4150.811793,-9770.718434,740.205942,-229.828649
4150.812123,-8956.491898,222.061783,153.219100
4150.812453,-9622.677246,296.082377,1149.143247
4150.812782,-10436.903782,148.041188,1685.410096
4150.813112,-10362.883188,0.000000,1685.410096
4150.813442,-10214.842000,0.000000,919.314598
4150.813771,-10510.924376,296.082377,1225.752797
4150.814101,-9918.759623,74.020594,1072.533697
4150.814431,-10362.883188,814.226536,842.705048
4150.814760,-11547.212695,1332.370696,536.266849
4150.815090,-10732.986159,814.226536,-612.876398
4150.815419,-9992.780217,148.041188,-1455.581446
4150.815749,-9696.697840,592.164754,-459.657299
4150.816079,-9400.615463,-444.123565,-76.609550
4150.816408,-9030.512492,0.000000,0.000000
4150.816738,-8956.491898,222.061783,459.657299
4150.817068,-9326.594869,222.061783,-306.438199
4150.817397,-9696.697840,222.061783,-689.485948
4150.817727,-10584.944971,1036.288319,689.485948
4150.818057,-11843.295072,-814.226536,153.219100
4150.818386,-9474.636058,592.164754,766.095498
4150.818716,-9030.512492,-518.144159,2911.162892
4150.819045,-9252.574275,-592.164754,1762.019645
4150.819375,-9548.656652,-1036.288319,1455.581446
4150.819705,-9770.718434,666.185348,919.314598
4150.820034,-9178.553681,-666.185348,-76.609550
4150.820364,-8808.450710,814.226536,-1302.362347
4150.820694,-9326.594869,888.247130,-306.438199
4150.821023,-9844.739029,296.082377,-459.657299
4150.821353,-10955.047942,1110.308913,-766.095498
4150.821683,-9992.780217,592.164754,-459.657299
4150.822012,-9548.656652,222.061783,-995.924147
4150.822342,-10214.842000,296.082377,-229.828649
4150.822672,-9770.718434,0.000000,689.485948
4150.823001,-9474.636058,-222.061783,229.828649
4150.823331,-8956.491898,740.205942,153.219100
4150.823660,-8956.491898,-518.144159,1072.533697
4150.823990,-9992.780217,-74.020594,153.219100
4150.824320,-10510.924376,592.164754,842.705048
4150.824649,-11103.089130,0.000000,1072.533697
4150.824979,-11473.192101,0.000000,689.485948
4150.825309,-9548.656652,-222.061783,229.828649
4150.825638,-8808.450710,-888.247130,766.095498
4150.825968,-9548.656652,-592.164754,1225.752797
4150.826298,-9400.615463,0.000000,1149.143247
4150.826627,-9400.615463,-444.123565,229.828649
4150.826957,-9400.615463,0.000000,153.219100
4150.827286,-9696.697840,222.061783,306.438199
4150.827616,-10881.027347,-222.061783,306.438199
4150.827946,-9622.677246,-444.123565,0.000000
4150.828275,-9178.553681,-444.123565,1149.143247
4150.828605,-9548.656652,-518.144159,1072.533697
4150.828935,-10584.944971,-1258.350101,995.924147
4150.829264,-9770.718434,-740.205942,1608.800546
4150.829594,-9918.759623,-1554.432478,1762.019645
4150.829924,-9474.636058,-444.123565,1608.800546
4150.830253,-8734.430116,-1258.350101,689.485948
4150.830583,-9400.615463,-1184.329507,-689.485948
4150.830913,-9252.574275,-222.061783,-612.876398
4150.831242,-9622.677246,-296.082377,76.609550
4150.831572,-10658.965565,-444.123565,536.266849
4150.831901,-10288.862594,-370.102971,766.095498
4150.832231,-10066.800811,-666.185348,995.924147
4150.832561,-10140.821405,-370.102971,-306.438199
4150.832890,-9400.615463,-222.061783,-536.266849
4150.833220,-9622.677246,-370.102971,306.438199
4150.833550,-9770.718434,1258.350101,1072.533697
4150.833879,-10288.862594,-74.020594,0.000000
4150.834209,-10436.903782,296.082377,-842.705048
4150.834539,-10214.842000,-222.061783,-842.705048
4150.834868,-10510.924376,592.164754,0.000000
4150.835198,-10140.821405,0.000000,612.876398
4150.835527,-9770.718434,592.164754,153.219100
4150.835857,-9548.656652,0.000000,995.924147
4150.836187,-9548.656652,666.185348,153.219100
4150.836516,-10732.986159,888.247130,766.095498
4150.836846,-11029.068536,666.185348,536.266849
4150.837176,-10881.027347,370.102971,-76.609550
4150.837505,-9622.677246,1184.329507,153.219100
4150.837835,-9400.615463,444.123565,306.438199
4150.838165,-9622.677246,518.144159,-306.438199
4150.838494,-8438.347739,814.226536,-919.314598
4150.838824,-9030.512492,370.102971,-1378.971896
4150.839154,-10584.944971,1110.308913,-1455.581446
4150.839483,-10362.883188,1480.411884,229.828649
4150.839813,-9326.594869,296.082377,-689.485948
4150.840142,-9178.553681,740.205942,-306.438199
4150.840472,-9252.574275,1036.288319,-76.609550
4150.840802,-10288.862594,0.000000,229.828649
4150.841131,-8586.388927,814.226536,536.266849
4150.841461,-9030.512492,592.164754,842.705048
4150.841791,-9992.780217,740.205942,229.828649
4150.842120,-9844.739029,666.185348,0.000000
4150.842450,-9252.574275,740.205942,-153.219100
4150.842780,-8956.491898,296.082377,0.000000
4150.843109,-9474.636058,666.185348,612.876398
4150.843439,-9696.697840,814.226536,306.438199
4150.843768,-9474.636058,814.226536,0.000000
4150.844098,-9992.780217,1036.288319,-153.219100
4150.844428,-10214.842000,370.102971,76.609550
4150.844757,-11029.068536,370.102971,689.485948
4150.845087,-10288.862594,1184.329507,1455.581446
4150.845417,-9696.697840,518.144159,1455.581446
4150.845746,-10658.965565,74.020594,0.000000
4150.846076,-10066.800811,1258.350101,0.000000
4150.846406,-10066.800811,0.000000,-306.438199
4150.846735,-10436.903782,222.061783,-689.485948
4150.847065,-9918.759623,592.164754,383.047749
4150.847395,-10362.883188,222.061783,229.828649
4150.847724,-9696.697840,-370.102971,-612.876398
4150.848054,-9548.656652,74.020594,-612.876398
4150.848383,-10066.800811,-518.144159,-536.266849
4150.848713,-10288.862594,-444.123565,0.000000
4150.849043,-10140.821405,-444.123565,995.924147
4150.849372,-9400.615463,-592.164754,1378.971896
4150.849702,-8660.409521,-592.164754,-76.609550
4150.850032,-9326.594869,-814.226536,-229.828649
4150.850361,-10288.862594,-1184.329507,-229.828649
4150.850691,-10140.821405,-444.123565,1532.190996
4150.851021,-8956.491898,-1110.308913,1225.752797
4150.851350,-8734.430116,-1332.370696,536.266849
4150.851680,-9400.615463,-592.164754,536.266849
4150.852009,-10066.800811,-1110.308913,459.657299
4150.852339,-10732.986159,-666.185348,0.000000
4150.852669,-10214.842000,-592.164754,612.876398
4150.852998,-9844.739029,-592.164754,1302.362347
4150.853328,-9474.636058,-814.226536,1072.533697
4150.853658,-8734.430116,-518.144159,919.314598
4150.853987,-9918.759623,-666.185348,459.657299
4150.854317,-10807.006753,-222.061783,153.219100
4150.854647,-10288.862594,0.000000,612.876398
4150.854976,-10066.800811,-444.123565,1072.533697
4150.855306,-9474.636058,-296.082377,919.314598
4150.855636,-10066.800811,518.144159,1225.752797
4150.855965,-10584.944971,148.041188,229.828649
4150.856295,-10288.862594,296.082377,-306.438199
4150.856624,-9548.656652,74.020594,0.000000
4150.856954,-10288.862594,0.000000,383.047749
4150.857284,-10214.842000,222.061783,383.047749
4150.857613,-9400.615463,-296.082377,383.047749
4150.857943,-9252.574275,-444.123565,229.828649
4150.858273,-9178.553681,0.000000,0.000000
4150.858602,-9548.656652,-592.164754,-76.609550
4150.858932,-9770.718434,296.082377,-766.095498
4150.859262,-9474.636058,1332.370696,0.000000
4150.859591,-10066.800811,518.144159,-306.438199
4150.859921,-10214.842000,518.144159,-459.657299
4150.860250,-9622.677246,592.164754,153.219100
4150.860580,-8734.430116,518.144159,0.000000
4150.860910,-9696.697840,592.164754,-306.438199
4150.861239,-10214.842000,370.102971,0.000000
4150.861569,-9770.718434,-888.247130,0.000000
4150.861899,-8290.306550,0.000000,0.000000
4150.862228,-8142.265362,0.000000,842.705048
4150.862558,-9548.656652,370.102971,612.876398
4150.862888,-10584.944971,666.185348,612.876398
4150.863217,-9992.780217,814.226536,153.219100
4150.863547,-9992.780217,0.000000,76.609550
4150.863877,-11029.068536,1184.329507,306.438199
4150.864206,-10214.842000,0.000000,1378.971896
4150.864536,-9252.574275,-592.164754,0.000000
4150.864865,-8216.285956,1110.308913,0.000000
4150.865195,-9474.636058,-222.061783,-1302.362347
4150.865525,-10955.047942,0.000000,-1072.533697
4150.865854,-10214.842000,518.144159,153.219100
4150.866184,-9992.780217,888.247130,1149.143247
4150.866514,-10288.862594,74.020594,0.000000
4150.866843,-9992.780217,1184.329507,0.000000
4150.867173,-9992.780217,-1036.288319,-612.876398
4150.867503,-10362.883188,370.102971,-995.924147
4150.867832,-9992.780217,222.061783,1302.362347
4150.868162,-9992.780217,-148.041188,1072.533697
4150.868491,-10140.821405,0.000000,1302.362347
4150.868821,-9622.677246,74.020594,612.876398
4150.869151,-9474.636058,-814.226536,-153.219100
4150.869480,-9548.656652,0.000000,-919.314598
4150.869810,-9844.739029,74.020594,306.438199
4150.870140,-9770.718434,-222.061783,919.314598
4150.870469,-9474.636058,888.247130,536.266849
4150.870799,-9104.533087,0.000000,-229.828649
4150.871129,-10584.944971,-148.041188,-689.485948
4150.871458,-10955.047942,592.164754,459.657299
4150.871788,-10584.944971,-518.144159,1225.752797
4150.872118,-9770.718434,-222.061783,1072.533697
4150.872447,-8216.285956,0.000000,2145.067394
4150.872777,-9548.656652,-296.082377,1532.190996
4150.873106,-10510.924376,-814.226536,153.219100
4150.873436,-9548.656652,-592.164754,1225.752797
4150.873766,-9178.553681,-592.164754,689.485948
4150.874095,-9326.594869,-592.164754,306.438199
4150.874425,-9326.594869,-444.123565,1072.533697
4150.874755,-9030.512492,-592.164754,1915.238745
4150.875084,-9474.636058,0.000000,766.095498
4150.875414,-10288.862594,444.123565,536.266849
4150.875744,-10807.006753,0.000000,-689.485948
4150.876073,-10214.842000,370.102971,-383.047749
4150.876403,-8956.491898,0.000000,0.000000
4150.876732,-9696.697840,-370.102971,153.219100
4150.877062,-10807.006753,444.123565,536.266849
4150.877392,-10214.842000,222.061783,0.000000
4150.877721,-9400.615463,-592.164754,-536.266849
4150.878051,-8438.347739,740.205942,-1455.581446
4150.878381,-9992.780217,74.020594,-1072.533697
4150.878710,-10955.047942,518.144159,0.000000
4150.879040,-9622.677246,666.185348,1225.752797
4150.879370,-9622.677246,296.082377,229.828649
4150.879699,-10066.800811,-370.102971,-536.266849
4150.880029,-9918.759623,444.123565,0.000000
4150.880359,-9548.656652,-666.185348,0.000000
4150.880688,-10362.883188,0.000000,229.828649
4150.881018,-9622.677246,296.082377,1685.410096
4150.881347,-9622.677246,-296.082377,1455.581446
4150.881677,-10140.821405,296.082377,919.314598
4150.882007,-10807.006753,444.123565,0.000000
4150.882336,-10584.944971,-148.041188,-306.438199
4150.882666,-9400.615463,296.082377,689.485948
4150.882996,-8882.471304,0.000000,1149.143247
4150.883325,-9474.636058,518.144159,1532.190996
4150.883655,-10214.842000,888.247130,766.095498
4150.883985,-10214.842000,518.144159,0.000000
4150.884314,-9918.759623,-296.082377,-1302.362347
4150.884644,-10066.800811,444.123565,-153.219100
4150.884973,-10140.821405,-444.123565,612.876398
4150.885303,-9696.697840,-370.102971,612.876398
4150.885633,-7624.121203,0.000000,0.000000
4150.885962,-8882.471304,0.000000,-612.876398
4150.886292,-10362.883188,814.226536,-1378.971896
4150.886622,-10066.800811,666.185348,-612.876398
4150.886951,-9992.780217,666.185348,0.000000
4150.887281,-9844.739029,296.082377,306.438199
4150.887611,-9548.656652,0.000000,1762.019645
4150.887940,-9844.739029,-740.205942,306.438199
4150.888270,-9030.512492,-666.185348,-306.438199
4150.888600,-8734.430116,-740.205942,76.609550
4150.888929,-9474.636058,222.061783,459.657299
4150.889259,-10288.862594,296.082377,995.924147
4150.889588,-10362.883188,740.205942,919.314598
4150.889918,-9696.697840,296.082377,0.000000
4150.890248,-10214.842000,1110.308913,-76.609550
4150.890577,-10140.821405,592.164754,306.438199
4150.890907,-10807.006753,0.000000,689.485948
4150.891237,-9770.718434,740.205942,995.924147
4150.891566,-10140.821405,148.041188,153.219100
4150.891896,-10510.924376,-518.144159,-1378.971896
4150.892226,-9474.636058,222.061783,-612.876398
4150.892555,-8956.491898,0.000000,153.219100
4150.892885,-9548.656652,0.000000,919.314598
4150.893214,-9326.594869,444.123565,1072.533697
4150.893544,-9770.718434,0.000000,536.266849
4150.893874,-10066.800811,0.000000,306.438199
4150.894203,-10066.800811,0.000000,766.095498
4150.894533,-10584.944971,-592.164754,1302.362347
4150.894863,-9622.677246,148.041188,536.266849
4150.895192,-8364.327145,-222.061783,76.609550
4150.895522,-8734.430116,-444.123565,-612.876398
4150.895852,-9252.574275,-370.102971,-1455.581446
4150.896181,-9474.636058,0.000000,-842.705048
4150.896511,-9326.594869,-740.205942,0.000000
4150.896841,-9030.512492,-74.020594,995.924147
4150.897170,-8956.491898,-518.144159,1455.581446
4150.897500,-9622.677246,0.000000,1532.190996
4150.897829,-10658.965565,-666.185348,459.657299
4150.898159,-10288.862594,-740.205942,459.657299
4150.898489,-10140.821405,-666.185348,459.657299
4150.898818,-9474.636058,148.041188,229.828649
4150.899148,-9474.636058,0.000000,76.609550
4150.899478,-9622.677246,0.000000,-459.657299
4150.899807,-10066.800811,0.000000,-153.219100
4150.900137,-10510.924376,-74.020594,-76.609550
4150.900467,-10140.821405,-370.102971,0.000000
4150.900796,-9696.697840,74.020594,536.266849
4150.901126,-9474.636058,-444.123565,0.000000
4150.901455,-10436.903782,0.000000,689.485948
4150.901785,-10362.883188,148.041188,766.095498
4150.902115,-10807.006753,-222.061783,689.485948
4150.902444,-10140.821405,74.020594,306.438199
4150.902774,-9326.594869,74.020594,612.876398
4150.903104,-9326.594869,-296.082377,-153.219100
4150.903433,-10066.800811,370.102971,689.485948
4150.903763,-10214.842000,222.061783,229.828649
4150.904093,-10066.800811,-74.020594,-1225.752797
4150.904422,-8512.368333,666.185348,-1302.362347
4150.904752,-9178.553681,0.000000,-766.095498
4150.905082,-10214.842000,518.144159,-306.438199
4150.905411,-9696.697840,0.000000,536.266849
4150.905741,-9770.718434,592.164754,-459.657299
4150.906071,-9622.677246,-444.123565,-306.438199
4150.906400,-9844.739029,518.144159,919.314598
4150.906730,-8586.388927,-74.020594,1072.533697
4150.907060,-9030.512492,0.000000,153.219100
4150.907389,-9474.636058,666.185348,689.485948
4150.907719,-10140.821405,148.041188,842.705048
4150.908049,-10362.883188,0.000000,153.219100
4150.908378,-9918.759623,296.082377,459.657299
4150.908708,-9474.636058,74.020594,689.485948
4150.909038,-9696.697840,518.144159,995.924147
4150.909367,-9622.677246,814.226536,1072.533697
4150.909697,-9992.780217,296.082377,612.876398
4150.910026,-10510.924376,1258.350101,383.047749
4150.910356,-9844.739029,1628.453072,536.266849
4150.910686,-10436.903782,962.267725,-689.485948
4150.911015,-9992.780217,814.226536,-995.924147
4150.911345,-9474.636058,-370.102971,0.000000
4150.911675,-9992.780217,296.082377,536.266849
4150.912004,-8734.430116,222.061783,153.219100
4150.912334,-8882.471304,74.020594,0.000000
4150.912663,-9400.615463,444.123565,1149.143247
4150.912993,-9844.739029,888.247130,1225.752797
4150.913323,-10510.924376,370.102971,1072.533697
4150.913652,-10807.006753,0.000000,383.047749
4150.913982,-9474.636058,0.000000,919.314598
4150.914312,-9178.553681,-296.082377,919.314598
4150.914641,-9474.636058,0.000000,153.219100
4150.914971,-8956.491898,148.041188,-689.485948
4150.915301,-9326.594869,74.020594,-995.924147
4150.915630,-9992.780217,444.123565,-842.705048
4150.915960,-10214.842000,518.144159,-383.047749
4150.916289,-10510.924376,-296.082377,-229.828649
4150.916619,-9474.636058,0.000000,-383.047749
4150.916949,-9252.574275,-444.123565,0.000000
4150.917278,-9770.718434,-666.185348,0.000000
4150.917608,-9992.780217,-518.144159,229.828649
4150.917938,-10066.800811,-296.082377,919.314598
4150.918267,-10436.903782,-296.082377,536.266849
4150.918597,-10140.821405,0.000000,459.657299
4150.918926,-9918.759623,-814.226536,0.000000
4150.919256,-9622.677246,-1184.329507,0.000000
4150.919586,-8882.471304,-814.226536,919.314598
4150.919915,-8660.409521,-962.267725,919.314598
4150.920245,-10436.903782,0.000000,76.609550
4150.920575,-10807.006753,0.000000,0.000000
4150.920904,-10881.027347,0.000000,-689.485948
4150.921234,-10955.047942,0.000000,-1072.533697
4150.921563,-10658.965565,0.000000,306.438199
4150.921893,-10214.842000,-1036.288319,0.000000
4150.922223,-8808.450710,-740.205942,-536.266849
4150.922552,-8142.265362,-518.144159,-76.609550
4150.922882,-9326.594869,-296.082377,-229.828649
4150.923212,-10066.800811,-444.123565,-306.438199
4150.923541,-10214.842000,74.020594,153.219100
4150.923871,-10436.903782,-592.164754,536.266849
4150.924201,-10140.821405,0.000000,536.266849
4150.924530,-9400.615463,0.000000,0.000000
4150.924860,-9178.553681,-518.144159,-766.095498
4150.925189,-8808.450710,296.082377,459.657299
4150.925519,-9918.759623,370.102971,1072.533697
4150.925849,-11325.150913,444.123565,1378.971896
4150.926178,-9844.739029,592.164754,459.657299
4150.926508,-9252.574275,74.020594,0.000000
4150.926838,-9252.574275,-222.061783,-766.095498
4150.927167,-9326.594869,296.082377,536.266849
4150.927497,-9548.656652,-592.164754,689.485948
4150.927826,-9252.574275,518.144159,842.705048
4150.928156,-9252.574275,296.082377,1072.533697
4150.928486,-10807.006753,518.144159,766.095498
4150.928815,-11473.192101,962.267725,612.876398
4150.929145,-10288.862594,1036.288319,1072.533697
4150.929475,-9326.594869,0.000000,689.485948
4150.929804,-9474.636058,888.247130,536.266849
4150.930134,-9400.615463,1184.329507,306.438199
4150.930464,-10140.821405,666.185348,-995.924147
4150.930793,-10214.842000,1110.308913,-842.705048
4150.931123,-10214.842000,518.144159,0.000000
4150.931452,-9918.759623,0.000000,0.000000
4150.931782,-9178.553681,740.205942,536.266849
4150.932112,-8956.491898,592.164754,536.266849
4150.932441,-9844.739029,148.041188,459.657299
4150.932771,-9844.739029,740.205942,383.047749
4150.933101,-9918.759623,666.185348,306.438199
4150.933430,-10214.842000,296.082377,0.000000
4150.933760,-9770.718434,444.123565,76.609550
4150.934089,-9696.697840,444.123565,-383.047749
4150.934419,-9696.697840,-592.164754,-612.876398
4150.934749,-8660.409521,222.061783,-383.047749
4150.935078,-9474.636058,-370.102971,-76.609550
4150.935408,-9474.636058,74.020594,-536.266849
4150.935738,-9326.594869,-370.102971,153.219100
4150.936067,-9474.636058,-222.061783,-536.266849
4150.936397,-9400.615463,148.041188,76.609550
4150.936727,-10214.842000,74.020594,0.000000
4150.937056,-10955.047942,0.000000,229.828649
4150.937386,-11103.089130,740.205942,536.266849
4150.937715,-10066.800811,0.000000,306.438199
4150.938045,-9918.759623,-74.020594,766.095498
4150.938375,-10140.821405,444.123565,1225.752797
4150.938704,-9844.739029,0.000000,306.438199
4150.939034,-9770.718434,-444.123565,-459.657299
4150.939364,-10066.800811,222.061783,-459.657299
4150.939693,-9696.697840,0.000000,0.000000
4150.940023,-9992.780217,-148.041188,0.000000
4150.940352,-9400.615463,148.041188,306.438199
4150.940682,-9770.718434,-296.082377,306.438199
4150.941012,-9992.780217,222.061783,0.000000
4150.941341,-9104.533087,148.041188,536.266849
4150.941671,-9770.718434,370.102971,-766.095498
4150.942001,-10362.883188,666.185348,0.000000
4150.942330,-10658.965565,518.144159,766.095498
4150.942660,-10288.862594,0.000000,229.828649
4150.942990,-9696.697840,74.020594,-766.095498
4150.943319,-8882.471304,-518.144159,-536.266849
4150.943649,-8734.430116,-518.144159,-919.314598
4150.943978,-8882.471304,0.000000,-383.047749
4150.944308,-9178.553681,444.123565,612.876398
4150.944638,-9622.677246,0.000000,383.047749
4150.944967,-9326.594869,518.144159,919.314598
4150.945297,-10288.862594,74.020594,536.266849
4150.945627,-10732.986159,0.000000,1225.752797
4150.945956,-9770.718434,-518.144159,919.314598
4150.946286,-9400.615463,-814.226536,1149.143247
4150.946615,-9104.533087,-740.205942,1225.752797
4150.946945,-9400.615463,-444.123565,1072.533697
4150.947275,-9474.636058,0.000000,459.657299
4150.947604,-9548.656652,0.000000,-153.219100
4150.947934,-10362.883188,814.226536,306.438199
4150.948264,-11029.068536,222.061783,995.924147
4150.948593,-10955.047942,0.000000,842.705048
4150.948923,-9400.615463,-296.082377,766.095498
4150.949253,-9622.677246,-666.185348,612.876398
4150.949582,-9844.739029,-444.123565,995.924147
4150.949912,-9918.759623,-148.041188,1378.971896
4150.950241,-9548.656652,-518.144159,383.047749
4150.950571,-9400.615463,0.000000,153.219100
4150.950901,-9696.697840,0.000000,612.876398
4150.951230,-10066.800811,-296.082377,383.047749
4150.951560,-9622.677246,0.000000,459.657299
4150.951890,-9252.574275,0.000000,0.000000
4150.952219,-9474.636058,-296.082377,-306.438199
4150.952549,-9400.615463,222.061783,-229.828649
4150.952878,-10436.903782,0.000000,76.609550
4150.953208,-10362.883188,-444.123565,1455.581446
4150.953538,-9696.697840,148.041188,1225.752797
4150.953867,-9548.656652,-148.041188,383.047749
4150.954197,-9844.739029,0.000000,459.657299
4150.954527,-9548.656652,0.000000,536.266849
4150.954856,-9474.636058,148.041188,76.609550
4150.955186,-10584.944971,-370.102971,-689.485948
4150.955516,-9992.780217,0.000000,-306.438199
4150.955845,-9400.615463,-666.185348,383.047749
4150.956175,-9474.636058,222.061783,0.000000
4150.956504,-9030.512492,-148.041188,229.828649
4150.956834,-10066.800811,-222.061783,153.219100
4150.957164,-10436.903782,296.082377,689.485948
4150.957493,-10584.944971,74.020594,1225.752797
4150.957823,-10510.924376,0.000000,766.095498
4150.958153,-9844.739029,74.020594,153.219100
4150.958482,-9178.553681,-740.205942,0.000000
4150.958812,-9474.636058,-222.061783,-766.095498
4150.959141,-9030.512492,518.144159,-229.828649
4150.959471,-10066.800811,296.082377,-229.828649
4150.959801,-10214.842000,1258.350101,-919.314598
4150.960130,-9548.656652,296.082377,-842.705048
4150.960460,-9696.697840,666.185348,-612.876398
4150.960790,-10140.821405,0.000000,-459.657299
4150.961119,-9474.636058,666.185348,0.000000
4150.961449,-9104.533087,-148.041188,-229.828649
4150.961779,-9770.718434,592.164754,-612.876398
4150.962108,-9844.739029,666.185348,0.000000
4150.962438,-10140.821405,1036.288319,0.000000
4150.962767,-9992.780217,1110.308913,153.219100
4150.963097,-9770.718434,1258.350101,306.438199
4150.963427,-9696.697840,444.123565,0.000000
4150.963756,-9918.759623,1036.288319,-76.609550
4150.964086,-9474.636058,962.267725,-153.219100
4150.964416,-9992.780217,222.061783,-612.876398
4150.964745,-9178.553681,518.144159,-995.924147
4150.965075,-9326.594869,444.123565,229.828649
4150.965404,-10288.862594,592.164754,-229.828649
4150.965734,-10362.883188,666.185348,1378.971896
4150.966064,-10140.821405,1110.308913,1302.362347
4150.966393,-9770.718434,0.000000,612.876398
4150.966723,-9548.656652,888.247130,995.924147
4150.967053,-9696.697840,148.041188,1532.190996
4150.967382,-9696.697840,444.123565,689.485948
4150.967712,-9770.718434,518.144159,689.485948
4150.968042,-9474.636058,0.000000,-383.047749
4150.968371,-9400.615463,0.000000,-536.266849
4150.968701,-8882.471304,444.123565,229.828649
4150.969030,-8956.491898,-666.185348,995.924147
4150.969360,-9622.677246,888.247130,689.485948
4150.969690,-9252.574275,-296.082377,76.609550
4150.970019,-10066.800811,0.000000,-536.266849
4150.970349,-9770.718434,0.000000,-383.047749
4150.970679,-10436.903782,0.000000,306.438199
4150.971008,-9770.718434,-518.144159,383.047749
4150.971338,-8364.327145,0.000000,536.266849
4150.971667,-8734.430116,-148.041188,0.000000
4150.971997,-10658.965565,-592.164754,-1072.533697
4150.972327,-10807.006753,-148.041188,-383.047749
4150.972656,-9918.759623,-1480.411884,0.000000
4150.972986,-9474.636058,-444.123565,689.485948
4150.973316,-9622.677246,-962.267725,1225.752797
4150.973645,-10436.903782,-962.267725,612.876398
4150.973975,-10140.821405,-1776.494261,0.000000
4150.974305,-9252.574275,-1554.432478,0.000000
4150.974634,-9548.656652,-1480.411884,383.047749
4150.974964,-10066.800811,-592.164754,995.924147
4150.975293,-10140.821405,-666.185348,1532.190996
4150.975623,-9770.718434,-1480.411884,842.705048
4150.975953,-10140.821405,-1332.370696,459.657299
4150.976282,-10214.842000,-1628.453072,536.266849
4150.976612,-9992.780217,-1480.411884,842.705048
4150.976942,-8734.430116,-814.226536,1225.752797
4150.977271,-8586.388927,-962.267725,842.705048
4150.977601,-9548.656652,-1036.288319,0.000000
4150.977930,-10436.903782,-148.041188,0.000000
4150.978260,-10658.965565,-592.164754,1225.752797
4150.978590,-10214.842000,-814.226536,1532.190996
4150.978919,-9918.759623,-962.267725,2068.457845
4150.979249,-10066.800811,-740.205942,919.314598
4150.979579,-9178.553681,-666.185348,0.000000
4150.979908,-8438.347739,-222.061783,-536.266849
4150.980238,-9474.636058,0.000000,-689.485948
4150.980568,-10658.965565,-296.082377,-1072.533697
4150.980897,-9474.636058,518.144159,383.047749
4150.981227,-9474.636058,444.123565,306.438199
4150.981556,-9918.759623,-74.020594,-842.705048
4150.981886,-9252.574275,444.123565,-383.047749
4150.982216,-9326.594869,518.144159,153.219100
4150.982545,-9622.677246,444.123565,306.438199
4150.982875,-9770.718434,592.164754,1072.533697
4150.983205,-10288.862594,444.123565,919.314598
4150.983534,-10658.965565,1406.391290,0.000000
4150.983864,-9918.759623,666.185348,0.000000
4150.984193,-9992.780217,444.123565,306.438199
4150.984523,-9474.636058,1480.411884,306.438199
4150.984853,-9992.780217,1184.329507,-229.828649
4150.985182,-9178.553681,666.185348,-1455.581446
4150.985512,-9030.512492,1480.411884,-842.705048
4150.985842,-10140.821405,1110.308913,-842.705048
4150.986171,-10510.924376,370.102971,153.219100
4150.986501,-10140.821405,592.164754,766.095498
4150.986831,-9474.636058,740.205942,536.266849
4150.987160,-8882.471304,592.164754,0.000000
4150.987490,-8882.471304,814.226536,0.000000
4150.987819,-9918.759623,888.247130,76.609550
4150.988149,-9918.759623,1480.411884,383.047749
4150.988479,-9474.636058,814.226536,306.438199
4150.988808,-9622.677246,666.185348,-383.047749
4150.989138,-9622.677246,592.164754,-842.705048
4150.989468,-9474.636058,740.205942,-1225.752797
4150.989797,-9326.594869,518.144159,-459.657299
4150.990127,-9696.697840,814.226536,-229.828649
4150.990456,-9474.636058,962.267725,-76.609550
4150.990786,-9622.677246,1036.288319,-689.485948
4150.991116,-10140.821405,1406.391290,-1378.971896
4150.991445,-10732.986159,962.267725,-612.876398
4150.991775,-10584.944971,444.123565,0.000000
4150.992105,-9548.656652,592.164754,459.657299
4150.992434,-9474.636058,962.267725,0.000000
4150.992764,-9844.739029,148.041188,-612.876398
4150.993094,-9770.718434,444.123565,-766.095498
4150.993423,-9696.697840,296.082377,153.219100
4150.993753,-10214.842000,444.123565,995.924147
4150.994082,-10436.903782,74.020594,1762.019645
4150.994412,-9844.739029,296.082377,1302.362347
4150.994742,-9622.677246,0.000000,383.047749
4150.995071,-9474.636058,74.020594,0.000000
4150.995401,-9992.780217,-370.102971,153.219100
4150.995731,-10140.821405,74.020594,76.609550
4150.996060,-9696.697840,-222.061783,229.828649
4150.996390,-9252.574275,-518.144159,229.828649
4150.996719,-10066.800811,-370.102971,306.438199
4150.997049,-10214.842000,370.102971,1072.533697
4150.997379,-10362.883188,-592.164754,1225.752797
4150.997708,-10584.944971,0.000000,459.657299
4150.998038,-9400.615463,-296.082377,306.438199
4150.998368,-9474.636058,-962.267725,689.485948
4150.998697,-8808.450710,-444.123565,689.485948
4150.999027,-9252.574275,-518.144159,153.219100
4150.999357,-9844.739029,-888.247130,0.000000
4150.999686,-9474.636058,0.000000,-612.876398
4151.000016,-9474.636058,-74.020594,-306.438199
4151.000345,-10288.862594,0.000000,-766.095498
4151.000675,-9844.739029,148.041188,-459.657299
4151.001005,-9696.697840,-888.247130,-153.219100
4151.001334,-9696.697840,-444.123565,-229.828649
4151.001664,-10066.800811,-370.102971,229.828649
4151.001994,-9992.780217,-1258.350101,76.609550
4151.002323,-9474.636058,-1184.329507,459.657299
4151.002653,-8956.491898,-592.164754,536.266849
4151.002982,-10214.842000,-1110.308913,1608.800546
4151.003312,-10732.986159,-518.144159,1915.238745
4151.003642,-9696.697840,-962.267725,1225.752797
4151.003971,-9474.636058,-1110.308913,-153.219100
4151.004301,-9474.636058,-814.226536,153.219100
4151.004631,-9992.780217,-666.185348,459.657299
4151.004960,-10066.800811,-518.144159,842.705048
4151.005290,-9770.718434,-370.102971,459.657299
4151.005620,-9326.594869,-296.082377,0.000000
4151.005949,-9548.656652,-814.226536,-229.828649
4151.006279,-9474.636058,-296.082377,153.219100
4151.006608,-9696.697840,-814.226536,842.705048
4151.006938,-10066.800811,-666.185348,459.657299
4151.007268,-9474.636058,-370.102971,1072.533697
4151.007597,-9104.533087,-444.123565,1532.190996
4151.007927,-10066.800811,-296.082377,919.314598
4151.008257,-10214.842000,74.020594,0.000000
4151.008587,-10066.800811,-296.082377,306.438199
4151.008917,-9770.718434,370.102971,0.000000
4151.009247,-9770.718434,518.144159,536.266849
4151.009576,-10214.842000,222.061783,-383.047749
4151.009906,-10140.821405,666.185348,-842.705048
4151.010236,-9104.533087,148.041188,-919.314598
4151.010566,-9548.656652,0.000000,-1378.971896
4151.010896,-9622.677246,666.185348,-612.876398
4151.011226,-9622.677246,370.102971,306.438199
4151.011555,-9622.677246,0.000000,76.609550
4151.011885,-9474.636058,666.185348,153.219100
4151.012215,-11029.068536,518.144159,536.266849
4151.012545,-10510.924376,518.144159,459.657299
4151.012875,-9696.697840,518.144159,919.314598
4151.013205,-9104.533087,518.144159,383.047749
4151.013535,-9474.636058,518.144159,0.000000
4151.013864,-10807.006753,1258.350101,612.876398
4151.014194,-10955.047942,518.144159,383.047749
4151.014524,-9622.677246,740.205942,0.000000
4151.014854,-9178.553681,1036.288319,0.000000
4151.015184,-9696.697840,592.164754,-536.266849
4151.015514,-10140.821405,444.123565,-383.047749
4151.015843,-9030.512492,592.164754,0.000000
4151.016173,-9474.636058,222.061783,0.000000
4151.016503,-10066.800811,1258.350101,306.438199
4151.016833,-10140.821405,1332.370696,-459.657299
4151.017163,-10066.800811,814.226536,-1225.752797
4151.017493,-8660.409521,1110.308913,-919.314598
4151.017823,-9474.636058,1110.308913,-689.485948
4151.018152,-11251.130318,1406.391290,76.609550
4151.018482,-10436.903782,1036.288319,-76.609550
4151.018812,-9178.553681,296.082377,-153.219100
4151.019142,-8660.409521,370.102971,-919.314598
4151.019472,-9326.594869,666.185348,-842.705048
4151.019802,-10066.800811,0.000000,-383.047749
4151.020131,-9104.533087,222.061783,-76.609550
4151.020461,-9474.636058,592.164754,76.609550
4151.020791,-10066.800811,666.185348,0.000000
4151.021121,-10140.821405,148.041188,-1149.143247
4151.021451,-9474.636058,740.205942,-153.219100
4151.021781,-9326.594869,0.000000,-383.047749
4151.022111,-9474.636058,370.102971,0.000000
4151.022440,-9030.512492,-222.061783,1378.971896
4151.022770,-9844.739029,0.000000,689.485948
4151.023100,-9992.780217,-222.061783,612.876398
4151.023430,-10214.842000,0.000000,612.876398
4151.023760,-10955.047942,-222.061783,919.314598
4151.024090,-9474.636058,0.000000,1915.238745
4151.024419,-9104.533087,222.061783,1225.752797
4151.024749,-9696.697840,-148.041188,612.876398
4151.025079,-10362.883188,296.082377,153.219100
4151.025409,-10362.883188,370.102971,0.000000
4151.025739,-10066.800811,-296.082377,-612.876398
4151.026069,-9696.697840,296.082377,459.657299
4151.026399,-10066.800811,0.000000,766.095498
4151.026728,-9474.636058,-888.247130,383.047749
4151.027058,-9326.594869,-370.102971,459.657299
4151.027388,-10214.842000,-666.185348,383.047749
4151.027718,-10214.842000,-592.164754,536.266849
4151.028048,-9992.780217,-740.205942,1072.533697
4151.028378,-9252.574275,-962.267725,383.047749
4151.028707,-9548.656652,-1036.288319,229.828649
4151.029037,-10362.883188,-74.020594,612.876398
4151.029367,-10362.883188,-1184.329507,0.000000
4151.029697,-8956.491898,-444.123565,0.000000
4151.030027,-7698.141797,-444.123565,459.657299
4151.030357,-9474.636058,0.000000,1149.143247
4151.030687,-11177.109724,74.020594,842.705048
4151.031016,-10955.047942,0.000000,76.609550
4151.031346,-10807.006753,-666.185348,383.047749
4151.031676,-10214.842000,-666.185348,995.924147
4151.032006,-9622.677246,-814.226536,1455.581446
4151.032336,-9474.636058,-222.061783,-153.219100
4151.032666,-8364.327145,0.000000,612.876398
4151.032995,-9400.615463,-666.185348,306.438199
4151.033325,-11029.068536,296.082377,1072.533697
4151.033655,-11325.150913,222.061783,1685.410096
4151.033985,-10214.842000,0.000000,1378.971896
4151.034315,-9326.594869,-1110.308913,459.657299
4151.034645,-9030.512492,-444.123565,536.266849
4151.034975,-9770.718434,-1110.308913,766.095498
4151.035304,-9770.718434,-296.082377,842.705048
4151.035634,-9252.574275,-148.041188,995.924147
4151.035964,-9474.636058,592.164754,306.438199
4151.036294,-9918.759623,592.164754,-306.438199
4151.036624,-9992.780217,518.144159,-383.047749
4151.036954,-9918.759623,-222.061783,-536.266849
4151.037283,-9474.636058,222.061783,0.000000
4151.037613,-9622.677246,814.226536,-306.438199
4151.037943,-9622.677246,-370.102971,-1149.143247
4151.038273,-9326.594869,444.123565,-1455.581446
4151.038603,-8808.450710,0.000000,-842.705048
4151.038933,-9400.615463,-296.082377,-306.438199
4151.039263,-9474.636058,0.000000,0.000000
4151.039592,-8734.430116,444.123565,153.219100
4151.039922,-9622.677246,0.000000,612.876398
4151.040252,-9770.718434,814.226536,-612.876398
4151.040582,-10584.944971,444.123565,-1378.971896
4151.040912,-10066.800811,518.144159,-919.314598
4151.041242,-9326.594869,444.123565,229.828649
4151.041571,-9696.697840,74.020594,459.657299
4151.041901,-9770.718434,148.041188,-612.876398
4151.042231,-9474.636058,888.247130,-842.705048
4151.042561,-9548.656652,0.000000,153.219100
4151.042891,-10955.047942,592.164754,1225.752797
4151.043221,-10881.027347,592.164754,1991.848295
4151.043551,-9992.780217,-296.082377,536.266849
4151.043880,-9548.656652,592.164754,-229.828649
4151.044210,-10214.842000,814.226536,0.000000
4151.044540,-10066.800811,0.000000,0.000000
4151.044870,-9400.615463,444.123565,1225.752797
4151.045200,-9178.553681,814.226536,1149.143247
4151.045530,-10362.883188,370.102971,229.828649
4151.045859,-10214.842000,74.020594,-612.876398
4151.046189,-10288.862594,-296.082377,-1149.143247
4151.046519,-9400.615463,-370.102971,-766.095498
4151.046849,-9474.636058,74.020594,1378.971896
4151.047179,-8660.409521,74.020594,919.314598
4151.047509,-9326.594869,74.020594,306.438199
4151.047839,-9844.739029,1406.391290,0.000000
4151.048168,-9844.739029,666.185348,-229.828649
4151.048498,-11177.109724,1036.288319,-842.705048
4151.048828,-9918.759623,666.185348,0.000000
4151.049158,-9252.574275,-444.123565,536.266849
4151.049488,-8660.409521,-148.041188,-536.266849
4151.049818,-8882.471304,0.000000,-1225.752797
4151.050147,-9770.718434,-370.102971,-1532.190996
4151.050477,-9696.697840,444.123565,-383.047749
4151.050807,-9770.718434,666.185348,459.657299
4151.051137,-9918.759623,370.102971,1378.971896
4151.051467,-9548.656652,296.082377,766.095498
4151.051797,-10510.924376,296.082377,459.657299
4151.052127,-10658.965565,0.000000,76.609550
4151.052456,-9992.780217,74.020594,459.657299
4151.052786,-9178.553681,-370.102971,306.438199
4151.053116,-9548.656652,-592.164754,612.876398
4151.053446,-9178.553681,222.061783,842.705048
4151.053776,-9548.656652,-370.102971,766.095498
4151.054106,-10066.800811,-444.123565,-306.438199
4151.054435,-10066.800811,74.020594,306.438199
4151.054765,-9992.780217,148.041188,689.485948
4151.055095,-10066.800811,-74.020594,306.438199
4151.055425,-9696.697840,296.082377,612.876398
4151.055755,-10436.903782,-444.123565,459.657299
4151.056085,-10955.047942,148.041188,-153.219100
4151.056415,-9622.677246,0.000000,-306.438199
4151.056744,-8956.491898,-148.041188,-383.047749
4151.057074,-9030.512492,0.000000,0.000000
4151.057404,-9696.697840,518.144159,153.219100
4151.057734,-10066.800811,0.000000,-536.266849
4151.058064,-9548.656652,148.041188,-995.924147
4151.058394,-9252.574275,0.000000,-383.047749
4151.058723,-10288.862594,-296.082377,-383.047749
4151.059053,-10732.986159,-74.020594,229.828649
4151.059383,-8956.491898,-888.247130,1225.752797
4151.059713,-9104.533087,-740.205942,995.924147
4151.060043,-9400.615463,-814.226536,1762.019645
4151.060373,-10214.842000,-296.082377,1532.190996
4151.060703,-9622.677246,0.000000,842.705048
4151.061032,-9918.759623,0.000000,153.219100
4151.061362,-9918.759623,-148.041188,-153.219100
4151.061692,-9178.553681,-148.041188,-459.657299
4151.062022,-8142.265362,-370.102971,0.000000
4151.062352,-8734.430116,-222.061783,229.828649
4151.062682,-9918.759623,74.020594,0.000000
4151.063011,-10732.986159,888.247130,0.000000
4151.063341,-10510.924376,-370.102971,-229.828649
4151.063671,-10214.842000,666.185348,612.876398
4151.064001,-10658.965565,518.144159,1685.410096
4151.064331,-10584.944971,0.000000,1149.143247
4151.064661,-8808.450710,0.000000,306.438199
4151.064991,-8586.388927,370.102971,842.705048
4151.065320,-10807.006753,0.000000,766.095498
4151.065650,-11029.068536,518.144159,842.705048
4151.065980,-9844.739029,148.041188,0.000000
4151.066310,-9622.677246,0.000000,-306.438199
4151.066640,-9696.697840,444.123565,0.000000
4151.066970,-9918.759623,-296.082377,0.000000
4151.067299,-9696.697840,-222.061783,0.000000
4151.067629,-9326.594869,592.164754,766.095498
4151.067959,-10140.821405,444.123565,766.095498
4151.068289,-9696.697840,0.000000,-459.657299
4151.068619,-9104.533087,666.185348,-306.438199
4151.068949,-10140.821405,222.061783,153.219100
4151.069279,-10584.944971,0.000000,536.266849
4151.069608,-10362.883188,0.000000,1302.362347
4151.069938,-9178.553681,-444.123565,1302.362347
4151.070268,-8142.265362,296.082377,689.485948
4151.070598,-9474.636058,370.102971,-229.828649
4151.070928,-10732.986159,444.123565,229.828649
4151.071258,-9992.780217,518.144159,0.000000
4151.071587,-9696.697840,666.185348,76.609550
4151.071917,-10214.842000,444.123565,229.828649
4151.072247,-9918.759623,444.123565,153.219100
4151.072577,-8586.388927,-296.082377,-459.657299
4151.072907,-8808.450710,0.000000,0.000000
4151.073237,-9622.677246,592.164754,842.705048
4151.073567,-9844.739029,592.164754,306.438199
4151.073896,-10140.821405,222.061783,-459.657299
4151.074226,-9622.677246,518.144159,153.219100
4151.074556,-10732.986159,444.123565,536.266849
4151.074886,-10658.965565,666.185348,1532.190996
4151.075216,-9474.636058,-148.041188,229.828649
4151.075546,-8660.409521,370.102971,-383.047749
4151.075875,-10140.821405,222.061783,-306.438199
4151.076205,-10807.006753,296.082377,-612.876398
4151.076535,-9474.636058,-296.082377,0.000000
4151.076865,-9104.533087,222.061783,-612.876398
4151.077195,-9104.533087,0.000000,153.219100
4151.077525,-10066.800811,222.061783,0.000000
4151.077855,-9548.656652,0.000000,-306.438199
4151.078184,-9030.512492,0.000000,-995.924147
4151.078514,-9696.697840,-444.123565,-153.219100
4151.078844,-10214.842000,222.061783,766.095498
4151.079174,-9474.636058,222.061783,919.314598
4151.079504,-10140.821405,-444.123565,459.657299
4151.079834,-9474.636058,0.000000,229.828649
4151.080163,-10510.924376,-296.082377,612.876398
4151.080493,-10436.903782,-222.061783,383.047749
4151.080823,-9178.553681,-666.185348,842.705048
4151.081153,-9400.615463,-370.102971,459.657299
4151.081483,-9400.615463,-296.082377,536.266849
4151.081813,-9918.759623,296.082377,229.828649
4151.082143,-10362.883188,-74.020594,-842.705048
4151.082472,-9992.780217,148.041188,-689.485948
4151.082802,-10140.821405,148.041188,306.438199
4151.083132,-10807.006753,0.000000,689.485948
4151.083462,-9400.615463,-666.185348,76.609550
4151.083792,-9474.636058,-518.144159,0.000000
4151.084122,-9104.533087,-888.247130,76.609550
4151.084451,-9844.739029,-592.164754,383.047749
4151.084781,-9474.636058,-444.123565,689.485948
4151.085111,-9770.718434,-1036.288319,919.314598
4151.085441,-9400.615463,-148.041188,995.924147
4151.085771,-9918.759623,0.000000,1149.143247
4151.086101,-11251.130318,-222.061783,306.438199
4151.086431,-9844.739029,-518.144159,536.266849
4151.086760,-9252.574275,0.000000,76.609550
4151.087090,-9548.656652,-370.102971,76.609550
4151.087420,-9474.636058,0.000000,306.438199
4151.087750,-9918.759623,-74.020594,153.219100
4151.088080,-9992.780217,148.041188,76.609550
4151.088410,-9918.759623,148.041188,995.924147
4151.088739,-9770.718434,0.000000,1225.752797
4151.089069,-8956.491898,-222.061783,1532.190996
4151.089399,-9474.636058,370.102971,919.314598
4151.089729,-9992.780217,74.020594,153.219100
4151.090059,-10362.883188,444.123565,0.000000
4151.090389,-10140.821405,1332.370696,0.000000
4151.090718,-9992.780217,370.102971,383.047749
4151.091048,-10288.862594,888.247130,1072.533697
4151.091378,-10140.821405,370.102971,1302.362347
4151.091708,-9696.697840,148.041188,1225.752797
4151.092038,-9030.512492,0.000000,995.924147
4151.092368,-9918.759623,296.082377,153.219100
4151.092698,-10140.821405,-74.020594,-229.828649
4151.093027,-8512.368333,74.020594,-306.438199
4151.093357,-9104.533087,962.267725,306.438199
4151.093687,-10658.965565,592.164754,0.000000
4151.094017,-10066.800811,444.123565,0.000000
4151.094347,-9104.533087,518.144159,0.000000
4151.094677,-9918.759623,1036.288319,229.828649
4151.095006,-10881.027347,962.267725,0.000000
4151.095336,-11103.089130,74.020594,-153.219100
4151.095666,-9326.594869,74.020594,-766.095498
4151.095996,-8438.347739,222.061783,-612.876398
4151.096326,-9770.718434,370.102971,-306.438199
4151.096656,-10140.821405,74.020594,0.000000
4151.096986,-9030.512492,222.061783,0.000000
4151.097315,-9326.594869,-370.102971,-306.438199
4151.097645,-10436.903782,1036.288319,-306.438199
4151.097975,-11103.089130,222.061783,383.047749
4151.098305,-9548.656652,-666.185348,-306.438199
4151.098635,-7994.224174,-296.082377,-459.657299
4151.098965,-8882.471304,0.000000,-383.047749
4151.099294,-10881.027347,518.144159,0.000000
4151.099624,-10214.842000,518.144159,459.657299
4151.099954,-9400.615463,296.082377,536.266849
4151.100284,-10436.903782,74.020594,995.924147
4151.100614,-11547.212695,-148.041188,1149.143247
4151.100944,-10214.842000,-1184.329507,842.705048
4151.101274,-8586.388927,-444.123565,229.828649
4151.101603,-8734.430116,-666.185348,153.219100
4151.101933,-9030.512492,-74.020594,229.828649
4151.102263,-9918.759623,-74.020594,76.609550
4151.102593,-9696.697840,888.247130,536.266849
4151.102923,-10658.965565,740.205942,689.485948
4151.103253,-11473.192101,1184.329507,383.047749
4151.103582,-10732.986159,0.000000,0.000000
4151.103912,-8956.491898,-370.102971,-842.705048
4151.104242,-8734.430116,-592.164754,-612.876398
4151.104572,-9844.739029,0.000000,689.485948
4151.104902,-10214.842000,-740.205942,536.266849
4151.105232,-9622.677246,296.082377,306.438199
4151.105562,-9992.780217,592.164754,229.828649
4151.105891,-11103.089130,0.000000,459.657299
4151.106221,-10362.883188,222.061783,689.485948
4151.106551,-9844.739029,74.020594,995.924147
4151.106881,-9178.553681,-148.041188,919.314598
4151.107211,-9030.512492,74.020594,995.924147
4151.107540,-9474.636058,74.020594,766.095498
4151.107870,-10140.821405,-666.185348,0.000000
4151.108200,-9178.553681,-296.082377,-383.047749
4151.108529,-9104.533087,-666.185348,0.000000
4151.108859,-9400.615463,-148.041188,612.876398
4151.109189,-9178.553681,0.000000,995.924147
4151.109519,-9696.697840,-370.102971,536.266849
4151.109848,-9918.759623,148.041188,-229.828649
4151.110178,-10584.944971,370.102971,383.047749
4151.110508,-10732.986159,-148.041188,306.438199
4151.110837,-10658.965565,222.061783,306.438199
4151.111167,-9474.636058,0.000000,919.314598
4151.111497,-9696.697840,-1036.288319,0.000000
4151.111826,-9326.594869,0.000000,0.000000
4151.112156,-8882.471304,-1036.288319,-306.438199
4151.112486,-8882.471304,-666.185348,76.609550
4151.112816,-8734.430116,0.000000,995.924147
4151.113145,-9474.636058,296.082377,766.095498
4151.113475,-10140.821405,-370.102971,-153.219100
4151.113805,-9918.759623,148.041188,-383.047749
4151.114134,-10510.924376,-518.144159,0.000000
4151.114464,-10584.944971,370.102971,995.924147
4151.114794,-9770.718434,370.102971,1302.362347
4151.115124,-9548.656652,74.020594,459.657299
4151.115453,-9622.677246,74.020594,-306.438199
4151.115783,-10362.883188,1110.308913,0.000000
4151.116113,-11103.089130,592.164754,-459.657299
4151.116442,-9696.697840,148.041188,-689.485948
4151.116772,-8586.388927,888.247130,-306.438199
4151.117102,-9326.594869,370.102971,-459.657299
4151.117432,-9696.697840,444.123565,-1532.190996
4151.117761,-9400.615463,296.082377,-995.924147
4151.118091,-9770.718434,-74.020594,76.609550
4151.118421,-10362.883188,518.144159,1149.143247
4151.118750,-9622.677246,148.041188,1991.848295
4151.119080,-9474.636058,-148.041188,612.876398
4151.119410,-9104.533087,74.020594,689.485948
4151.119740,-10436.903782,74.020594,153.219100
4151.120069,-10658.965565,-444.123565,76.609550
4151.120399,-9548.656652,0.000000,1455.581446
4151.120729,-8512.368333,518.144159,1378.971896
4151.121058,-9400.615463,148.041188,459.657299
4151.121388,-9326.594869,814.226536,-842.705048
4151.121718,-10066.800811,592.164754,-1072.533697
4151.122048,-9992.780217,740.205942,-1378.971896
4151.122377,-10436.903782,814.226536,-689.485948
4151.122707,-10807.006753,370.102971,-306.438199
4151.123037,-10066.800811,444.123565,1072.533697
4151.123366,-9030.512492,1036.288319,536.266849
4151.123696,-9844.739029,370.102971,0.000000
4151.124026,-9992.780217,444.123565,-229.828649
4151.124356,-10214.842000,370.102971,-383.047749
4151.124685,-10362.883188,444.123565,612.876398
4151.125015,-10362.883188,518.144159,1378.971896
4151.125345,-9918.759623,0.000000,1225.752797
4151.125674,-9030.512492,-962.267725,0.000000
4151.126004,-8290.306550,222.061783,536.266849
4151.126334,-8882.471304,370.102971,153.219100
4151.126664,-10362.883188,74.020594,0.000000
4151.126993,-10807.006753,962.267725,0.000000
4151.127323,-10807.006753,0.000000,229.828649
4151.127653,-10584.944971,0.000000,-383.047749
4151.127982,-10214.842000,-296.082377,995.924147
4151.128312,-10066.800811,-296.082377,919.314598
4151.128642,-9178.553681,-518.144159,919.314598
4151.128972,-8660.409521,0.000000,536.266849
4151.129301,-9252.574275,370.102971,306.438199
4151.129631,-10658.965565,666.185348,383.047749
4151.129961,-11251.130318,370.102971,229.828649
4151.130290,-10362.883188,-222.061783,-383.047749
4151.130620,-9104.533087,-370.102971,-612.876398
4151.130950,-8660.409521,-370.102971,-153.219100
4151.131279,-9104.533087,-1406.391290,0.000000
4151.131609,-8882.471304,-592.164754,383.047749
4151.131939,-9178.553681,444.123565,76.609550
4151.132269,-10288.862594,-148.041188,0.000000
4151.132598,-9770.718434,0.000000,-153.219100
4151.132928,-9844.739029,0.000000,842.705048
4151.133258,-10066.800811,-74.020594,995.924147
4151.133587,-9918.759623,-148.041188,459.657299
4151.133917,-10066.800811,-296.082377,0.000000
4151.134247,-9326.594869,-592.164754,0.000000
4151.134577,-9696.697840,222.061783,383.047749
4151.134906,-10436.903782,0.000000,-229.828649
4151.135236,-10510.924376,74.020594,612.876398
4151.135566,-9844.739029,148.041188,995.924147
4151.135895,-9918.759623,74.020594,153.219100
4151.136225,-10362.883188,0.000000,-766.095498
4151.136555,-10436.903782,444.123565,0.000000
4151.136885,-9992.780217,0.000000,76.609550
4151.137214,-9326.594869,444.123565,229.828649
4151.137544,-9622.677246,518.144159,153.219100
4151.137874,-10066.800811,0.000000,0.000000
4151.138203,-9548.656652,-592.164754,0.000000
4151.138533,-9474.636058,148.041188,76.609550
4151.138863,-9696.697840,-444.123565,76.609550
4151.139193,-9770.718434,222.061783,1072.533697
4151.139522,-9474.636058,74.020594,919.314598
4151.139852,-9918.759623,-148.041188,76.609550
4151.140182,-9844.739029,-148.041188,0.000000
4151.140511,-9548.656652,0.000000,-536.266849
4151.140841,-9548.656652,-740.205942,76.609550
4151.141171,-8956.491898,0.000000,1225.752797
4151.141501,-9474.636058,74.020594,612.876398
4151.141830,-9696.697840,0.000000,-919.314598
4151.142160,-9474.636058,296.082377,-995.924147
4151.142490,-9474.636058,0.000000,-689.485948
4151.142819,-10066.800811,888.247130,0.000000
4151.143149,-9992.780217,814.226536,306.438199
4151.143479,-9696.697840,0.000000,-459.657299
4151.143809,-9770.718434,148.041188,0.000000
4151.144138,-9696.697840,296.082377,306.438199
4151.144468,-10436.903782,74.020594,459.657299
4151.144798,-10658.965565,740.205942,0.000000
4151.145127,-9918.759623,296.082377,306.438199
4151.145457,-9474.636058,0.000000,383.047749
4151.145787,-9474.636058,592.164754,766.095498
4151.146117,-9992.780217,814.226536,153.219100
4151.146446,-10214.842000,0.000000,229.828649
4151.146776,-9252.574275,0.000000,0.000000
4151.147106,-9474.636058,0.000000,0.000000
4151.147435,-10362.883188,296.082377,1378.971896
4151.147765,-9696.697840,-370.102971,1225.752797
4151.148095,-8586.388927,-1036.288319,689.485948
4151.148425,-8364.327145,0.000000,153.219100
4151.148754,-9326.594869,518.144159,0.000000
4151.149084,-11029.068536,962.267725,-612.876398
4151.149414,-10436.903782,296.082377,-612.876398
4151.149743,-9918.759623,814.226536,0.000000
4151.150073,-10584.944971,592.164754,76.609550
4151.150403,-11251.130318,518.144159,-229.828649
4151.150732,-9178.553681,148.041188,-612.876398
4151.151062,-8290.306550,148.041188,-1072.533697
4151.151392,-9844.739029,296.082377,-383.047749
4151.151722,-10658.965565,666.185348,459.657299
4151.152051,-10584.944971,-148.041188,1149.143247
4151.152381,-9474.636058,370.102971,995.924147
4151.152711,-9252.574275,-296.082377,153.219100
4151.153040,-10436.903782,-370.102971,-229.828649
4151.153370,-9400.615463,74.020594,229.828649
4151.153700,-8956.491898,296.082377,536.266849
4151.154030,-9770.718434,0.000000,689.485948
4151.154359,-11103.089130,370.102971,612.876398
4151.154689,-10436.903782,740.205942,-766.095498
4151.155019,-9104.533087,-370.102971,-1072.533697
4151.155348,-9548.656652,74.020594,-229.828649
4151.155678,-10288.862594,-740.205942,995.924147
4151.156008,-10362.883188,0.000000,1455.581446
4151.156338,-8660.409521,0.000000,1072.533697
4151.156667,-8364.327145,0.000000,229.828649
4151.156997,-10510.924376,370.102971,-536.266849
4151.157327,-11399.171507,296.082377,0.000000
4151.157656,-10362.883188,0.000000,76.609550
4151.157986,-9326.594869,0.000000,153.219100
4151.158316,-8438.347739,-370.102971,0.000000
4151.158646,-9326.594869,-592.164754,153.219100
4151.158975,-9178.553681,518.144159,306.438199
4151.159305,-9474.636058,-148.041188,0.000000
4151.159635,-10584.944971,0.000000,229.828649
4151.159964,-10362.883188,296.082377,842.705048
4151.160294,-9696.697840,370.102971,459.657299
4151.160624,-9326.594869,-592.164754,-153.219100
4151.160954,-9252.574275,0.000000,306.438199
4151.161283,-10288.862594,-518.144159,919.314598
4151.161613,-9918.759623,518.144159,459.657299
4151.161943,-9474.636058,-370.102971,383.047749
4151.162272,-9548.656652,222.061783,76.609550
4151.162602,-9770.718434,74.020594,229.828649
4151.162932,-9918.759623,74.020594,383.047749
4151.163262,-9992.780217,-148.041188,0.000000
4151.163591,-9992.780217,0.000000,153.219100
4151.163921,-10066.800811,74.020594,689.485948
4151.164251,-9548.656652,-518.144159,612.876398
4151.164580,-9252.574275,222.061783,995.924147
4151.164910,-9104.533087,0.000000,1149.143247
4151.165240,-10362.883188,-148.041188,612.876398
4151.165570,-10955.047942,148.041188,383.047749
4151.165899,-9918.759623,370.102971,76.609550
4151.166229,-9992.780217,-444.123565,0.000000
4151.166559,-9548.656652,74.020594,-76.609550
4151.166888,-10066.800811,-444.123565,153.219100
4151.167218,-9474.636058,-444.123565,0.000000
4151.167548,-8216.285956,-666.185348,153.219100
4151.167877,-9104.533087,-592.164754,383.047749
4151.168207,-9178.553681,-888.247130,842.705048
4151.168537,-9474.636058,-74.020594,766.095498
4151.168867,-10288.862594,592.164754,842.705048
4151.169196,-11103.089130,518.144159,689.485948
4151.169526,-11103.089130,592.164754,383.047749
4151.169856,-10436.903782,444.123565,0.000000
4151.170185,-10066.800811,370.102971,0.000000
4151.170515,-9696.697840,888.247130,-612.876398
4151.170845,-9474.636058,148.041188,-536.266849
4151.171175,-9548.656652,296.082377,-919.314598
4151.171504,-9326.594869,814.226536,-766.095498
4151.171834,-10584.944971,-296.082377,-1225.752797
4151.172164,-9992.780217,0.000000,0.000000
4151.172493,-9104.533087,-222.061783,842.705048
4151.172823,-9474.636058,370.102971,919.314598
4151.173153,-10584.944971,592.164754,1072.533697
4151.173483,-10658.965565,592.164754,459.657299
4151.173812,-10362.883188,74.020594,0.000000
4151.174142,-10066.800811,1406.391290,0.000000
4151.174472,-10362.883188,0.000000,383.047749
4151.174801,-9474.636058,74.020594,229.828649
4151.175131,-8216.285956,296.082377,766.095498
4151.175461,-9622.677246,222.061783,536.266849
4151.175791,-10288.862594,296.082377,76.609550
4151.176120,-10436.903782,666.185348,-536.266849
4151.176450,-9622.677246,0.000000,-536.266849
4151.176780,-8512.368333,296.082377,0.000000
4151.177109,-9622.677246,666.185348,1072.533697
4151.177439,-10066.800811,74.020594,766.095498
4151.177769,-9548.656652,222.061783,229.828649
4151.178099,-9474.636058,814.226536,-919.314598
4151.178428,-9844.739029,0.000000,-459.657299
4151.178758,-10288.862594,444.123565,1532.190996
4151.179088,-9400.615463,148.041188,919.314598
4151.179417,-9252.574275,74.020594,0.000000
4151.179747,-9104.533087,148.041188,-612.876398
4151.180077,-9252.574275,0.000000,-612.876398
4151.180407,-9992.780217,0.000000,-306.438199
4151.180736,-10288.862594,592.164754,459.657299
4151.181066,-10066.800811,0.000000,1455.581446
4151.181396,-10658.965565,0.000000,919.314598
4151.181725,-9548.656652,148.041188,612.876398
4151.182055,-9252.574275,-592.164754,0.000000
4151.182385,-9770.718434,-370.102971,0.000000
4151.182715,-9696.697840,0.000000,612.876398
4151.183044,-9992.780217,-592.164754,1072.533697
4151.183374,-9252.574275,-592.164754,0.000000
4151.183704,-10288.862594,148.041188,76.609550
4151.184033,-11103.089130,-444.123565,229.828649
4151.184363,-10140.821405,-592.164754,842.705048
4151.184693,-9474.636058,-518.144159,1149.143247
4151.185023,-9104.533087,-518.144159,1225.752797
4151.185352,-10436.903782,0.000000,1455.581446
4151.185682,-10658.965565,0.000000,842.705048
4151.186012,-10066.800811,-592.164754,-919.314598
4151.186341,-9622.677246,74.020594,0.000000
4151.186671,-10288.862594,-148.041188,766.095498
4151.187001,-10658.965565,-222.061783,612.876398
4151.187330,-9326.594869,-148.041188,-229.828649
4151.187660,-8956.491898,-222.061783,-689.485948
4151.187990,-9622.677246,-370.102971,229.828649
4151.188320,-10584.944971,740.205942,612.876398
4151.188649,-9622.677246,-222.061783,-306.438199
4151.188979,-9844.739029,-148.041188,-612.876398
4151.189309,-10214.842000,518.144159,153.219100
4151.189638,-10807.006753,-370.102971,229.828649
4151.189968,-9992.780217,0.000000,0.000000
4151.190298,-8364.327145,-148.041188,0.000000
4151.190628,-9030.512492,-222.061783,0.000000
4151.190957,-10066.800811,370.102971,306.438199
4151.191287,-9622.677246,148.041188,306.438199
4151.191617,-9548.656652,148.041188,229.828649
4151.191946,-9918.759623,370.102971,383.047749
4151.192276,-10584.944971,888.247130,383.047749
4151.192606,-9918.759623,0.000000,459.657299
4151.192936,-9252.574275,370.102971,306.438199
4151.193265,-9474.636058,962.267725,536.266849
4151.193595,-10881.027347,518.144159,766.095498
4151.193925,-10658.965565,740.205942,306.438199
4151.194254,-9104.533087,296.082377,-459.657299
4151.194584,-8734.430116,518.144159,-459.657299
4151.194914,-9400.615463,962.267725,229.828649
4151.195244,-10140.821405,296.082377,689.485948
4151.195573,-9844.739029,592.164754,306.438199
4151.195903,-9474.636058,370.102971,153.219100
4151.196233,-10140.821405,0.000000,0.000000
4151.196562,-9844.739029,0.000000,-76.609550
4151.196892,-8956.491898,0.000000,919.314598
4151.197222,-8956.491898,-296.082377,306.438199
4151.197552,-9400.615463,0.000000,612.876398
4151.197881,-9548.656652,592.164754,383.047749
4151.198211,-9844.739029,0.000000,-1072.533697
4151.198541,-9918.759623,0.000000,-1532.190996
4151.198870,-9918.759623,0.000000,-306.438199
4151.199200,-10288.862594,-370.102971,842.705048
4151.199530,-8956.491898,0.000000,536.266849
4151.199860,-8512.368333,222.061783,-383.047749
4151.200189,-9104.533087,-592.164754,-1378.971896
4151.200519,-10436.903782,1184.329507,-689.485948
4151.200849,-10584.944971,222.061783,0.000000
4151.201178,-11251.130318,-222.061783,0.000000
4151.201508,-10066.800811,-518.144159,1149.143247
4151.201838,-9474.636058,-370.102971,383.047749
4151.202168,-9326.594869,-666.185348,-536.266849
4151.202497,-8956.491898,-370.102971,-153.219100
4151.202827,-9326.594869,-814.226536,612.876398
4151.203157,-9992.780217,592.164754,842.705048
4151.203486,-10807.006753,888.247130,536.266849
4151.203816,-11399.171507,74.020594,-383.047749
4151.204146,-10510.924376,74.020594,-612.876398
4151.204476,-10288.862594,0.000000,-459.657299
4151.204805,-10066.800811,-518.144159,0.000000
4151.205135,-9104.533087,-148.041188,1072.533697
4151.205465,-8956.491898,-740.205942,1532.190996
4151.205794,-10214.842000,0.000000,1149.143247
4151.206124,-9918.759623,-148.041188,612.876398
4151.206454,-9696.697840,-296.082377,612.876398
4151.206783,-10140.821405,0.000000,1532.190996
4151.207113,-10436.903782,592.164754,2145.067394
4151.207443,-9844.739029,148.041188,766.095498
4151.207773,-9548.656652,-222.061783,-995.924147
4151.208102,-9030.512492,444.123565,-1225.752797
4151.208432,-9696.697840,370.102971,76.609550
4151.208762,-10140.821405,370.102971,842.705048
4151.209092,-9548.656652,0.000000,842.705048
4151.209421,-9548.656652,0.000000,306.438199
4151.209751,-9918.759623,-222.061783,459.657299
4151.210081,-10214.842000,148.041188,0.000000
4151.210411,-10066.800811,0.000000,842.705048
4151.210740,-9622.677246,74.020594,1378.971896
4151.211070,-9252.574275,814.226536,842.705048
4151.211400,-8660.409521,0.000000,-153.219100
4151.211730,-9844.739029,592.164754,-612.876398
4151.212059,-10436.903782,592.164754,-76.609550
4151.212389,-11177.109724,74.020594,0.000000
4151.212719,-9770.718434,592.164754,919.314598
4151.213049,-8734.430116,-370.102971,153.219100
4151.213378,-9326.594869,-814.226536,153.219100
4151.213708,-9178.553681,-296.082377,536.266849
4151.214038,-9548.656652,-740.205942,0.000000
4151.214368,-9252.574275,0.000000,0.000000
4151.214697,-9548.656652,148.041188,383.047749
4151.215027,-9992.780217,296.082377,1149.143247
4151.215357,-10066.800811,148.041188,919.314598
4151.215687,-10436.903782,518.144159,76.609550
4151.216017,-11251.130318,-518.144159,-306.438199
4151.216346,-10288.862594,0.000000,76.609550
4151.216676,-8956.491898,-518.144159,1072.533697
4151.217006,-8438.347739,-888.247130,766.095498
4151.217336,-9178.553681,-444.123565,459.657299
4151.217665,-10140.821405,-148.041188,383.047749
4151.217995,-10140.821405,-296.082377,-153.219100
4151.218325,-9474.636058,0.000000,-229.828649
4151.218655,-9326.594869,148.041188,-459.657299
4151.218984,-9252.574275,296.082377,0.000000
4151.219314,-9770.718434,666.185348,-306.438199
4151.219644,-9770.718434,444.123565,-919.314598
4151.219974,-10362.883188,0.000000,-1532.190996
4151.220303,-10510.924376,0.000000,-536.266849
4151.220633,-10214.842000,-518.144159,842.705048
4151.220963,-9696.697840,-222.061783,1302.362347
4151.221293,-8586.388927,-518.144159,1378.971896
4151.221623,-9030.512492,-444.123565,383.047749
4151.221952,-10140.821405,0.000000,459.657299
4151.222282,-10584.944971,444.123565,536.266849
4151.222612,-10658.965565,296.082377,0.000000
4151.222942,-10288.862594,592.164754,-153.219100
4151.223271,-9918.759623,1332.370696,-766.095498
4151.223601,-9030.512492,222.061783,-1455.581446
4151.223931,-9474.636058,370.102971,-1532.190996
4151.224261,-10510.924376,518.144159,0.000000
4151.224590,-10436.903782,74.020594,842.705048
4151.224920,-9770.718434,296.082377,229.828649
4151.225250,-9178.553681,592.164754,229.828649
4151.225580,-9844.739029,0.000000,536.266849
4151.225909,-10362.883188,814.226536,459.657299
4151.226239,-10066.800811,1036.288319,612.876398
4151.226569,-9696.697840,370.102971,0.000000
4151.226899,-9474.636058,1110.308913,1302.362347
4151.227228,-9622.677246,518.144159,153.219100
4151.227558,-9918.759623,518.144159,-153.219100
4151.227888,-9326.594869,814.226536,-612.876398
4151.228218,-9252.574275,148.041188,-383.047749
4151.228548,-9326.594869,-444.123565,153.219100
4151.228877,-8586.388927,296.082377,766.095498
4151.229207,-9400.615463,0.000000,842.705048
4151.229537,-9844.739029,74.020594,1072.533697
4151.229867,-10807.006753,740.205942,1072.533697
4151.230196,-9770.718434,296.082377,0.000000
4151.230526,-9326.594869,370.102971,-919.314598
4151.230856,-9696.697840,1110.308913,229.828649
4151.231186,-10732.986159,0.000000,1762.019645
4151.231515,-10066.800811,222.061783,1149.143247
4151.231845,-9030.512492,74.020594,536.266849
4151.232175,-9104.533087,-444.123565,-76.609550
4151.232505,-9696.697840,0.000000,-459.657299
4151.232834,-9400.615463,0.000000,536.266849
4151.233164,-9696.697840,-888.247130,842.705048
4151.233494,-9548.656652,296.082377,1991.848295
4151.233824,-10214.842000,74.020594,1455.581446
4151.234154,-10362.883188,148.041188,383.047749
4151.234483,-9992.780217,444.123565,-766.095498
4151.234813,-10214.842000,222.061783,-689.485948
4151.235143,-10288.862594,-444.123565,0.000000
4151.235473,-9696.697840,0.000000,536.266849
4151.235802,-9474.636058,-296.082377,459.657299
4151.236132,-9548.656652,-814.226536,-766.095498
4151.236462,-10140.821405,-814.226536,-229.828649
4151.236792,-10214.842000,-1036.288319,766.095498
4151.237121,-10140.821405,-1110.308913,1455.581446
4151.237451,-9622.677246,0.000000,1762.019645
4151.237781,-9252.574275,-518.144159,919.314598
4151.238111,-9326.594869,148.041188,0.000000
4151.238440,-9770.718434,444.123565,-229.828649
4151.238770,-10732.986159,0.000000,-919.314598
4151.239100,-11473.192101,0.000000,-842.705048
4151.239430,-9844.739029,0.000000,0.000000
4151.239759,-9104.533087,-1184.329507,306.438199
4151.240089,-9252.574275,-666.185348,229.828649
4151.240419,-9770.718434,-666.185348,306.438199
4151.240749,-10436.903782,-1110.308913,612.876398
4151.241079,-9326.594869,-518.144159,919.314598
4151.241408,-9474.636058,0.000000,459.657299
4151.241738,-10584.944971,-296.082377,995.924147
4151.242068,-10066.800811,148.041188,1225.752797
4151.242398,-9918.759623,-518.144159,76.609550
4151.242727,-10066.800811,-296.082377,-153.219100
4151.243057,-9918.759623,74.020594,-459.657299
4151.243387,-9400.615463,-370.102971,-383.047749
4151.243717,-8290.306550,-74.020594,-153.219100
4151.244046,-9326.594869,444.123565,0.000000
4151.244376,-10066.800811,74.020594,689.485948
4151.244706,-10066.800811,444.123565,459.657299
4151.245036,-9770.718434,222.061783,0.000000
4151.245365,-8956.491898,74.020594,153.219100
4151.245695,-9474.636058,888.247130,306.438199
4151.246025,-10584.944971,518.144159,842.705048
4151.246355,-9992.780217,0.000000,766.095498
4151.246685,-9400.615463,740.205942,536.266849
4151.247014,-9178.553681,814.226536,-459.657299
4151.247344,-10066.800811,444.123565,-689.485948
4151.247674,-10066.800811,1036.288319,-306.438199
4151.248004,-9918.759623,740.205942,536.266849
4151.248333,-9622.677246,444.123565,459.657299
4151.248663,-9030.512492,592.164754,76.609550
4151.248993,-9400.615463,148.041188,-153.219100
4151.249323,-9770.718434,0.000000,153.219100
4151.249652,-9548.656652,888.247130,459.657299
4151.249982,-10510.924376,296.082377,995.924147
4151.250312,-10510.924376,518.144159,1302.362347
4151.250642,-9844.739029,740.205942,1302.362347
4151.250971,-10066.800811,222.061783,919.314598
4151.251301,-10658.965565,740.205942,0.000000
4151.251631,-9992.780217,444.123565,0.000000
4151.251961,-9474.636058,-296.082377,-153.219100
4151.252290,-9252.574275,148.041188,536.266849
4151.252620,-9844.739029,666.185348,612.876398
4151.252950,-10510.924376,-148.041188,229.828649
4151.253280,-10140.821405,222.061783,-306.438199
4151.253610,-10288.862594,148.041188,-919.314598
4151.253939,-10510.924376,-740.205942,-842.705048
4151.254269,-9030.512492,-518.144159,306.438199
4151.254599,-8660.409521,-592.164754,919.314598
4151.254929,-9844.739029,-444.123565,383.047749
4151.255258,-10584.944971,-296.082377,229.828649
4151.255588,-9770.718434,-370.102971,-383.047749
4151.255918,-9474.636058,-592.164754,306.438199
4151.256248,-9696.697840,74.020594,1072.533697
4151.256577,-9548.656652,-962.267725,689.485948
4151.256907,-9696.697840,-666.185348,0.000000
4151.257237,-9252.574275,74.020594,-842.705048
4151.257567,-10510.924376,-74.020594,-689.485948
4151.257896,-10807.006753,-148.041188,-153.219100
4151.258226,-9474.636058,0.000000,306.438199
4151.258556,-9474.636058,-370.102971,0.000000
4151.258886,-9548.656652,370.102971,-919.314598
4151.259216,-10584.944971,74.020594,-995.924147
4151.259545,-11029.068536,-148.041188,153.219100
4151.259875,-9474.636058,-444.123565,612.876398
4151.260205,-9548.656652,296.082377,1532.190996
4151.260535,-9622.677246,-296.082377,229.828649
4151.260864,-9326.594869,444.123565,76.609550
4151.261194,-9696.697840,-222.061783,0.000000
4151.261524,-10807.006753,-148.041188,0.000000
4151.261854,-10214.842000,444.123565,1072.533697
4151.262183,-9178.553681,0.000000,1302.362347
4151.262513,-8956.491898,0.000000,612.876398
4151.262843,-9770.718434,888.247130,229.828649
4151.263173,-10436.903782,-296.082377,-153.219100
4151.263502,-9918.759623,0.000000,-842.705048
4151.263832,-8586.388927,0.000000,766.095498
4151.264162,-9178.553681,74.020594,1149.143247
4151.264492,-9400.615463,296.082377,306.438199
4151.264821,-9548.656652,740.205942,0.000000
4151.265151,-10140.821405,-370.102971,-153.219100
4151.265481,-10658.965565,740.205942,383.047749
4151.265811,-10214.842000,370.102971,1225.752797
4151.266141,-8956.491898,-444.123565,919.314598
4151.266470,-8734.430116,148.041188,536.266849
4151.266800,-9474.636058,296.082377,0.000000
4151.267130,-10510.924376,0.000000,153.219100
4151.267460,-10214.842000,444.123565,612.876398
4151.267789,-9548.656652,296.082377,1072.533697
4151.268119,-9548.656652,148.041188,919.314598
4151.268449,-10288.862594,1110.308913,0.000000
4151.268779,-10066.800811,0.000000,-383.047749
4151.269108,-9696.697840,0.000000,0.000000
4151.269438,-8956.491898,0.000000,1149.143247
4151.269768,-9548.656652,-592.164754,689.485948
4151.270098,-9474.636058,148.041188,1072.533697
4151.270427,-9474.636058,370.102971,919.314598
4151.270757,-10658.965565,222.061783,153.219100
4151.271087,-10510.924376,0.000000,-153.219100
4151.271417,-9622.677246,0.000000,229.828649
4151.271747,-9474.636058,-518.144159,995.924147
4151.272076,-9770.718434,222.061783,919.314598
4151.272406,-10214.842000,74.020594,1072.533697
4151.272736,-9918.759623,-370.102971,-919.314598
4151.273066,-9178.553681,0.000000,-919.314598
4151.273395,-9844.739029,0.000000,-689.485948
4151.273725,-10140.821405,-296.082377,-459.657299
4151.274055,-9844.739029,-222.061783,919.314598
4151.274385,-9030.512492,0.000000,766.095498
4151.274714,-9844.739029,-222.061783,229.828649
4151.275044,-11103.089130,518.144159,536.266849
4151.275374,-9918.759623,-592.164754,229.828649
4151.275704,-9474.636058,-444.123565,229.828649
4151.276033,-9326.594869,370.102971,842.705048
4151.276363,-9622.677246,-296.082377,76.609550
4151.276693,-9178.553681,-518.144159,-306.438199
4151.277023,-8882.471304,370.102971,-153.219100
4151.277352,-10732.986159,222.061783,76.609550
4151.277682,-10881.027347,0.000000,76.609550
4151.278012,-8956.491898,0.000000,306.438199
4151.278342,-8734.430116,-666.185348,153.219100
4151.278672,-9104.533087,74.020594,383.047749
4151.279001,-10362.883188,518.144159,459.657299
4151.279331,-9918.759623,-444.123565,229.828649
4151.279661,-9326.594869,148.041188,-153.219100
4151.279991,-9770.718434,518.144159,229.828649
4151.280320,-10658.965565,0.000000,995.924147
4151.280650,-9992.780217,296.082377,919.314598
4151.280980,-9326.594869,222.061783,536.266849
4151.281310,-9474.636058,-296.082377,229.828649
4151.281639,-9770.718434,0.000000,76.609550
4151.281969,-9622.677246,-296.082377,306.438199
4151.282299,-9992.780217,74.020594,0.000000
4151.282629,-10066.800811,296.082377,383.047749
4151.282958,-10214.842000,-222.061783,459.657299
4151.283288,-9104.533087,-74.020594,229.828649
4151.283618,-8956.491898,1110.308913,306.438199
4151.283948,-10436.903782,592.164754,76.609550
4151.284278,-10807.006753,74.020594,-459.657299
4151.284607,-9474.636058,518.144159,-383.047749
4151.284937,-9326.594869,0.000000,229.828649
4151.285267,-9992.780217,222.061783,76.609550
4151.285597,-9548.656652,0.000000,536.266849
4151.285926,-9252.574275,-592.164754,229.828649
4151.286256,-9474.636058,0.000000,766.095498
4151.286586,-10066.800811,592.164754,919.314598
4151.286916,-11029.068536,0.000000,1302.362347
4151.287245,-9770.718434,592.164754,766.095498
4151.287575,-8882.471304,0.000000,76.609550
4151.287905,-9622.677246,-296.082377,0.000000
4151.288235,-11029.068536,296.082377,306.438199
4151.288564,-9770.718434,-296.082377,383.047749
4151.288894,-9178.553681,-666.185348,-459.657299
4151.289224,-8586.388927,444.123565,306.438199
4151.289554,-9622.677246,-296.082377,1072.533697
4151.289883,-10140.821405,74.020594,766.095498
4151.290213,-9770.718434,0.000000,383.047749
4151.290543,-10658.965565,-370.102971,76.609550
4151.290873,-10584.944971,-518.144159,306.438199
4151.291203,-9474.636058,-222.061783,306.438199
4151.291532,-9030.512492,-740.205942,-153.219100
4151.291862,-9474.636058,-148.041188,-459.657299
4151.292192,-9770.718434,0.000000,0.000000
4151.292522,-9844.739029,-518.144159,-153.219100
4151.292851,-9400.615463,0.000000,76.609550
4151.293181,-9252.574275,148.041188,1455.581446
4151.293511,-10066.800811,-296.082377,2145.067394
4151.293841,-11029.068536,296.082377,306.438199
4151.294170,-9918.759623,0.000000,-995.924147
4151.294500,-9400.615463,-518.144159,-1532.190996
4151.294830,-9400.615463,518.144159,-229.828649
4151.295160,-9696.697840,148.041188,842.705048
4151.295489,-9992.780217,222.061783,383.047749
4151.295819,-9770.718434,444.123565,306.438199
4151.296149,-10066.800811,-148.041188,306.438199
4151.296479,-10436.903782,-222.061783,842.705048
4151.296808,-9844.739029,444.123565,919.314598
4151.297138,-9326.594869,-148.041188,612.876398
4151.297468,-9400.615463,296.082377,383.047749
4151.297798,-9844.739029,814.226536,76.609550
4151.298128,-10362.883188,74.020594,-766.095498
4151.298457,-9474.636058,518.144159,-1072.533697
4151.298787,-9474.636058,666.185348,76.609550
4151.299117,-9622.677246,740.205942,306.438199
4151.299447,-9400.615463,518.144159,0.000000
4151.299776,-9400.615463,370.102971,-153.219100
4151.300106,-9104.533087,0.000000,-766.095498
4151.300436,-10066.800811,518.144159,0.000000
4151.300766,-9622.677246,592.164754,-536.266849
4151.301095,-9770.718434,0.000000,459.657299
4151.301425,-9770.718434,814.226536,76.609550
4151.301755,-9992.780217,444.123565,0.000000
4151.302085,-10955.047942,814.226536,-536.266849
4151.302414,-8660.409521,296.082377,229.828649
4151.302744,-9548.656652,666.185348,536.266849
4151.303074,-10584.944971,444.123565,995.924147
4151.303404,-9844.739029,370.102971,0.000000
4151.303734,-8882.471304,-592.164754,-1378.971896
4151.304063,-8068.244768,-370.102971,-919.314598
4151.304393,-9474.636058,0.000000,0.000000
4151.304723,-9844.739029,-740.205942,1072.533697
4151.305053,-9548.656652,0.000000,766.095498
4151.305382,-9474.636058,0.000000,306.438199
4151.305712,-9696.697840,-444.123565,0.000000
4151.306042,-10214.842000,222.061783,0.000000
4151.306372,-9992.780217,592.164754,689.485948
4151.306701,-9696.697840,0.000000,766.095498
4151.307031,-10066.800811,148.041188,229.828649
4151.307361,-10140.821405,0.000000,-306.438199
4151.307691,-9326.594869,-370.102971,-995.924147
4151.308020,-8660.409521,-444.123565,-612.876398
4151.308350,-9696.697840,-148.041188,0.000000
4151.308680,-10658.965565,0.000000,536.266849
4151.309010,-9696.697840,222.061783,459.657299
4151.309339,-9326.594869,-370.102971,0.000000
4151.309669,-9918.759623,-148.041188,-536.266849
4151.309999,-10658.965565,592.164754,536.266849
4151.310329,-11177.109724,0.000000,1455.581446
4151.310659,-10658.965565,148.041188,1149.143247
4151.310988,-9178.553681,0.000000,1072.533697
4151.311318,-9178.553681,-740.205942,76.609550
4151.311648,-9992.780217,-592.164754,459.657299
4151.311978,-9400.615463,-370.102971,306.438199
4151.312308,-9622.677246,-370.102971,229.828649
4151.312638,-9770.718434,148.041188,919.314598
4151.312967,-9918.759623,222.061783,306.438199
4151.313297,-9474.636058,-444.123565,-536.266849
4151.313627,-9770.718434,296.082377,229.828649
4151.313957,-10510.924376,592.164754,919.314598
4151.314287,-10140.821405,-592.164754,383.047749
4151.314617,-9622.677246,0.000000,229.828649
4151.314947,-9252.574275,222.061783,919.314598
4151.315276,-9844.739029,-74.020594,766.095498
4151.315606,-10807.006753,0.000000,842.705048
4151.315936,-10140.821405,-518.144159,306.438199
4151.316266,-9326.594869,-518.144159,0.000000
4151.316596,-8586.388927,296.082377,306.438199
4151.316926,-9474.636058,370.102971,0.000000
4151.317256,-10510.924376,296.082377,0.000000
4151.317585,-9474.636058,962.267725,-459.657299
4151.317915,-9844.739029,222.061783,0.000000
4151.318245,-10140.821405,814.226536,0.000000
4151.318575,-10066.800811,0.000000,-306.438199
4151.318905,-9252.574275,-296.082377,-383.047749
4151.319235,-8882.471304,-296.082377,995.924147
4151.319564,-9622.677246,148.041188,1225.752797
4151.319894,-10732.986159,-444.123565,612.876398
4151.320224,-9474.636058,296.082377,0.000000
4151.320554,-8512.368333,0.000000,-459.657299
4151.320884,-9622.677246,148.041188,-306.438199
4151.321214,-10362.883188,0.000000,459.657299
4151.321544,-10214.842000,0.000000,306.438199
4151.321873,-8882.471304,-370.102971,0.000000
4151.322203,-9030.512492,148.041188,0.000000
4151.322533,-9474.636058,0.000000,76.609550
4151.322863,-9918.759623,0.000000,-536.266849
4151.323193,-9770.718434,148.041188,0.000000
4151.323523,-9918.759623,-74.020594,0.000000
4151.323853,-10140.821405,0.000000,306.438199
4151.324182,-9770.718434,74.020594,306.438199
4151.324512,-9474.636058,-740.205942,459.657299
4151.324842,-9474.636058,148.041188,306.438199
4151.325172,-9252.574275,148.041188,-536.266849
4151.325502,-10362.883188,0.000000,-536.266849
4151.325832,-10955.047942,0.000000,612.876398
4151.326162,-10362.883188,148.041188,1378.971896
4151.326491,-9622.677246,-592.164754,153.219100
4151.326821,-9548.656652,0.000000,153.219100
4151.327151,-9548.656652,-592.164754,0.000000
4151.327481,-8882.471304,-74.020594,229.828649
4151.327811,-9178.553681,962.267725,-229.828649
4151.328141,-9992.780217,370.102971,-383.047749
4151.328470,-10658.965565,370.102971,-229.828649
4151.328800,-9918.759623,962.267725,383.047749
4151.329130,-10066.800811,74.020594,-229.828649
4151.329460,-10066.800811,222.061783,0.000000
4151.329790,-9992.780217,444.123565,0.000000
4151.330120,-9622.677246,148.041188,383.047749
4151.330450,-8586.388927,-148.041188,536.266849
4151.330779,-9474.636058,814.226536,842.705048
4151.331109,-10510.924376,444.123565,153.219100
4151.331439,-10584.944971,296.082377,76.609550
4151.331769,-9252.574275,148.041188,-306.438199
4151.332099,-8808.450710,0.000000,-153.219100
4151.332429,-9252.574275,222.061783,919.314598
4151.332759,-9770.718434,666.185348,1225.752797
4151.333088,-10066.800811,-74.020594,229.828649
4151.333418,-9770.718434,370.102971,842.705048
4151.333748,-9622.677246,962.267725,383.047749
4151.334078,-10362.883188,148.041188,-842.705048
4151.334408,-9474.636058,666.185348,-459.657299
4151.334738,-8808.450710,222.061783,-229.828649
4151.335068,-9474.636058,148.041188,229.828649
4151.335397,-9548.656652,518.144159,0.000000
4151.335727,-9326.594869,74.020594,-229.828649
4151.336057,-8512.368333,444.123565,-383.047749
4151.336387,-9548.656652,1110.308913,-153.219100
4151.336717,-10732.986159,0.000000,306.438199
4151.337047,-10658.965565,0.000000,459.657299
4151.337377,-9104.533087,148.041188,459.657299
4151.337706,-8586.388927,-962.267725,-229.828649
4151.338036,-9770.718434,74.020594,153.219100
4151.338366,-9844.739029,222.061783,1072.533697
4151.338696,-9400.615463,0.000000,995.924147
4151.339026,-9178.553681,370.102971,0.000000
4151.339356,-10881.027347,0.000000,229.828649
4151.339685,-10584.944971,-518.144159,0.000000
4151.340015,-9400.615463,0.000000,-689.485948
4151.340345,-9548.656652,148.041188,-612.876398
4151.340675,-9992.780217,-296.082377,-536.266849
4151.341005,-9474.636058,74.020594,0.000000
4151.341335,-8956.491898,148.041188,-229.828649
4151.341665,-9844.739029,0.000000,76.609550
4151.341994,-10510.924376,518.144159,459.657299
4151.342324,-10214.842000,-370.102971,689.485948
4151.342654,-9844.739029,-518.144159,459.657299
4151.342984,-10066.800811,-296.082377,536.266849
4151.343314,-9770.718434,-1184.329507,766.095498
4151.343644,-9622.677246,-962.267725,689.485948
4151.343974,-9030.512492,-296.082377,1225.752797
4151.344303,-10140.821405,-666.185348,1302.362347
4151.344633,-10658.965565,296.082377,842.705048
4151.344963,-9696.697840,0.000000,383.047749
4151.345293,-9326.594869,-148.041188,0.000000
4151.345623,-9622.677246,0.000000,76.609550
4151.345953,-10214.842000,148.041188,306.438199
4151.346283,-10288.862594,-962.267725,536.266849
4151.346612,-9400.615463,-370.102971,0.000000
4151.346942,-9178.553681,-592.164754,153.219100
4151.347272,-9770.718434,-370.102971,766.095498
4151.347602,-9770.718434,74.020594,766.095498
4151.347932,-9696.697840,-518.144159,153.219100
4151.348262,-10140.821405,0.000000,383.047749
4151.348591,-10066.800811,0.000000,1225.752797
4151.348921,-9844.739029,0.000000,1072.533697
4151.349251,-9474.636058,-296.082377,0.000000
4151.349581,-9104.533087,-74.020594,0.000000
4151.349911,-9548.656652,-962.267725,229.828649
4151.350241,-9622.677246,-148.041188,689.485948
4151.350571,-9548.656652,0.000000,536.266849
4151.350900,-9548.656652,-888.247130,459.657299
4151.351230,-9326.594869,-444.123565,76.609550
4151.351560,-9918.759623,592.164754,1072.533697
4151.351890,-11103.089130,592.164754,766.095498
4151.352220,-10584.944971,814.226536,153.219100
4151.352550,-9992.780217,1258.350101,76.609550
4151.352880,-10214.842000,592.164754,-229.828649
4151.353209,-10288.862594,962.267725,-689.485948
4151.353539,-9548.656652,0.000000,-612.876398
4151.353869,-9770.718434,-592.164754,-612.876398
4151.354199,-8956.491898,74.020594,0.000000
4151.354529,-8660.409521,0.000000,536.266849
4151.354859,-9252.574275,0.000000,0.000000
4151.355189,-9770.718434,740.205942,1149.143247
4151.355518,-10584.944971,444.123565,919.314598
4151.355848,-10955.047942,592.164754,383.047749
4151.356178,-10881.027347,1628.453072,0.000000
4151.356508,-10436.903782,518.144159,-76.609550
4151.356838,-9400.615463,518.144159,-612.876398
4151.357168,-8956.491898,592.164754,-536.266849
4151.357497,-9252.574275,-148.041188,-1302.362347
4151.357827,-9030.512492,148.041188,-612.876398
4151.358157,-8956.491898,222.061783,-383.047749
4151.358487,-9696.697840,-444.123565,153.219100
4151.358817,-9548.656652,-296.082377,919.314598
4151.359147,-9548.656652,518.144159,1225.752797
4151.359477,-10066.800811,592.164754,1302.362347
4151.359806,-10658.965565,962.267725,842.705048
4151.360136,-9844.739029,2294.638420,153.219100
4151.360466,-10807.006753,370.102971,-1532.190996
4151.360796,-10214.842000,1924.535449,-842.705048
4151.361126,-10362.883188,370.102971,0.000000
4151.361456,-10584.944971,74.020594,0.000000
4151.361786,-8364.327145,-222.061783,-766.095498
4151.362115,-7846.182985,-592.164754,-1072.533697
4151.362445,-8808.450710,-444.123565,-153.219100
4151.362775,-10066.800811,148.041188,766.095498
4151.363105,-11177.109724,148.041188,1685.410096
4151.363435,-10214.842000,518.144159,1762.019645
4151.363765,-10436.903782,592.164754,1762.019645
4151.364095,-10214.842000,148.041188,919.314598
4151.364424,-9548.656652,-370.102971,536.266849
4151.364754,-9548.656652,148.041188,306.438199
4151.365084,-9548.656652,-444.123565,-153.219100
4151.365414,-10066.800811,-296.082377,229.828649
4151.365744,-8808.450710,-296.082377,229.828649
4151.366074,-9252.574275,-592.164754,76.609550
4151.366404,-9622.677246,-814.226536,-612.876398
4151.366733,-9770.718434,-814.226536,153.219100
4151.367063,-9992.780217,-444.123565,459.657299
4151.367393,-9992.780217,-666.185348,689.485948
4151.367723,-9696.697840,-222.061783,1378.971896
4151.368053,-9326.594869,-740.205942,1455.581446
4151.368383,-9918.759623,0.000000,1072.533697
4151.368712,-10510.924376,-296.082377,306.438199
4151.369042,-10510.924376,-1480.411884,0.000000
4151.369372,-9252.574275,-444.123565,459.657299
4151.369702,-8660.409521,-1184.329507,612.876398
4151.370032,-9770.718434,-962.267725,612.876398
4151.370362,-9400.615463,-222.061783,0.000000
4151.370692,-9992.780217,-296.082377,0.000000
4151.371021,-10362.883188,148.041188,0.000000
4151.371351,-10436.903782,1036.288319,0.000000
4151.371681,-10362.883188,148.041188,-536.266849
4151.372011,-9696.697840,148.041188,-306.438199
4151.372341,-9770.718434,592.164754,306.438199
4151.372671,-10066.800811,-962.267725,0.000000
4151.373001,-9548.656652,-740.205942,0.000000
4151.373330,-9326.594869,-148.041188,459.657299
4151.373660,-9474.636058,-740.205942,766.095498
4151.373990,-9844.739029,0.000000,383.047749
4151.374320,-10436.903782,222.061783,612.876398
4151.374650,-10140.821405,148.041188,459.657299
4151.374980,-10140.821405,888.247130,536.266849
4151.375310,-10510.924376,814.226536,0.000000
4151.375639,-10066.800811,-148.041188,-1302.362347
4151.375969,-8512.368333,962.267725,-1378.971896
4151.376299,-8808.450710,74.020594,-766.095498
4151.376629,-10807.006753,370.102971,612.876398
4151.376959,-10214.842000,0.000000,1072.533697
4151.377289,-8586.388927,-666.185348,153.219100
4151.377618,-8142.265362,-592.164754,-383.047749
4151.377948,-9400.615463,592.164754,0.000000
4151.378278,-9992.780217,-148.041188,1149.143247
4151.378608,-10066.800811,740.205942,2528.115143
4151.378938,-9770.718434,1184.329507,1762.019645
4151.379268,-11029.068536,222.061783,459.657299
4151.379598,-11177.109724,740.205942,-689.485948
4151.379927,-9400.615463,666.185348,-153.219100
4151.380257,-8956.491898,222.061783,-766.095498
4151.380587,-9400.615463,518.144159,-536.266849
4151.380917,-9770.718434,0.000000,536.266849
4151.381247,-9178.553681,0.000000,1072.533697
4151.381577,-9178.553681,740.205942,-306.438199
4151.381907,-10436.903782,444.123565,-842.705048
4151.382236,-10732.986159,444.123565,0.000000
4151.382566,-9918.759623,1332.370696,1225.752797
4151.382896,-9474.636058,666.185348,919.314598
4151.383226,-10510.924376,444.123565,459.657299
4151.383556,-10436.903782,148.041188,229.828649
4151.383886,-9992.780217,-148.041188,153.219100
4151.384216,-9548.656652,74.020594,612.876398
4151.384545,-9474.636058,222.061783,766.095498
4151.384875,-9400.615463,-592.164754,995.924147
4151.385205,-9030.512492,0.000000,383.047749
4151.385535,-9622.677246,666.185348,229.828649
4151.385865,-10584.944971,74.020594,0.000000
4151.386195,-11251.130318,444.123565,306.438199
4151.386525,-10066.800811,518.144159,0.000000
4151.386854,-9844.739029,-148.041188,536.266849
4151.387184,-9178.553681,0.000000,76.609550
4151.387514,-9548.656652,74.020594,919.314598
4151.387844,-10510.924376,74.020594,612.876398
4151.388174,-10214.842000,0.000000,-459.657299
4151.388504,-9844.739029,-370.102971,-919.314598
4151.388833,-9548.656652,-1036.288319,-153.219100
4151.389163,-9030.512492,0.000000,612.876398
4151.389493,-9696.697840,-222.061783,612.876398
4151.389823,-10140.821405,-296.082377,-536.266849
4151.390153,-9474.636058,296.082377,-536.266849
4151.390483,-9474.636058,-370.102971,0.000000
4151.390813,-9696.697840,-296.082377,383.047749
4151.391142,-10214.842000,296.082377,766.095498
4151.391472,-10732.986159,-370.102971,536.266849
4151.391802,-9474.636058,-740.205942,-612.876398
4151.392132,-8734.430116,-518.144159,-612.876398
4151.392462,-9030.512492,-1036.288319,-459.657299
4151.392792,-9104.533087,-740.205942,306.438199
4151.393122,-9178.553681,148.041188,842.705048
4151.393451,-10066.800811,-74.020594,689.485948
4151.393781,-10881.027347,666.185348,383.047749
4151.394111,-10436.903782,74.020594,-689.485948
4151.394441,-10288.862594,-370.102971,-689.485948
4151.394771,-8808.450710,-296.082377,-383.047749
4151.395101,-9252.574275,-666.185348,689.485948
4151.395431,-8956.491898,-444.123565,612.876398
4151.395760,-10066.800811,222.061783,1378.971896
4151.396090,-10214.842000,-444.123565,383.047749
4151.396420,-10362.883188,-370.102971,-689.485948
4151.396750,-9474.636058,666.185348,-306.438199
4151.397080,-9474.636058,444.123565,689.485948
4151.397410,-10214.842000,666.185348,612.876398
4151.397739,-10140.821405,592.164754,0.000000
4151.398069,-9622.677246,74.020594,-1302.362347
4151.398399,-9548.656652,888.247130,-1685.410096
4151.398729,-10288.862594,592.164754,153.219100
4151.399059,-10732.986159,-592.164754,1225.752797
4151.399389,-9548.656652,222.061783,1455.581446
4151.399719,-9326.594869,370.102971,1608.800546
4151.400048,-9400.615463,-666.185348,612.876398
4151.400378,-9918.759623,444.123565,995.924147
4151.400708,-9844.739029,296.082377,536.266849
4151.401038,-9326.594869,0.000000,229.828649
4151.401368,-9548.656652,1258.350101,76.609550
4151.401698,-11029.068536,888.247130,306.438199
4151.402028,-10584.944971,148.041188,-536.266849
4151.402357,-9400.615463,370.102971,-1225.752797
4151.402687,-8512.368333,370.102971,-1302.362347
4151.403017,-9474.636058,-296.082377,306.438199
4151.403347,-9622.677246,222.061783,919.314598
4151.403677,-9104.533087,-518.144159,1072.533697
4151.404007,-10066.800811,370.102971,689.485948
4151.404337,-10584.944971,740.205942,76.609550
4151.404666,-10436.903782,0.000000,383.047749
4151.404996,-9770.718434,296.082377,689.485948
4151.405326,-9104.533087,592.164754,306.438199
4151.405656,-9918.759623,444.123565,0.000000
4151.405986,-10140.821405,592.164754,-536.266849
4151.406316,-10214.842000,370.102971,-536.266849
4151.406646,-10066.800811,-74.020594,0.000000
4151.406975,-9696.697840,-148.041188,0.000000
4151.407305,-9178.553681,-888.247130,-153.219100
4151.407635,-8142.265362,-1110.308913,0.000000
4151.407965,-9030.512492,148.041188,766.095498
4151.408295,-10732.986159,74.020594,1225.752797
4151.408625,-11251.130318,222.061783,1072.533697
4151.408954,-9770.718434,666.185348,689.485948
4151.409284,-9178.553681,370.102971,0.000000
4151.409614,-10510.924376,444.123565,76.609550
4151.409944,-11029.068536,1036.288319,229.828649
4151.410274,-9400.615463,0.000000,-1225.752797
4151.410604,-9252.574275,-370.102971,-1532.190996
4151.410934,-9622.677246,518.144159,-612.876398
4151.411264,-10288.862594,444.123565,1149.143247
4151.411593,-9770.718434,222.061783,1149.143247
4151.411923,-9400.615463,518.144159,0.000000
4151.412253,-10658.965565,0.000000,383.047749
4151.412583,-10584.944971,1110.308913,536.266849
4151.412913,-10140.821405,444.123565,612.876398
4151.413243,-9622.677246,0.000000,229.828649
4151.413573,-9474.636058,296.082377,0.000000
4151.413903,-9622.677246,444.123565,459.657299
4151.414232,-9474.636058,-592.164754,919.314598
4151.414562,-9474.636058,740.205942,459.657299
4151.414892,-9844.739029,-222.061783,0.000000
4151.415222,-9918.759623,0.000000,229.828649
4151.415552,-9474.636058,518.144159,0.000000
4151.415882,-9474.636058,0.000000,153.219100
4151.416212,-9770.718434,-518.144159,76.609550
4151.416542,-9474.636058,0.000000,76.609550
4151.416871,-9474.636058,-296.082377,-689.485948
4151.417201,-8808.450710,-222.061783,-842.705048
4151.417531,-8734.430116,444.123565,766.095498
4151.417861,-9992.780217,-444.123565,766.095498
4151.418191,-10955.047942,296.082377,1072.533697
4151.418521,-10066.800811,-370.102971,76.609550
4151.418851,-9474.636058,-962.267725,-919.314598
4151.419181,-9548.656652,0.000000,-229.828649
4151.419510,-9770.718434,-518.144159,76.609550
4151.419840,-9696.697840,-592.164754,536.266849
4151.420170,-9474.636058,74.020594,1378.971896
4151.420500,-10140.821405,666.185348,1302.362347
4151.420830,-10807.006753,-222.061783,-919.314598
4151.421160,-10288.862594,0.000000,-1915.238745
4151.421490,-9770.718434,-148.041188,-689.485948
4151.421820,-10584.944971,-518.144159,459.657299
4151.422150,-10066.800811,-148.041188,1608.800546
4151.422479,-9622.677246,-740.205942,1149.143247
4151.422809,-8438.347739,-962.267725,229.828649
4151.423139,-9252.574275,0.000000,459.657299
4151.423469,-10658.965565,0.000000,1302.362347
4151.423799,-11103.089130,814.226536,766.095498
4151.424129,-10140.821405,962.267725,0.000000
4151.424459,-10066.800811,666.185348,-612.876398
4151.424789,-10881.027347,370.102971,-1838.629195
4151.425118,-10510.924376,370.102971,-1762.019645
4151.425448,-8882.471304,-962.267725,0.000000
4151.425778,-8290.306550,-518.144159,306.438199
4151.426108,-8290.306550,296.082377,0.000000
4151.426438,-8882.471304,-296.082377,-1072.533697
4151.426768,-9474.636058,1332.370696,-1378.971896
4151.427098,-9622.677246,1480.411884,-1072.533697
4151.427428,-10584.944971,1480.411884,-612.876398
4151.427757,-10881.027347,2220.617826,76.609550
4151.428087,-10584.944971,1628.453072,536.266849
4151.428417,-9548.656652,962.267725,-229.828649
4151.428747,-9252.574275,1184.329507,-1378.971896
4151.429077,-9622.677246,1036.288319,-1608.800546
4151.429407,-9770.718434,1110.308913,-1991.848295
4151.429737,-9474.636058,1776.494261,-2068.457845
4151.430067,-9252.574275,1184.329507,-1532.190996
4151.430396,-9252.574275,1850.514855,-1838.629195
4151.430726,-9178.553681,2368.659014,-1685.410096
4151.431056,-10436.903782,2516.700203,-2221.676944
4151.431386,-10732.986159,2516.700203,-1378.971896
4151.431716,-10436.903782,2590.720797,-153.219100
4151.432046,-10732.986159,2220.617826,-1378.971896
4151.432376,-10436.903782,2294.638420,-1915.238745
4151.432706,-9622.677246,1924.535449,-2374.896044
4151.433035,-9178.553681,1702.473667,-2451.505594
4151.433365,-8512.368333,1628.453072,-2221.676944
4151.433695,-9326.594869,2738.761985,-1455.581446
4151.434025,-10288.862594,2516.700203,-1072.533697
4151.434355,-10140.821405,3404.947333,-2068.457845
4151.434685,-9696.697840,3775.050304,-3370.820191
4151.435015,-11177.109724,3404.947333,-3983.696590
4151.435345,-10658.965565,2812.782580,-2604.724693
4151.435675,-9918.759623,2368.659014,-1915.238745
4151.436004,-9992.780217,1702.473667,-2298.286494
4151.436334,-8734.430116,1776.494261,-2145.067394
4151.436664,-8290.306550,1850.514855,-1685.410096
4151.436994,-7476.080014,1998.556043,-2145.067394
4151.437324,-8586.388927,2812.782580,-1378.971896
4151.437654,-10288.862594,3330.926739,-689.485948
4151.437984,-10732.986159,3182.885551,-689.485948
4151.438314,-11325.150913,3701.029710,-2145.067394
4151.438643,-10658.965565,2960.823768,-2987.772442
4151.438973,-10584.944971,2664.741391,-3600.648841
4151.439303,-9696.697840,2368.659014,-3370.820191
4151.439633,-8586.388927,1702.473667,-2528.115143
4151.439963,-8216.285956,1924.535449,-1762.019645
4151.440293,-8142.265362,1998.556043,-1455.581446
4151.440623,-9252.574275,2146.597232,-1838.629195
4151.440953,-10140.821405,2738.761985,-2298.286494
4151.441282,-10658.965565,3034.844362,-2374.896044
4151.441612,-10584.944971,2368.659014,-2068.457845
4151.441942,-10510.924376,2886.803174,-1608.800546
4151.442272,-11251.130318,2664.741391,-459.657299
4151.442602,-10732.986159,2516.700203,-1685.410096
4151.442932,-10288.862594,2516.700203,-2451.505594
4151.443262,-9474.636058,2294.638420,-1838.629195
4151.443592,-9474.636058,2146.597232,-766.095498
4151.443921,-9326.594869,2072.576638,-1302.362347
4151.444251,-9474.636058,2294.638420,-2145.067394
4151.444581,-9770.718434,2294.638420,-2221.676944
4151.444911,-8882.471304,2072.576638,-2834.553343
4151.445241,-8882.471304,1776.494261,-2681.334243
4151.445571,-9696.697840,1776.494261,-1762.019645
4151.445901,-9844.739029,1776.494261,-1225.752797
4151.446231,-9844.739029,1850.514855,-842.705048
4151.446560,-9844.739029,1776.494261,-612.876398
4151.446890,-10510.924376,2368.659014,-919.314598
4151.447220,-10658.965565,1924.535449,-1302.362347
4151.447550,-10510.924376,2738.761985,-919.314598
4151.447880,-8068.244768,2886.803174,-995.924147
4151.448210,-9400.615463,1776.494261,-2451.505594
4151.448540,-10510.924376,1628.453072,-3217.601092
4151.448870,-8586.388927,1184.329507,-1915.238745
4151.449200,-9474.636058,2220.617826,-2528.115143
4151.449529,-10362.883188,1110.308913,-3294.210641
4151.449859,-9400.615463,1406.391290,-2145.067394
4151.450189,-8512.368333,1110.308913,-1608.800546
4151.450519,-9474.636058,1184.329507,-1762.019645
4151.450849,-9770.718434,1184.329507,-919.314598
4151.451179,-9474.636058,1554.432478,-536.266849
4151.451509,-10510.924376,2294.638420,0.000000
4151.451839,-10436.903782,1628.453072,-766.095498
4151.452168,-10288.862594,2294.638420,-536.266849
4151.452498,-9178.553681,1406.391290,-2604.724693
4151.452828,-9474.636058,1480.411884,-2528.115143
4151.453158,-8956.491898,1628.453072,-2911.162892
4151.453488,-9474.636058,1850.514855,-2911.162892
4151.453818,-9326.594869,2368.659014,-3140.991542
4151.454148,-9400.615463,1924.535449,-2221.676944
4151.454478,-10066.800811,2590.720797,-2221.676944
4151.454807,-10288.862594,1998.556043,-2451.505594
4151.455137,-10362.883188,1850.514855,-1072.533697
4151.455467,-9770.718434,1332.370696,-383.047749
4151.455797,-9252.574275,1036.288319,-919.314598
4151.456127,-9400.615463,1184.329507,-919.314598
4151.456457,-8660.409521,1628.453072,-1149.143247
4151.456787,-9252.574275,2146.597232,-2221.676944
4151.457117,-10362.883188,2590.720797,-2068.457845
4151.457446,-10214.842000,2442.679609,-1532.190996
4151.457776,-9844.739029,2516.700203,-1072.533697
4151.458106,-10510.924376,2960.823768,-2221.676944
4151.458436,-10214.842000,2368.659014,-2451.505594
4151.458766,-10140.821405,2368.659014,-2911.162892
4151.459096,-9474.636058,2072.576638,-3600.648841
4151.459426,-9030.512492,1924.535449,-2834.553343
4151.459756,-9030.512492,1702.473667,-1149.143247
4151.460085,-9030.512492,1702.473667,-306.438199
4151.460415,-9400.615463,1776.494261,-1532.190996
4151.460745,-9696.697840,2294.638420,-2757.943793
4151.461075,-9918.759623,2294.638420,-2374.896044
4151.461405,-10362.883188,2516.700203,-1532.190996
4151.461735,-10584.944971,2664.741391,-766.095498
4151.462065,-10584.944971,3108.864956,0.000000
4151.462395,-9992.780217,2812.782580,-1838.629195
4151.462724,-9992.780217,2738.761985,-3140.991542
4151.463054,-10066.800811,2442.679609,-3753.867940
4151.463384,-9770.718434,2220.617826,-3217.601092
4151.463714,-9326.594869,1554.432478,-1762.019645
4151.464044,-8290.306550,1924.535449,-1455.581446
4151.464374,-8956.491898,2220.617826,-1915.238745
4151.464704,-9474.636058,2368.659014,-2911.162892
4151.465034,-9770.718434,2146.597232,-2604.724693
4151.465364,-9696.697840,2294.638420,-1915.238745
4151.465693,-10140.821405,2368.659014,-536.266849
4151.466023,-11251.130318,2590.720797,995.924147
4151.466353,-11103.089130,2368.659014,766.095498
4151.466683,-9918.759623,2368.659014,-2145.067394
4151.467013,-9326.594869,2220.617826,-4060.306139
4151.467343,-9326.594869,2368.659014,-4213.525239
4151.467673,-9548.656652,2590.720797,-3217.601092
4151.468003,-9622.677246,2368.659014,-1608.800546
4151.468332,-9030.512492,2738.761985,-1302.362347
4151.468662,-8882.471304,2516.700203,-2604.724693
4151.468992,-9770.718434,2368.659014,-3753.867940
4151.469322,-10732.986159,1998.556043,-3830.477490
4151.469652,-9918.759623,1924.535449,-1685.410096
4151.469982,-9030.512492,1702.473667,-306.438199
4151.470312,-9474.636058,1924.535449,-459.657299
4151.470642,-9844.739029,2146.597232,-919.314598
4151.470971,-10140.821405,2442.679609,-1991.848295
4151.471301,-10362.883188,2442.679609,-3064.381992
4151.471631,-10510.924376,2886.803174,-3140.991542
4151.471961,-10066.800811,2368.659014,-2374.896044
4151.472291,-9770.718434,2738.761985,-1378.971896
4151.472621,-9548.656652,2368.659014,-1455.581446
4151.472951,-9548.656652,1554.432478,-2068.457845
4151.473281,-9400.615463,1258.350101,-2987.772442
4151.473610,-9178.553681,1406.391290,-3600.648841
4151.473940,-9104.533087,1406.391290,-1915.238745
4151.474270,-9548.656652,1406.391290,-766.095498
4151.474600,-9252.574275,1998.556043,-536.266849
4151.474930,-9770.718434,1776.494261,-306.438199
4151.475260,-10584.944971,1998.556043,-1378.971896
4151.475590,-11473.192101,2146.597232,-1455.581446
4151.475920,-10658.965565,1998.556043,-1302.362347
4151.476249,-9696.697840,1554.432478,-1608.800546
4151.476579,-8734.430116,1554.432478,-1685.410096
4151.476909,-8882.471304,888.247130,-1915.238745
4151.477239,-9104.533087,962.267725,-2298.286494
4151.477569,-8734.430116,814.226536,-2451.505594
4151.477899,-8882.471304,1110.308913,-2374.896044
4151.478229,-9548.656652,1332.370696,-1225.752797
4151.478559,-10362.883188,1628.453072,-919.314598
4151.478889,-10807.006753,1924.535449,-766.095498
4151.479218,-10436.903782,1776.494261,-1149.143247
4151.479548,-10732.986159,888.247130,-919.314598
4151.479878,-10214.842000,814.226536,-306.438199
4151.480208,-9770.718434,814.226536,-383.047749
4151.480538,-9030.512492,666.185348,-306.438199
4151.480868,-9326.594869,518.144159,-689.485948
4151.481198,-9178.553681,444.123565,-1608.800546
4151.481528,-9400.615463,888.247130,-1915.238745
4151.481857,-9918.759623,1628.453072,-2068.457845
4151.482187,-9992.780217,1554.432478,-2834.553343
4151.482517,-9326.594869,1332.370696,-2451.505594
4151.482847,-9474.636058,1110.308913,-2068.457845
4151.483177,-9992.780217,1332.370696,-1149.143247
4151.483507,-10362.883188,1184.329507,-995.924147
4151.483837,-9622.677246,1110.308913,-2528.115143
4151.484167,-9104.533087,1184.329507,-3294.210641
4151.484496,-8734.430116,1036.288319,-3064.381992
4151.484826,-9104.533087,1184.329507,-1838.629195
4151.485156,-9326.594869,1554.432478,-1225.752797
4151.485486,-9104.533087,1406.391290,-1762.019645
4151.485816,-9326.594869,1776.494261,-2298.286494
4151.486146,-9844.739029,2072.576638,-2604.724693
4151.486476,-10436.903782,2368.659014,-2911.162892
4151.486806,-10214.842000,2590.720797,-2604.724693
4151.487135,-9770.718434,2664.741391,-2757.943793
4151.487465,-9548.656652,2442.679609,-1991.848295
4151.487795,-9770.718434,2886.803174,-1915.238745
4151.488125,-10362.883188,2442.679609,-1991.848295
4151.488455,-9992.780217,2368.659014,-2451.505594
4151.488785,-9992.780217,2516.700203,-2451.505594
4151.489115,-9548.656652,2886.803174,-1532.190996
4151.489445,-9992.780217,3478.967927,-2374.896044
4151.489774,-9622.677246,3478.967927,-2451.505594
4151.490104,-9326.594869,3478.967927,-2221.676944
4151.490434,-9474.636058,3108.864956,-1838.629195
4151.490764,-10807.006753,3849.070898,-1225.752797
4151.491094,-11177.109724,3775.050304,-995.924147
4151.491424,-9992.780217,3775.050304,-1991.848295
4151.491754,-9178.553681,3108.864956,-2757.943793
4151.492084,-9252.574275,3182.885551,-2834.553343
4151.492414,-9622.677246,2960.823768,-1838.629195
4151.492743,-10140.821405,3330.926739,-1225.752797
4151.493073,-9030.512492,3404.947333,-2068.457845
4151.493403,-8216.285956,3256.906145,-2911.162892
4151.493733,-9252.574275,3701.029710,-3830.477490
4151.494063,-9918.759623,3849.070898,-2987.772442
4151.494393,-10584.944971,3701.029710,-1762.019645
4151.494723,-9844.739029,3849.070898,-1685.410096
4151.495053,-9104.533087,3256.906145,-1685.410096
4151.495382,-9326.594869,2442.679609,-1532.190996
4151.495712,-10288.862594,2886.803174,-1915.238745
4151.496042,-10288.862594,2442.679609,-1915.238745
4151.496372,-8956.491898,2664.741391,-2451.505594
4151.496702,-8660.409521,2516.700203,-2451.505594
4151.497032,-9178.553681,2664.741391,-1991.848295
4151.497362,-9992.780217,2960.823768,-1455.581446
4151.497692,-9474.636058,3256.906145,-1915.238745
4151.498021,-9548.656652,2368.659014,-2374.896044
4151.498351,-10140.821405,2220.617826,-1455.581446
4151.498681,-10807.006753,2220.617826,-689.485948
4151.499011,-10288.862594,1998.556043,0.000000
4151.499341,-9400.615463,1702.473667,-2068.457845
4151.499671,-7920.203579,888.247130,-3064.381992
4151.500001,-8660.409521,1184.329507,-2528.115143
4151.500331,-9030.512492,1332.370696,-1225.752797
4151.500660,-9474.636058,1406.391290,-612.876398
4151.500990,-10066.800811,1998.556043,-766.095498
4151.501320,-10658.965565,2146.597232,-1685.410096
4151.501650,-11325.150913,1924.535449,-2451.505594
4151.501980,-11103.089130,1628.453072,-2681.334243
4151.502310,-10362.883188,1480.411884,-2221.676944
4151.502640,-9770.718434,814.226536,-1149.143247
4151.502970,-8882.471304,740.205942,-1072.533697
4151.503299,-8660.409521,740.205942,-2451.505594
4151.503629,-8660.409521,148.041188,-3064.381992
4151.503959,-8956.491898,0.000000,-2221.676944
4151.504289,-9474.636058,74.020594,-1378.971896
4151.504619,-9696.697840,0.000000,-306.438199
4151.504949,-10510.924376,888.247130,229.828649
4151.505279,-10214.842000,962.267725,-536.266849
4151.505609,-9696.697840,740.205942,-2221.676944
4151.505939,-10066.800811,1332.370696,-2374.896044
4151.506268,-10658.965565,1776.494261,-1225.752797
4151.506598,-10881.027347,1184.329507,-1302.362347
4151.506928,-9844.739029,1110.308913,-2145.067394
4151.507258,-8660.409521,666.185348,-3447.429741
4151.507588,-7994.224174,0.000000,-3370.820191
4151.507918,-9696.697840,518.144159,-1915.238745
4151.508248,-9770.718434,740.205942,-689.485948
4151.508578,-9252.574275,888.247130,-766.095498
4151.508907,-8956.491898,1924.535449,-1991.848295
4151.509237,-9548.656652,1480.411884,-919.314598
4151.509567,-11843.295072,2072.576638,-459.657299
4151.509897,-11769.274478,2812.782580,-1072.533697
4151.510226,-10658.965565,2146.597232,-1991.848295
4151.510556,-9252.574275,1998.556043,-2221.676944
4151.510886,-9030.512492,2072.576638,-1991.848295
4151.511216,-9178.553681,1924.535449,-2757.943793
4151.511546,-8882.471304,2368.659014,-4136.915689
4151.511875,-8512.368333,2294.638420,-4443.353888
4151.512205,-9326.594869,1924.535449,-2451.505594
4151.512535,-9992.780217,2960.823768,-842.705048
4151.512865,-10140.821405,2664.741391,-229.828649
4151.513194,-9770.718434,3330.926739,-1915.238745
4151.513524,-9548.656652,2960.823768,-1991.848295
4151.513854,-10362.883188,2442.679609,-1225.752797
4151.514184,-10658.965565,2886.803174,-1532.190996
4151.514513,-9918.759623,3108.864956,-1915.238745
4151.514843,-8142.265362,3182.885551,-2451.505594
4151.515173,-8956.491898,3108.864956,-3217.601092
4151.515503,-9474.636058,3330.926739,-3677.258390
4151.515833,-9400.615463,3108.864956,-3140.991542
4151.516162,-9844.739029,3627.009116,-2987.772442
4151.516492,-9252.574275,3256.906145,-2834.553343
4151.516822,-9474.636058,3923.091493,-2068.457845
4151.517152,-10288.862594,2960.823768,-1532.190996
4151.517481,-10732.986159,3552.988522,-1838.629195
4151.517811,-9992.780217,3034.844362,-2451.505594
4151.518141,-9770.718434,2812.782580,-2145.067394
4151.518471,-9992.780217,2664.741391,-1302.362347
4151.518800,-9252.574275,2960.823768,-842.705048
4151.519130,-9548.656652,2960.823768,-1608.800546
4151.519460,-8438.347739,2664.741391,-3294.210641
4151.519790,-8956.491898,2812.782580,-3447.429741
4151.520119,-10140.821405,3034.844362,-2604.724693
4151.520449,-11843.295072,3256.906145,-1915.238745
4151.520779,-10658.965565,2960.823768,-1225.752797
4151.521109,-9770.718434,2368.659014,-1685.410096
4151.521439,-9474.636058,2812.782580,-2221.676944
4151.521768,-9992.780217,2590.720797,-1685.410096
4151.522098,-9992.780217,2516.700203,-1378.971896
4151.522428,-9548.656652,1850.514855,-2221.676944
4151.522758,-9178.553681,1776.494261,-2834.553343
4151.523087,-9548.656652,2072.576638,-2221.676944
4151.523417,-9548.656652,1628.453072,-1685.410096
4151.523747,-9252.574275,1850.514855,-1608.800546
4151.524077,-9918.759623,1924.535449,-1762.019645
4151.524406,-10362.883188,2368.659014,-995.924147
4151.524736,-10436.903782,1406.391290,76.609550
4151.525066,-11103.089130,1998.556043,383.047749
4151.525396,-10955.047942,1332.370696,-536.266849
4151.525726,-10288.862594,962.267725,-2221.676944
4151.526055,-8956.491898,0.000000,-2451.505594
4151.526385,-7920.203579,0.000000,-1915.238745
4151.526715,-8142.265362,222.061783,-229.828649
4151.527045,-8734.430116,222.061783,76.609550
4151.527374,-8734.430116,518.144159,-995.924147
4151.527704,-9844.739029,592.164754,-229.828649
4151.528034,-11473.192101,1184.329507,76.609550
4151.528364,-11991.336260,222.061783,229.828649
4151.528693,-10214.842000,740.205942,612.876398
4151.529023,-9178.553681,-74.020594,0.000000
4151.529353,-9252.574275,222.061783,-459.657299
4151.529683,-9474.636058,0.000000,-612.876398
4151.530013,-8660.409521,0.000000,-1838.629195
4151.530342,-8586.388927,222.061783,-1762.019645
4151.530672,-9474.636058,-296.082377,-153.219100
4151.531002,-10732.986159,296.082377,2298.286494
4151.531332,-10288.862594,74.020594,1455.581446
4151.531661,-9104.533087,-518.144159,76.609550
4151.531991,-9252.574275,0.000000,-1225.752797
4151.532321,-10881.027347,148.041188,-1072.533697
4151.532651,-10732.986159,0.000000,383.047749
4151.532980,-9622.677246,444.123565,1991.848295
4151.533310,-8438.347739,-370.102971,1378.971896
4151.533640,-9474.636058,-814.226536,1455.581446
4151.533970,-10584.944971,-666.185348,76.609550
4151.534299,-9474.636058,-1184.329507,-306.438199
4151.534629,-9030.512492,-1110.308913,229.828649
4151.534959,-9474.636058,0.000000,1225.752797
4151.535289,-10584.944971,0.000000,1455.581446
4151.535619,-11399.171507,592.164754,612.876398
4151.535948,-10214.842000,814.226536,-1225.752797
4151.536278,-9844.739029,0.000000,-1762.019645
4151.536608,-10066.800811,0.000000,-842.705048
4151.536938,-10140.821405,-296.082377,919.314598
4151.537267,-9030.512492,-518.144159,2528.115143
4151.537597,-8290.306550,-1110.308913,1608.800546
4151.537927,-8882.471304,-814.226536,-459.657299
4151.538257,-9474.636058,-1702.473667,-1225.752797
4151.538586,-9844.739029,-592.164754,-459.657299
4151.538916,-9844.739029,74.020594,1455.581446
4151.539246,-9696.697840,370.102971,1608.800546
4151.539576,-10732.986159,666.185348,689.485948
4151.539906,-10436.903782,518.144159,-306.438199
4151.540235,-10436.903782,0.000000,-766.095498
4151.540565,-10288.862594,370.102971,-1072.533697
4151.540895,-9400.615463,74.020594,-612.876398
4151.541225,-8512.368333,-370.102971,0.000000
4151.541554,-8512.368333,74.020594,459.657299
4151.541884,-9474.636058,222.061783,-842.705048
4151.542214,-9770.718434,0.000000,-1455.581446
4151.542544,-10140.821405,74.020594,-766.095498
4151.542873,-10140.821405,592.164754,766.095498
4151.543203,-10362.883188,222.061783,1072.533697
4151.543533,-9770.718434,888.247130,995.924147
4151.543863,-9400.615463,0.000000,-229.828649
4151.544192,-10288.862594,-74.020594,-383.047749
4151.544522,-10214.842000,74.020594,383.047749
4151.544852,-9400.615463,0.000000,1225.752797
4151.545182,-8586.388927,0.000000,1072.533697
4151.545512,-8882.471304,592.164754,153.219100
4151.545841,-9474.636058,-148.041188,0.000000
4151.546171,-9992.780217,518.144159,-153.219100
4151.546501,-9770.718434,296.082377,0.000000
4151.546831,-10066.800811,296.082377,1072.533697
4151.547160,-10362.883188,1184.329507,1455.581446
4151.547490,-10214.842000,1406.391290,612.876398
4151.547820,-11029.068536,1110.308913,0.000000
4151.548150,-11251.130318,1332.370696,76.609550
4151.548479,-10807.006753,1036.288319,306.438199
4151.548809,-9622.677246,148.041188,766.095498
4151.549139,-9696.697840,740.205942,306.438199
4151.549469,-8438.347739,-444.123565,-306.438199
4151.549799,-9104.533087,0.000000,459.657299
4151.550128,-10288.862594,370.102971,-383.047749
4151.550458,-9548.656652,-592.164754,-689.485948
4151.550788,-9696.697840,-592.164754,689.485948
4151.551118,-9696.697840,592.164754,1838.629195
4151.551447,-9474.636058,740.205942,2451.505594
4151.551777,-11029.068536,592.164754,1072.533697
4151.552107,-10436.903782,370.102971,-842.705048
4151.552437,-9474.636058,-518.144159,-842.705048
4151.552766,-9030.512492,74.020594,-306.438199
4151.553096,-8956.491898,-370.102971,-229.828649
4151.553426,-9400.615463,-962.267725,0.000000
4151.553756,-9400.615463,-592.164754,-306.438199
4151.554085,-8586.388927,-1332.370696,-306.438199
4151.554415,-9326.594869,-888.247130,-306.438199
4151.554745,-10510.924376,148.041188,459.657299
4151.555075,-10066.800811,-888.247130,1762.019645
4151.555405,-9770.718434,-740.205942,1532.190996
4151.555734,-9770.718434,0.000000,1838.629195
4151.556064,-11103.089130,-518.144159,1532.190996
4151.556394,-12065.356855,-1036.288319,459.657299
4151.556724,-9622.677246,-740.205942,-919.314598
4151.557053,-7920.203579,-1702.473667,-919.314598
4151.557383,-9474.636058,-962.267725,76.609550
4151.557713,-9548.656652,-740.205942,1302.362347
4151.558043,-9104.533087,-740.205942,995.924147
4151.558372,-9326.594869,0.000000,-842.705048
4151.558702,-9918.759623,296.082377,-842.705048
4151.559032,-11695.253884,-296.082377,306.438199
4151.559362,-11843.295072,666.185348,1838.629195
4151.559692,-10584.944971,222.061783,1608.800546
4151.560021,-9918.759623,-1036.288319,612.876398
4151.560351,-9622.677246,-74.020594,-153.219100
4151.560681,-9696.697840,-592.164754,0.000000
4151.561011,-9252.574275,-1184.329507,-229.828649
4151.561340,-9030.512492,222.061783,459.657299
4151.561670,-9474.636058,-370.102971,1302.362347
4151.562000,-8808.450710,-296.082377,919.314598
4151.562330,-8438.347739,592.164754,-76.609550
4151.562659,-9770.718434,0.000000,-1685.410096
4151.562989,-10881.027347,0.000000,-766.095498
4151.563319,-10140.821405,740.205942,-612.876398
4151.563649,-9178.553681,0.000000,306.438199
4151.563979,-9400.615463,222.061783,536.266849
4151.564308,-9030.512492,444.123565,76.609550
4151.564638,-9474.636058,-148.041188,0.000000
4151.564968,-9326.594869,296.082377,-459.657299
4151.565298,-9622.677246,740.205942,229.828649
4151.565627,-9474.636058,74.020594,1608.800546
4151.565957,-9918.759623,740.205942,1762.019645
4151.566287,-9252.574275,518.144159,0.000000
4151.566617,-9548.656652,0.000000,-995.924147
4151.566946,-10584.944971,888.247130,-995.924147
4151.567276,-9770.718434,888.247130,76.609550
4151.567606,-8882.471304,592.164754,153.219100
4151.567936,-9548.656652,962.267725,766.095498
4151.568265,-10658.965565,518.144159,612.876398
4151.568595,-10807.006753,296.082377,459.657299
4151.568925,-9770.718434,296.082377,-536.266849
4151.569255,-9178.553681,0.000000,-306.438199
