#time,accel_x,accel_y,accel_z
3742.966210,-9474.636058,-296.082377,306.438199
3742.966540,-9696.697840,0.000000,0.000000
3742.966870,-9622.677246,74.020594,306.438199
3742.967200,-9696.697840,296.082377,229.828649
3742.967530,-9622.677246,222.061783,76.609550
3742.967860,-9696.697840,0.000000,459.657299
3742.968190,-9548.656652,0.000000,306.438199
3742.968520,-9474.636058,-148.041188,459.657299
3742.968850,-9844.739029,0.000000,919.314598
3742.969180,-9696.697840,0.000000,306.438199
3742.969510,-9918.759623,0.000000,0.000000
3742.969840,-9844.739029,0.000000,-459.657299
3742.970170,-9622.677246,0.000000,-766.095498
3742.970500,-9696.697840,0.000000,-689.485948
3742.970830,-9844.739029,-222.061783,76.609550
3742.971160,-9548.656652,-296.082377,-306.438199
3742.971490,-9622.677246,-666.185348,-153.219100
3742.971820,-9474.636058,-444.123565,-689.485948
3742.972150,-9326.594869,-518.144159,-383.047749
3742.972480,-9548.656652,-518.144159,-612.876398
3742.972810,-9770.718434,-296.082377,-689.485948
3742.973140,-9992.780217,-370.102971,-1225.752797
3742.973470,-10214.842000,-370.102971,153.219100
3742.973800,-10214.842000,-444.123565,383.047749
3742.974130,-10362.883188,-518.144159,0.000000
3742.974460,-10066.800811,-370.102971,-1302.362347
3742.974790,-9696.697840,-518.144159,-1838.629195
3742.975120,-9548.656652,-1036.288319,-1991.848295
3742.975450,-9400.615463,-1036.288319,-1838.629195
3742.975780,-8956.491898,-1036.288319,-1378.971896
3742.976110,-8808.450710,-888.247130,-536.266849
3742.976440,-9400.615463,-1184.329507,-76.609550
3742.976770,-9548.656652,-962.267725,-229.828649
3742.977100,-9992.780217,-888.247130,-842.705048
3742.977430,-9696.697840,-740.205942,-1072.533697
3742.977760,-9844.739029,-1036.288319,-1225.752797
3742.978090,-10436.903782,-888.247130,-1072.533697
3742.978420,-10362.883188,-962.267725,-1378.971896
3742.978750,-10140.821405,-1406.391290,-1532.190996
3742.979080,-9918.759623,-1406.391290,-2374.896044
3742.979410,-9918.759623,-1702.473667,-2451.505594
3742.979740,-9770.718434,-2072.576638,-2604.724693
3742.980070,-9474.636058,-2072.576638,-2528.115143
3742.980400,-7994.224174,-2072.576638,-2145.067394
3742.980730,-8438.347739,-2072.576638,-1762.019645
3742.981060,-8586.388927,-1850.514855,-842.705048
3742.981390,-9622.677246,-1480.411884,-306.438199
3742.981720,-10214.842000,-1332.370696,76.609550
3742.982050,-11399.171507,-1554.432478,153.219100
3742.982380,-11917.315666,-1924.535449,-689.485948
3742.982710,-11991.336260,-2294.638420,-2145.067394
3742.983040,-11251.130318,-2960.823768,-3524.039291
3742.983370,-9400.615463,-3701.029710,-4749.792088
3742.983700,-7254.018232,-3849.070898,-4443.353888
3742.984030,-6883.915261,-3627.009116,-2451.505594
3742.984360,-8142.265362,-1924.535449,-995.924147
3742.984690,-9326.594869,-1258.350101,-1455.581446
3742.985020,-10584.944971,-1184.329507,-2911.162892
3742.985350,-11103.089130,-1480.411884,-4443.353888
3742.985680,-11695.253884,-2960.823768,-4826.401637
3742.986010,-11325.150913,-3849.070898,-3600.648841
3742.986340,-9770.718434,-5033.400406,-2374.896044
3742.986670,-8290.306550,-5403.503377,-1838.629195
3742.987000,-7328.038826,-4737.318029,-2068.457845
3742.987330,-7550.100608,-4441.235652,-3447.429741
3742.987660,-9104.533087,-2886.803174,-2145.067394
3742.987990,-9844.739029,-1924.535449,-1378.971896
3742.988320,-10955.047942,-1332.370696,-1149.143247
3742.988650,-11399.171507,-1554.432478,-1991.848295
3742.988980,-11325.150913,-2590.720797,-3983.696590
3742.989310,-9992.780217,-4145.153275,-5286.058936
3742.989640,-9400.615463,-5255.462188,-4596.572988
3742.989970,-9326.594869,-5107.421000,-2834.553343
3742.990300,-8068.244768,-5033.400406,-919.314598
3742.990630,-7179.997637,-4145.153275,459.657299
3742.990960,-7624.121203,-2960.823768,919.314598
3742.991290,-10510.924376,-1480.411884,612.876398
3742.991620,-12657.521608,-962.267725,-1915.238745
3742.991950,-12361.439231,-1554.432478,-2757.943793
3742.992280,-10732.986159,-2738.761985,-2757.943793
3742.992610,-9400.615463,-3627.009116,-2528.115143
3742.992940,-9474.636058,-4737.318029,-1608.800546
3742.993270,-9178.553681,-4515.256246,-1455.581446
3742.993600,-8142.265362,-3997.112087,-1378.971896
3742.993930,-8438.347739,-2146.597232,-459.657299
3742.994260,-8660.409521,-1480.411884,-536.266849
3742.994590,-10955.047942,-1036.288319,-1225.752797
3742.994920,-12065.356855,-962.267725,-612.876398
3742.995250,-10658.965565,-1702.473667,0.000000
3742.995580,-10732.986159,-1702.473667,-995.924147
3742.995910,-9918.759623,-2442.679609,-2451.505594
3742.996240,-9844.739029,-2146.597232,-2221.676944
3742.996570,-9696.697840,-1702.473667,-2911.162892
3742.996900,-10214.842000,-2220.617826,-3217.601092
3742.997230,-9696.697840,-2220.617826,-2528.115143
3742.997560,-8956.491898,-2146.597232,-842.705048
3742.997890,-9770.718434,-1628.453072,306.438199
3742.998220,-9992.780217,-1258.350101,-536.266849
3742.998550,-9252.574275,-1258.350101,-1991.848295
3742.998880,-8734.430116,-1258.350101,-3447.429741
3742.999210,-9696.697840,-1628.453072,-2298.286494
3742.999540,-9844.739029,-1480.411884,-536.266849
3742.999870,-10732.986159,-740.205942,459.657299
3743.000200,-10732.986159,-592.164754,-1302.362347
3743.000530,-10214.842000,-1036.288319,-3217.601092
3743.000860,-9844.739029,-1184.329507,-4366.744339
3743.001190,-9992.780217,-1554.432478,-5056.230287
3743.001520,-9326.594869,-1258.350101,-3753.867940
3743.001850,-9696.697840,-814.226536,-1532.190996
3743.002180,-8586.388927,-1184.329507,-2145.067394
3743.002510,-7402.059420,-1850.514855,-2987.772442
3743.002840,-7179.997637,-1924.535449,-3753.867940
3743.003170,-9178.553681,-1036.288319,-2145.067394
3743.003500,-11547.212695,-592.164754,76.609550
3743.003830,-11473.192101,-370.102971,612.876398
3743.004160,-10807.006753,-740.205942,-766.095498
3743.004490,-10658.965565,-962.267725,-2987.772442
3743.004820,-10955.047942,-1406.391290,-3753.867940
3743.005150,-11843.295072,-1850.514855,-3830.477490
3743.005480,-9252.574275,-1702.473667,-3677.258390
3743.005810,-7254.018232,-2442.679609,-2298.286494
3743.006140,-7105.977043,-2146.597232,-1685.410096
3743.006470,-7254.018232,-1850.514855,-1225.752797
3743.006800,-10066.800811,-962.267725,-1685.410096
3743.007130,-10732.986159,-1332.370696,-2451.505594
3743.007460,-10140.821405,-1406.391290,-1378.971896
3743.007790,-10288.862594,-1998.556043,306.438199
3743.008120,-11843.295072,-2146.597232,766.095498
3743.008450,-12287.418637,-2368.659014,76.609550
3743.008780,-9622.677246,-3108.864956,-1608.800546
3743.009110,-8290.306550,-2590.720797,-3064.381992
3743.009440,-9474.636058,-2072.576638,-2068.457845
3743.009770,-10140.821405,-2146.597232,-306.438199
3743.010100,-8734.430116,-1406.391290,-536.266849
3743.010430,-8512.368333,-1776.494261,-1991.848295
3743.010760,-9548.656652,-1554.432478,-3907.087040
3743.011090,-11103.089130,-2220.617826,-4060.306139
3743.011420,-9992.780217,-2368.659014,-2145.067394
3743.011750,-8734.430116,-2516.700203,0.000000
3743.012080,-9400.615463,-2368.659014,919.314598
3743.012410,-10658.965565,-2664.741391,1072.533697
3743.012740,-11103.089130,-2516.700203,459.657299
3743.013070,-10140.821405,-2516.700203,0.000000
3743.013400,-10288.862594,-2220.617826,-2451.505594
3743.013730,-10658.965565,-2368.659014,-2987.772442
3743.014060,-9474.636058,-2368.659014,-1762.019645
3743.014390,-8660.409521,-1776.494261,-766.095498
3743.014720,-8216.285956,-1776.494261,-1762.019645
3743.015050,-8068.244768,-2072.576638,-3370.820191
3743.015380,-9030.512492,-1776.494261,-2834.553343
3743.015710,-10214.842000,-1258.350101,-1302.362347
3743.016040,-11695.253884,-1554.432478,-995.924147
3743.016370,-10955.047942,-2368.659014,-383.047749
3743.016700,-9104.533087,-2590.720797,-536.266849
3743.017030,-8956.491898,-2960.823768,919.314598
3743.017360,-9548.656652,-2146.597232,1991.848295
3743.017690,-9548.656652,-1554.432478,1378.971896
3743.018020,-9030.512492,-740.205942,-306.438199
3743.018350,-8290.306550,-74.020594,-1685.410096
3743.018680,-9918.759623,74.020594,-612.876398
3743.019010,-11695.253884,740.205942,766.095498
3743.019340,-10807.006753,148.041188,306.438199
3743.019670,-9474.636058,0.000000,-1302.362347
3743.020000,-8216.285956,-888.247130,-995.924147
3743.020330,-9696.697840,-740.205942,459.657299
3743.020660,-10510.924376,-74.020594,2221.676944
3743.020989,-10362.883188,-444.123565,2681.334243
3743.021319,-9474.636058,0.000000,2221.676944
3743.021649,-9104.533087,222.061783,1302.362347
3743.021979,-9474.636058,370.102971,536.266849
3743.022308,-10214.842000,592.164754,1149.143247
3743.022638,-10066.800811,1258.350101,2068.457845
3743.022968,-9474.636058,1332.370696,1072.533697
3743.023297,-8956.491898,1184.329507,459.657299
3743.023627,-10436.903782,518.144159,995.924147
3743.023957,-11843.295072,1110.308913,995.924147
3743.024287,-10584.944971,814.226536,-76.609550
3743.024616,-9104.533087,296.082377,-766.095498
3743.024946,-8734.430116,740.205942,229.828649
3743.025276,-9992.780217,1850.514855,383.047749
3743.025605,-9844.739029,1480.411884,76.609550
3743.025935,-9326.594869,1258.350101,-1225.752797
3743.026265,-9548.656652,1628.453072,-689.485948
3743.026595,-10658.965565,1480.411884,536.266849
3743.026924,-9992.780217,1258.350101,1072.533697
3743.027254,-9030.512492,888.247130,536.266849
3743.027584,-8956.491898,1110.308913,153.219100
3743.027914,-9474.636058,1258.350101,0.000000
3743.028243,-10510.924376,1554.432478,536.266849
3743.028573,-9696.697840,1628.453072,229.828649
3743.028903,-9992.780217,1554.432478,-383.047749
3743.029232,-9400.615463,1776.494261,-153.219100
3743.029562,-9992.780217,2368.659014,-536.266849
3743.029892,-10214.842000,2072.576638,-383.047749
3743.030222,-9992.780217,1850.514855,-459.657299
3743.030551,-10214.842000,1924.535449,0.000000
3743.030881,-10362.883188,1406.391290,689.485948
3743.031211,-9992.780217,1406.391290,0.000000
3743.031541,-9104.533087,740.205942,383.047749
3743.031870,-9104.533087,592.164754,306.438199
3743.032200,-9474.636058,888.247130,459.657299
3743.032530,-9844.739029,592.164754,919.314598
3743.032859,-9770.718434,962.267725,2145.067394
3743.033189,-10140.821405,1258.350101,2528.115143
3743.033519,-10288.862594,1036.288319,1302.362347
3743.033849,-10584.944971,962.267725,919.314598
3743.034178,-10214.842000,444.123565,1378.971896
3743.034508,-9992.780217,444.123565,1149.143247
3743.034838,-9030.512492,0.000000,842.705048
3743.035168,-9474.636058,0.000000,459.657299
3743.035497,-9992.780217,74.020594,536.266849
3743.035827,-10732.986159,0.000000,-76.609550
3743.036157,-9992.780217,296.082377,-459.657299
3743.036486,-9474.636058,-222.061783,-1072.533697
3743.036816,-10066.800811,-222.061783,-76.609550
3743.037146,-9178.553681,-1406.391290,229.828649
3743.037476,-9030.512492,-814.226536,995.924147
3743.037805,-9030.512492,-1110.308913,229.828649
3743.038135,-9770.718434,-1332.370696,-536.266849
3743.038465,-9844.739029,-888.247130,-919.314598
3743.038795,-9548.656652,-1258.350101,-536.266849
3743.039124,-8364.327145,-1332.370696,229.828649
3743.039454,-9400.615463,-1110.308913,0.000000
3743.039784,-9770.718434,-1554.432478,0.000000
3743.040113,-9992.780217,-1480.411884,-383.047749
3743.040443,-9400.615463,-888.247130,-689.485948
3743.040773,-9178.553681,-1702.473667,-1149.143247
3743.041103,-9474.636058,-1776.494261,-306.438199
3743.041432,-9474.636058,-1184.329507,459.657299
3743.041762,-9326.594869,-1036.288319,229.828649
3743.042092,-9844.739029,-1184.329507,0.000000
3743.042421,-10140.821405,-518.144159,76.609550
3743.042751,-10214.842000,-814.226536,-229.828649
3743.043081,-10436.903782,-222.061783,0.000000
3743.043411,-9696.697840,-962.267725,0.000000
3743.043740,-9474.636058,-518.144159,0.000000
3743.044070,-9622.677246,0.000000,229.828649
3743.044400,-9992.780217,-1110.308913,153.219100
3743.044730,-10288.862594,-666.185348,1378.971896
3743.045059,-10658.965565,-518.144159,1302.362347
3743.045389,-9918.759623,-222.061783,1302.362347
3743.045719,-9474.636058,-740.205942,1608.800546
3743.046048,-10584.944971,0.000000,1072.533697
3743.046378,-10732.986159,-518.144159,1685.410096
3743.046708,-10214.842000,0.000000,1072.533697
3743.047038,-9548.656652,-296.082377,383.047749
3743.047367,-9474.636058,0.000000,0.000000
3743.047697,-10288.862594,0.000000,0.000000
3743.048027,-10140.821405,0.000000,-76.609550
3743.048357,-9474.636058,-444.123565,-1378.971896
3743.048686,-9252.574275,-370.102971,-919.314598
3743.049016,-9400.615463,-370.102971,-383.047749
3743.049346,-9474.636058,-370.102971,76.609550
3743.049675,-8734.430116,74.020594,383.047749
3743.050005,-8142.265362,0.000000,153.219100
3743.050335,-9104.533087,222.061783,306.438199
3743.050665,-9770.718434,296.082377,76.609550
3743.050994,-9622.677246,0.000000,-306.438199
3743.051324,-9104.533087,0.000000,0.000000
3743.051654,-9104.533087,222.061783,689.485948
3743.051984,-9474.636058,518.144159,153.219100
3743.052313,-9178.553681,1036.288319,-383.047749
3743.052643,-8734.430116,1184.329507,-1532.190996
3743.052973,-9474.636058,1554.432478,-1225.752797
3743.053302,-10584.944971,1702.473667,-766.095498
3743.053632,-10955.047942,1480.411884,0.000000
3743.053962,-10288.862594,1998.556043,306.438199
3743.054292,-9770.718434,1406.391290,-229.828649
3743.054621,-9696.697840,1332.370696,-153.219100
3743.054951,-9696.697840,1406.391290,842.705048
3743.055281,-10362.883188,1628.453072,1072.533697
3743.055610,-9992.780217,1776.494261,229.828649
3743.055940,-10214.842000,1036.288319,383.047749
3743.056270,-10066.800811,1332.370696,612.876398
3743.056600,-10214.842000,1406.391290,1149.143247
3743.056929,-10214.842000,1480.411884,766.095498
3743.057259,-9992.780217,1036.288319,995.924147
3743.057589,-9844.739029,1184.329507,1378.971896
3743.057919,-10362.883188,1110.308913,689.485948
3743.058248,-11103.089130,1406.391290,1378.971896
3743.058578,-10955.047942,592.164754,1225.752797
3743.058908,-10066.800811,0.000000,0.000000
3743.059237,-9474.636058,-74.020594,-306.438199
3743.059567,-9474.636058,-148.041188,536.266849
3743.059897,-9400.615463,-296.082377,1072.533697
3743.060227,-8586.388927,-518.144159,919.314598
3743.060556,-8808.450710,-666.185348,842.705048
3743.060886,-9326.594869,-296.082377,1072.533697
3743.061216,-9918.759623,-518.144159,842.705048
3743.061546,-9844.739029,-814.226536,153.219100
3743.061875,-9770.718434,-1184.329507,766.095498
3743.062205,-10214.842000,-814.226536,1455.581446
3743.062535,-9622.677246,-592.164754,919.314598
3743.062864,-8734.430116,-740.205942,-306.438199
3743.063194,-8660.409521,-296.082377,-995.924147
3743.063524,-9474.636058,-148.041188,-1762.019645
3743.063854,-10140.821405,0.000000,-612.876398
3743.064183,-10584.944971,444.123565,383.047749
3743.064513,-10732.986159,148.041188,229.828649
3743.064843,-10214.842000,296.082377,153.219100
3743.065173,-9992.780217,-148.041188,-995.924147
3743.065502,-10066.800811,-222.061783,0.000000
3743.065832,-11103.089130,296.082377,229.828649
3743.066162,-10955.047942,-518.144159,1072.533697
3743.066491,-10362.883188,-962.267725,1072.533697
3743.066821,-9474.636058,-370.102971,1072.533697
3743.067151,-9252.574275,-444.123565,842.705048
3743.067481,-9548.656652,-666.185348,919.314598
3743.067810,-9844.739029,0.000000,995.924147
3743.068140,-10510.924376,-74.020594,689.485948
3743.068470,-10288.862594,148.041188,459.657299
3743.068799,-10510.924376,-296.082377,1302.362347
3743.069129,-10510.924376,-444.123565,1225.752797
3743.069459,-10214.842000,-444.123565,536.266849
3743.069789,-9844.739029,-1110.308913,229.828649
3743.070118,-9696.697840,-592.164754,842.705048
3743.070448,-10214.842000,0.000000,919.314598
3743.070778,-9622.677246,-518.144159,612.876398
3743.071108,-8734.430116,0.000000,0.000000
3743.071437,-9474.636058,0.000000,-1225.752797
3743.071767,-9696.697840,74.020594,-919.314598
3743.072097,-9844.739029,-296.082377,-612.876398
3743.072426,-9844.739029,-148.041188,-612.876398
3743.072756,-9400.615463,-518.144159,-919.314598
3743.073086,-9474.636058,-444.123565,-995.924147
3743.073416,-9400.615463,-518.144159,-612.876398
3743.073745,-9474.636058,-296.082377,-689.485948
3743.074075,-8586.388927,0.000000,-995.924147
3743.074405,-8956.491898,-666.185348,-306.438199
3743.074735,-9326.594869,0.000000,306.438199
3743.075064,-9844.739029,-222.061783,459.657299
3743.075394,-9992.780217,74.020594,-536.266849
3743.075724,-9252.574275,-296.082377,-842.705048
3743.076053,-10214.842000,148.041188,-612.876398
3743.076383,-10362.883188,740.205942,-689.485948
3743.076713,-10140.821405,296.082377,76.609550
3743.077043,-9178.553681,518.144159,-536.266849
3743.077372,-10140.821405,740.205942,-612.876398
3743.077702,-11399.171507,1110.308913,-459.657299
3743.078032,-10732.986159,592.164754,306.438199
3743.078362,-9770.718434,444.123565,612.876398
3743.078691,-9548.656652,370.102971,1149.143247
3743.079021,-9548.656652,222.061783,1149.143247
3743.079351,-9400.615463,740.205942,1072.533697
3743.079680,-9918.759623,888.247130,689.485948
3743.080010,-10214.842000,1184.329507,612.876398
3743.080340,-11029.068536,1110.308913,1149.143247
3743.080670,-11843.295072,1184.329507,1149.143247
3743.080999,-10955.047942,888.247130,536.266849
3743.081329,-9696.697840,296.082377,76.609550
3743.081659,-9178.553681,0.000000,0.000000
3743.081988,-9474.636058,296.082377,536.266849
3743.082318,-9770.718434,74.020594,612.876398
3743.082648,-9030.512492,0.000000,1225.752797
3743.082978,-9844.739029,222.061783,995.924147
3743.083307,-9770.718434,0.000000,919.314598
3743.083637,-9696.697840,-444.123565,536.266849
3743.083967,-9992.780217,-444.123565,536.266849
3743.084297,-9400.615463,-666.185348,689.485948
3743.084626,-8660.409521,-962.267725,-459.657299
3743.084956,-8068.244768,-1110.308913,-612.876398
3743.085286,-9400.615463,-148.041188,383.047749
3743.085615,-9696.697840,74.020594,766.095498
3743.085945,-10066.800811,444.123565,76.609550
3743.086275,-9770.718434,0.000000,459.657299
3743.086605,-10214.842000,370.102971,229.828649
3743.086934,-10066.800811,370.102971,-612.876398
3743.087264,-9400.615463,0.000000,-612.876398
3743.087594,-9474.636058,74.020594,-536.266849
3743.087924,-9252.574275,444.123565,76.609550
3743.088253,-10214.842000,296.082377,0.000000
3743.088583,-10584.944971,814.226536,0.000000
3743.088913,-10807.006753,666.185348,-766.095498
3743.089242,-10955.047942,518.144159,-689.485948
3743.089572,-9918.759623,-74.020594,459.657299
3743.089902,-9918.759623,74.020594,689.485948
3743.090232,-8956.491898,0.000000,1225.752797
3743.090561,-9474.636058,-370.102971,919.314598
3743.090891,-9474.636058,-666.185348,1072.533697
3743.091221,-9992.780217,0.000000,919.314598
3743.091551,-10658.965565,222.061783,919.314598
3743.091880,-10584.944971,0.000000,1455.581446
3743.092210,-10807.006753,148.041188,2374.896044
3743.092540,-10140.821405,0.000000,995.924147
3743.092869,-10066.800811,-296.082377,0.000000
3743.093199,-9548.656652,-444.123565,-459.657299
3743.093529,-9992.780217,-222.061783,-459.657299
3743.093859,-9252.574275,-518.144159,229.828649
3743.094188,-8734.430116,-1110.308913,612.876398
3743.094518,-8956.491898,-222.061783,1072.533697
3743.094848,-9474.636058,-148.041188,995.924147
3743.095178,-9548.656652,-962.267725,-766.095498
3743.095507,-8882.471304,-814.226536,-995.924147
3743.095837,-9770.718434,74.020594,0.000000
3743.096167,-10214.842000,-148.041188,0.000000
3743.096496,-10214.842000,-444.123565,-306.438199
3743.096826,-9326.594869,-592.164754,-766.095498
3743.097156,-9400.615463,-296.082377,-1302.362347
3743.097486,-10140.821405,-666.185348,-536.266849
3743.097815,-9474.636058,-666.185348,229.828649
3743.098145,-9104.533087,0.000000,153.219100
3743.098475,-9474.636058,74.020594,0.000000
3743.098804,-9400.615463,0.000000,229.828649
3743.099134,-10214.842000,148.041188,-306.438199
3743.099464,-10214.842000,1036.288319,-383.047749
3743.099794,-10732.986159,518.144159,-229.828649
3743.100123,-10288.862594,0.000000,153.219100
3743.100453,-9548.656652,148.041188,229.828649
3743.100783,-9400.615463,296.082377,76.609550
3743.101113,-9326.594869,0.000000,-689.485948
3743.101442,-9696.697840,444.123565,-383.047749
3743.101772,-10288.862594,1184.329507,229.828649
3743.102102,-9844.739029,666.185348,306.438199
3743.102431,-10066.800811,444.123565,1072.533697
3743.102761,-9844.739029,518.144159,1072.533697
3743.103091,-10140.821405,888.247130,1149.143247
3743.103421,-10066.800811,518.144159,612.876398
3743.103750,-10362.883188,518.144159,0.000000
3743.104080,-10214.842000,444.123565,536.266849
3743.104410,-9992.780217,370.102971,689.485948
3743.104740,-10140.821405,296.082377,842.705048
3743.105069,-10436.903782,666.185348,536.266849
3743.105399,-9696.697840,0.000000,-536.266849
3743.105729,-9178.553681,0.000000,-689.485948
3743.106058,-9252.574275,-518.144159,-459.657299
3743.106388,-9474.636058,0.000000,995.924147
3743.106718,-9696.697840,-296.082377,459.657299
3743.107048,-9178.553681,0.000000,459.657299
3743.107377,-9696.697840,-370.102971,229.828649
3743.107707,-10584.944971,-444.123565,-995.924147
3743.108037,-9844.739029,-1036.288319,-383.047749
3743.108367,-9696.697840,-1554.432478,536.266849
3743.108696,-8660.409521,-1480.411884,919.314598
3743.109026,-8808.450710,-1036.288319,1149.143247
3743.109356,-9030.512492,-1036.288319,1149.143247
3743.109685,-8512.368333,-666.185348,153.219100
3743.110015,-9326.594869,-370.102971,76.609550
3743.110345,-9548.656652,296.082377,229.828649
3743.110675,-10807.006753,888.247130,76.609550
3743.111004,-11103.089130,592.164754,-383.047749
3743.111334,-10362.883188,74.020594,-612.876398
3743.111664,-9770.718434,148.041188,-306.438199
3743.111993,-9770.718434,518.144159,-536.266849
3743.112323,-10214.842000,592.164754,-995.924147
3743.112653,-9400.615463,222.061783,-383.047749
3743.112983,-9474.636058,222.061783,229.828649
3743.113312,-10214.842000,518.144159,1225.752797
3743.113642,-10510.924376,74.020594,1685.410096
3743.113972,-10510.924376,222.061783,2451.505594
3743.114302,-9474.636058,592.164754,1762.019645
3743.114631,-9474.636058,370.102971,919.314598
3743.114961,-9992.780217,148.041188,1149.143247
3743.115291,-10658.965565,592.164754,842.705048
3743.115620,-10436.903782,740.205942,383.047749
3743.115950,-10214.842000,222.061783,-76.609550
3743.116280,-10214.842000,74.020594,536.266849
3743.116610,-9918.759623,222.061783,919.314598
3743.116939,-9622.677246,74.020594,536.266849
3743.117269,-8734.430116,444.123565,0.000000
3743.117599,-8956.491898,222.061783,0.000000
3743.117929,-9918.759623,666.185348,-459.657299
3743.118258,-9696.697840,222.061783,-229.828649
3743.118588,-9770.718434,222.061783,306.438199
3743.118918,-9770.718434,74.020594,383.047749
3743.119247,-10140.821405,0.000000,-612.876398
3743.119577,-9030.512492,-666.185348,-383.047749
3743.119907,-8290.306550,-444.123565,306.438199
3743.120237,-9326.594869,148.041188,229.828649
3743.120566,-9770.718434,0.000000,306.438199
3743.120896,-9400.615463,222.061783,-536.266849
3743.121226,-8882.471304,0.000000,-383.047749
3743.121556,-9030.512492,370.102971,-919.314598
3743.121885,-9696.697840,518.144159,153.219100
3743.122215,-10214.842000,740.205942,-76.609550
3743.122545,-10584.944971,370.102971,0.000000
3743.122874,-10362.883188,740.205942,-842.705048
3743.123204,-9918.759623,74.020594,-306.438199
3743.123534,-10140.821405,370.102971,0.000000
3743.123864,-9696.697840,814.226536,153.219100
3743.124193,-9548.656652,148.041188,383.047749
3743.124523,-9696.697840,296.082377,536.266849
3743.124853,-10214.842000,444.123565,612.876398
3743.125183,-10658.965565,370.102971,536.266849
3743.125512,-9770.718434,0.000000,766.095498
3743.125842,-9178.553681,222.061783,919.314598
3743.126172,-9696.697840,148.041188,919.314598
3743.126502,-9844.739029,74.020594,1302.362347
3743.126831,-10584.944971,0.000000,1302.362347
3743.127161,-11029.068536,444.123565,766.095498
3743.127491,-10510.924376,-148.041188,0.000000
3743.127821,-10214.842000,-148.041188,229.828649
3743.128150,-9696.697840,-222.061783,612.876398
3743.128480,-9622.677246,-888.247130,842.705048
3743.128810,-8290.306550,-1036.288319,459.657299
3743.129140,-8512.368333,-888.247130,153.219100
3743.129469,-9844.739029,-444.123565,536.266849
3743.129799,-9770.718434,-592.164754,76.609550
3743.130129,-9104.533087,-888.247130,229.828649
3743.130459,-9178.553681,-370.102971,842.705048
3743.130788,-10362.883188,-888.247130,689.485948
3743.131118,-10214.842000,-1184.329507,459.657299
3743.131448,-9696.697840,-888.247130,612.876398
3743.131778,-9178.553681,-814.226536,0.000000
3743.132107,-8882.471304,-518.144159,-842.705048
3743.132437,-8586.388927,-518.144159,-612.876398
3743.132767,-9252.574275,0.000000,612.876398
3743.133097,-9770.718434,222.061783,0.000000
3743.133426,-9622.677246,222.061783,-689.485948
3743.133756,-10288.862594,0.000000,-383.047749
3743.134086,-9696.697840,592.164754,-459.657299
3743.134416,-10066.800811,222.061783,-612.876398
3743.134745,-11103.089130,74.020594,459.657299
3743.135075,-9918.759623,0.000000,689.485948
3743.135405,-9622.677246,74.020594,612.876398
3743.135735,-9696.697840,370.102971,306.438199
3743.136064,-9918.759623,296.082377,919.314598
3743.136394,-10066.800811,740.205942,1072.533697
3743.136724,-9474.636058,740.205942,306.438199
3743.137054,-9770.718434,444.123565,0.000000
3743.137383,-9696.697840,666.185348,536.266849
3743.137713,-10362.883188,666.185348,1225.752797
3743.138043,-10510.924376,592.164754,1532.190996
3743.138372,-9992.780217,74.020594,536.266849
3743.138702,-10362.883188,444.123565,689.485948
3743.139032,-10807.006753,370.102971,995.924147
3743.139362,-10881.027347,518.144159,1455.581446
3743.139691,-10362.883188,222.061783,1072.533697
3743.140021,-9992.780217,222.061783,536.266849
3743.140351,-9178.553681,0.000000,0.000000
3743.140681,-8586.388927,0.000000,-76.609550
3743.141010,-8660.409521,0.000000,-842.705048
3743.141340,-9548.656652,444.123565,-612.876398
3743.141670,-9918.759623,148.041188,-459.657299
3743.142000,-10066.800811,74.020594,-919.314598
3743.142329,-10436.903782,-222.061783,-689.485948
3743.142659,-9844.739029,-814.226536,-306.438199
3743.142989,-8882.471304,-740.205942,612.876398
3743.143319,-8216.285956,-888.247130,612.876398
3743.143648,-8290.306550,148.041188,0.000000
3743.143978,-8808.450710,-444.123565,459.657299
3743.144308,-9622.677246,296.082377,76.609550
3743.144638,-10140.821405,296.082377,-536.266849
3743.144967,-9918.759623,222.061783,-689.485948
3743.145297,-9474.636058,-148.041188,-459.657299
3743.145627,-9696.697840,296.082377,-306.438199
3743.145957,-9326.594869,444.123565,-536.266849
3743.146286,-9400.615463,0.000000,-612.876398
3743.146616,-9844.739029,814.226536,-76.609550
3743.146946,-10807.006753,666.185348,0.000000
3743.147276,-10510.924376,962.267725,612.876398
3743.147605,-9992.780217,222.061783,1455.581446
3743.147935,-10881.027347,1110.308913,1608.800546
3743.148265,-10584.944971,740.205942,1149.143247
3743.148595,-10510.924376,444.123565,612.876398
3743.148924,-10140.821405,666.185348,459.657299
3743.149254,-10066.800811,666.185348,1302.362347
3743.149584,-9918.759623,518.144159,995.924147
3743.149914,-9770.718434,370.102971,995.924147
3743.150243,-10510.924376,370.102971,689.485948
3743.150573,-11029.068536,666.185348,842.705048
3743.150903,-10584.944971,0.000000,919.314598
3743.151233,-9844.739029,-148.041188,842.705048
3743.151562,-9844.739029,-592.164754,842.705048
3743.151892,-9400.615463,-666.185348,919.314598
3743.152222,-9030.512492,-888.247130,766.095498
3743.152552,-8438.347739,-666.185348,0.000000
3743.152881,-8808.450710,-814.226536,0.000000
3743.153211,-10066.800811,-518.144159,612.876398
3743.153541,-10288.862594,0.000000,1225.752797
3743.153871,-10214.842000,-296.082377,536.266849
3743.154200,-9622.677246,-962.267725,-306.438199
3743.154530,-8364.327145,-1036.288319,-76.609550
3743.154860,-8956.491898,-888.247130,-459.657299
3743.155190,-9622.677246,0.000000,-383.047749
3743.155519,-9696.697840,-592.164754,-612.876398
3743.155849,-8956.491898,0.000000,-1149.143247
3743.156179,-8882.471304,0.000000,-995.924147
3743.156508,-9770.718434,148.041188,-536.266849
3743.156838,-9844.739029,-222.061783,0.000000
3743.157168,-10510.924376,0.000000,76.609550
3743.157498,-9918.759623,148.041188,0.000000
3743.157827,-9326.594869,-296.082377,-306.438199
3743.158157,-10066.800811,296.082377,0.000000
3743.158487,-10807.006753,592.164754,612.876398
3743.158817,-11103.089130,592.164754,536.266849
3743.159146,-10066.800811,296.082377,383.047749
3743.159476,-10066.800811,518.144159,0.000000
3743.159806,-9844.739029,814.226536,459.657299
3743.160136,-10140.821405,592.164754,153.219100
3743.160465,-10066.800811,888.247130,383.047749
3743.160795,-10510.924376,814.226536,689.485948
3743.161125,-10584.944971,666.185348,229.828649
3743.161455,-10955.047942,222.061783,842.705048
3743.161784,-10510.924376,222.061783,1685.410096
3743.162114,-9844.739029,148.041188,1302.362347
3743.162444,-8660.409521,-592.164754,383.047749
3743.162774,-9104.533087,222.061783,612.876398
3743.163103,-10362.883188,222.061783,919.314598
3743.163433,-10362.883188,0.000000,536.266849
3743.163763,-8956.491898,-518.144159,766.095498
3743.164093,-9622.677246,-74.020594,383.047749
3743.164422,-9474.636058,-74.020594,229.828649
3743.164752,-9474.636058,-370.102971,-383.047749
3743.165082,-9178.553681,-518.144159,-612.876398
3743.165412,-9030.512492,0.000000,-689.485948
3743.165741,-9400.615463,0.000000,-689.485948
3743.166071,-9548.656652,-518.144159,306.438199
3743.166401,-9696.697840,-666.185348,383.047749
3743.166731,-8512.368333,0.000000,153.219100
3743.167060,-8586.388927,-370.102971,0.000000
3743.167390,-9474.636058,0.000000,612.876398
3743.167720,-10066.800811,296.082377,995.924147
3743.168050,-9992.780217,592.164754,0.000000
3743.168379,-9770.718434,814.226536,76.609550
3743.168709,-10510.924376,518.144159,0.000000
3743.169039,-10807.006753,1036.288319,-229.828649
3743.169369,-9252.574275,148.041188,-842.705048
3743.169698,-9474.636058,518.144159,-383.047749
3743.170028,-9696.697840,740.205942,-229.828649
3743.170358,-9696.697840,740.205942,-76.609550
3743.170688,-9696.697840,962.267725,306.438199
3743.171017,-10214.842000,1110.308913,459.657299
3743.171347,-10658.965565,1184.329507,919.314598
3743.171677,-9918.759623,518.144159,153.219100
3743.172007,-9844.739029,888.247130,612.876398
3743.172336,-10288.862594,592.164754,1225.752797
3743.172666,-11103.089130,370.102971,1225.752797
3743.172996,-10510.924376,296.082377,1149.143247
3743.173325,-10362.883188,370.102971,1149.143247
3743.173655,-9548.656652,296.082377,536.266849
3743.173985,-9178.553681,0.000000,0.000000
3743.174315,-9252.574275,0.000000,-153.219100
3743.174644,-10066.800811,74.020594,229.828649
3743.174974,-10140.821405,0.000000,0.000000
3743.175304,-9696.697840,0.000000,153.219100
3743.175634,-9474.636058,74.020594,0.000000
3743.175963,-9548.656652,-444.123565,76.609550
3743.176293,-9474.636058,-296.082377,229.828649
3743.176623,-9992.780217,-592.164754,1072.533697
3743.176953,-10140.821405,-222.061783,919.314598
3743.177282,-10066.800811,-370.102971,-536.266849
3743.177612,-8808.450710,-888.247130,-766.095498
3743.177942,-8956.491898,-740.205942,-153.219100
3743.178272,-8364.327145,-592.164754,0.000000
3743.178601,-8734.430116,-666.185348,-383.047749
3743.178931,-9030.512492,-296.082377,0.000000
3743.179261,-9474.636058,148.041188,-383.047749
3743.179591,-10214.842000,0.000000,-689.485948
3743.179920,-9770.718434,-148.041188,-536.266849
3743.180250,-10066.800811,0.000000,229.828649
3743.180580,-10066.800811,148.041188,689.485948
3743.180910,-9696.697840,-222.061783,-229.828649
3743.181239,-9400.615463,74.020594,-689.485948
3743.181569,-9622.677246,370.102971,-766.095498
3743.181899,-10658.965565,592.164754,-306.438199
3743.182229,-9992.780217,74.020594,383.047749
3743.182558,-10140.821405,222.061783,1149.143247
3743.182888,-9770.718434,222.061783,536.266849
3743.183218,-9326.594869,0.000000,689.485948
3743.183548,-9844.739029,74.020594,1149.143247
3743.183877,-11177.109724,518.144159,766.095498
3743.184207,-11325.150913,296.082377,306.438199
3743.184537,-10584.944971,296.082377,1378.971896
3743.184867,-10658.965565,-148.041188,1608.800546
3743.185196,-10362.883188,0.000000,1149.143247
3743.185526,-9326.594869,-296.082377,0.000000
3743.185856,-9030.512492,0.000000,0.000000
3743.186186,-9844.739029,370.102971,919.314598
3743.186515,-10510.924376,296.082377,842.705048
3743.186845,-10584.944971,-148.041188,919.314598
3743.187175,-10288.862594,-444.123565,689.485948
3743.187505,-9622.677246,-444.123565,919.314598
3743.187834,-9326.594869,-1036.288319,306.438199
3743.188164,-8956.491898,-1184.329507,689.485948
3743.188494,-9104.533087,-592.164754,689.485948
3743.188824,-9696.697840,0.000000,0.000000
3743.189153,-9548.656652,-444.123565,-689.485948
3743.189483,-9622.677246,-370.102971,-689.485948
3743.189813,-9030.512492,-148.041188,-153.219100
3743.190143,-9326.594869,-370.102971,0.000000
3743.190472,-9030.512492,-296.082377,-153.219100
3743.190802,-8808.450710,-74.020594,-306.438199
3743.191132,-9548.656652,0.000000,-459.657299
3743.191461,-9992.780217,0.000000,-1072.533697
3743.191791,-9770.718434,740.205942,-689.485948
3743.192121,-9844.739029,296.082377,76.609550
3743.192451,-9548.656652,518.144159,76.609550
3743.192780,-9918.759623,518.144159,536.266849
3743.193110,-10436.903782,888.247130,-153.219100
3743.193440,-10881.027347,666.185348,-1302.362347
3743.193770,-9844.739029,888.247130,-1608.800546
3743.194099,-10140.821405,444.123565,-153.219100
3743.194429,-9696.697840,666.185348,1072.533697
3743.194759,-9252.574275,592.164754,1225.752797
3743.195089,-9474.636058,1258.350101,1149.143247
3743.195418,-10807.006753,1258.350101,-536.266849
3743.195748,-11177.109724,740.205942,-766.095498
3743.196078,-10436.903782,592.164754,306.438199
3743.196408,-10510.924376,666.185348,1532.190996
3743.196737,-10362.883188,592.164754,2145.067394
3743.197067,-9992.780217,-444.123565,919.314598
3743.197397,-9178.553681,-370.102971,1302.362347
3743.197727,-8808.450710,444.123565,919.314598
3743.198056,-9622.677246,666.185348,919.314598
3743.198386,-10140.821405,148.041188,766.095498
3743.198716,-10140.821405,444.123565,919.314598
3743.199046,-10066.800811,0.000000,306.438199
3743.199375,-9992.780217,-666.185348,-153.219100
3743.199705,-9178.553681,-814.226536,0.000000
3743.200035,-8882.471304,-666.185348,-153.219100
3743.200365,-8142.265362,-592.164754,-153.219100
3743.200694,-8364.327145,-444.123565,-306.438199
3743.201024,-9622.677246,-296.082377,0.000000
3743.201354,-9622.677246,-296.082377,76.609550
3743.201684,-9474.636058,-740.205942,459.657299
3743.202013,-8808.450710,-888.247130,612.876398
3743.202343,-9400.615463,-296.082377,459.657299
3743.202673,-10140.821405,0.000000,0.000000
3743.203003,-9178.553681,-444.123565,-919.314598
3743.203332,-9622.677246,-296.082377,-995.924147
3743.203662,-10140.821405,74.020594,-306.438199
3743.203992,-10881.027347,296.082377,536.266849
3743.204322,-10732.986159,296.082377,1225.752797
3743.204651,-9770.718434,296.082377,459.657299
3743.204981,-9992.780217,0.000000,-1072.533697
3743.205311,-9918.759623,296.082377,-766.095498
3743.205641,-9622.677246,148.041188,459.657299
3743.205970,-10362.883188,1258.350101,1225.752797
3743.206300,-10214.842000,740.205942,919.314598
3743.206630,-10436.903782,148.041188,842.705048
3743.206960,-11103.089130,740.205942,306.438199
3743.207289,-11251.130318,592.164754,0.000000
3743.207619,-11029.068536,444.123565,-153.219100
3743.207949,-9844.739029,0.000000,383.047749
3743.208279,-9474.636058,0.000000,766.095498
3743.208608,-9548.656652,0.000000,1762.019645
3743.208938,-9844.739029,-444.123565,1608.800546
3743.209268,-10584.944971,148.041188,766.095498
3743.209597,-9992.780217,-444.123565,-76.609550
3743.209927,-9178.553681,0.000000,-919.314598
3743.210257,-9178.553681,-592.164754,-919.314598
3743.210587,-9770.718434,-444.123565,612.876398
3743.210916,-8808.450710,-814.226536,766.095498
3743.211246,-8364.327145,-962.267725,459.657299
3743.211576,-8808.450710,-444.123565,153.219100
3743.211906,-10510.924376,-592.164754,0.000000
3743.212235,-10066.800811,-444.123565,-766.095498
3743.212565,-9474.636058,-666.185348,-536.266849
3743.212895,-9030.512492,-666.185348,0.000000
3743.213225,-8216.285956,-518.144159,383.047749
3743.213554,-8512.368333,-222.061783,306.438199
3743.213884,-8882.471304,74.020594,-229.828649
3743.214214,-9548.656652,222.061783,-919.314598
3743.214544,-10140.821405,444.123565,-842.705048
3743.214873,-10510.924376,222.061783,-306.438199
3743.215203,-10732.986159,222.061783,0.000000
3743.215533,-9918.759623,-74.020594,-383.047749
3743.215863,-9622.677246,148.041188,689.485948
3743.216192,-9252.574275,0.000000,153.219100
3743.216522,-9696.697840,370.102971,-383.047749
3743.216852,-9622.677246,888.247130,0.000000
3743.217182,-10214.842000,814.226536,536.266849
3743.217511,-10584.944971,592.164754,919.314598
3743.217841,-11399.171507,962.267725,1149.143247
3743.218171,-11177.109724,74.020594,919.314598
3743.218501,-9770.718434,444.123565,842.705048
3743.218830,-9104.533087,296.082377,459.657299
3743.219160,-10066.800811,592.164754,153.219100
3743.219490,-10807.006753,518.144159,536.266849
3743.219820,-10807.006753,1036.288319,1072.533697
3743.220149,-9474.636058,888.247130,229.828649
3743.220479,-9104.533087,148.041188,-76.609550
3743.220809,-9548.656652,296.082377,153.219100
3743.221139,-9770.718434,0.000000,919.314598
3743.221468,-9770.718434,0.000000,612.876398
3743.221798,-9030.512492,-444.123565,-306.438199
3743.222128,-10066.800811,-370.102971,76.609550
3743.222457,-10288.862594,-518.144159,229.828649
3743.222787,-9474.636058,-962.267725,919.314598
3743.223117,-9030.512492,-592.164754,689.485948
3743.223446,-9326.594869,-444.123565,536.266849
3743.223776,-9474.636058,-592.164754,383.047749
3743.224106,-9030.512492,-1110.308913,459.657299
3743.224435,-9030.512492,0.000000,919.314598
3743.224765,-9400.615463,-592.164754,229.828649
3743.225095,-9326.594869,-518.144159,0.000000
3743.225424,-8808.450710,-222.061783,-995.924147
3743.225754,-8956.491898,-74.020594,-1072.533697
3743.226084,-9844.739029,74.020594,-459.657299
3743.226413,-10362.883188,0.000000,0.000000
3743.226743,-10510.924376,370.102971,153.219100
3743.227073,-9622.677246,222.061783,229.828649
3743.227402,-10066.800811,444.123565,689.485948
3743.227732,-10362.883188,518.144159,0.000000
3743.228062,-10732.986159,74.020594,76.609550
3743.228391,-10140.821405,296.082377,229.828649
3743.228721,-9918.759623,518.144159,1149.143247
3743.229051,-10510.924376,962.267725,766.095498
3743.229380,-10584.944971,888.247130,612.876398
3743.229710,-10288.862594,518.144159,536.266849
3743.230040,-9844.739029,666.185348,383.047749
3743.230369,-10288.862594,444.123565,995.924147
3743.230699,-10066.800811,444.123565,1072.533697
3743.231029,-9696.697840,444.123565,1455.581446
3743.231358,-9918.759623,444.123565,2068.457845
3743.231688,-10140.821405,148.041188,1149.143247
3743.232018,-10807.006753,0.000000,1072.533697
3743.232347,-9918.759623,0.000000,919.314598
3743.232677,-9030.512492,0.000000,1072.533697
3743.233007,-9178.553681,0.000000,766.095498
3743.233336,-9622.677246,74.020594,612.876398
3743.233666,-10362.883188,148.041188,459.657299
3743.233996,-9918.759623,0.000000,-229.828649
3743.234325,-9104.533087,222.061783,-612.876398
3743.234655,-9104.533087,296.082377,-76.609550
3743.234985,-9178.553681,0.000000,306.438199
3743.235314,-9474.636058,148.041188,0.000000
3743.235644,-9474.636058,-148.041188,842.705048
3743.235974,-9548.656652,-296.082377,0.000000
3743.236303,-9474.636058,148.041188,-383.047749
3743.236633,-9178.553681,-148.041188,0.000000
3743.236963,-9252.574275,0.000000,689.485948
3743.237292,-9326.594869,0.000000,612.876398
3743.237622,-9474.636058,0.000000,-306.438199
3743.237952,-9474.636058,0.000000,-919.314598
3743.238282,-10066.800811,592.164754,-1378.971896
3743.238611,-9474.636058,740.205942,-919.314598
3743.238941,-9622.677246,592.164754,-766.095498
3743.239271,-9622.677246,592.164754,0.000000
3743.239600,-10214.842000,444.123565,-76.609550
3743.239930,-9548.656652,444.123565,-919.314598
3743.240260,-9474.636058,0.000000,229.828649
3743.240589,-10288.862594,444.123565,1072.533697
3743.240919,-10510.924376,148.041188,1838.629195
3743.241249,-9992.780217,148.041188,1149.143247
3743.241578,-9770.718434,444.123565,1608.800546
3743.241908,-10436.903782,1110.308913,842.705048
3743.242238,-11251.130318,592.164754,459.657299
3743.242567,-10362.883188,444.123565,459.657299
3743.242897,-9622.677246,370.102971,153.219100
3743.243227,-9474.636058,518.144159,383.047749
3743.243556,-10584.944971,518.144159,1149.143247
3743.243886,-11177.109724,222.061783,995.924147
3743.244216,-10510.924376,148.041188,766.095498
3743.244545,-9474.636058,-222.061783,0.000000
3743.244875,-9178.553681,-370.102971,766.095498
3743.245205,-9474.636058,-222.061783,842.705048
3743.245534,-9400.615463,0.000000,536.266849
3743.245864,-9622.677246,-518.144159,0.000000
3743.246194,-9548.656652,-148.041188,153.219100
3743.246523,-10362.883188,-592.164754,0.000000
3743.246853,-9844.739029,-666.185348,-383.047749
3743.247183,-8364.327145,-1036.288319,0.000000
3743.247512,-8734.430116,-1110.308913,0.000000
3743.247842,-9104.533087,-740.205942,153.219100
3743.248172,-9104.533087,-370.102971,1302.362347
3743.248501,-9992.780217,-1184.329507,612.876398
3743.248831,-9622.677246,-370.102971,306.438199
3743.249161,-9326.594869,296.082377,0.000000
3743.249490,-9992.780217,-222.061783,-536.266849
3743.249820,-10288.862594,74.020594,-1225.752797
3743.250150,-9474.636058,0.000000,-1455.581446
3743.250479,-9770.718434,0.000000,-1225.752797
3743.250809,-9844.739029,222.061783,-383.047749
3743.251139,-10288.862594,74.020594,306.438199
3743.251468,-10436.903782,592.164754,612.876398
3743.251798,-9400.615463,-296.082377,-383.047749
3743.252128,-9770.718434,-296.082377,0.000000
3743.252457,-9696.697840,0.000000,383.047749
3743.252787,-10436.903782,444.123565,612.876398
3743.253117,-10510.924376,518.144159,1532.190996
3743.253446,-9844.739029,740.205942,689.485948
3743.253776,-10584.944971,666.185348,-383.047749
3743.254106,-10288.862594,370.102971,-153.219100
3743.254435,-10436.903782,370.102971,0.000000
3743.254765,-9918.759623,148.041188,536.266849
3743.255095,-9474.636058,-222.061783,612.876398
3743.255424,-9400.615463,0.000000,919.314598
3743.255754,-10140.821405,370.102971,995.924147
3743.256084,-10510.924376,0.000000,306.438199
3743.256413,-9622.677246,-296.082377,229.828649
3743.256743,-9918.759623,0.000000,459.657299
3743.257073,-9770.718434,-148.041188,0.000000
3743.257402,-9252.574275,-962.267725,-76.609550
3743.257732,-8512.368333,-592.164754,0.000000
3743.258062,-9178.553681,-518.144159,-229.828649
3743.258392,-9178.553681,-444.123565,-153.219100
3743.258721,-9474.636058,-518.144159,459.657299
3743.259051,-9696.697840,-518.144159,1072.533697
3743.259381,-9326.594869,-592.164754,1072.533697
3743.259710,-9770.718434,-1036.288319,383.047749
3743.260040,-9474.636058,-444.123565,766.095498
3743.260370,-9326.594869,-592.164754,459.657299
3743.260699,-9474.636058,0.000000,229.828649
3743.261029,-8734.430116,-222.061783,153.219100
3743.261359,-9622.677246,518.144159,766.095498
3743.261688,-9844.739029,592.164754,-153.219100
3743.262018,-10584.944971,814.226536,-1302.362347
3743.262348,-9992.780217,518.144159,-1225.752797
3743.262677,-10066.800811,518.144159,-459.657299
3743.263007,-10807.006753,666.185348,153.219100
3743.263337,-10288.862594,740.205942,842.705048
3743.263666,-10510.924376,740.205942,612.876398
3743.263996,-10362.883188,1110.308913,229.828649
3743.264326,-10288.862594,1258.350101,-229.828649
3743.264655,-9992.780217,814.226536,766.095498
3743.264985,-9770.718434,814.226536,1455.581446
3743.265315,-9918.759623,888.247130,1838.629195
3743.265644,-9918.759623,962.267725,1685.410096
3743.265974,-11399.171507,814.226536,689.485948
3743.266304,-10732.986159,740.205942,-383.047749
3743.266633,-9770.718434,370.102971,-536.266849
3743.266963,-9844.739029,370.102971,536.266849
3743.267293,-10066.800811,666.185348,1455.581446
3743.267622,-9844.739029,592.164754,1149.143247
3743.267952,-9474.636058,148.041188,383.047749
3743.268282,-9400.615463,518.144159,-229.828649
3743.268611,-9252.574275,444.123565,-153.219100
3743.268941,-9844.739029,222.061783,-76.609550
3743.269271,-9844.739029,148.041188,459.657299
3743.269600,-9474.636058,148.041188,306.438199
3743.269930,-8660.409521,0.000000,-306.438199
3743.270260,-8882.471304,-148.041188,-306.438199
3743.270589,-9548.656652,0.000000,0.000000
3743.270919,-9030.512492,-296.082377,536.266849
3743.271249,-8660.409521,0.000000,536.266849
3743.271578,-9696.697840,74.020594,1225.752797
3743.271908,-10140.821405,-74.020594,1225.752797
3743.272238,-10436.903782,0.000000,229.828649
3743.272567,-9474.636058,74.020594,-612.876398
3743.272897,-9548.656652,148.041188,-766.095498
3743.273227,-9548.656652,222.061783,-459.657299
3743.273556,-9474.636058,0.000000,-612.876398
3743.273886,-9770.718434,148.041188,-229.828649
3743.274216,-10140.821405,518.144159,-459.657299
3743.274545,-10214.842000,296.082377,-842.705048
3743.274875,-9548.656652,-148.041188,-919.314598
3743.275205,-10140.821405,-222.061783,306.438199
3743.275534,-10732.986159,296.082377,1991.848295
3743.275864,-10807.006753,-222.061783,612.876398
3743.276194,-9030.512492,-518.144159,153.219100
3743.276523,-9252.574275,222.061783,306.438199
3743.276853,-10584.944971,296.082377,459.657299
3743.277183,-10807.006753,0.000000,536.266849
3743.277512,-10732.986159,148.041188,306.438199
3743.277842,-10140.821405,-444.123565,536.266849
3743.278172,-10214.842000,-1036.288319,766.095498
3743.278501,-9770.718434,-1184.329507,995.924147
3743.278831,-9918.759623,-1036.288319,229.828649
3743.279161,-9030.512492,-740.205942,0.000000
3743.279491,-8586.388927,-888.247130,0.000000
3743.279820,-10140.821405,-592.164754,689.485948
3743.280150,-10658.965565,-222.061783,383.047749
3743.280480,-10436.903782,-666.185348,612.876398
3743.280809,-9770.718434,-740.205942,459.657299
3743.281139,-9104.533087,-962.267725,-229.828649
3743.281469,-9326.594869,-1406.391290,-383.047749
3743.281798,-8068.244768,-1406.391290,0.000000
3743.282128,-8512.368333,-1184.329507,76.609550
3743.282458,-9326.594869,-296.082377,766.095498
3743.282787,-10066.800811,74.020594,689.485948
3743.283117,-9918.759623,0.000000,612.876398
3743.283447,-9474.636058,148.041188,-76.609550
3743.283776,-10066.800811,148.041188,-153.219100
3743.284106,-9770.718434,370.102971,459.657299
3743.284436,-9918.759623,370.102971,459.657299
3743.284765,-9252.574275,740.205942,229.828649
3743.285095,-8956.491898,444.123565,-689.485948
3743.285425,-9696.697840,1036.288319,-995.924147
3743.285754,-10881.027347,888.247130,-842.705048
3743.286084,-11325.150913,1184.329507,-766.095498
3743.286414,-9548.656652,888.247130,0.000000
3743.286743,-9622.677246,592.164754,766.095498
3743.287073,-9474.636058,592.164754,995.924147
3743.287403,-9770.718434,592.164754,995.924147
3743.287732,-9696.697840,370.102971,1302.362347
3743.288062,-10510.924376,1110.308913,1149.143247
3743.288392,-10658.965565,814.226536,153.219100
3743.288721,-9918.759623,814.226536,1225.752797
3743.289051,-10066.800811,962.267725,1225.752797
3743.289381,-9770.718434,888.247130,995.924147
3743.289710,-9326.594869,1184.329507,-229.828649
3743.290040,-9770.718434,666.185348,-612.876398
3743.290370,-9844.739029,740.205942,153.219100
3743.290699,-10362.883188,814.226536,536.266849
3743.291029,-9918.759623,888.247130,229.828649
3743.291359,-9770.718434,148.041188,-76.609550
3743.291688,-9918.759623,444.123565,-229.828649
3743.292018,-9474.636058,0.000000,-766.095498
3743.292348,-9178.553681,-222.061783,-612.876398
3743.292677,-8882.471304,370.102971,0.000000
3743.293007,-9992.780217,-148.041188,459.657299
3743.293337,-9918.759623,0.000000,0.000000
3743.293666,-9622.677246,-148.041188,-383.047749
3743.293996,-9326.594869,0.000000,0.000000
3743.294326,-9178.553681,-666.185348,153.219100
3743.294655,-8882.471304,-740.205942,306.438199
3743.294985,-9548.656652,-740.205942,766.095498
3743.295315,-9770.718434,370.102971,383.047749
3743.295644,-8956.491898,-592.164754,-153.219100
3743.295974,-9474.636058,0.000000,-229.828649
3743.296304,-10362.883188,0.000000,153.219100
3743.296633,-10658.965565,0.000000,459.657299
3743.296963,-9326.594869,148.041188,612.876398
3743.297293,-9844.739029,444.123565,0.000000
3743.297622,-10807.006753,296.082377,-842.705048
3743.297952,-10807.006753,0.000000,-1225.752797
3743.298282,-9992.780217,-148.041188,-306.438199
3743.298611,-9474.636058,-296.082377,612.876398
3743.298941,-9474.636058,-222.061783,536.266849
3743.299271,-9622.677246,-962.267725,995.924147
3743.299600,-9622.677246,296.082377,1149.143247
3743.299930,-9844.739029,-296.082377,1532.190996
3743.300260,-10140.821405,74.020594,612.876398
3743.300590,-10436.903782,-370.102971,1072.533697
3743.300919,-10658.965565,74.020594,1685.410096
3743.301249,-9992.780217,296.082377,1991.848295
3743.301579,-10362.883188,-444.123565,536.266849
3743.301908,-10436.903782,-148.041188,153.219100
3743.302238,-9770.718434,-592.164754,-842.705048
3743.302568,-9474.636058,74.020594,-1455.581446
3743.302897,-9252.574275,-444.123565,-229.828649
3743.303227,-9696.697840,148.041188,383.047749
3743.303557,-9030.512492,-296.082377,383.047749
3743.303886,-9104.533087,0.000000,0.000000
3743.304216,-9770.718434,0.000000,306.438199
3743.304546,-10436.903782,-888.247130,153.219100
3743.304875,-9474.636058,-592.164754,153.219100
3743.305205,-9030.512492,-1110.308913,766.095498
3743.305535,-9178.553681,-444.123565,1302.362347
3743.305864,-9104.533087,-444.123565,1378.971896
3743.306194,-9252.574275,-592.164754,919.314598
3743.306524,-8660.409521,222.061783,306.438199
3743.306853,-8956.491898,518.144159,-536.266849
3743.307183,-10214.842000,518.144159,-459.657299
3743.307513,-9474.636058,370.102971,-612.876398
3743.307842,-9844.739029,296.082377,-536.266849
3743.308172,-9696.697840,1036.288319,-842.705048
3743.308502,-9770.718434,222.061783,-766.095498
3743.308831,-10140.821405,666.185348,-383.047749
3743.309161,-10510.924376,888.247130,-612.876398
3743.309491,-10288.862594,962.267725,-689.485948
3743.309820,-9992.780217,1554.432478,1072.533697
3743.310150,-11547.212695,814.226536,459.657299
3743.310480,-10066.800811,148.041188,-306.438199
3743.310809,-9178.553681,444.123565,383.047749
3743.311139,-9696.697840,740.205942,919.314598
3743.311469,-10584.944971,518.144159,229.828649
3743.311798,-10362.883188,666.185348,-229.828649
3743.312128,-9844.739029,0.000000,689.485948
3743.312458,-9400.615463,0.000000,612.876398
3743.312787,-10214.842000,370.102971,536.266849
3743.313117,-10140.821405,-148.041188,536.266849
3743.313447,-9918.759623,370.102971,689.485948
3743.313776,-10214.842000,148.041188,153.219100
3743.314106,-9474.636058,-370.102971,0.000000
3743.314436,-9918.759623,148.041188,-76.609550
3743.314765,-10140.821405,74.020594,0.000000
3743.315095,-9696.697840,0.000000,-153.219100
3743.315425,-9326.594869,-518.144159,-919.314598
3743.315754,-9252.574275,-296.082377,-306.438199
3743.316084,-8660.409521,-666.185348,229.828649
3743.316414,-9844.739029,0.000000,689.485948
3743.316743,-9030.512492,-666.185348,459.657299
3743.317073,-10066.800811,-740.205942,0.000000
3743.317403,-9770.718434,0.000000,76.609550
3743.317732,-9844.739029,-1110.308913,153.219100
3743.318062,-9474.636058,-592.164754,689.485948
3743.318392,-7476.080014,-1036.288319,306.438199
3743.318721,-8438.347739,0.000000,-153.219100
3743.319051,-9104.533087,518.144159,0.000000
3743.319381,-10955.047942,296.082377,-612.876398
3743.319710,-11473.192101,518.144159,-689.485948
3743.320040,-9844.739029,74.020594,-689.485948
3743.320370,-10807.006753,518.144159,76.609550
3743.320700,-10510.924376,222.061783,306.438199
3743.321030,-9326.594869,-222.061783,0.000000
3743.321359,-9030.512492,0.000000,76.609550
3743.321689,-10140.821405,370.102971,459.657299
3743.322019,-11325.150913,888.247130,1378.971896
3743.322349,-10066.800811,740.205942,1072.533697
3743.322679,-9030.512492,592.164754,1378.971896
3743.323008,-9400.615463,370.102971,612.876398
3743.323338,-10436.903782,666.185348,229.828649
3743.323668,-11177.109724,666.185348,919.314598
3743.323998,-10955.047942,592.164754,306.438199
3743.324328,-9918.759623,74.020594,383.047749
3743.324657,-9770.718434,-370.102971,842.705048
3743.324987,-9844.739029,-296.082377,1302.362347
3743.325317,-9400.615463,-74.020594,995.924147
3743.325647,-9030.512492,-518.144159,0.000000
3743.325977,-8660.409521,-148.041188,229.828649
3743.326307,-10066.800811,-296.082377,0.000000
3743.326636,-9548.656652,222.061783,383.047749
3743.326966,-9326.594869,-814.226536,1149.143247
3743.327296,-8586.388927,-370.102971,842.705048
3743.327626,-8882.471304,-740.205942,76.609550
3743.327956,-10214.842000,0.000000,0.000000
3743.328285,-9844.739029,-962.267725,383.047749
3743.328615,-10066.800811,-370.102971,919.314598
3743.328945,-9474.636058,-296.082377,612.876398
3743.329275,-9030.512492,-444.123565,229.828649
3743.329605,-9104.533087,296.082377,76.609550
3743.329934,-9326.594869,444.123565,-383.047749
3743.330264,-9326.594869,592.164754,-1762.019645
3743.330594,-9326.594869,592.164754,-1378.971896
3743.330924,-10658.965565,814.226536,-766.095498
3743.331254,-11177.109724,296.082377,459.657299
3743.331583,-10436.903782,296.082377,-306.438199
3743.331913,-9474.636058,296.082377,-612.876398
3743.332243,-9918.759623,592.164754,-766.095498
3743.332573,-10732.986159,148.041188,229.828649
3743.332903,-9770.718434,518.144159,76.609550
3743.333232,-9400.615463,592.164754,459.657299
3743.333562,-9326.594869,1406.391290,689.485948
3743.333892,-11029.068536,1110.308913,612.876398
3743.334222,-10955.047942,592.164754,919.314598
3743.334552,-9622.677246,592.164754,-536.266849
3743.334882,-9474.636058,666.185348,-689.485948
3743.335211,-9548.656652,296.082377,-306.438199
3743.335541,-10510.924376,592.164754,459.657299
3743.335871,-9844.739029,1036.288319,1072.533697
3743.336201,-9622.677246,148.041188,383.047749
3743.336531,-9992.780217,666.185348,766.095498
3743.336860,-10288.862594,592.164754,1225.752797
3743.337190,-10732.986159,0.000000,842.705048
3743.337520,-9548.656652,-370.102971,766.095498
3743.337850,-9252.574275,-296.082377,459.657299
3743.338180,-8956.491898,-592.164754,383.047749
3743.338509,-9178.553681,-666.185348,-383.047749
3743.338839,-9104.533087,-518.144159,153.219100
3743.339169,-9474.636058,-148.041188,689.485948
3743.339499,-9548.656652,-592.164754,0.000000
3743.339829,-9030.512492,-1110.308913,0.000000
3743.340158,-9474.636058,-518.144159,383.047749
3743.340488,-9326.594869,-444.123565,842.705048
3743.340818,-9548.656652,-592.164754,76.609550
3743.341148,-9400.615463,-296.082377,153.219100
3743.341478,-9326.594869,-444.123565,0.000000
3743.341808,-9770.718434,-148.041188,459.657299
3743.342137,-9622.677246,-296.082377,-536.266849
3743.342467,-9844.739029,222.061783,0.000000
3743.342797,-9622.677246,148.041188,0.000000
3743.343127,-10288.862594,0.000000,-383.047749
3743.343457,-10584.944971,222.061783,0.000000
3743.343786,-10214.842000,296.082377,229.828649
3743.344116,-10288.862594,-296.082377,-536.266849
3743.344446,-9696.697840,518.144159,0.000000
3743.344776,-10881.027347,296.082377,536.266849
3743.345106,-10436.903782,370.102971,229.828649
3743.345435,-9844.739029,0.000000,-76.609550
3743.345765,-10066.800811,-222.061783,612.876398
3743.346095,-10214.842000,0.000000,1838.629195
3743.346425,-10510.924376,0.000000,1302.362347
3743.346755,-8956.491898,-444.123565,1149.143247
3743.347084,-9178.553681,-444.123565,842.705048
3743.347414,-10140.821405,0.000000,1378.971896
3743.347744,-11177.109724,0.000000,1225.752797
3743.348074,-11399.171507,518.144159,1608.800546
3743.348404,-10140.821405,0.000000,536.266849
3743.348733,-9326.594869,0.000000,-919.314598
3743.349063,-8290.306550,0.000000,-919.314598
3743.349393,-9400.615463,74.020594,0.000000
3743.349723,-9400.615463,148.041188,995.924147
3743.350053,-9474.636058,518.144159,842.705048
3743.350383,-9178.553681,0.000000,766.095498
3743.350712,-9992.780217,370.102971,1302.362347
3743.351042,-10955.047942,-148.041188,612.876398
3743.351372,-9696.697840,0.000000,306.438199
3743.351702,-8808.450710,-518.144159,0.000000
3743.352032,-8660.409521,148.041188,0.000000
3743.352361,-8734.430116,370.102971,1225.752797
3743.352691,-8586.388927,370.102971,1072.533697
3743.353021,-9474.636058,1850.514855,76.609550
3743.353351,-10732.986159,1184.329507,-1149.143247
3743.353681,-10510.924376,888.247130,-919.314598
3743.354010,-10510.924376,1036.288319,0.000000
3743.354340,-10436.903782,740.205942,229.828649
3743.354670,-9474.636058,592.164754,-459.657299
3743.355000,-8956.491898,444.123565,0.000000
3743.355330,-9326.594869,1110.308913,0.000000
3743.355659,-10584.944971,1406.391290,-306.438199
3743.355989,-10584.944971,1258.350101,76.609550
3743.356319,-10807.006753,740.205942,153.219100
3743.356649,-10214.842000,1110.308913,0.000000
3743.356979,-9918.759623,444.123565,1762.019645
3743.357309,-9770.718434,0.000000,1302.362347
3743.357638,-9326.594869,74.020594,1225.752797
3743.357968,-9474.636058,370.102971,229.828649
3743.358298,-9104.533087,222.061783,229.828649
3743.358628,-10140.821405,370.102971,459.657299
3743.358958,-10658.965565,740.205942,689.485948
3743.359287,-10066.800811,148.041188,-459.657299
3743.359617,-9622.677246,-370.102971,-919.314598
3743.359947,-9844.739029,0.000000,-76.609550
3743.360277,-10066.800811,-444.123565,-919.314598
3743.360607,-8734.430116,-1110.308913,-766.095498
3743.360936,-7846.182985,-1110.308913,-1302.362347
3743.361266,-9030.512492,-962.267725,-383.047749
3743.361596,-9104.533087,-1184.329507,0.000000
3743.361926,-9622.677246,-1184.329507,612.876398
3743.362256,-9844.739029,-592.164754,612.876398
3743.362585,-10214.842000,-1036.288319,0.000000
3743.362915,-9918.759623,-1036.288319,-383.047749
3743.363245,-9474.636058,-1554.432478,536.266849
3743.363575,-9252.574275,-1258.350101,919.314598
3743.363905,-9030.512492,-1258.350101,0.000000
3743.364234,-9252.574275,-1406.391290,-306.438199
3743.364564,-9400.615463,-814.226536,-306.438199
3743.364894,-9474.636058,-962.267725,-689.485948
3743.365224,-9252.574275,-222.061783,306.438199
3743.365554,-10658.965565,0.000000,1072.533697
3743.365884,-11177.109724,0.000000,229.828649
3743.366213,-10510.924376,0.000000,0.000000
3743.366543,-9918.759623,0.000000,0.000000
3743.366873,-11029.068536,370.102971,689.485948
3743.367203,-11769.274478,74.020594,536.266849
3743.367533,-10510.924376,0.000000,383.047749
3743.367862,-9474.636058,74.020594,919.314598
3743.368192,-9844.739029,370.102971,1072.533697
3743.368522,-10584.944971,74.020594,306.438199
3743.368852,-10510.924376,370.102971,536.266849
3743.369182,-9474.636058,0.000000,536.266849
3743.369511,-9326.594869,0.000000,612.876398
3743.369841,-9622.677246,-222.061783,842.705048
3743.370171,-10362.883188,-222.061783,1378.971896
3743.370501,-10066.800811,-148.041188,1225.752797
3743.370831,-9696.697840,0.000000,229.828649
3743.371160,-9844.739029,0.000000,919.314598
3743.371490,-9770.718434,74.020594,1378.971896
3743.371820,-9992.780217,74.020594,1225.752797
3743.372150,-8882.471304,370.102971,153.219100
3743.372480,-9104.533087,0.000000,-536.266849
3743.372810,-9178.553681,518.144159,-1225.752797
3743.373139,-9400.615463,444.123565,-1762.019645
3743.373469,-8734.430116,148.041188,-1225.752797
3743.373799,-8734.430116,0.000000,-919.314598
3743.374129,-9326.594869,222.061783,-919.314598
3743.374459,-8438.347739,74.020594,-383.047749
3743.374788,-9104.533087,0.000000,0.000000
3743.375118,-10288.862594,148.041188,459.657299
3743.375448,-9548.656652,0.000000,0.000000
3743.375778,-9178.553681,-370.102971,-306.438199
3743.376108,-9030.512492,0.000000,153.219100
3743.376437,-8956.491898,-444.123565,229.828649
3743.376767,-8734.430116,518.144159,-229.828649
3743.377097,-9104.533087,666.185348,306.438199
3743.377427,-10214.842000,888.247130,0.000000
3743.377757,-10807.006753,1628.453072,459.657299
3743.378086,-11251.130318,518.144159,76.609550
3743.378416,-11103.089130,1258.350101,306.438199
3743.378746,-10658.965565,1110.308913,-229.828649
3743.379076,-10881.027347,666.185348,-459.657299
3743.379406,-9770.718434,370.102971,0.000000
3743.379735,-9622.677246,740.205942,0.000000
3743.380065,-9844.739029,962.267725,-76.609550
3743.380395,-9696.697840,518.144159,-76.609550
3743.380725,-10288.862594,1036.288319,459.657299
3743.381055,-10140.821405,444.123565,1532.190996
3743.381385,-11103.089130,444.123565,1838.629195
3743.381714,-10732.986159,-740.205942,1915.238745
3743.382044,-10066.800811,1332.370696,2987.772442
3743.382374,-10510.924376,-296.082377,1915.238745
3743.382704,-9548.656652,-888.247130,383.047749
3743.383034,-9400.615463,-296.082377,689.485948
3743.383363,-9844.739029,222.061783,919.314598
3743.383693,-9696.697840,-148.041188,229.828649
3743.384023,-8956.491898,-296.082377,229.828649
3743.384353,-8956.491898,0.000000,383.047749
3743.384683,-8808.450710,148.041188,-76.609550
3743.385012,-9622.677246,-370.102971,-1149.143247
3743.385342,-9326.594869,-74.020594,-1072.533697
3743.385672,-9548.656652,0.000000,0.000000
3743.386002,-9696.697840,0.000000,306.438199
3743.386332,-9622.677246,-740.205942,1225.752797
3743.386661,-9992.780217,0.000000,1225.752797
3743.386991,-9104.533087,-148.041188,0.000000
3743.387321,-8586.388927,-814.226536,-459.657299
3743.387651,-9326.594869,148.041188,0.000000
3743.387981,-10140.821405,444.123565,766.095498
3743.388311,-9844.739029,666.185348,459.657299
3743.388640,-9178.553681,296.082377,0.000000
3743.388970,-9474.636058,740.205942,0.000000
3743.389300,-10362.883188,518.144159,-919.314598
3743.389630,-10510.924376,592.164754,-919.314598
3743.389960,-10288.862594,592.164754,536.266849
3743.390289,-9918.759623,74.020594,995.924147
3743.390619,-9474.636058,444.123565,1302.362347
3743.390949,-9770.718434,148.041188,2451.505594
3743.391279,-10732.986159,592.164754,1608.800546
3743.391609,-9474.636058,592.164754,766.095498
3743.391938,-9622.677246,222.061783,383.047749
3743.392268,-9770.718434,740.205942,842.705048
3743.392598,-10881.027347,592.164754,1532.190996
3743.392928,-11325.150913,814.226536,1378.971896
3743.393258,-10214.842000,296.082377,306.438199
3743.393587,-9844.739029,518.144159,-536.266849
3743.393917,-10140.821405,222.061783,-536.266849
3743.394247,-10436.903782,148.041188,-229.828649
3743.394577,-10288.862594,148.041188,612.876398
3743.394907,-10066.800811,-296.082377,0.000000
3743.395236,-9178.553681,-518.144159,-229.828649
3743.395566,-8882.471304,-592.164754,-306.438199
3743.395896,-9326.594869,-444.123565,-612.876398
3743.396226,-9474.636058,-666.185348,-842.705048
3743.396556,-8364.327145,-1184.329507,-1532.190996
3743.396886,-8512.368333,-1184.329507,0.000000
3743.397215,-9992.780217,-666.185348,536.266849
3743.397545,-10362.883188,-1036.288319,536.266849
3743.397875,-9326.594869,-1776.494261,306.438199
3743.398205,-8882.471304,-962.267725,306.438199
3743.398535,-8438.347739,-1110.308913,0.000000
3743.398864,-9252.574275,-962.267725,-995.924147
3743.399194,-9178.553681,-444.123565,-383.047749
3743.399524,-9252.574275,370.102971,-383.047749
3743.399854,-9992.780217,148.041188,-1225.752797
3743.400184,-9844.739029,148.041188,-1149.143247
3743.400513,-10214.842000,0.000000,-766.095498
3743.400843,-9844.739029,518.144159,0.000000
3743.401173,-10362.883188,0.000000,0.000000
3743.401503,-10881.027347,444.123565,383.047749
3743.401833,-10732.986159,814.226536,766.095498
3743.402162,-10584.944971,888.247130,0.000000
3743.402492,-10436.903782,814.226536,0.000000
3743.402822,-10732.986159,888.247130,0.000000
3743.403152,-10214.842000,518.144159,536.266849
3743.403482,-10288.862594,296.082377,1608.800546
3743.403812,-9918.759623,74.020594,1762.019645
3743.404141,-9992.780217,370.102971,536.266849
3743.404471,-9918.759623,222.061783,-229.828649
3743.404801,-9178.553681,0.000000,0.000000
3743.405131,-10362.883188,-74.020594,1072.533697
3743.405461,-10584.944971,222.061783,1685.410096
3743.405790,-9474.636058,-518.144159,1608.800546
3743.406120,-9326.594869,148.041188,1762.019645
3743.406450,-9474.636058,0.000000,689.485948
3743.406780,-10066.800811,0.000000,-383.047749
3743.407110,-9104.533087,-222.061783,-689.485948
3743.407439,-9326.594869,0.000000,0.000000
3743.407769,-9474.636058,0.000000,689.485948
3743.408099,-9400.615463,-814.226536,612.876398
3743.408429,-8586.388927,-592.164754,766.095498
3743.408759,-9104.533087,0.000000,0.000000
3743.409088,-9696.697840,0.000000,-1149.143247
3743.409418,-9474.636058,-666.185348,-689.485948
3743.409748,-9178.553681,-148.041188,612.876398
3743.410078,-8956.491898,-296.082377,919.314598
3743.410408,-9696.697840,-222.061783,229.828649
3743.410737,-9474.636058,-148.041188,-153.219100
3743.411067,-9252.574275,0.000000,-459.657299
3743.411397,-9918.759623,296.082377,-536.266849
3743.411727,-9770.718434,444.123565,76.609550
3743.412057,-10510.924376,592.164754,306.438199
3743.412387,-9844.739029,518.144159,766.095498
3743.412716,-10214.842000,444.123565,0.000000
3743.413046,-10584.944971,296.082377,153.219100
3743.413376,-10732.986159,814.226536,-459.657299
3743.413706,-10288.862594,296.082377,-995.924147
3743.414036,-9400.615463,74.020594,-306.438199
3743.414365,-9918.759623,74.020594,1455.581446
3743.414695,-10362.883188,296.082377,2068.457845
3743.415025,-10362.883188,222.061783,995.924147
3743.415355,-10584.944971,222.061783,1378.971896
3743.415685,-10584.944971,666.185348,536.266849
3743.416014,-11029.068536,74.020594,383.047749
3743.416344,-10436.903782,74.020594,842.705048
3743.416674,-10510.924376,-592.164754,1378.971896
3743.417004,-10066.800811,-222.061783,919.314598
3743.417334,-9326.594869,-666.185348,0.000000
3743.417663,-8956.491898,-592.164754,0.000000
3743.417993,-9030.512492,74.020594,-612.876398
3743.418323,-10214.842000,444.123565,-689.485948
3743.418653,-10214.842000,296.082377,229.828649
3743.418983,-10288.862594,0.000000,536.266849
3743.419313,-9400.615463,0.000000,459.657299
3743.419642,-9326.594869,-962.267725,-229.828649
3743.419972,-8956.491898,-1036.288319,-536.266849
3743.420302,-8660.409521,-518.144159,-842.705048
3743.420632,-8586.388927,-592.164754,-1455.581446
3743.420962,-8438.347739,-148.041188,0.000000
3743.421291,-9770.718434,296.082377,536.266849
3743.421621,-9548.656652,370.102971,459.657299
3743.421951,-9252.574275,222.061783,0.000000
3743.422281,-9326.594869,74.020594,0.000000
3743.422611,-10066.800811,296.082377,229.828649
3743.422941,-9548.656652,0.000000,-76.609550
3743.423271,-8956.491898,0.000000,-536.266849
3743.423600,-9474.636058,888.247130,-383.047749
3743.423930,-10066.800811,962.267725,76.609550
3743.424260,-10288.862594,666.185348,0.000000
3743.424590,-9400.615463,740.205942,0.000000
3743.424920,-9030.512492,1332.370696,229.828649
3743.425250,-10066.800811,1258.350101,76.609550
3743.425580,-10881.027347,1332.370696,0.000000
3743.425910,-11399.171507,1258.350101,153.219100
3743.426240,-10510.924376,1036.288319,76.609550
3743.426570,-9770.718434,296.082377,229.828649
3743.426900,-10214.842000,296.082377,1072.533697
3743.427229,-10732.986159,444.123565,1532.190996
3743.427559,-10288.862594,222.061783,919.314598
3743.427889,-8882.471304,-296.082377,0.000000
3743.428219,-10214.842000,296.082377,689.485948
3743.428549,-10955.047942,444.123565,1685.410096
3743.428879,-10658.965565,-222.061783,1302.362347
3743.429209,-8586.388927,-666.185348,306.438199
3743.429539,-9030.512492,-222.061783,0.000000
3743.429869,-9696.697840,-148.041188,-919.314598
3743.430199,-9844.739029,-666.185348,-612.876398
3743.430529,-9622.677246,-148.041188,76.609550
3743.430858,-9474.636058,-740.205942,459.657299
3743.431188,-9548.656652,-888.247130,383.047749
3743.431518,-8882.471304,-1184.329507,1072.533697
3743.431848,-9474.636058,-962.267725,842.705048
3743.432178,-9252.574275,-1110.308913,0.000000
3743.432508,-8734.430116,-888.247130,-689.485948
3743.432838,-9474.636058,-888.247130,-153.219100
3743.433168,-9770.718434,-296.082377,689.485948
3743.433498,-9474.636058,-518.144159,0.000000
3743.433828,-9104.533087,-1332.370696,0.000000
3743.434158,-8956.491898,0.000000,-536.266849
3743.434487,-9252.574275,-814.226536,-766.095498
3743.434817,-10214.842000,-370.102971,-842.705048
3743.435147,-10436.903782,0.000000,0.000000
3743.435477,-10214.842000,444.123565,-76.609550
3743.435807,-9400.615463,74.020594,-612.876398
3743.436137,-10066.800811,0.000000,0.000000
3743.436467,-10214.842000,740.205942,536.266849
3743.436797,-10214.842000,518.144159,-383.047749
3743.437127,-9548.656652,740.205942,-1149.143247
3743.437457,-10140.821405,148.041188,0.000000
3743.437787,-10436.903782,1036.288319,995.924147
3743.438116,-10510.924376,592.164754,995.924147
3743.438446,-10881.027347,222.061783,842.705048
3743.438776,-10510.924376,370.102971,766.095498
3743.439106,-10214.842000,444.123565,0.000000
3743.439436,-10288.862594,444.123565,0.000000
3743.439766,-10288.862594,518.144159,0.000000
3743.440096,-9622.677246,296.082377,536.266849
3743.440426,-9622.677246,222.061783,536.266849
3743.440756,-9252.574275,0.000000,536.266849
3743.441086,-9770.718434,518.144159,842.705048
3743.441416,-9918.759623,74.020594,0.000000
3743.441745,-9104.533087,0.000000,-689.485948
3743.442075,-9252.574275,444.123565,0.000000
3743.442405,-9992.780217,74.020594,76.609550
3743.442735,-9992.780217,-370.102971,766.095498
3743.443065,-9400.615463,-814.226536,612.876398
3743.443395,-8438.347739,0.000000,153.219100
3743.443725,-8956.491898,-888.247130,-612.876398
3743.444055,-8438.347739,-518.144159,-306.438199
3743.444385,-8364.327145,-592.164754,842.705048
3743.444715,-9030.512492,148.041188,766.095498
3743.445045,-8956.491898,-370.102971,306.438199
3743.445374,-10584.944971,-296.082377,306.438199
3743.445704,-10955.047942,0.000000,766.095498
3743.446034,-9548.656652,-592.164754,306.438199
3743.446364,-8290.306550,-222.061783,-383.047749
3743.446694,-8956.491898,-296.082377,229.828649
3743.447024,-10214.842000,666.185348,919.314598
3743.447354,-10066.800811,518.144159,306.438199
3743.447684,-10214.842000,814.226536,-1225.752797
3743.448014,-10214.842000,740.205942,-995.924147
3743.448344,-10140.821405,518.144159,-1302.362347
3743.448674,-9992.780217,740.205942,0.000000
3743.449003,-10066.800811,592.164754,383.047749
3743.449333,-10362.883188,1258.350101,383.047749
3743.449663,-10658.965565,740.205942,-76.609550
3743.449993,-10807.006753,592.164754,383.047749
3743.450323,-10732.986159,962.267725,1225.752797
3743.450653,-10732.986159,666.185348,1685.410096
3743.450983,-9992.780217,296.082377,1149.143247
3743.451313,-10140.821405,148.041188,919.314598
3743.451643,-9918.759623,0.000000,306.438199
3743.451973,-9844.739029,296.082377,0.000000
3743.452303,-10658.965565,148.041188,536.266849
3743.452633,-9696.697840,370.102971,919.314598
3743.452962,-9622.677246,-74.020594,306.438199
3743.453292,-9104.533087,444.123565,-689.485948
3743.453622,-9030.512492,0.000000,0.000000
3743.453952,-10288.862594,666.185348,0.000000
3743.454282,-9918.759623,148.041188,76.609550
3743.454612,-9696.697840,-222.061783,383.047749
3743.454942,-9474.636058,518.144159,1302.362347
3743.455272,-9992.780217,0.000000,306.438199
3743.455602,-9770.718434,-296.082377,-306.438199
3743.455932,-9104.533087,-666.185348,-153.219100
3743.456262,-8660.409521,74.020594,0.000000
3743.456591,-8290.306550,0.000000,153.219100
3743.456921,-9104.533087,0.000000,689.485948
3743.457251,-9770.718434,444.123565,919.314598
3743.457581,-9844.739029,222.061783,459.657299
3743.457911,-9622.677246,148.041188,-1072.533697
3743.458241,-9622.677246,0.000000,-919.314598
3743.458571,-9844.739029,0.000000,-995.924147
3743.458901,-9252.574275,148.041188,306.438199
3743.459231,-9104.533087,0.000000,459.657299
3743.459561,-9252.574275,740.205942,842.705048
3743.459891,-9252.574275,296.082377,-383.047749
3743.460220,-10066.800811,888.247130,-919.314598
3743.460550,-10214.842000,296.082377,-459.657299
3743.460880,-10584.944971,518.144159,536.266849
3743.461210,-10140.821405,370.102971,842.705048
3743.461540,-9992.780217,74.020594,612.876398
3743.461870,-9474.636058,888.247130,459.657299
3743.462200,-9770.718434,296.082377,-612.876398
3743.462530,-10436.903782,666.185348,-1225.752797
3743.462860,-10288.862594,222.061783,459.657299
3743.463190,-10658.965565,666.185348,1149.143247
3743.463520,-10658.965565,-148.041188,612.876398
3743.463849,-9844.739029,-1184.329507,306.438199
3743.464179,-9030.512492,-1110.308913,612.876398
3743.464509,-9178.553681,-1184.329507,383.047749
3743.464839,-9696.697840,-592.164754,76.609550
3743.465169,-9992.780217,-1036.288319,689.485948
3743.465499,-9992.780217,-592.164754,842.705048
3743.465829,-9474.636058,-888.247130,689.485948
3743.466159,-9844.739029,-1036.288319,459.657299
3743.466489,-10362.883188,-962.267725,612.876398
3743.466819,-9474.636058,-1480.411884,306.438199
3743.467149,-8512.368333,-1406.391290,-306.438199
3743.467478,-7920.203579,-1776.494261,76.609550
3743.467808,-9326.594869,-740.205942,76.609550
3743.468138,-9622.677246,-592.164754,-229.828649
3743.468468,-9844.739029,-592.164754,-536.266849
3743.468798,-9770.718434,0.000000,-153.219100
3743.469128,-10140.821405,-222.061783,612.876398
3743.469458,-10288.862594,148.041188,229.828649
3743.469788,-9622.677246,-222.061783,76.609550
3743.470118,-9992.780217,148.041188,-689.485948
3743.470448,-9844.739029,74.020594,-919.314598
3743.470778,-10066.800811,444.123565,-383.047749
3743.471107,-9696.697840,518.144159,536.266849
3743.471437,-10214.842000,888.247130,229.828649
3743.471767,-9548.656652,296.082377,-459.657299
3743.472097,-9474.636058,592.164754,0.000000
3743.472427,-10881.027347,1258.350101,-459.657299
3743.472757,-11251.130318,740.205942,-459.657299
3743.473087,-10584.944971,444.123565,0.000000
3743.473417,-9178.553681,592.164754,1072.533697
3743.473747,-9400.615463,296.082377,842.705048
3743.474077,-10066.800811,740.205942,0.000000
3743.474407,-9844.739029,962.267725,76.609550
3743.474736,-10362.883188,1110.308913,536.266849
3743.475066,-9992.780217,1110.308913,153.219100
3743.475396,-10658.965565,666.185348,919.314598
3743.475726,-10214.842000,518.144159,1532.190996
3743.476056,-8734.430116,-296.082377,383.047749
3743.476386,-8512.368333,222.061783,-766.095498
3743.476716,-9178.553681,74.020594,-306.438199
3743.477046,-10732.986159,148.041188,612.876398
3743.477376,-9400.615463,0.000000,1072.533697
3743.477706,-7920.203579,-740.205942,459.657299
3743.478036,-9030.512492,74.020594,1915.238745
3743.478365,-9844.739029,0.000000,1762.019645
3743.478695,-9400.615463,0.000000,842.705048
3743.479025,-8734.430116,0.000000,-459.657299
3743.479355,-9474.636058,222.061783,0.000000
3743.479685,-10214.842000,592.164754,0.000000
3743.480015,-9770.718434,-296.082377,153.219100
3743.480345,-9030.512492,592.164754,689.485948
3743.480675,-8808.450710,0.000000,689.485948
3743.481005,-9548.656652,74.020594,-459.657299
3743.481335,-10140.821405,0.000000,229.828649
3743.481665,-10658.965565,518.144159,842.705048
3743.481994,-9918.759623,814.226536,0.000000
3743.482324,-9770.718434,370.102971,0.000000
3743.482654,-10436.903782,740.205942,153.219100
3743.482984,-9918.759623,740.205942,-383.047749
3743.483314,-9622.677246,740.205942,-1302.362347
3743.483644,-9918.759623,814.226536,-536.266849
3743.483974,-10510.924376,740.205942,153.219100
3743.484304,-10658.965565,962.267725,995.924147
3743.484634,-10807.006753,592.164754,1302.362347
3743.484964,-10881.027347,74.020594,1072.533697
3743.485294,-9918.759623,0.000000,842.705048
3743.485623,-10362.883188,0.000000,766.095498
3743.485953,-10214.842000,222.061783,1225.752797
3743.486283,-11177.109724,222.061783,1991.848295
3743.486613,-11473.192101,444.123565,1378.971896
3743.486943,-11029.068536,0.000000,0.000000
3743.487273,-9548.656652,-74.020594,153.219100
3743.487603,-9622.677246,-592.164754,459.657299
3743.487933,-9326.594869,-592.164754,689.485948
3743.488263,-8660.409521,-740.205942,842.705048
3743.488593,-9474.636058,-370.102971,383.047749
3743.488923,-9770.718434,-296.082377,-153.219100
3743.489252,-10140.821405,-592.164754,-153.219100
3743.489582,-9696.697840,-592.164754,76.609550
3743.489912,-9326.594869,-666.185348,459.657299
3743.490242,-8808.450710,-962.267725,1302.362347
3743.490572,-8216.285956,-592.164754,1532.190996
3743.490902,-9400.615463,-222.061783,919.314598
3743.491232,-9104.533087,0.000000,-383.047749
3743.491562,-9622.677246,0.000000,-536.266849
3743.491892,-9696.697840,370.102971,-383.047749
3743.492222,-9400.615463,518.144159,153.219100
3743.492552,-9622.677246,444.123565,-459.657299
3743.492882,-9104.533087,444.123565,-1378.971896
3743.493211,-9696.697840,370.102971,-1302.362347
3743.493541,-9622.677246,814.226536,-1302.362347
3743.493871,-9992.780217,444.123565,-689.485948
3743.494201,-9992.780217,888.247130,306.438199
3743.494531,-9770.718434,740.205942,0.000000
3743.494861,-10140.821405,592.164754,-766.095498
3743.495191,-9844.739029,0.000000,76.609550
3743.495521,-9918.759623,518.144159,306.438199
3743.495851,-10066.800811,74.020594,1149.143247
3743.496181,-10436.903782,148.041188,536.266849
3743.496511,-9918.759623,222.061783,919.314598
3743.496840,-9992.780217,296.082377,1302.362347
3743.497170,-10510.924376,0.000000,1762.019645
3743.497500,-10436.903782,0.000000,306.438199
3743.497830,-10066.800811,148.041188,76.609550
3743.498160,-10066.800811,0.000000,-229.828649
3743.498490,-9696.697840,-444.123565,-766.095498
3743.498820,-9696.697840,-370.102971,-383.047749
3743.499150,-9474.636058,0.000000,-459.657299
3743.499480,-9622.677246,-222.061783,-1302.362347
3743.499810,-9252.574275,-1110.308913,-383.047749
3743.500140,-10214.842000,-444.123565,842.705048
3743.500469,-9548.656652,-1036.288319,1072.533697
3743.500799,-9548.656652,-1110.308913,689.485948
3743.501129,-9474.636058,-1628.453072,919.314598
3743.501459,-9474.636058,-1258.350101,1762.019645
3743.501789,-9474.636058,-1258.350101,459.657299
3743.502119,-8734.430116,-1184.329507,229.828649
3743.502449,-9030.512492,-962.267725,153.219100
3743.502779,-8882.471304,-148.041188,536.266849
3743.503109,-9178.553681,-814.226536,-229.828649
3743.503439,-9918.759623,0.000000,383.047749
3743.503769,-9844.739029,148.041188,383.047749
3743.504098,-10362.883188,148.041188,-153.219100
3743.504428,-10288.862594,148.041188,-76.609550
3743.504758,-10658.965565,0.000000,536.266849
3743.505088,-10140.821405,222.061783,919.314598
3743.505418,-9252.574275,0.000000,-306.438199
3743.505748,-9252.574275,518.144159,0.000000
3743.506078,-9918.759623,1332.370696,-76.609550
3743.506408,-10584.944971,666.185348,-536.266849
3743.506738,-10288.862594,962.267725,306.438199
3743.507068,-10436.903782,1480.411884,995.924147
3743.507398,-10510.924376,1480.411884,919.314598
3743.507727,-10436.903782,814.226536,-153.219100
3743.508057,-10584.944971,666.185348,0.000000
3743.508387,-10658.965565,1184.329507,229.828649
3743.508717,-10584.944971,222.061783,0.000000
3743.509047,-9918.759623,740.205942,459.657299
3743.509377,-9770.718434,444.123565,1149.143247
3743.509707,-9918.759623,666.185348,1302.362347
3743.510037,-9622.677246,148.041188,306.438199
3743.510367,-9474.636058,74.020594,0.000000
3743.510697,-9474.636058,0.000000,306.438199
3743.511027,-9474.636058,74.020594,842.705048
3743.511356,-8956.491898,-740.205942,1072.533697
3743.511686,-9548.656652,0.000000,919.314598
3743.512016,-8882.471304,0.000000,306.438199
3743.512346,-8364.327145,-592.164754,-153.219100
3743.512676,-8956.491898,-370.102971,306.438199
3743.513006,-9178.553681,222.061783,1225.752797
3743.513336,-9696.697840,-222.061783,612.876398
3743.513666,-8956.491898,0.000000,153.219100
3743.513996,-8438.347739,-148.041188,383.047749
3743.514326,-8956.491898,-444.123565,229.828649
3743.514656,-9178.553681,0.000000,0.000000
3743.514985,-9844.739029,0.000000,459.657299
3743.515315,-9622.677246,296.082377,689.485948
3743.515645,-10510.924376,74.020594,919.314598
3743.515975,-10362.883188,518.144159,-306.438199
3743.516305,-10214.842000,518.144159,0.000000
3743.516635,-9918.759623,888.247130,-383.047749
3743.516965,-9400.615463,74.020594,-229.828649
3743.517295,-10288.862594,1110.308913,383.047749
3743.517625,-10807.006753,1258.350101,153.219100
3743.517955,-10584.944971,370.102971,-1072.533697
3743.518285,-9696.697840,740.205942,-1838.629195
3743.518614,-10214.842000,222.061783,-306.438199
3743.518944,-11325.150913,592.164754,1149.143247
3743.519274,-10436.903782,0.000000,612.876398
3743.519604,-9696.697840,0.000000,689.485948
3743.519934,-9326.594869,370.102971,153.219100
3743.520264,-10955.047942,296.082377,842.705048
3743.520594,-10658.965565,296.082377,383.047749
3743.520924,-10955.047942,0.000000,612.876398
3743.521254,-10436.903782,-370.102971,1072.533697
3743.521584,-10066.800811,-592.164754,153.219100
3743.521914,-9844.739029,-888.247130,0.000000
3743.522243,-9474.636058,-518.144159,536.266849
3743.522573,-9104.533087,-370.102971,-153.219100
3743.522903,-8660.409521,-148.041188,-153.219100
3743.523233,-9474.636058,-518.144159,0.000000
3743.523563,-9622.677246,74.020594,612.876398
3743.523893,-9918.759623,-296.082377,229.828649
3743.524223,-9696.697840,-1036.288319,-459.657299
3743.524553,-9104.533087,-1258.350101,229.828649
3743.524884,-9400.615463,-1628.453072,459.657299
3743.525214,-9178.553681,-1332.370696,536.266849
3743.525544,-8586.388927,-1258.350101,1149.143247
3743.525874,-8438.347739,-888.247130,1149.143247
3743.526204,-8882.471304,74.020594,-459.657299
3743.526534,-9252.574275,370.102971,229.828649
3743.526864,-9844.739029,592.164754,229.828649
3743.527193,-10140.821405,444.123565,-612.876398
3743.527523,-9400.615463,148.041188,-766.095498
3743.527853,-9844.739029,592.164754,76.609550
3743.528183,-10807.006753,666.185348,306.438199
3743.528513,-9992.780217,148.041188,-612.876398
3743.528843,-8956.491898,0.000000,-1225.752797
3743.529173,-9252.574275,518.144159,-1225.752797
3743.529503,-10288.862594,296.082377,-383.047749
3743.529833,-9696.697840,296.082377,612.876398
3743.530163,-9770.718434,518.144159,995.924147
3743.530493,-9400.615463,814.226536,919.314598
3743.530823,-10140.821405,444.123565,383.047749
3743.531152,-10881.027347,74.020594,995.924147
3743.531482,-10288.862594,148.041188,1915.238745
3743.531812,-10362.883188,74.020594,842.705048
3743.532142,-10140.821405,0.000000,76.609550
3743.532472,-9992.780217,0.000000,766.095498
3743.532802,-10214.842000,296.082377,1072.533697
3743.533132,-10288.862594,296.082377,0.000000
3743.533462,-10140.821405,370.102971,-383.047749
3743.533792,-9770.718434,148.041188,-689.485948
3743.534122,-9104.533087,-518.144159,-1225.752797
3743.534452,-9178.553681,-222.061783,-689.485948
3743.534782,-10140.821405,-740.205942,536.266849
3743.535112,-9844.739029,-1036.288319,1225.752797
3743.535441,-9400.615463,-814.226536,229.828649
3743.535771,-9104.533087,-740.205942,919.314598
3743.536101,-9548.656652,-296.082377,1149.143247
3743.536431,-9918.759623,-814.226536,536.266849
3743.536761,-8882.471304,-370.102971,842.705048
3743.537091,-9474.636058,0.000000,1302.362347
3743.537421,-10140.821405,0.000000,842.705048
3743.537751,-9770.718434,0.000000,153.219100
3743.538081,-9770.718434,74.020594,0.000000
3743.538411,-8660.409521,0.000000,306.438199
3743.538741,-10214.842000,222.061783,0.000000
3743.539071,-10658.965565,296.082377,-766.095498
3743.539400,-9252.574275,222.061783,153.219100
3743.539730,-9030.512492,518.144159,-536.266849
3743.540060,-10436.903782,370.102971,383.047749
3743.540390,-11029.068536,296.082377,306.438199
3743.540720,-10510.924376,740.205942,383.047749
3743.541050,-9474.636058,148.041188,-459.657299
3743.541380,-9400.615463,222.061783,-229.828649
3743.541710,-9696.697840,296.082377,919.314598
3743.542040,-10436.903782,740.205942,919.314598
3743.542370,-9696.697840,592.164754,153.219100
3743.542700,-9474.636058,370.102971,0.000000
3743.543030,-10214.842000,666.185348,0.000000
3743.543359,-10584.944971,814.226536,-383.047749
3743.543689,-10362.883188,74.020594,383.047749
3743.544019,-9770.718434,370.102971,153.219100
3743.544349,-9992.780217,74.020594,153.219100
3743.544679,-9918.759623,0.000000,-766.095498
3743.545009,-9474.636058,-444.123565,-689.485948
3743.545339,-9474.636058,74.020594,-306.438199
3743.545669,-9548.656652,-222.061783,459.657299
3743.545999,-9622.677246,0.000000,459.657299
3743.546329,-9104.533087,-444.123565,0.000000
3743.546659,-8882.471304,-888.247130,76.609550
3743.546989,-9252.574275,-740.205942,229.828649
3743.547319,-9918.759623,-1332.370696,1762.019645
3743.547648,-10140.821405,-592.164754,1762.019645
3743.547978,-9474.636058,-1184.329507,842.705048
3743.548308,-8216.285956,-1110.308913,-229.828649
3743.548638,-8364.327145,-1036.288319,459.657299
3743.548968,-9400.615463,0.000000,612.876398
3743.549298,-9326.594869,-222.061783,383.047749
3743.549628,-9474.636058,222.061783,766.095498
3743.549958,-9622.677246,814.226536,689.485948
3743.550288,-10362.883188,0.000000,0.000000
3743.550618,-10955.047942,222.061783,-995.924147
3743.550948,-10658.965565,370.102971,-383.047749
3743.551278,-9844.739029,296.082377,-306.438199
3743.551607,-8586.388927,74.020594,-1072.533697
3743.551937,-9622.677246,296.082377,229.828649
3743.552267,-10732.986159,1184.329507,1225.752797
3743.552597,-10955.047942,296.082377,536.266849
3743.552927,-10658.965565,592.164754,-689.485948
3743.553257,-9622.677246,-592.164754,-919.314598
3743.553587,-9696.697840,-370.102971,306.438199
3743.553917,-9252.574275,-296.082377,383.047749
3743.554247,-8734.430116,-814.226536,1455.581446
3743.554577,-9474.636058,518.144159,1302.362347
3743.554907,-10140.821405,148.041188,612.876398
3743.555237,-11473.192101,814.226536,-306.438199
3743.555566,-11547.212695,518.144159,459.657299
3743.555896,-11991.336260,222.061783,1149.143247
3743.556226,-10584.944971,0.000000,1455.581446
3743.556556,-9548.656652,-592.164754,919.314598
3743.556886,-8364.327145,-296.082377,459.657299
3743.557216,-8734.430116,-296.082377,-536.266849
3743.557546,-9474.636058,296.082377,-1149.143247
3743.557876,-9918.759623,222.061783,-459.657299
3743.558206,-10066.800811,518.144159,383.047749
3743.558536,-10362.883188,296.082377,842.705048
3743.558866,-9918.759623,-518.144159,919.314598
3743.559196,-9252.574275,-370.102971,919.314598
3743.559525,-8586.388927,-814.226536,229.828649
3743.559855,-7920.203579,-1036.288319,0.000000
3743.560185,-8142.265362,-444.123565,919.314598
3743.560515,-9770.718434,518.144159,1838.629195
3743.560845,-9992.780217,814.226536,842.705048
3743.561175,-9696.697840,814.226536,0.000000
3743.561505,-10066.800811,1110.308913,0.000000
3743.561835,-10066.800811,962.267725,-383.047749
3743.562165,-9622.677246,666.185348,-1302.362347
3743.562495,-9030.512492,1258.350101,-766.095498
3743.562825,-9770.718434,1406.391290,-919.314598
3743.563155,-9918.759623,1258.350101,-919.314598
3743.563485,-10140.821405,518.144159,-995.924147
3743.563814,-9844.739029,1036.288319,-766.095498
3743.564144,-9696.697840,666.185348,306.438199
3743.564474,-9770.718434,666.185348,1072.533697
3743.564804,-9622.677246,666.185348,1838.629195
3743.565134,-10510.924376,592.164754,1838.629195
3743.565464,-10214.842000,518.144159,383.047749
3743.565794,-9992.780217,370.102971,-306.438199
3743.566124,-10140.821405,814.226536,459.657299
3743.566454,-10510.924376,444.123565,995.924147
3743.566784,-10584.944971,370.102971,766.095498
3743.567114,-10288.862594,296.082377,76.609550
3743.567444,-10066.800811,0.000000,-919.314598
3743.567773,-8882.471304,0.000000,-1455.581446
3743.568103,-9400.615463,74.020594,-1149.143247
3743.568433,-10288.862594,-148.041188,76.609550
3743.568763,-9474.636058,-296.082377,842.705048
3743.569093,-9770.718434,-370.102971,0.000000
3743.569423,-9548.656652,-814.226536,-306.438199
3743.569753,-10362.883188,-962.267725,229.828649
3743.570083,-10066.800811,-1110.308913,459.657299
3743.570413,-9326.594869,-1702.473667,766.095498
3743.570743,-8438.347739,-1702.473667,1762.019645
3743.571073,-8882.471304,-1332.370696,1762.019645
3743.571403,-9844.739029,-1924.535449,689.485948
3743.571732,-9104.533087,-1702.473667,76.609550
3743.572062,-9548.656652,-1480.411884,-153.219100
3743.572392,-9400.615463,-370.102971,459.657299
3743.572722,-9474.636058,-740.205942,0.000000
3743.573052,-9400.615463,-148.041188,1072.533697
3743.573382,-9400.615463,0.000000,536.266849
3743.573712,-9548.656652,-370.102971,-229.828649
3743.574042,-10807.006753,296.082377,-919.314598
3743.574372,-11843.295072,74.020594,-689.485948
3743.574702,-10362.883188,518.144159,306.438199
3743.575032,-9326.594869,0.000000,0.000000
3743.575362,-8956.491898,222.061783,0.000000
3743.575692,-9918.759623,740.205942,459.657299
3743.576021,-11029.068536,666.185348,-306.438199
3743.576351,-9696.697840,592.164754,76.609550
3743.576681,-10066.800811,296.082377,76.609550
3743.577011,-10510.924376,444.123565,842.705048
3743.577341,-10436.903782,-222.061783,1149.143247
3743.577671,-10140.821405,370.102971,1149.143247
3743.578001,-9474.636058,518.144159,76.609550
3743.578331,-9770.718434,0.000000,76.609550
3743.578661,-9844.739029,518.144159,459.657299
3743.578991,-10510.924376,444.123565,1225.752797
3743.579321,-9770.718434,296.082377,1608.800546
3743.579651,-9178.553681,148.041188,0.000000
3743.579980,-10140.821405,666.185348,0.000000
3743.580310,-9992.780217,592.164754,0.000000
3743.580640,-10140.821405,444.123565,0.000000
3743.580970,-8882.471304,370.102971,306.438199
3743.581300,-9992.780217,592.164754,306.438199
3743.581630,-9622.677246,666.185348,459.657299
3743.581960,-9474.636058,-370.102971,0.000000
3743.582290,-9326.594869,148.041188,306.438199
3743.582620,-9326.594869,0.000000,229.828649
3743.582950,-8956.491898,-296.082377,153.219100
3743.583280,-8290.306550,74.020594,689.485948
3743.583610,-8438.347739,296.082377,306.438199
3743.583939,-8808.450710,0.000000,766.095498
3743.584269,-9992.780217,296.082377,0.000000
3743.584599,-10436.903782,666.185348,1149.143247
3743.584929,-9770.718434,888.247130,1225.752797
3743.585259,-10510.924376,1184.329507,612.876398
3743.585589,-9622.677246,370.102971,-689.485948
3743.585919,-9770.718434,296.082377,-919.314598
3743.586249,-9548.656652,1184.329507,-1225.752797
3743.586579,-9474.636058,592.164754,-1225.752797
3743.586909,-9844.739029,962.267725,-536.266849
3743.587239,-10066.800811,962.267725,-383.047749
3743.587569,-10140.821405,814.226536,-766.095498
3743.587899,-9696.697840,740.205942,-459.657299
3743.588228,-10288.862594,370.102971,0.000000
3743.588558,-10140.821405,148.041188,766.095498
3743.588888,-10214.842000,0.000000,612.876398
3743.589218,-10658.965565,-296.082377,1991.848295
3743.589548,-10436.903782,0.000000,2451.505594
3743.589878,-11103.089130,-222.061783,995.924147
3743.590208,-10436.903782,-222.061783,383.047749
3743.590538,-10658.965565,-592.164754,0.000000
3743.590868,-9104.533087,-444.123565,76.609550
3743.591198,-8512.368333,-814.226536,229.828649
3743.591528,-9548.656652,-296.082377,1072.533697
3743.591858,-9770.718434,-222.061783,842.705048
3743.592187,-9696.697840,148.041188,-153.219100
3743.592517,-9918.759623,-296.082377,-689.485948
3743.592847,-11103.089130,-814.226536,0.000000
3743.593177,-10288.862594,-1036.288319,689.485948
3743.593507,-9030.512492,-1776.494261,1378.971896
3743.593837,-8512.368333,-1332.370696,1991.848295
3743.594167,-9030.512492,-1036.288319,1608.800546
3743.594497,-9104.533087,-518.144159,229.828649
3743.594827,-8142.265362,-370.102971,0.000000
3743.595157,-9548.656652,-370.102971,459.657299
3743.595487,-10510.924376,0.000000,766.095498
3743.595817,-10732.986159,-74.020594,0.000000
3743.596146,-9400.615463,-740.205942,306.438199
3743.596476,-8882.471304,-962.267725,-306.438199
3743.596806,-9474.636058,0.000000,-842.705048
3743.597136,-9178.553681,0.000000,-1302.362347
3743.597466,-10140.821405,296.082377,-766.095498
3743.597796,-10214.842000,1258.350101,-306.438199
3743.598126,-10658.965565,592.164754,-306.438199
3743.598456,-11029.068536,814.226536,536.266849
3743.598786,-10436.903782,666.185348,306.438199
3743.599116,-9844.739029,0.000000,0.000000
3743.599446,-9030.512492,222.061783,-919.314598
3743.599776,-9548.656652,0.000000,-306.438199
3743.600106,-9992.780217,296.082377,612.876398
3743.600435,-10140.821405,740.205942,76.609550
3743.600765,-10066.800811,740.205942,383.047749
3743.601095,-9992.780217,666.185348,153.219100
3743.601425,-9622.677246,222.061783,0.000000
3743.601755,-9474.636058,444.123565,306.438199
3743.602085,-10436.903782,444.123565,2221.676944
3743.602415,-10214.842000,148.041188,1302.362347
3743.602745,-9474.636058,-296.082377,-306.438199
3743.603075,-9844.739029,0.000000,229.828649
3743.603405,-9548.656652,0.000000,689.485948
3743.603735,-9548.656652,-222.061783,0.000000
3743.604065,-8882.471304,-370.102971,-383.047749
3743.604394,-9474.636058,-74.020594,-229.828649
3743.604724,-9770.718434,0.000000,689.485948
3743.605054,-9400.615463,-296.082377,0.000000
3743.605384,-8734.430116,-888.247130,0.000000
3743.605714,-9918.759623,-296.082377,459.657299
3743.606044,-10140.821405,-592.164754,612.876398
3743.606374,-8808.450710,-518.144159,842.705048
3743.606704,-9326.594869,-592.164754,842.705048
3743.607034,-9622.677246,0.000000,919.314598
3743.607364,-9252.574275,74.020594,536.266849
3743.607694,-9918.759623,74.020594,229.828649
3743.608024,-9696.697840,666.185348,0.000000
3743.608353,-10214.842000,370.102971,-459.657299
3743.608683,-10362.883188,1036.288319,-1378.971896
3743.609013,-10510.924376,888.247130,-766.095498
3743.609343,-9844.739029,370.102971,-306.438199
3743.609673,-9696.697840,740.205942,-766.095498
3743.610003,-10140.821405,592.164754,-459.657299
3743.610333,-9992.780217,888.247130,-536.266849
3743.610663,-9696.697840,0.000000,76.609550
3743.610993,-9696.697840,74.020594,919.314598
3743.611323,-10584.944971,296.082377,1915.238745
3743.611653,-11177.109724,222.061783,1608.800546
3743.611983,-9622.677246,444.123565,153.219100
3743.612313,-9178.553681,148.041188,-459.657299
3743.612642,-9474.636058,888.247130,0.000000
3743.612972,-10288.862594,592.164754,919.314598
3743.613302,-10955.047942,1036.288319,689.485948
3743.613632,-10214.842000,518.144159,536.266849
3743.613962,-10362.883188,222.061783,0.000000
3743.614292,-9918.759623,222.061783,-612.876398
3743.614622,-10214.842000,-296.082377,-459.657299
3743.614952,-9548.656652,296.082377,612.876398
3743.615282,-9178.553681,-296.082377,383.047749
3743.615612,-9326.594869,0.000000,229.828649
3743.615942,-9548.656652,0.000000,383.047749
3743.616272,-9474.636058,-962.267725,306.438199
3743.616601,-8956.491898,-740.205942,1072.533697
3743.616931,-9326.594869,-1258.350101,1762.019645
3743.617261,-9548.656652,-1110.308913,2145.067394
3743.617591,-9474.636058,-1480.411884,1455.581446
3743.617921,-8068.244768,-1184.329507,306.438199
3743.618251,-8512.368333,-1036.288319,689.485948
3743.618581,-9326.594869,-370.102971,0.000000
3743.618911,-9474.636058,-296.082377,76.609550
3743.619241,-10140.821405,-74.020594,306.438199
3743.619571,-9474.636058,370.102971,0.000000
3743.619901,-9548.656652,0.000000,-766.095498
3743.620231,-9770.718434,296.082377,-1455.581446
3743.620560,-8734.430116,370.102971,-536.266849
3743.620890,-10140.821405,222.061783,0.000000
3743.621220,-10732.986159,296.082377,76.609550
3743.621550,-11029.068536,0.000000,-229.828649
3743.621880,-10510.924376,444.123565,153.219100
3743.622210,-10288.862594,-370.102971,76.609550
3743.622540,-9992.780217,74.020594,-306.438199
3743.622870,-9104.533087,-518.144159,76.609550
3743.623200,-9844.739029,0.000000,459.657299
3743.623530,-10066.800811,0.000000,919.314598
3743.623860,-11251.130318,-222.061783,153.219100
3743.624190,-10658.965565,296.082377,0.000000
3743.624519,-9770.718434,-518.144159,-919.314598
3743.624849,-9548.656652,-518.144159,-612.876398
3743.625179,-10584.944971,-222.061783,689.485948
3743.625509,-10510.924376,-444.123565,1378.971896
3743.625839,-9400.615463,-148.041188,612.876398
3743.626169,-9770.718434,0.000000,-76.609550
3743.626499,-10658.965565,0.000000,306.438199
3743.626829,-10584.944971,0.000000,153.219100
3743.627159,-9400.615463,-814.226536,0.000000
3743.627489,-9104.533087,-370.102971,766.095498
3743.627819,-9844.739029,-296.082377,766.095498
3743.628149,-9252.574275,-814.226536,459.657299
3743.628478,-9622.677246,-1036.288319,-306.438199
3743.628808,-9030.512492,-296.082377,-459.657299
3743.629138,-9844.739029,-1036.288319,0.000000
3743.629468,-9474.636058,-666.185348,1302.362347
3743.629798,-8882.471304,-148.041188,2145.067394
3743.630128,-9400.615463,0.000000,1991.848295
3743.630458,-8956.491898,74.020594,1225.752797
3743.630788,-9252.574275,148.041188,-536.266849
3743.631118,-9474.636058,888.247130,306.438199
3743.631448,-10214.842000,814.226536,0.000000
3743.631778,-10362.883188,962.267725,-153.219100
3743.632107,-9474.636058,518.144159,0.000000
3743.632437,-9696.697840,814.226536,0.000000
3743.632767,-9326.594869,1110.308913,-383.047749
3743.633097,-9992.780217,1258.350101,-1149.143247
3743.633427,-9548.656652,1480.411884,-383.047749
3743.633757,-9548.656652,1406.391290,0.000000
3743.634087,-10881.027347,1480.411884,0.000000
3743.634417,-11399.171507,1036.288319,1149.143247
3743.634747,-11103.089130,962.267725,766.095498
3743.635077,-9474.636058,592.164754,-153.219100
3743.635407,-9030.512492,296.082377,-153.219100
3743.635736,-9918.759623,1184.329507,995.924147
3743.636066,-10658.965565,1184.329507,1532.190996
3743.636396,-10362.883188,1702.473667,76.609550
3743.636726,-10140.821405,1406.391290,459.657299
3743.637056,-10955.047942,444.123565,383.047749
3743.637386,-11103.089130,666.185348,153.219100
3743.637716,-10140.821405,0.000000,-229.828649
3743.638046,-9474.636058,370.102971,-306.438199
3743.638376,-8512.368333,0.000000,-612.876398
3743.638706,-8882.471304,0.000000,-1072.533697
3743.639036,-9326.594869,0.000000,536.266849
3743.639365,-10510.924376,518.144159,1225.752797
3743.639695,-9992.780217,-296.082377,995.924147
3743.640025,-9770.718434,-962.267725,0.000000
3743.640355,-9252.574275,-962.267725,76.609550
3743.640685,-9474.636058,-814.226536,1149.143247
3743.641015,-8660.409521,-1332.370696,919.314598
3743.641345,-9030.512492,-1184.329507,995.924147
3743.641675,-9474.636058,-888.247130,1072.533697
3743.642005,-9030.512492,-444.123565,306.438199
3743.642335,-9696.697840,-962.267725,-689.485948
3743.642665,-9104.533087,-518.144159,-383.047749
3743.642995,-9474.636058,-814.226536,-306.438199
3743.643324,-9474.636058,-592.164754,-76.609550
3743.643654,-9178.553681,-592.164754,153.219100
3743.643984,-10732.986159,0.000000,842.705048
3743.644314,-9992.780217,-296.082377,-306.438199
3743.644644,-10066.800811,-296.082377,-1072.533697
3743.644974,-10288.862594,444.123565,0.000000
3743.645304,-10658.965565,0.000000,459.657299
3743.645634,-10510.924376,0.000000,229.828649
3743.645964,-10288.862594,-296.082377,153.219100
3743.646294,-10436.903782,-296.082377,0.000000
3743.646624,-9548.656652,-888.247130,76.609550
3743.646953,-9400.615463,-148.041188,459.657299
3743.647283,-10807.006753,0.000000,1532.190996
3743.647613,-10955.047942,518.144159,919.314598
3743.647943,-10288.862594,0.000000,689.485948
3743.648273,-10362.883188,0.000000,766.095498
3743.648603,-11103.089130,0.000000,1608.800546
3743.648933,-10510.924376,296.082377,1608.800546
3743.649263,-9474.636058,444.123565,1302.362347
3743.649593,-9474.636058,148.041188,919.314598
3743.649923,-9548.656652,666.185348,153.219100
3743.650253,-9400.615463,-518.144159,-842.705048
3743.650582,-9474.636058,296.082377,-536.266849
3743.650912,-9326.594869,74.020594,459.657299
3743.651242,-9474.636058,0.000000,1072.533697
3743.651572,-9400.615463,-592.164754,1532.190996
3743.651902,-9622.677246,-148.041188,1378.971896
3743.652232,-8882.471304,74.020594,612.876398
3743.652562,-8364.327145,-518.144159,-919.314598
3743.652892,-8364.327145,222.061783,-536.266849
3743.653222,-9770.718434,518.144159,612.876398
3743.653552,-9326.594869,148.041188,229.828649
3743.653882,-8142.265362,-518.144159,-536.266849
3743.654211,-9178.553681,296.082377,-689.485948
3743.654541,-8956.491898,444.123565,-766.095498
3743.654871,-9400.615463,370.102971,-1378.971896
3743.655201,-9252.574275,518.144159,-1455.581446
3743.655531,-9548.656652,592.164754,-229.828649
3743.655861,-9844.739029,1110.308913,689.485948
3743.656191,-10510.924376,814.226536,0.000000
3743.656521,-11325.150913,1628.453072,689.485948
3743.656851,-10584.944971,888.247130,0.000000
3743.657181,-10362.883188,444.123565,-612.876398
3743.657511,-10362.883188,666.185348,-459.657299
3743.657840,-11177.109724,1110.308913,229.828649
3743.658170,-10214.842000,962.267725,153.219100
3743.658500,-8586.388927,370.102971,-689.485948
3743.658830,-9326.594869,962.267725,-536.266849
3743.659160,-10955.047942,1036.288319,-459.657299
3743.659490,-10955.047942,592.164754,-229.828649
3743.659820,-10584.944971,148.041188,0.000000
3743.660150,-10214.842000,444.123565,1149.143247
3743.660480,-10510.924376,74.020594,1302.362347
3743.660810,-10658.965565,-888.247130,1072.533697
3743.661140,-9474.636058,-888.247130,1072.533697
3743.661469,-8734.430116,-444.123565,1149.143247
3743.661799,-9252.574275,-666.185348,229.828649
3743.662129,-8808.450710,-370.102971,-459.657299
3743.662459,-9918.759623,-592.164754,766.095498
3743.662789,-9400.615463,-370.102971,689.485948
3743.663119,-8882.471304,-1184.329507,536.266849
3743.663449,-9104.533087,-666.185348,306.438199
3743.663779,-9548.656652,-814.226536,0.000000
3743.664109,-9030.512492,-1480.411884,-536.266849
3743.664439,-8290.306550,-1480.411884,-766.095498
3743.664769,-8882.471304,-666.185348,0.000000
3743.665098,-9252.574275,-592.164754,1072.533697
3743.665428,-8734.430116,-666.185348,995.924147
3743.665758,-8586.388927,74.020594,612.876398
3743.666088,-9696.697840,592.164754,0.000000
3743.666418,-11621.233289,296.082377,-842.705048
3743.666748,-11251.130318,740.205942,-689.485948
3743.667078,-10288.862594,740.205942,0.000000
3743.667408,-9400.615463,592.164754,459.657299
3743.667738,-9844.739029,666.185348,0.000000
3743.668068,-10658.965565,962.267725,229.828649
3743.668398,-10807.006753,1110.308913,153.219100
3743.668727,-10584.944971,1036.288319,-842.705048
3743.669057,-10288.862594,740.205942,-229.828649
3743.669387,-11473.192101,814.226536,1302.362347
3743.669717,-10658.965565,444.123565,1915.238745
3743.670047,-8956.491898,-222.061783,1302.362347
3743.670377,-8586.388927,-444.123565,1149.143247
3743.670707,-9400.615463,296.082377,1762.019645
3743.671037,-11103.089130,592.164754,1455.581446
3743.671367,-9770.718434,518.144159,919.314598
3743.671697,-11177.109724,518.144159,919.314598
3743.672027,-10807.006753,296.082377,766.095498
3743.672356,-10066.800811,-518.144159,306.438199
3743.672686,-9400.615463,-814.226536,0.000000
3743.673016,-7254.018232,-814.226536,153.219100
3743.673346,-7328.038826,-740.205942,-383.047749
3743.673676,-8956.491898,0.000000,-229.828649
3743.674006,-10362.883188,148.041188,0.000000
3743.674336,-9474.636058,0.000000,229.828649
3743.674666,-8882.471304,-222.061783,-459.657299
3743.674996,-9622.677246,-296.082377,612.876398
3743.675326,-10066.800811,-592.164754,919.314598
3743.675656,-9104.533087,-1036.288319,-153.219100
3743.675985,-8808.450710,-592.164754,-842.705048
3743.676315,-8956.491898,-1184.329507,-612.876398
3743.676645,-8512.368333,-518.144159,0.000000
3743.676975,-7994.224174,-74.020594,153.219100
3743.677305,-9104.533087,518.144159,766.095498
3743.677635,-9918.759623,74.020594,229.828649
3743.677965,-10807.006753,0.000000,-1532.190996
3743.678295,-10140.821405,74.020594,-1991.848295
3743.678625,-11251.130318,148.041188,-919.314598
3743.678955,-10732.986159,370.102971,229.828649
3743.679285,-9548.656652,-444.123565,612.876398
3743.679614,-9400.615463,222.061783,459.657299
3743.679944,-9770.718434,814.226536,0.000000
3743.680274,-11547.212695,666.185348,0.000000
3743.680604,-11177.109724,1184.329507,-306.438199
3743.680934,-10436.903782,888.247130,612.876398
3743.681264,-10288.862594,740.205942,1072.533697
3743.681594,-10510.924376,148.041188,306.438199
3743.681924,-10658.965565,0.000000,-306.438199
3743.682254,-10214.842000,0.000000,-153.219100
3743.682584,-9844.739029,-814.226536,-229.828649
3743.682914,-9474.636058,-296.082377,459.657299
3743.683243,-9548.656652,74.020594,1225.752797
3743.683573,-10066.800811,370.102971,1378.971896
3743.683903,-9474.636058,-666.185348,153.219100
3743.684233,-9400.615463,-592.164754,229.828649
3743.684563,-9474.636058,-148.041188,383.047749
3743.684893,-10066.800811,-666.185348,459.657299
3743.685223,-9030.512492,-962.267725,0.000000
3743.685553,-8956.491898,-1480.411884,0.000000
3743.685883,-8956.491898,-888.247130,-229.828649
3743.686213,-8290.306550,-888.247130,-842.705048
3743.686543,-8956.491898,-962.267725,459.657299
3743.686872,-9918.759623,-296.082377,1225.752797
3743.687202,-10214.842000,-592.164754,842.705048
3743.687532,-9326.594869,-740.205942,0.000000
3743.687862,-8660.409521,-370.102971,0.000000
3743.688192,-9178.553681,0.000000,0.000000
3743.688522,-9400.615463,296.082377,76.609550
3743.688852,-9770.718434,296.082377,-536.266849
3743.689182,-9992.780217,444.123565,0.000000
3743.689512,-9844.739029,518.144159,-76.609550
3743.689842,-10066.800811,518.144159,-766.095498
3743.690172,-11399.171507,370.102971,-536.266849
3743.690502,-10807.006753,518.144159,306.438199
3743.690831,-9696.697840,0.000000,459.657299
3743.691161,-9326.594869,222.061783,995.924147
3743.691491,-9770.718434,1036.288319,995.924147
3743.691821,-9918.759623,444.123565,919.314598
3743.692151,-10066.800811,888.247130,0.000000
3743.692481,-10881.027347,1036.288319,153.219100
3743.692811,-11473.192101,592.164754,919.314598
3743.693141,-10510.924376,518.144159,612.876398
3743.693471,-9918.759623,-74.020594,1072.533697
3743.693801,-8956.491898,296.082377,1378.971896
3743.694131,-9104.533087,222.061783,1149.143247
3743.694460,-9030.512492,518.144159,459.657299
3743.694790,-10288.862594,888.247130,459.657299
3743.695120,-11843.295072,814.226536,459.657299
3743.695450,-10955.047942,0.000000,1149.143247
3743.695780,-9918.759623,-296.082377,1685.410096
3743.696110,-9622.677246,74.020594,1378.971896
3743.696440,-9178.553681,-888.247130,612.876398
3743.696770,-8660.409521,-666.185348,-1149.143247
3743.697100,-8586.388927,0.000000,-919.314598
3743.697430,-9178.553681,592.164754,76.609550
3743.697760,-9918.759623,296.082377,459.657299
3743.698089,-8734.430116,-148.041188,0.000000
3743.698419,-9474.636058,222.061783,-459.657299
3743.698749,-9622.677246,-74.020594,-689.485948
3743.699079,-10066.800811,-592.164754,-1149.143247
3743.699409,-8882.471304,-370.102971,0.000000
3743.699739,-8216.285956,-296.082377,76.609550
3743.700069,-8660.409521,592.164754,306.438199
3743.700399,-9992.780217,518.144159,612.876398
3743.700729,-11103.089130,1036.288319,1072.533697
3743.701059,-10955.047942,814.226536,-612.876398
3743.701389,-10658.965565,1406.391290,-842.705048
3743.701718,-11103.089130,444.123565,-229.828649
3743.702048,-9844.739029,888.247130,-76.609550
3743.702378,-8364.327145,444.123565,-306.438199
3743.702708,-9178.553681,296.082377,-459.657299
3743.703038,-10658.965565,1406.391290,-536.266849
3743.703368,-11325.150913,1036.288319,-306.438199
3743.703698,-10066.800811,814.226536,-689.485948
3743.704028,-9992.780217,740.205942,229.828649
3743.704358,-10955.047942,962.267725,1149.143247
3743.704688,-9622.677246,0.000000,919.314598
3743.705018,-9326.594869,0.000000,536.266849
3743.705347,-10140.821405,740.205942,995.924147
3743.705677,-11029.068536,148.041188,919.314598
3743.706007,-9844.739029,-222.061783,306.438199
3743.706337,-8808.450710,-444.123565,919.314598
3743.706667,-9548.656652,-148.041188,1455.581446
3743.706997,-10214.842000,-296.082377,689.485948
3743.707327,-9178.553681,-888.247130,-459.657299
3743.707657,-8216.285956,-444.123565,-459.657299
3743.707987,-7920.203579,-518.144159,-306.438199
3743.708317,-9548.656652,-444.123565,76.609550
3743.708647,-9844.739029,-444.123565,-612.876398
3743.708976,-9474.636058,-592.164754,-689.485948
3743.709306,-9178.553681,-888.247130,-306.438199
3743.709636,-9918.759623,-1628.453072,306.438199
3743.709966,-10584.944971,-666.185348,1455.581446
3743.710296,-8734.430116,-1110.308913,1378.971896
3743.710626,-8216.285956,-1184.329507,459.657299
3743.710956,-9030.512492,-370.102971,306.438199
3743.711286,-10881.027347,-518.144159,76.609550
3743.711616,-10510.924376,-592.164754,-306.438199
3743.711946,-8882.471304,-888.247130,-459.657299
3743.712276,-9104.533087,-296.082377,919.314598
3743.712605,-9548.656652,0.000000,919.314598
3743.712935,-9844.739029,370.102971,-1302.362347
3743.713265,-10658.965565,814.226536,-1225.752797
3743.713595,-10658.965565,888.247130,-766.095498
3743.713925,-10807.006753,296.082377,-383.047749
3743.714255,-10584.944971,-148.041188,383.047749
3743.714585,-10288.862594,370.102971,1532.190996
3743.714915,-10214.842000,0.000000,1302.362347
3743.715245,-9844.739029,-74.020594,383.047749
3743.715575,-9844.739029,0.000000,0.000000
3743.715905,-9918.759623,518.144159,689.485948
3743.716234,-10658.965565,444.123565,2374.896044
3743.716564,-10436.903782,370.102971,2145.067394
3743.716894,-10214.842000,814.226536,1225.752797
3743.717224,-9696.697840,592.164754,-229.828649
3743.717554,-9844.739029,222.061783,-383.047749
3743.717884,-9548.656652,148.041188,-306.438199
3743.718214,-9178.553681,74.020594,995.924147
3743.718544,-9400.615463,222.061783,1378.971896
3743.718874,-9918.759623,-148.041188,842.705048
3743.719204,-9992.780217,0.000000,306.438199
3743.719534,-8956.491898,-74.020594,-919.314598
3743.719863,-7402.059420,-592.164754,-1149.143247
3743.720193,-8660.409521,0.000000,306.438199
3743.720523,-10807.006753,296.082377,2145.067394
3743.720853,-9474.636058,-814.226536,1149.143247
3743.721183,-9474.636058,-888.247130,-383.047749
3743.721513,-9326.594869,-518.144159,-612.876398
3743.721843,-9844.739029,-592.164754,229.828649
3743.722173,-8734.430116,-592.164754,-766.095498
3743.722503,-7179.997637,-666.185348,-612.876398
3743.722833,-8660.409521,222.061783,229.828649
3743.723163,-10510.924376,740.205942,0.000000
3743.723492,-10584.944971,888.247130,-842.705048
3743.723822,-10955.047942,1332.370696,-612.876398
3743.724152,-9622.677246,296.082377,-919.314598
3743.724482,-10066.800811,148.041188,-1225.752797
3743.724812,-9992.780217,148.041188,-1072.533697
3743.725142,-10066.800811,444.123565,-306.438199
3743.725472,-8882.471304,814.226536,0.000000
3743.725802,-10066.800811,814.226536,-689.485948
3743.726132,-11029.068536,962.267725,306.438199
3743.726461,-10066.800811,666.185348,306.438199
3743.726791,-9696.697840,370.102971,229.828649
3743.727121,-9548.656652,296.082377,995.924147
3743.727451,-9548.656652,296.082377,1072.533697
3743.727780,-9548.656652,814.226536,689.485948
3743.728110,-9992.780217,444.123565,0.000000
3743.728440,-10510.924376,666.185348,459.657299
3743.728770,-10288.862594,666.185348,536.266849
3743.729100,-10066.800811,814.226536,383.047749
3743.729429,-9992.780217,370.102971,766.095498
3743.729759,-10807.006753,740.205942,1378.971896
3743.730089,-9178.553681,592.164754,689.485948
3743.730419,-9252.574275,296.082377,-536.266849
3743.730748,-9992.780217,592.164754,229.828649
3743.731078,-10362.883188,666.185348,1225.752797
3743.731408,-9622.677246,-296.082377,919.314598
3743.731738,-9400.615463,0.000000,612.876398
3743.732067,-10066.800811,-444.123565,459.657299
3743.732397,-10436.903782,-592.164754,612.876398
3743.732727,-9252.574275,-888.247130,76.609550
3743.733057,-8216.285956,-444.123565,0.000000
3743.733386,-8956.491898,-518.144159,229.828649
3743.733716,-9474.636058,-296.082377,612.876398
3743.734046,-9474.636058,-518.144159,1072.533697
3743.734376,-9548.656652,0.000000,689.485948
3743.734706,-10066.800811,0.000000,-76.609550
3743.735035,-9918.759623,-1110.308913,-229.828649
3743.735365,-9696.697840,-666.185348,689.485948
3743.735695,-8438.347739,-370.102971,1532.190996
3743.736025,-8882.471304,0.000000,0.000000
3743.736354,-9104.533087,370.102971,-383.047749
3743.736684,-9992.780217,296.082377,-306.438199
3743.737014,-10140.821405,888.247130,153.219100
3743.737344,-11547.212695,148.041188,-76.609550
3743.737673,-10955.047942,370.102971,0.000000
3743.738003,-9622.677246,-222.061783,-229.828649
3743.738333,-9474.636058,-814.226536,-919.314598
3743.738663,-8586.388927,-296.082377,76.609550
3743.738992,-9770.718434,148.041188,1072.533697
3743.739322,-10066.800811,296.082377,536.266849
3743.739652,-9474.636058,444.123565,76.609550
3743.739982,-9622.677246,1258.350101,995.924147
3743.740312,-11399.171507,962.267725,612.876398
3743.740641,-11547.212695,74.020594,76.609550
3743.740971,-10362.883188,0.000000,-383.047749
3743.741301,-9770.718434,0.000000,0.000000
3743.741631,-9992.780217,-592.164754,1072.533697
3743.741960,-9992.780217,-296.082377,229.828649
3743.742290,-9992.780217,0.000000,0.000000
3743.742620,-9770.718434,0.000000,-383.047749
3743.742950,-9400.615463,-370.102971,-612.876398
3743.743279,-9252.574275,-592.164754,76.609550
3743.743609,-9844.739029,-518.144159,766.095498
3743.743939,-9770.718434,-740.205942,1072.533697
3743.744269,-9770.718434,-1184.329507,153.219100
3743.744599,-9178.553681,-1406.391290,153.219100
3743.744928,-9252.574275,-1036.288319,536.266849
3743.745258,-9474.636058,-1036.288319,612.876398
3743.745588,-8290.306550,-740.205942,306.438199
3743.745918,-9474.636058,-370.102971,995.924147
3743.746247,-9696.697840,0.000000,1149.143247
3743.746577,-9918.759623,-370.102971,-383.047749
3743.746907,-9474.636058,222.061783,-153.219100
3743.747237,-8882.471304,222.061783,-459.657299
3743.747566,-8882.471304,0.000000,-766.095498
3743.747896,-9474.636058,1036.288319,-229.828649
3743.748226,-10436.903782,740.205942,229.828649
3743.748556,-10436.903782,1036.288319,-536.266849
3743.748885,-10214.842000,888.247130,-1149.143247
3743.749215,-10807.006753,962.267725,-689.485948
3743.749545,-10584.944971,1184.329507,842.705048
3743.749875,-9400.615463,666.185348,306.438199
3743.750205,-8586.388927,370.102971,842.705048
3743.750534,-10510.924376,962.267725,1072.533697
3743.750864,-11695.253884,1036.288319,1225.752797
3743.751194,-10510.924376,518.144159,766.095498
3743.751524,-9696.697840,592.164754,1608.800546
3743.751853,-10955.047942,1258.350101,1685.410096
3743.752183,-11103.089130,1332.370696,1149.143247
3743.752513,-9104.533087,1184.329507,306.438199
3743.752843,-9992.780217,888.247130,-536.266849
3743.753172,-10288.862594,1332.370696,-306.438199
3743.753502,-10436.903782,888.247130,0.000000
3743.753832,-10955.047942,296.082377,842.705048
3743.754162,-9622.677246,666.185348,459.657299
3743.754492,-9178.553681,74.020594,306.438199
3743.754821,-9178.553681,-74.020594,76.609550
3743.755151,-10066.800811,0.000000,153.219100
3743.755481,-9178.553681,-370.102971,153.219100
3743.755811,-9326.594869,-592.164754,1072.533697
3743.756140,-9696.697840,-740.205942,1378.971896
3743.756470,-9548.656652,-296.082377,76.609550
3743.756800,-8808.450710,-1036.288319,-995.924147
3743.757130,-7698.141797,-888.247130,-766.095498
3743.757459,-8512.368333,-370.102971,-536.266849
3743.757789,-9030.512492,-518.144159,-919.314598
3743.758119,-8142.265362,-666.185348,-766.095498
3743.758449,-8512.368333,-1110.308913,-229.828649
3743.758778,-9104.533087,-888.247130,612.876398
3743.759108,-9622.677246,-1110.308913,-229.828649
3743.759438,-8808.450710,-1110.308913,0.000000
3743.759768,-9178.553681,-888.247130,153.219100
3743.760098,-10436.903782,0.000000,1532.190996
3743.760427,-9252.574275,-370.102971,1378.971896
3743.760757,-10658.965565,296.082377,536.266849
3743.761087,-10066.800811,518.144159,-612.876398
3743.761417,-9622.677246,666.185348,-766.095498
3743.761746,-10955.047942,222.061783,-1455.581446
3743.762076,-10955.047942,222.061783,-919.314598
3743.762406,-10510.924376,814.226536,76.609550
3743.762736,-9844.739029,74.020594,0.000000
3743.763065,-11103.089130,444.123565,0.000000
3743.763395,-11325.150913,888.247130,306.438199
3743.763725,-11769.274478,666.185348,0.000000
3743.764055,-10510.924376,518.144159,-536.266849
3743.764385,-10584.944971,-74.020594,1149.143247
3743.764714,-10807.006753,74.020594,1072.533697
3743.765044,-10140.821405,-888.247130,229.828649
3743.765374,-8438.347739,-370.102971,-229.828649
3743.765704,-8660.409521,-296.082377,-306.438199
3743.766033,-9622.677246,-444.123565,76.609550
3743.766363,-9474.636058,-814.226536,459.657299
3743.766693,-9474.636058,-740.205942,689.485948
3743.767023,-9696.697840,-444.123565,995.924147
3743.767352,-8734.430116,-1480.411884,536.266849
3743.767682,-9104.533087,-1406.391290,459.657299
3743.768012,-9474.636058,-1332.370696,1072.533697
3743.768342,-9548.656652,-962.267725,995.924147
3743.768671,-8882.471304,-592.164754,153.219100
3743.769001,-9104.533087,-370.102971,306.438199
3743.769331,-8512.368333,0.000000,1225.752797
3743.769661,-7846.182985,0.000000,612.876398
3743.769991,-8882.471304,148.041188,383.047749
3743.770320,-9548.656652,1110.308913,0.000000
3743.770650,-9696.697840,74.020594,-766.095498
3743.770980,-9770.718434,148.041188,-1608.800546
3743.771310,-10066.800811,518.144159,153.219100
3743.771639,-10732.986159,518.144159,919.314598
3743.771969,-9178.553681,0.000000,306.438199
3743.772299,-8660.409521,0.000000,0.000000
3743.772629,-10140.821405,1258.350101,766.095498
3743.772958,-10584.944971,1258.350101,689.485948
3743.773288,-10584.944971,1036.288319,995.924147
3743.773618,-10510.924376,1110.308913,1378.971896
3743.773948,-11103.089130,1406.391290,1378.971896
3743.774277,-10436.903782,814.226536,612.876398
3743.774607,-10436.903782,592.164754,76.609550
3743.774937,-10732.986159,1184.329507,459.657299
3743.775267,-10436.903782,888.247130,-76.609550
3743.775597,-10584.944971,888.247130,-306.438199
3743.775926,-9992.780217,518.144159,0.000000
3743.776256,-9474.636058,370.102971,306.438199
3743.776586,-9548.656652,814.226536,153.219100
3743.776916,-10066.800811,518.144159,76.609550
3743.777245,-10214.842000,666.185348,612.876398
3743.777575,-10436.903782,222.061783,229.828649
3743.777905,-9844.739029,-148.041188,0.000000
3743.778235,-10288.862594,-296.082377,-459.657299
3743.778564,-10362.883188,-370.102971,0.000000
3743.778894,-8142.265362,-1406.391290,-153.219100
3743.779224,-7994.224174,-1036.288319,612.876398
3743.779554,-8734.430116,-370.102971,229.828649
3743.779884,-10066.800811,-444.123565,306.438199
3743.780213,-8808.450710,-962.267725,-842.705048
3743.780543,-8586.388927,-888.247130,-459.657299
3743.780873,-9622.677246,-370.102971,0.000000
3743.781203,-9104.533087,-1110.308913,0.000000
3743.781532,-9030.512492,-1406.391290,-306.438199
3743.781862,-8068.244768,-296.082377,766.095498
3743.782192,-9030.512492,0.000000,766.095498
3743.782522,-10510.924376,518.144159,-612.876398
3743.782851,-9918.759623,518.144159,-1302.362347
3743.783181,-10214.842000,518.144159,-536.266849
3743.783511,-9770.718434,888.247130,0.000000
3743.783841,-10436.903782,444.123565,689.485948
3743.784170,-10436.903782,740.205942,383.047749
3743.784500,-9770.718434,0.000000,-612.876398
3743.784830,-9696.697840,444.123565,-842.705048
3743.785160,-10658.965565,666.185348,153.219100
3743.785490,-11621.233289,518.144159,842.705048
3743.785819,-9622.677246,-222.061783,995.924147
3743.786149,-9474.636058,-74.020594,919.314598
3743.786479,-10732.986159,888.247130,1915.238745
3743.786809,-10955.047942,296.082377,1532.190996
3743.787138,-10140.821405,370.102971,536.266849
3743.787468,-10881.027347,740.205942,612.876398
3743.787798,-10584.944971,814.226536,919.314598
3743.788128,-9696.697840,74.020594,766.095498
3743.788457,-9178.553681,-444.123565,-76.609550
3743.788787,-8882.471304,222.061783,536.266849
3743.789117,-9400.615463,0.000000,919.314598
3743.789447,-9030.512492,-370.102971,689.485948
3743.789777,-8808.450710,0.000000,1072.533697
3743.790106,-9992.780217,74.020594,1915.238745
3743.790436,-9844.739029,444.123565,2068.457845
3743.790766,-9474.636058,-518.144159,919.314598
3743.791096,-9030.512492,444.123565,1302.362347
3743.791425,-9474.636058,74.020594,1378.971896
3743.791755,-9770.718434,0.000000,1608.800546
3743.792085,-9104.533087,0.000000,1378.971896
3743.792415,-8956.491898,666.185348,1378.971896
3743.792744,-8660.409521,666.185348,1455.581446
3743.793074,-9104.533087,0.000000,153.219100
