#time,accel_x,accel_y,accel_z
4113.162941,-9548.656652,148.041188,919.314598
4113.163271,-9992.780217,0.000000,229.828649
4113.163601,-9770.718434,0.000000,306.438199
4113.163931,-9918.759623,0.000000,306.438199
4113.164261,-9844.739029,0.000000,76.609550
4113.164592,-9844.739029,148.041188,0.000000
4113.164922,-9622.677246,0.000000,153.219100
4113.165252,-9770.718434,0.000000,76.609550
4113.165582,-9844.739029,148.041188,76.609550
4113.165912,-9474.636058,0.000000,383.047749
4113.166242,-9548.656652,0.000000,76.609550
4113.166572,-9770.718434,-296.082377,229.828649
4113.166903,-9474.636058,-74.020594,612.876398
4113.167233,-9696.697840,-148.041188,229.828649
4113.167563,-10140.821405,222.061783,459.657299
4113.167893,-9918.759623,0.000000,153.219100
4113.168223,-10140.821405,222.061783,612.876398
4113.168553,-9474.636058,-222.061783,229.828649
4113.168884,-10140.821405,222.061783,306.438199
4113.169214,-9992.780217,0.000000,0.000000
4113.169544,-9548.656652,0.000000,-383.047749
4113.169874,-9548.656652,-296.082377,459.657299
4113.170204,-9548.656652,-296.082377,766.095498
4113.170534,-9622.677246,-296.082377,766.095498
4113.170865,-9622.677246,0.000000,689.485948
4113.171195,-9918.759623,0.000000,459.657299
4113.171525,-9770.718434,222.061783,306.438199
4113.171855,-9918.759623,222.061783,536.266849
4113.172185,-10066.800811,148.041188,689.485948
4113.172515,-9992.780217,0.000000,766.095498
4113.172845,-9844.739029,-370.102971,1149.143247
4113.173176,-9622.677246,-370.102971,1762.019645
4113.173506,-10066.800811,-444.123565,1685.410096
4113.173836,-9770.718434,-296.082377,612.876398
4113.174166,-9844.739029,0.000000,0.000000
4113.174496,-9400.615463,0.000000,-919.314598
4113.174826,-9622.677246,0.000000,229.828649
4113.175157,-9918.759623,-74.020594,842.705048
4113.175487,-10140.821405,-296.082377,1455.581446
4113.175817,-9918.759623,-666.185348,1838.629195
4113.176147,-9326.594869,-518.144159,1991.848295
4113.176477,-9252.574275,-962.267725,2145.067394
4113.176807,-9992.780217,-592.164754,1991.848295
4113.177138,-10362.883188,-1332.370696,2834.553343
4113.177468,-9918.759623,-888.247130,2528.115143
4113.177798,-10140.821405,-962.267725,3217.601092
4113.178128,-10140.821405,-814.226536,2681.334243
4113.178458,-10140.821405,-888.247130,2987.772442
4113.178788,-10214.842000,-518.144159,1762.019645
4113.179118,-10288.862594,-592.164754,1762.019645
4113.179449,-9992.780217,-888.247130,1685.410096
4113.179779,-9622.677246,-1110.308913,1378.971896
4113.180109,-9844.739029,-1924.535449,2451.505594
4113.180439,-10066.800811,-2220.617826,2681.334243
4113.180769,-10436.903782,-2886.803174,2911.162892
4113.181099,-9474.636058,-3256.906145,2451.505594
4113.181430,-9252.574275,-3404.947333,2681.334243
4113.181760,-8882.471304,-3478.967927,3524.039291
4113.182090,-9178.553681,-3182.885551,4366.744339
4113.182420,-9696.697840,-2960.823768,4290.134789
4113.182750,-10066.800811,-2442.679609,4903.011187
4113.183080,-10807.006753,-3108.864956,3370.820191
4113.183411,-11103.089130,-2738.761985,2298.286494
4113.183741,-10510.924376,-3108.864956,1149.143247
4113.184071,-9696.697840,-2886.803174,612.876398
4113.184401,-8660.409521,-3256.906145,1225.752797
4113.184731,-8586.388927,-2812.782580,1608.800546
4113.185061,-8290.306550,-3552.988522,2221.676944
4113.185392,-8734.430116,-3330.926739,2987.772442
4113.185722,-9548.656652,-3627.009116,3217.601092
4113.186052,-10288.862594,-4071.132681,2834.553343
4113.186382,-10288.862594,-4367.215058,2374.896044
4113.186712,-9770.718434,-4367.215058,3140.991542
4113.187042,-9696.697840,-4145.153275,4213.525239
4113.187372,-10140.821405,-3330.926739,4290.134789
4113.187703,-10807.006753,-2590.720797,2451.505594
4113.188033,-10658.965565,-2368.659014,1225.752797
4113.188363,-10436.903782,-2368.659014,1149.143247
4113.188693,-10881.027347,-2516.700203,1915.238745
4113.189023,-10288.862594,-3108.864956,2911.162892
4113.189353,-9770.718434,-3404.947333,2374.896044
4113.189684,-9252.574275,-3404.947333,1072.533697
4113.190014,-9030.512492,-3627.009116,995.924147
4113.190344,-9400.615463,-3478.967927,1991.848295
4113.190674,-9918.759623,-3034.844362,3370.820191
4113.191004,-10658.965565,-2146.597232,3830.477490
4113.191334,-11029.068536,-1776.494261,4136.915689
4113.191665,-9844.739029,-2220.617826,2757.943793
4113.191995,-9770.718434,-2220.617826,2528.115143
4113.192325,-10066.800811,-2738.761985,2451.505594
4113.192655,-10510.924376,-2812.782580,2834.553343
4113.192985,-10140.821405,-2368.659014,3370.820191
4113.193315,-9326.594869,-2368.659014,3217.601092
4113.193645,-9474.636058,-2220.617826,2374.896044
4113.193976,-10140.821405,-1554.432478,919.314598
4113.194306,-9992.780217,-1332.370696,612.876398
4113.194636,-9474.636058,-1258.350101,1378.971896
4113.194966,-9474.636058,-1258.350101,2528.115143
4113.195296,-9326.594869,-1184.329507,3524.039291
4113.195626,-9548.656652,-1184.329507,3677.258390
4113.195957,-10214.842000,-962.267725,2451.505594
4113.196287,-10436.903782,-1480.411884,1378.971896
4113.196617,-9918.759623,-1258.350101,1762.019645
4113.196947,-9770.718434,-888.247130,3140.991542
4113.197277,-9326.594869,-962.267725,3447.429741
4113.197607,-9548.656652,-370.102971,2987.772442
4113.197938,-10436.903782,-148.041188,1915.238745
4113.198268,-10362.883188,74.020594,459.657299
4113.198598,-9770.718434,-148.041188,229.828649
4113.198928,-9104.533087,-444.123565,842.705048
4113.199258,-9326.594869,-370.102971,1838.629195
4113.199588,-9548.656652,-518.144159,2221.676944
4113.199918,-9844.739029,-814.226536,1991.848295
4113.200249,-10584.944971,-444.123565,1072.533697
4113.200579,-10066.800811,-666.185348,1378.971896
4113.200909,-9992.780217,-888.247130,1608.800546
4113.201239,-10362.883188,-666.185348,2987.772442
4113.201569,-10807.006753,-444.123565,3830.477490
4113.201899,-10955.047942,-666.185348,3294.210641
4113.202230,-10436.903782,-518.144159,1991.848295
4113.202560,-9770.718434,-1184.329507,536.266849
4113.202890,-9622.677246,-1628.453072,766.095498
4113.203220,-9770.718434,-1332.370696,2374.896044
4113.203550,-9548.656652,-1998.556043,3064.381992
4113.203880,-9030.512492,-1924.535449,2528.115143
4113.204211,-8808.450710,-2368.659014,1915.238745
4113.204541,-9474.636058,-2146.597232,1608.800546
4113.204871,-9844.739029,-2368.659014,2374.896044
4113.205201,-10140.821405,-2368.659014,3677.258390
4113.205531,-10066.800811,-2368.659014,4060.306139
4113.205861,-9918.759623,-2812.782580,3524.039291
4113.206191,-9548.656652,-2664.741391,3294.210641
4113.206522,-10584.944971,-2738.761985,3217.601092
4113.206852,-10436.903782,-2368.659014,2528.115143
4113.207182,-10140.821405,-2590.720797,1378.971896
4113.207512,-8586.388927,-2886.803174,1455.581446
4113.207842,-8660.409521,-3034.844362,1838.629195
4113.208172,-9622.677246,-2960.823768,3294.210641
4113.208503,-9918.759623,-3552.988522,3140.991542
4113.208833,-9548.656652,-3701.029710,2145.067394
4113.209163,-8882.471304,-3701.029710,2911.162892
4113.209493,-10658.965565,-3849.070898,3294.210641
4113.209823,-11917.315666,-3404.947333,4673.182538
4113.210153,-11029.068536,-3182.885551,3600.648841
4113.210484,-9844.739029,-3108.864956,2604.724693
4113.210814,-9400.615463,-2368.659014,1762.019645
4113.211144,-10140.821405,-2294.638420,1532.190996
4113.211474,-10658.965565,-2146.597232,1685.410096
4113.211804,-10436.903782,-1776.494261,1762.019645
4113.212134,-10140.821405,-2368.659014,1685.410096
4113.212465,-9992.780217,-2590.720797,842.705048
4113.212795,-9844.739029,-3552.988522,995.924147
4113.213125,-9030.512492,-3182.885551,1532.190996
4113.213455,-8660.409521,-3034.844362,2221.676944
4113.213785,-9104.533087,-2072.576638,2834.553343
4113.214115,-10140.821405,-2072.576638,2757.943793
4113.214445,-10288.862594,-1480.411884,2451.505594
4113.214776,-10658.965565,-1036.288319,1378.971896
4113.215106,-10214.842000,-1036.288319,459.657299
4113.215436,-9918.759623,-592.164754,1225.752797
4113.215766,-9474.636058,-1406.391290,1455.581446
4113.216096,-8364.327145,-962.267725,1685.410096
4113.216426,-8882.471304,-962.267725,1685.410096
4113.216757,-9622.677246,-814.226536,0.000000
4113.217087,-9474.636058,-1184.329507,-306.438199
4113.217417,-10288.862594,222.061783,229.828649
4113.217747,-11029.068536,-74.020594,919.314598
4113.218077,-9918.759623,222.061783,153.219100
4113.218407,-9178.553681,444.123565,0.000000
4113.218738,-8882.471304,296.082377,-766.095498
4113.219068,-8956.491898,444.123565,-76.609550
4113.219398,-9326.594869,1184.329507,536.266849
4113.219728,-9548.656652,740.205942,-612.876398
4113.220058,-9770.718434,1480.411884,153.219100
4113.220387,-10214.842000,888.247130,306.438199
4113.220717,-9992.780217,1110.308913,-612.876398
4113.221047,-9474.636058,814.226536,-1991.848295
4113.221376,-9178.553681,296.082377,-919.314598
4113.221706,-9178.553681,740.205942,459.657299
4113.222036,-9104.533087,740.205942,995.924147
4113.222365,-9104.533087,1406.391290,383.047749
4113.222695,-10436.903782,1258.350101,536.266849
4113.223025,-10658.965565,1850.514855,-306.438199
4113.223354,-10214.842000,1480.411884,-919.314598
4113.223684,-9992.780217,1776.494261,-919.314598
4113.224013,-9918.759623,1924.535449,76.609550
4113.224343,-10362.883188,1924.535449,-612.876398
4113.224673,-9326.594869,1628.453072,-1532.190996
4113.225002,-9622.677246,1628.453072,-2221.676944
4113.225332,-10288.862594,1924.535449,-1302.362347
4113.225662,-9696.697840,1406.391290,-689.485948
4113.225991,-9104.533087,1406.391290,-383.047749
4113.226321,-9326.594869,1110.308913,153.219100
4113.226651,-9992.780217,1110.308913,306.438199
4113.226980,-10288.862594,888.247130,0.000000
4113.227310,-10436.903782,1110.308913,0.000000
4113.227640,-10510.924376,1036.288319,229.828649
4113.227969,-10436.903782,518.144159,612.876398
4113.228299,-9918.759623,666.185348,612.876398
4113.228629,-9400.615463,444.123565,76.609550
4113.228958,-9326.594869,74.020594,-459.657299
4113.229288,-9104.533087,0.000000,-919.314598
4113.229618,-8956.491898,0.000000,229.828649
4113.229947,-9104.533087,296.082377,536.266849
4113.230277,-9548.656652,814.226536,689.485948
4113.230607,-10807.006753,592.164754,306.438199
4113.230936,-11473.192101,888.247130,995.924147
4113.231266,-11399.171507,148.041188,383.047749
4113.231595,-10807.006753,74.020594,536.266849
4113.231925,-9622.677246,-370.102971,612.876398
4113.232255,-8956.491898,-222.061783,612.876398
4113.232584,-8734.430116,-148.041188,229.828649
4113.232914,-8142.265362,-296.082377,-383.047749
4113.233244,-9252.574275,0.000000,-229.828649
4113.233573,-10955.047942,296.082377,76.609550
4113.233903,-10955.047942,518.144159,842.705048
4113.234233,-9844.739029,148.041188,0.000000
4113.234562,-9474.636058,-148.041188,0.000000
4113.234892,-10214.842000,0.000000,536.266849
4113.235222,-10214.842000,-370.102971,612.876398
4113.235551,-9474.636058,-740.205942,229.828649
4113.235881,-9178.553681,-444.123565,153.219100
4113.236211,-9474.636058,-296.082377,1149.143247
4113.236540,-9622.677246,-296.082377,459.657299
4113.236870,-9844.739029,0.000000,-306.438199
4113.237200,-9622.677246,-444.123565,-306.438199
4113.237529,-9400.615463,-592.164754,-76.609550
4113.237859,-9326.594869,-74.020594,536.266849
4113.238188,-10214.842000,-518.144159,229.828649
4113.238518,-9992.780217,-296.082377,689.485948
4113.238848,-10140.821405,-740.205942,842.705048
4113.239177,-10436.903782,-370.102971,1225.752797
4113.239507,-10807.006753,-740.205942,1991.848295
4113.239837,-10214.842000,-740.205942,1378.971896
4113.240166,-9030.512492,-1036.288319,1302.362347
4113.240496,-9178.553681,-740.205942,1608.800546
4113.240826,-9548.656652,-592.164754,2068.457845
4113.241155,-10436.903782,-814.226536,1225.752797
4113.241485,-10584.944971,-296.082377,995.924147
4113.241815,-10288.862594,-592.164754,0.000000
4113.242144,-9992.780217,-222.061783,-612.876398
4113.242474,-8956.491898,-888.247130,-612.876398
4113.242804,-9326.594869,-740.205942,689.485948
4113.243133,-9770.718434,-592.164754,1072.533697
4113.243463,-9474.636058,-666.185348,459.657299
4113.243793,-9770.718434,-148.041188,766.095498
4113.244122,-9696.697840,-592.164754,459.657299
4113.244452,-10288.862594,-148.041188,689.485948
4113.244782,-9844.739029,-740.205942,306.438199
4113.245111,-9918.759623,-444.123565,0.000000
4113.245441,-9400.615463,-370.102971,229.828649
4113.245770,-9770.718434,-148.041188,0.000000
4113.246100,-9252.574275,-148.041188,-612.876398
4113.246430,-9400.615463,370.102971,-995.924147
4113.246759,-9844.739029,370.102971,-1072.533697
4113.247089,-10510.924376,296.082377,-306.438199
4113.247419,-10214.842000,740.205942,0.000000
4113.247748,-9548.656652,148.041188,-306.438199
4113.248078,-9178.553681,296.082377,-689.485948
4113.248408,-9474.636058,518.144159,-536.266849
4113.248737,-9696.697840,592.164754,-459.657299
4113.249067,-9844.739029,814.226536,-153.219100
4113.249397,-10214.842000,666.185348,-306.438199
4113.249726,-10436.903782,1036.288319,76.609550
4113.250056,-10510.924376,740.205942,306.438199
4113.250386,-10436.903782,592.164754,0.000000
4113.250715,-9622.677246,666.185348,-689.485948
4113.251045,-9622.677246,1110.308913,-306.438199
4113.251375,-9844.739029,740.205942,0.000000
4113.251704,-9992.780217,740.205942,76.609550
4113.252034,-9918.759623,962.267725,229.828649
4113.252364,-9844.739029,1184.329507,153.219100
4113.252693,-10362.883188,1036.288319,0.000000
4113.253023,-9548.656652,370.102971,-306.438199
4113.253352,-9178.553681,740.205942,306.438199
4113.253682,-8734.430116,592.164754,536.266849
4113.254012,-8882.471304,814.226536,229.828649
4113.254341,-9030.512492,444.123565,536.266849
4113.254671,-10066.800811,962.267725,383.047749
4113.255001,-10288.862594,592.164754,842.705048
4113.255330,-10214.842000,370.102971,229.828649
4113.255660,-9474.636058,444.123565,842.705048
4113.255990,-9178.553681,74.020594,689.485948
4113.256319,-8956.491898,444.123565,0.000000
4113.256649,-9252.574275,444.123565,0.000000
4113.256979,-9696.697840,592.164754,-153.219100
4113.257308,-10066.800811,666.185348,76.609550
4113.257638,-9918.759623,370.102971,0.000000
4113.257968,-10436.903782,888.247130,0.000000
4113.258297,-9918.759623,370.102971,0.000000
4113.258627,-9178.553681,0.000000,0.000000
4113.258957,-9474.636058,74.020594,-919.314598
4113.259286,-9992.780217,148.041188,306.438199
4113.259616,-9992.780217,0.000000,842.705048
4113.259946,-10214.842000,370.102971,459.657299
4113.260275,-10436.903782,148.041188,383.047749
4113.260605,-10510.924376,0.000000,76.609550
4113.260934,-10140.821405,-370.102971,-383.047749
4113.261264,-9400.615463,-888.247130,0.000000
4113.261594,-9104.533087,-814.226536,383.047749
4113.261923,-10288.862594,-1036.288319,1378.971896
4113.262253,-10066.800811,-888.247130,1149.143247
4113.262583,-10140.821405,-814.226536,536.266849
4113.262912,-10362.883188,-740.205942,153.219100
4113.263242,-10288.862594,-888.247130,459.657299
4113.263572,-10362.883188,-1184.329507,153.219100
4113.263901,-9622.677246,-1184.329507,383.047749
4113.264231,-9844.739029,-1110.308913,1608.800546
4113.264561,-10288.862594,-814.226536,1455.581446
4113.264890,-9622.677246,-1258.350101,459.657299
4113.265220,-9474.636058,-444.123565,76.609550
4113.265550,-9770.718434,-1258.350101,-76.609550
4113.265879,-10066.800811,-1184.329507,612.876398
4113.266209,-10066.800811,-1036.288319,1225.752797
4113.266539,-9696.697840,-1480.411884,842.705048
4113.266868,-8586.388927,-1036.288319,766.095498
4113.267198,-8586.388927,-1258.350101,766.095498
4113.267527,-10066.800811,-740.205942,919.314598
4113.267857,-10510.924376,-74.020594,1149.143247
4113.268187,-9474.636058,-518.144159,-153.219100
4113.268516,-8660.409521,-740.205942,-383.047749
4113.268846,-9030.512492,-444.123565,229.828649
4113.269176,-10140.821405,-740.205942,459.657299
4113.269505,-9474.636058,-518.144159,229.828649
4113.269835,-8956.491898,296.082377,-229.828649
4113.270165,-9326.594869,518.144159,0.000000
4113.270494,-10288.862594,740.205942,153.219100
4113.270824,-10658.965565,1184.329507,383.047749
4113.271154,-10584.944971,444.123565,229.828649
4113.271483,-10214.842000,592.164754,153.219100
4113.271813,-9474.636058,0.000000,-306.438199
4113.272143,-9918.759623,592.164754,76.609550
4113.272472,-10066.800811,814.226536,459.657299
4113.272802,-10066.800811,1332.370696,-383.047749
4113.273132,-10658.965565,1110.308913,-612.876398
4113.273461,-10214.842000,1110.308913,-383.047749
4113.273791,-10510.924376,1036.288319,612.876398
4113.274121,-10140.821405,592.164754,0.000000
4113.274450,-9770.718434,740.205942,0.000000
4113.274780,-9548.656652,222.061783,-153.219100
4113.275109,-8734.430116,592.164754,-229.828649
4113.275439,-8512.368333,0.000000,-76.609550
4113.275769,-10066.800811,518.144159,842.705048
4113.276098,-10510.924376,814.226536,1532.190996
4113.276428,-9770.718434,296.082377,1225.752797
4113.276758,-9104.533087,0.000000,919.314598
4113.277087,-9474.636058,222.061783,459.657299
4113.277417,-9770.718434,370.102971,153.219100
4113.277747,-8808.450710,0.000000,-153.219100
4113.278076,-8586.388927,148.041188,0.000000
4113.278406,-9548.656652,296.082377,1072.533697
4113.278736,-9770.718434,370.102971,229.828649
4113.279065,-9400.615463,592.164754,-766.095498
4113.279395,-9548.656652,814.226536,-1532.190996
4113.279725,-10510.924376,814.226536,-1378.971896
4113.280054,-10066.800811,148.041188,-766.095498
4113.280384,-9474.636058,296.082377,-459.657299
4113.280714,-9326.594869,296.082377,689.485948
4113.281043,-9548.656652,296.082377,1149.143247
4113.281373,-10214.842000,222.061783,842.705048
4113.281703,-11029.068536,740.205942,536.266849
4113.282032,-10732.986159,740.205942,0.000000
4113.282362,-10066.800811,222.061783,-306.438199
4113.282691,-9548.656652,148.041188,536.266849
4113.283021,-9844.739029,148.041188,842.705048
4113.283351,-10436.903782,518.144159,536.266849
4113.283680,-9622.677246,444.123565,-766.095498
4113.284010,-9770.718434,740.205942,-1378.971896
4113.284340,-10436.903782,444.123565,-689.485948
4113.284669,-10732.986159,148.041188,153.219100
4113.284999,-9918.759623,518.144159,995.924147
4113.285329,-9622.677246,0.000000,1378.971896
4113.285658,-9696.697840,-148.041188,1149.143247
4113.285988,-9622.677246,-814.226536,459.657299
4113.286318,-10140.821405,-296.082377,689.485948
4113.286647,-10140.821405,-592.164754,1455.581446
4113.286977,-9992.780217,-518.144159,1225.752797
4113.287307,-9400.615463,-518.144159,766.095498
4113.287636,-9252.574275,-518.144159,612.876398
4113.287966,-8586.388927,-740.205942,842.705048
4113.288296,-8808.450710,-1036.288319,0.000000
4113.288625,-9400.615463,-666.185348,-229.828649
4113.288955,-9474.636058,-666.185348,229.828649
4113.289285,-9844.739029,-592.164754,919.314598
4113.289614,-9400.615463,-740.205942,306.438199
4113.289944,-9474.636058,-518.144159,612.876398
4113.290273,-9992.780217,0.000000,689.485948
4113.290603,-9770.718434,-740.205942,689.485948
4113.290933,-9252.574275,-592.164754,766.095498
4113.291262,-9548.656652,0.000000,842.705048
4113.291592,-9918.759623,74.020594,0.000000
4113.291922,-9326.594869,-592.164754,-842.705048
4113.292251,-9474.636058,-370.102971,0.000000
4113.292581,-9474.636058,-370.102971,229.828649
4113.292911,-9770.718434,-296.082377,76.609550
4113.293240,-9474.636058,0.000000,76.609550
4113.293570,-10288.862594,148.041188,306.438199
4113.293900,-10140.821405,74.020594,0.000000
4113.294229,-9770.718434,-74.020594,-229.828649
4113.294559,-9844.739029,370.102971,-76.609550
4113.294889,-9770.718434,0.000000,0.000000
4113.295218,-9918.759623,148.041188,689.485948
4113.295548,-9400.615463,222.061783,919.314598
4113.295878,-10140.821405,148.041188,689.485948
4113.296207,-10584.944971,814.226536,-612.876398
4113.296537,-10288.862594,444.123565,-995.924147
4113.296866,-9622.677246,740.205942,-842.705048
4113.297196,-10066.800811,0.000000,-153.219100
4113.297526,-10955.047942,148.041188,76.609550
4113.297855,-9622.677246,74.020594,229.828649
4113.298185,-9474.636058,222.061783,229.828649
4113.298515,-9474.636058,370.102971,459.657299
4113.298844,-10436.903782,-296.082377,612.876398
4113.299174,-10214.842000,222.061783,1532.190996
4113.299504,-9992.780217,-148.041188,1378.971896
4113.299833,-9770.718434,0.000000,919.314598
4113.300163,-9622.677246,-740.205942,766.095498
4113.300493,-9844.739029,-148.041188,995.924147
4113.300822,-9622.677246,-888.247130,1762.019645
4113.301152,-9474.636058,0.000000,919.314598
4113.301482,-9622.677246,-222.061783,919.314598
4113.301811,-9770.718434,0.000000,1072.533697
4113.302141,-9622.677246,740.205942,536.266849
4113.302471,-9770.718434,222.061783,-306.438199
4113.302800,-10140.821405,814.226536,-306.438199
4113.303130,-9548.656652,592.164754,-306.438199
4113.303460,-10214.842000,740.205942,76.609550
4113.303789,-9252.574275,222.061783,-229.828649
4113.304119,-9770.718434,814.226536,0.000000
4113.304448,-9548.656652,518.144159,0.000000
4113.304778,-9474.636058,148.041188,-153.219100
4113.305108,-9696.697840,740.205942,306.438199
4113.305437,-9622.677246,666.185348,-612.876398
4113.305767,-9622.677246,1036.288319,-612.876398
4113.306097,-9104.533087,370.102971,459.657299
4113.306426,-10140.821405,1258.350101,1378.971896
4113.306756,-10732.986159,814.226536,766.095498
4113.307086,-10288.862594,518.144159,-536.266849
4113.307415,-9400.615463,518.144159,-842.705048
4113.307745,-9696.697840,1110.308913,-536.266849
4113.308075,-9992.780217,666.185348,-383.047749
4113.308404,-9770.718434,370.102971,0.000000
4113.308734,-9548.656652,666.185348,-306.438199
4113.309064,-10066.800811,962.267725,-383.047749
4113.309393,-10584.944971,888.247130,-536.266849
4113.309723,-10288.862594,444.123565,-76.609550
4113.310053,-9474.636058,444.123565,459.657299
4113.310382,-9844.739029,74.020594,1072.533697
4113.310712,-9844.739029,0.000000,842.705048
4113.311042,-10140.821405,-148.041188,1072.533697
4113.311371,-9770.718434,148.041188,1072.533697
4113.311701,-9474.636058,-370.102971,306.438199
4113.312030,-9474.636058,148.041188,689.485948
4113.312360,-9918.759623,74.020594,1302.362347
4113.312690,-9622.677246,0.000000,995.924147
4113.313019,-9622.677246,-592.164754,-153.219100
4113.313349,-9696.697840,-74.020594,76.609550
4113.313679,-9252.574275,-370.102971,0.000000
4113.314008,-8734.430116,-814.226536,-229.828649
4113.314338,-8512.368333,-518.144159,0.000000
4113.314668,-9622.677246,0.000000,536.266849
4113.314997,-10214.842000,-148.041188,766.095498
4113.315327,-10436.903782,-222.061783,153.219100
4113.315657,-10362.883188,-296.082377,306.438199
4113.315986,-9918.759623,-592.164754,536.266849
4113.316316,-9474.636058,-518.144159,383.047749
4113.316646,-9030.512492,-740.205942,0.000000
4113.316975,-9844.739029,0.000000,1072.533697
4113.317305,-10066.800811,-74.020594,842.705048
4113.317635,-9844.739029,0.000000,766.095498
4113.317964,-10362.883188,0.000000,459.657299
4113.318294,-10584.944971,148.041188,0.000000
4113.318624,-9992.780217,0.000000,-459.657299
4113.318953,-9030.512492,-222.061783,-612.876398
4113.319283,-9326.594869,0.000000,-383.047749
4113.319612,-9474.636058,148.041188,-306.438199
4113.319942,-9918.759623,296.082377,-459.657299
4113.320271,-10362.883188,222.061783,-306.438199
4113.320601,-11473.192101,74.020594,0.000000
4113.320931,-11251.130318,0.000000,995.924147
4113.321260,-10658.965565,-962.267725,766.095498
4113.321590,-9474.636058,-296.082377,1072.533697
4113.321919,-8660.409521,0.000000,459.657299
4113.322249,-9400.615463,0.000000,459.657299
4113.322579,-9918.759623,74.020594,536.266849
4113.322908,-10510.924376,296.082377,0.000000
4113.323238,-9992.780217,444.123565,536.266849
4113.323567,-10436.903782,-296.082377,459.657299
4113.323897,-9696.697840,-444.123565,1225.752797
4113.324226,-8586.388927,-1258.350101,689.485948
4113.324556,-8512.368333,-592.164754,306.438199
4113.324886,-8734.430116,-370.102971,-229.828649
4113.325215,-9400.615463,-370.102971,0.000000
4113.325545,-9104.533087,0.000000,76.609550
4113.325874,-9252.574275,-148.041188,536.266849
4113.326204,-9696.697840,666.185348,229.828649
4113.326534,-10214.842000,0.000000,995.924147
4113.326863,-9696.697840,-148.041188,306.438199
4113.327193,-8438.347739,0.000000,229.828649
4113.327522,-8808.450710,518.144159,383.047749
4113.327852,-10658.965565,444.123565,0.000000
4113.328182,-10584.944971,296.082377,0.000000
4113.328511,-9030.512492,-148.041188,-842.705048
4113.328841,-9696.697840,74.020594,-306.438199
4113.329170,-9992.780217,370.102971,76.609550
4113.329500,-9992.780217,-296.082377,306.438199
4113.329829,-9252.574275,222.061783,-229.828649
4113.330159,-9178.553681,296.082377,-229.828649
4113.330489,-10584.944971,1184.329507,-766.095498
4113.330818,-10288.862594,592.164754,-383.047749
4113.331148,-10510.924376,740.205942,0.000000
4113.331477,-10955.047942,370.102971,0.000000
4113.331807,-11325.150913,518.144159,153.219100
4113.332137,-10584.944971,-74.020594,383.047749
4113.332466,-9696.697840,-962.267725,76.609550
4113.332796,-9104.533087,-74.020594,229.828649
4113.333125,-9252.574275,0.000000,306.438199
4113.333455,-10140.821405,740.205942,383.047749
4113.333785,-10288.862594,444.123565,76.609550
4113.334114,-10584.944971,518.144159,-459.657299
4113.334444,-10140.821405,370.102971,-229.828649
4113.334773,-10362.883188,0.000000,76.609550
4113.335103,-10066.800811,-296.082377,689.485948
4113.335432,-9104.533087,-592.164754,229.828649
4113.335762,-8956.491898,-296.082377,383.047749
4113.336092,-9030.512492,0.000000,459.657299
4113.336421,-10066.800811,0.000000,0.000000
4113.336751,-10066.800811,148.041188,536.266849
4113.337080,-9696.697840,222.061783,536.266849
4113.337410,-9548.656652,222.061783,689.485948
4113.337740,-9030.512492,0.000000,-919.314598
4113.338069,-8586.388927,0.000000,-1225.752797
4113.338399,-9030.512492,0.000000,-536.266849
4113.338728,-9844.739029,296.082377,0.000000
4113.339058,-9622.677246,0.000000,0.000000
4113.339388,-9252.574275,-74.020594,459.657299
4113.339717,-9696.697840,0.000000,306.438199
4113.340047,-9770.718434,0.000000,229.828649
4113.340376,-9400.615463,370.102971,229.828649
4113.340706,-9696.697840,444.123565,1225.752797
4113.341035,-9696.697840,666.185348,1838.629195
4113.341365,-10214.842000,888.247130,1225.752797
4113.341695,-11177.109724,1184.329507,306.438199
4113.342024,-11177.109724,666.185348,-612.876398
4113.342354,-9548.656652,666.185348,-1302.362347
4113.342683,-9622.677246,666.185348,-1149.143247
4113.343013,-9844.739029,1036.288319,-306.438199
4113.343343,-9548.656652,1036.288319,-383.047749
4113.343672,-9326.594869,1036.288319,-383.047749
4113.344002,-9992.780217,740.205942,-229.828649
4113.344331,-10732.986159,518.144159,76.609550
4113.344661,-11251.130318,148.041188,689.485948
4113.344990,-9548.656652,-296.082377,536.266849
4113.345320,-9400.615463,-666.185348,1072.533697
4113.345650,-9252.574275,-814.226536,1378.971896
4113.345979,-9104.533087,-370.102971,1532.190996
4113.346309,-9400.615463,-222.061783,1378.971896
4113.346638,-9918.759623,-222.061783,766.095498
4113.346968,-10288.862594,-148.041188,383.047749
4113.347298,-9548.656652,-444.123565,0.000000
4113.347627,-9622.677246,-296.082377,306.438199
4113.347957,-9400.615463,-222.061783,536.266849
4113.348286,-9326.594869,-888.247130,0.000000
4113.348616,-8956.491898,-592.164754,-153.219100
4113.348946,-9696.697840,-444.123565,306.438199
4113.349275,-10214.842000,-666.185348,459.657299
4113.349605,-9918.759623,-666.185348,229.828649
4113.349934,-9770.718434,-296.082377,229.828649
4113.350264,-9992.780217,74.020594,306.438199
4113.350593,-9400.615463,-814.226536,153.219100
4113.350923,-9400.615463,-962.267725,1302.362347
4113.351253,-9918.759623,-444.123565,1378.971896
4113.351582,-9844.739029,-740.205942,1455.581446
4113.351912,-9474.636058,-1332.370696,383.047749
4113.352241,-9622.677246,-888.247130,919.314598
4113.352571,-9918.759623,-592.164754,1302.362347
4113.352901,-9992.780217,-370.102971,1072.533697
4113.353230,-9104.533087,-666.185348,459.657299
4113.353560,-10066.800811,-444.123565,383.047749
4113.353889,-10288.862594,74.020594,612.876398
4113.354219,-10658.965565,0.000000,0.000000
4113.354549,-10732.986159,814.226536,-383.047749
4113.354878,-10288.862594,296.082377,0.000000
4113.355208,-10510.924376,74.020594,-306.438199
4113.355537,-9548.656652,0.000000,-766.095498
4113.355867,-9696.697840,0.000000,229.828649
4113.356196,-10066.800811,148.041188,153.219100
4113.356526,-10140.821405,0.000000,383.047749
4113.356856,-9474.636058,148.041188,459.657299
4113.357185,-9252.574275,222.061783,536.266849
4113.357515,-9992.780217,74.020594,689.485948
4113.357844,-10584.944971,0.000000,689.485948
4113.358174,-9770.718434,0.000000,459.657299
4113.358504,-9252.574275,0.000000,459.657299
4113.358833,-9104.533087,-222.061783,-229.828649
4113.359163,-8808.450710,148.041188,-459.657299
4113.359492,-9178.553681,370.102971,-383.047749
4113.359822,-8882.471304,814.226536,-459.657299
4113.360152,-9326.594869,814.226536,0.000000
4113.360481,-10288.862594,888.247130,153.219100
4113.360811,-10066.800811,814.226536,0.000000
4113.361140,-9252.574275,148.041188,-536.266849
4113.361470,-9252.574275,148.041188,-689.485948
4113.361799,-9992.780217,666.185348,0.000000
4113.362129,-9844.739029,444.123565,536.266849
4113.362459,-9252.574275,296.082377,76.609550
4113.362788,-9178.553681,1036.288319,229.828649
4113.363118,-10807.006753,1554.432478,459.657299
4113.363447,-11251.130318,1332.370696,-229.828649
4113.363777,-9844.739029,518.144159,-612.876398
4113.364107,-9030.512492,888.247130,-919.314598
4113.364436,-9326.594869,740.205942,0.000000
4113.364766,-10362.883188,814.226536,-76.609550
4113.365095,-10362.883188,444.123565,-229.828649
4113.365425,-9770.718434,740.205942,-229.828649
4113.365754,-9696.697840,740.205942,0.000000
4113.366084,-9622.677246,0.000000,-995.924147
4113.366414,-9252.574275,444.123565,-153.219100
4113.366743,-9030.512492,0.000000,919.314598
4113.367073,-10436.903782,518.144159,766.095498
4113.367402,-10955.047942,0.000000,1225.752797
4113.367732,-11029.068536,0.000000,1225.752797
4113.368062,-10510.924376,-518.144159,919.314598
4113.368391,-9104.533087,-666.185348,766.095498
4113.368721,-8956.491898,0.000000,1225.752797
4113.369050,-8808.450710,0.000000,229.828649
4113.369380,-9178.553681,0.000000,-459.657299
4113.369710,-9770.718434,0.000000,-842.705048
4113.370039,-10955.047942,0.000000,0.000000
4113.370369,-10288.862594,0.000000,459.657299
4113.370698,-9252.574275,-1036.288319,612.876398
4113.371028,-8660.409521,-962.267725,612.876398
4113.371357,-8882.471304,-518.144159,459.657299
4113.371687,-9548.656652,-962.267725,919.314598
4113.372017,-10140.821405,-370.102971,1532.190996
4113.372346,-10955.047942,-370.102971,2068.457845
4113.372676,-10658.965565,-296.082377,1685.410096
4113.373005,-9696.697840,-370.102971,536.266849
4113.373335,-9400.615463,-740.205942,-536.266849
4113.373665,-9030.512492,-962.267725,76.609550
4113.373994,-9326.594869,-444.123565,1072.533697
4113.374324,-9844.739029,-74.020594,1455.581446
4113.374653,-9474.636058,-518.144159,766.095498
4113.374983,-10362.883188,0.000000,766.095498
4113.375313,-10807.006753,-296.082377,76.609550
4113.375642,-10140.821405,-444.123565,-229.828649
4113.375972,-9696.697840,-222.061783,0.000000
4113.376301,-9622.677246,-148.041188,1149.143247
4113.376631,-9844.739029,74.020594,1378.971896
4113.376960,-9992.780217,444.123565,919.314598
4113.377290,-10584.944971,740.205942,-536.266849
4113.377620,-10658.965565,666.185348,-919.314598
4113.377949,-10288.862594,296.082377,-229.828649
4113.378279,-10066.800811,296.082377,0.000000
4113.378608,-9992.780217,518.144159,1149.143247
4113.378938,-9252.574275,-148.041188,536.266849
4113.379268,-9474.636058,296.082377,0.000000
4113.379597,-10140.821405,592.164754,-459.657299
4113.379927,-10288.862594,296.082377,-76.609550
4113.380256,-10066.800811,74.020594,-459.657299
4113.380586,-9252.574275,518.144159,689.485948
4113.380916,-9474.636058,222.061783,995.924147
4113.381245,-9992.780217,518.144159,76.609550
4113.381575,-9400.615463,74.020594,-383.047749
4113.381904,-9696.697840,444.123565,-612.876398
4113.382234,-9992.780217,518.144159,-383.047749
4113.382563,-10140.821405,74.020594,153.219100
4113.382893,-9770.718434,814.226536,1378.971896
4113.383223,-8660.409521,0.000000,536.266849
4113.383552,-9030.512492,370.102971,229.828649
4113.383882,-9696.697840,74.020594,-612.876398
4113.384211,-10510.924376,518.144159,-229.828649
4113.384541,-9844.739029,222.061783,-153.219100
4113.384871,-9326.594869,0.000000,-306.438199
4113.385200,-8956.491898,148.041188,459.657299
4113.385530,-9474.636058,74.020594,536.266849
4113.385859,-9474.636058,296.082377,612.876398
4113.386189,-9696.697840,444.123565,76.609550
4113.386518,-10732.986159,444.123565,459.657299
4113.386848,-10584.944971,0.000000,689.485948
4113.387178,-9918.759623,0.000000,536.266849
4113.387507,-9400.615463,74.020594,383.047749
4113.387837,-9474.636058,296.082377,0.000000
4113.388166,-9548.656652,444.123565,-229.828649
4113.388496,-9548.656652,222.061783,-995.924147
4113.388826,-10362.883188,888.247130,0.000000
4113.389155,-10436.903782,592.164754,536.266849
4113.389485,-10584.944971,370.102971,-383.047749
4113.389814,-9030.512492,148.041188,-306.438199
4113.390144,-9252.574275,0.000000,-612.876398
4113.390474,-9696.697840,0.000000,0.000000
4113.390803,-10288.862594,0.000000,-229.828649
4113.391133,-10584.944971,148.041188,459.657299
4113.391462,-10288.862594,592.164754,842.705048
4113.391792,-10140.821405,222.061783,306.438199
4113.392121,-9548.656652,-222.061783,-306.438199
4113.392451,-9326.594869,0.000000,76.609550
4113.392781,-9252.574275,-592.164754,536.266849
4113.393110,-9844.739029,-666.185348,612.876398
4113.393440,-10066.800811,-222.061783,1072.533697
4113.393769,-10658.965565,-296.082377,1225.752797
4113.394099,-10140.821405,-74.020594,306.438199
4113.394429,-9474.636058,-740.205942,-76.609550
4113.394758,-9474.636058,0.000000,0.000000
4113.395088,-9104.533087,-296.082377,689.485948
4113.395417,-8808.450710,0.000000,383.047749
4113.395747,-9474.636058,-296.082377,153.219100
4113.396077,-11103.089130,74.020594,383.047749
4113.396406,-10584.944971,-666.185348,536.266849
4113.396736,-9548.656652,-1036.288319,-153.219100
4113.397065,-9622.677246,-888.247130,306.438199
4113.397395,-9326.594869,-740.205942,1225.752797
4113.397724,-8808.450710,-1036.288319,842.705048
4113.398054,-8660.409521,-444.123565,919.314598
4113.398384,-9992.780217,148.041188,995.924147
4113.398713,-11177.109724,0.000000,1072.533697
4113.399043,-10288.862594,-592.164754,306.438199
4113.399372,-9474.636058,-740.205942,0.000000
4113.399702,-9178.553681,-592.164754,306.438199
4113.400032,-9252.574275,-592.164754,766.095498
4113.400361,-9252.574275,-888.247130,306.438199
4113.400691,-9696.697840,-148.041188,-306.438199
4113.401020,-9844.739029,444.123565,-153.219100
4113.401350,-10140.821405,592.164754,-689.485948
4113.401680,-10584.944971,222.061783,-842.705048
4113.402009,-10066.800811,148.041188,0.000000
4113.402339,-9770.718434,148.041188,306.438199
4113.402668,-9770.718434,148.041188,76.609550
4113.402998,-9918.759623,444.123565,306.438199
4113.403327,-9696.697840,0.000000,383.047749
4113.403657,-9400.615463,0.000000,-612.876398
4113.403987,-9622.677246,148.041188,-612.876398
4113.404316,-10510.924376,296.082377,383.047749
4113.404646,-10140.821405,0.000000,612.876398
4113.404975,-9326.594869,0.000000,689.485948
4113.405305,-8956.491898,0.000000,306.438199
4113.405635,-9252.574275,370.102971,459.657299
4113.405964,-10066.800811,444.123565,-306.438199
4113.406294,-10140.821405,592.164754,-153.219100
4113.406623,-10140.821405,740.205942,306.438199
4113.406953,-9474.636058,518.144159,842.705048
4113.407283,-9622.677246,222.061783,536.266849
4113.407612,-9844.739029,0.000000,612.876398
4113.407942,-10214.842000,148.041188,536.266849
4113.408271,-9252.574275,0.000000,-766.095498
4113.408601,-8660.409521,222.061783,-306.438199
4113.408930,-8734.430116,666.185348,0.000000
4113.409260,-9622.677246,962.267725,459.657299
4113.409590,-10140.821405,444.123565,153.219100
4113.409919,-9918.759623,814.226536,-459.657299
4113.410249,-10584.944971,370.102971,-383.047749
4113.410578,-10066.800811,444.123565,-459.657299
4113.410908,-9030.512492,-74.020594,0.000000
4113.411238,-8882.471304,1110.308913,383.047749
4113.411567,-9844.739029,888.247130,612.876398
4113.411897,-10658.965565,962.267725,0.000000
4113.412226,-10362.883188,1036.288319,-536.266849
4113.412556,-10436.903782,1332.370696,-766.095498
4113.412885,-10436.903782,962.267725,-229.828649
4113.413215,-9770.718434,740.205942,153.219100
4113.413545,-9400.615463,888.247130,153.219100
4113.413874,-9326.594869,666.185348,-229.828649
4113.414204,-9622.677246,888.247130,-1072.533697
4113.414533,-10140.821405,888.247130,-612.876398
4113.414863,-11251.130318,1258.350101,306.438199
4113.415193,-10436.903782,740.205942,919.314598
4113.415522,-9918.759623,444.123565,153.219100
4113.415852,-9696.697840,0.000000,153.219100
4113.416181,-9252.574275,-370.102971,0.000000
4113.416511,-8734.430116,0.000000,0.000000
4113.416841,-8882.471304,222.061783,383.047749
4113.417170,-9918.759623,148.041188,995.924147
4113.417500,-9844.739029,0.000000,612.876398
4113.417829,-10436.903782,-296.082377,76.609550
4113.418159,-10140.821405,-962.267725,0.000000
4113.418488,-9918.759623,-222.061783,1225.752797
4113.418818,-9030.512492,-1184.329507,1991.848295
4113.419148,-8734.430116,-962.267725,1762.019645
4113.419477,-8956.491898,-740.205942,1532.190996
4113.419807,-9770.718434,-222.061783,842.705048
4113.420136,-10362.883188,-666.185348,0.000000
4113.420466,-9844.739029,-592.164754,-383.047749
4113.420796,-9252.574275,-1258.350101,-306.438199
4113.421125,-8216.285956,-1850.514855,536.266849
4113.421455,-8586.388927,-1554.432478,153.219100
4113.421785,-8882.471304,-1406.391290,842.705048
4113.422115,-9696.697840,-1184.329507,766.095498
4113.422445,-10066.800811,-1036.288319,-76.609550
4113.422775,-9918.759623,-666.185348,766.095498
4113.423104,-10214.842000,-444.123565,1225.752797
4113.423434,-9770.718434,-666.185348,842.705048
4113.423764,-9696.697840,-740.205942,995.924147
4113.424094,-10140.821405,-518.144159,689.485948
4113.424424,-10436.903782,-296.082377,0.000000
4113.424754,-10066.800811,-444.123565,-689.485948
4113.425083,-10066.800811,-296.082377,-306.438199
4113.425413,-10807.006753,-74.020594,-383.047749
4113.425743,-9548.656652,-370.102971,-612.876398
4113.426073,-9918.759623,-74.020594,-383.047749
4113.426403,-10658.965565,0.000000,766.095498
4113.426732,-11029.068536,148.041188,1915.238745
4113.427062,-10436.903782,-296.082377,1225.752797
4113.427392,-10288.862594,-370.102971,1225.752797
4113.427722,-10362.883188,0.000000,1608.800546
4113.428052,-9992.780217,-148.041188,612.876398
4113.428382,-9696.697840,-518.144159,-229.828649
4113.428711,-9474.636058,-296.082377,0.000000
4113.429041,-9622.677246,0.000000,1072.533697
4113.429371,-9770.718434,0.000000,1532.190996
4113.429701,-9474.636058,-148.041188,536.266849
4113.430031,-9474.636058,0.000000,612.876398
4113.430361,-8882.471304,-444.123565,0.000000
4113.430690,-9622.677246,148.041188,-229.828649
4113.431020,-9326.594869,-296.082377,0.000000
4113.431350,-9992.780217,148.041188,766.095498
4113.431680,-9474.636058,148.041188,995.924147
4113.432010,-8956.491898,74.020594,612.876398
4113.432340,-9622.677246,592.164754,383.047749
4113.432669,-9844.739029,888.247130,-306.438199
4113.432999,-9178.553681,296.082377,-536.266849
4113.433329,-8808.450710,-148.041188,0.000000
4113.433659,-9844.739029,0.000000,1072.533697
4113.433989,-9918.759623,0.000000,842.705048
4113.434319,-9326.594869,-148.041188,-306.438199
4113.434648,-8882.471304,74.020594,-919.314598
4113.434978,-9326.594869,148.041188,-1072.533697
4113.435308,-9474.636058,370.102971,-229.828649
4113.435638,-9918.759623,814.226536,0.000000
4113.435968,-10658.965565,1258.350101,1149.143247
4113.436297,-10510.924376,1110.308913,229.828649
4113.436627,-10955.047942,666.185348,-229.828649
4113.436957,-9992.780217,518.144159,-919.314598
4113.437287,-9400.615463,592.164754,-536.266849
4113.437617,-9474.636058,962.267725,-76.609550
4113.437947,-10214.842000,148.041188,0.000000
4113.438276,-10214.842000,518.144159,383.047749
4113.438606,-10066.800811,814.226536,306.438199
4113.438936,-10881.027347,740.205942,-536.266849
4113.439266,-10214.842000,296.082377,-1225.752797
4113.439596,-9696.697840,296.082377,-306.438199
4113.439926,-9400.615463,0.000000,612.876398
4113.440255,-9622.677246,0.000000,306.438199
4113.440585,-9622.677246,-296.082377,536.266849
4113.440915,-10362.883188,148.041188,1072.533697
4113.441245,-9844.739029,148.041188,459.657299
4113.441575,-9844.739029,-888.247130,76.609550
4113.441905,-10584.944971,222.061783,919.314598
4113.442234,-9474.636058,-444.123565,995.924147
4113.442564,-9474.636058,0.000000,229.828649
4113.442894,-8660.409521,0.000000,306.438199
4113.443224,-9622.677246,444.123565,459.657299
4113.443554,-9918.759623,444.123565,-383.047749
4113.443884,-9326.594869,222.061783,-1149.143247
4113.444213,-9326.594869,296.082377,-536.266849
4113.444543,-9696.697840,0.000000,306.438199
4113.444873,-10066.800811,222.061783,0.000000
4113.445203,-9400.615463,-518.144159,-229.828649
4113.445533,-8956.491898,-148.041188,-689.485948
4113.445863,-8882.471304,222.061783,383.047749
4113.446192,-9918.759623,444.123565,612.876398
4113.446522,-10066.800811,666.185348,995.924147
4113.446852,-10436.903782,518.144159,689.485948
4113.447182,-10436.903782,666.185348,229.828649
4113.447512,-10214.842000,222.061783,-383.047749
4113.447841,-10362.883188,222.061783,0.000000
4113.448171,-9548.656652,0.000000,306.438199
4113.448501,-8586.388927,666.185348,0.000000
4113.448831,-9178.553681,1110.308913,-766.095498
4113.449161,-10732.986159,1110.308913,-919.314598
4113.449491,-10955.047942,1480.411884,0.000000
4113.449820,-9844.739029,740.205942,-76.609550
4113.450150,-10732.986159,444.123565,612.876398
4113.450480,-10436.903782,296.082377,1225.752797
4113.450810,-9844.739029,0.000000,1532.190996
4113.451140,-9030.512492,74.020594,842.705048
4113.451470,-9178.553681,0.000000,229.828649
4113.451799,-9548.656652,666.185348,0.000000
4113.452129,-9770.718434,74.020594,0.000000
4113.452459,-10214.842000,296.082377,842.705048
4113.452789,-9918.759623,-296.082377,1302.362347
4113.453119,-9696.697840,-666.185348,766.095498
4113.453449,-9030.512492,-888.247130,306.438199
4113.453778,-8734.430116,-814.226536,229.828649
4113.454108,-8660.409521,-666.185348,306.438199
4113.454438,-9622.677246,-148.041188,842.705048
4113.454768,-9696.697840,0.000000,1455.581446
4113.455098,-10140.821405,-148.041188,1762.019645
4113.455428,-10140.821405,-444.123565,459.657299
4113.455757,-9696.697840,-888.247130,229.828649
4113.456087,-9992.780217,-740.205942,229.828649
4113.456417,-9696.697840,-888.247130,383.047749
4113.456747,-9104.533087,-1036.288319,0.000000
4113.457077,-9178.553681,-296.082377,842.705048
4113.457406,-10140.821405,0.000000,612.876398
4113.457736,-11399.171507,148.041188,0.000000
4113.458066,-10510.924376,0.000000,-919.314598
4113.458396,-9992.780217,0.000000,-612.876398
4113.458726,-10140.821405,-222.061783,-306.438199
4113.459056,-9918.759623,-444.123565,229.828649
4113.459385,-9178.553681,-962.267725,1378.971896
4113.459715,-9252.574275,-444.123565,842.705048
4113.460045,-9770.718434,-592.164754,-383.047749
4113.460375,-10658.965565,-666.185348,-689.485948
4113.460705,-10288.862594,0.000000,766.095498
4113.461035,-9770.718434,-592.164754,919.314598
4113.461364,-9400.615463,-370.102971,1225.752797
4113.461694,-9178.553681,-666.185348,1072.533697
4113.462024,-10436.903782,222.061783,459.657299
4113.462354,-10140.821405,0.000000,-459.657299
4113.462684,-10140.821405,0.000000,-1072.533697
4113.463014,-10066.800811,370.102971,-229.828649
4113.463343,-10140.821405,296.082377,995.924147
4113.463673,-9696.697840,0.000000,612.876398
4113.464003,-9400.615463,370.102971,0.000000
4113.464333,-10214.842000,296.082377,-153.219100
4113.464663,-9844.739029,0.000000,-459.657299
4113.464993,-9326.594869,-444.123565,153.219100
4113.465322,-9400.615463,0.000000,459.657299
4113.465652,-9474.636058,222.061783,1685.410096
4113.465982,-9400.615463,74.020594,1378.971896
4113.466312,-9696.697840,0.000000,766.095498
4113.466642,-9770.718434,370.102971,459.657299
4113.466972,-9474.636058,0.000000,76.609550
4113.467301,-9474.636058,0.000000,0.000000
4113.467631,-9104.533087,444.123565,536.266849
4113.467961,-10436.903782,740.205942,536.266849
4113.468291,-9178.553681,0.000000,0.000000
4113.468621,-9104.533087,0.000000,-306.438199
4113.468950,-9548.656652,740.205942,536.266849
4113.469280,-10436.903782,74.020594,1072.533697
4113.469610,-10066.800811,740.205942,919.314598
4113.469940,-9548.656652,518.144159,459.657299
4113.470270,-10288.862594,1036.288319,0.000000
4113.470600,-10288.862594,962.267725,-689.485948
4113.470929,-10214.842000,666.185348,-1378.971896
4113.471259,-10288.862594,1036.288319,-612.876398
4113.471589,-8882.471304,740.205942,-383.047749
4113.471919,-9252.574275,814.226536,-919.314598
4113.472249,-9326.594869,222.061783,-536.266849
4113.472579,-10066.800811,814.226536,306.438199
4113.472908,-10214.842000,0.000000,153.219100
4113.473238,-9548.656652,-296.082377,0.000000
4113.473568,-9326.594869,-222.061783,842.705048
4113.473898,-9918.759623,222.061783,2298.286494
4113.474228,-9844.739029,148.041188,1149.143247
4113.474558,-10362.883188,592.164754,306.438199
4113.474887,-10510.924376,592.164754,-612.876398
4113.475217,-9992.780217,74.020594,-766.095498
4113.475547,-9844.739029,74.020594,-306.438199
4113.475877,-9770.718434,-222.061783,459.657299
4113.476207,-9918.759623,-148.041188,459.657299
4113.476537,-9178.553681,-518.144159,153.219100
4113.476866,-9474.636058,-592.164754,-76.609550
4113.477196,-9918.759623,-296.082377,153.219100
4113.477526,-9770.718434,-370.102971,459.657299
4113.477856,-9844.739029,-370.102971,689.485948
4113.478186,-10066.800811,74.020594,2068.457845
4113.478515,-10732.986159,-666.185348,1762.019645
4113.478845,-10658.965565,-666.185348,842.705048
4113.479175,-9252.574275,-962.267725,153.219100
4113.479505,-9252.574275,-592.164754,153.219100
4113.479835,-9474.636058,-296.082377,842.705048
4113.480165,-9844.739029,-666.185348,536.266849
4113.480494,-9770.718434,-518.144159,536.266849
4113.480824,-9474.636058,-518.144159,612.876398
4113.481154,-10436.903782,148.041188,383.047749
4113.481484,-10510.924376,-888.247130,229.828649
4113.481814,-9474.636058,-296.082377,76.609550
4113.482144,-9326.594869,-444.123565,76.609550
4113.482473,-9992.780217,370.102971,306.438199
4113.482803,-10140.821405,296.082377,0.000000
4113.483133,-9770.718434,814.226536,76.609550
4113.483463,-9622.677246,666.185348,-383.047749
4113.483793,-10732.986159,444.123565,-306.438199
4113.484123,-10955.047942,444.123565,-229.828649
4113.484452,-10066.800811,0.000000,0.000000
4113.484782,-9178.553681,0.000000,-766.095498
4113.485112,-9030.512492,-370.102971,-459.657299
4113.485442,-9992.780217,74.020594,229.828649
4113.485772,-9844.739029,74.020594,-383.047749
4113.486102,-9252.574275,222.061783,-995.924147
4113.486431,-9252.574275,296.082377,-612.876398
4113.486761,-10066.800811,1110.308913,842.705048
4113.487091,-10140.821405,814.226536,459.657299
4113.487421,-10066.800811,444.123565,612.876398
4113.487751,-10658.965565,592.164754,1072.533697
4113.488080,-10288.862594,518.144159,1838.629195
4113.488410,-9474.636058,444.123565,842.705048
4113.488740,-8882.471304,444.123565,-153.219100
4113.489070,-9844.739029,666.185348,76.609550
4113.489400,-9918.759623,370.102971,-153.219100
4113.489730,-10140.821405,666.185348,-842.705048
4113.490059,-9178.553681,444.123565,-536.266849
4113.490389,-9622.677246,740.205942,229.828649
4113.490719,-9474.636058,296.082377,0.000000
4113.491049,-8660.409521,296.082377,-459.657299
4113.491379,-9326.594869,222.061783,229.828649
4113.491709,-10288.862594,148.041188,1225.752797
4113.492038,-11029.068536,-74.020594,1685.410096
4113.492368,-10140.821405,0.000000,2145.067394
4113.492698,-8882.471304,-222.061783,1302.362347
4113.493028,-8882.471304,0.000000,536.266849
4113.493358,-9474.636058,-74.020594,-306.438199
4113.493688,-9770.718434,296.082377,0.000000
4113.494017,-8956.491898,370.102971,-766.095498
4113.494347,-9696.697840,666.185348,-306.438199
4113.494677,-10362.883188,666.185348,153.219100
4113.495007,-10658.965565,518.144159,306.438199
4113.495337,-9696.697840,74.020594,-612.876398
4113.495667,-9474.636058,-74.020594,-1455.581446
4113.495996,-9696.697840,148.041188,-306.438199
4113.496326,-10436.903782,296.082377,536.266849
4113.496656,-10362.883188,296.082377,612.876398
4113.496986,-9844.739029,222.061783,0.000000
4113.497316,-10066.800811,296.082377,-229.828649
4113.497646,-10436.903782,296.082377,0.000000
4113.497975,-9992.780217,222.061783,612.876398
4113.498305,-10362.883188,0.000000,76.609550
4113.498635,-9918.759623,148.041188,536.266849
4113.498965,-9548.656652,74.020594,612.876398
4113.499295,-9326.594869,-296.082377,0.000000
4113.499624,-10140.821405,222.061783,383.047749
4113.499954,-10214.842000,-148.041188,459.657299
4113.500284,-9844.739029,0.000000,306.438199
4113.500614,-9622.677246,-370.102971,612.876398
4113.500944,-10066.800811,370.102971,229.828649
4113.501274,-9992.780217,0.000000,1072.533697
4113.501603,-9252.574275,-592.164754,689.485948
4113.501933,-9326.594869,-296.082377,306.438199
4113.502263,-9844.739029,-148.041188,1072.533697
4113.502593,-10140.821405,-222.061783,689.485948
4113.502923,-9696.697840,-296.082377,153.219100
4113.503253,-9622.677246,-740.205942,76.609550
4113.503582,-9474.636058,-740.205942,612.876398
4113.503912,-9030.512492,-1110.308913,842.705048
4113.504242,-8956.491898,-1036.288319,1225.752797
4113.504572,-8882.471304,-296.082377,1455.581446
4113.504902,-9622.677246,-296.082377,229.828649
4113.505232,-10066.800811,0.000000,383.047749
4113.505561,-10658.965565,74.020594,153.219100
4113.505891,-10955.047942,518.144159,536.266849
4113.506221,-10214.842000,74.020594,0.000000
4113.506551,-9474.636058,444.123565,306.438199
4113.506881,-9548.656652,0.000000,76.609550
4113.507211,-9474.636058,0.000000,-383.047749
4113.507540,-9622.677246,74.020594,-766.095498
4113.507870,-10288.862594,740.205942,-1149.143247
4113.508200,-9918.759623,74.020594,-612.876398
4113.508530,-9770.718434,-296.082377,153.219100
4113.508860,-9548.656652,0.000000,766.095498
4113.509189,-10066.800811,0.000000,1302.362347
4113.509519,-9400.615463,-370.102971,306.438199
4113.509849,-9548.656652,-1036.288319,306.438199
4113.510179,-10066.800811,-222.061783,536.266849
4113.510509,-9992.780217,-592.164754,1072.533697
4113.510839,-8956.491898,-296.082377,536.266849
4113.511168,-8216.285956,-148.041188,0.000000
4113.511498,-9326.594869,148.041188,76.609550
4113.511828,-9992.780217,-74.020594,383.047749
4113.512158,-9992.780217,-592.164754,76.609550
4113.512488,-9770.718434,0.000000,0.000000
4113.512818,-10214.842000,0.000000,0.000000
4113.513147,-9918.759623,-444.123565,0.000000
4113.513477,-9474.636058,-666.185348,-383.047749
4113.513807,-9252.574275,-370.102971,459.657299
4113.514137,-9400.615463,0.000000,919.314598
4113.514467,-9474.636058,74.020594,76.609550
4113.514797,-9992.780217,148.041188,612.876398
4113.515126,-10732.986159,148.041188,229.828649
4113.515456,-10732.986159,0.000000,-153.219100
4113.515786,-9548.656652,-296.082377,-306.438199
4113.516116,-9474.636058,-592.164754,612.876398
4113.516446,-9252.574275,74.020594,1991.848295
4113.516776,-9474.636058,148.041188,612.876398
4113.517105,-9770.718434,370.102971,-383.047749
4113.517435,-10436.903782,518.144159,-612.876398
4113.517765,-10658.965565,666.185348,-689.485948
4113.518095,-10510.924376,444.123565,0.000000
4113.518425,-10362.883188,0.000000,612.876398
4113.518754,-9474.636058,444.123565,612.876398
4113.519084,-8734.430116,370.102971,153.219100
4113.519414,-8956.491898,666.185348,-995.924147
4113.519744,-10658.965565,814.226536,459.657299
4113.520074,-11103.089130,962.267725,842.705048
4113.520404,-11251.130318,518.144159,995.924147
4113.520733,-10066.800811,1036.288319,76.609550
4113.521063,-9770.718434,444.123565,0.000000
4113.521393,-9178.553681,592.164754,-383.047749
4113.521723,-8290.306550,74.020594,-842.705048
4113.522052,-9474.636058,814.226536,0.000000
4113.522382,-9696.697840,814.226536,-306.438199
4113.522712,-9844.739029,888.247130,-306.438199
4113.523042,-9770.718434,518.144159,76.609550
4113.523371,-9992.780217,370.102971,842.705048
4113.523701,-9918.759623,-148.041188,766.095498
4113.524031,-8734.430116,-962.267725,229.828649
4113.524361,-8290.306550,-222.061783,383.047749
4113.524691,-9326.594869,222.061783,1072.533697
4113.525020,-9844.739029,148.041188,459.657299
4113.525350,-9844.739029,814.226536,383.047749
4113.525680,-10288.862594,888.247130,0.000000
4113.526010,-10436.903782,518.144159,383.047749
4113.526339,-9844.739029,296.082377,536.266849
4113.526669,-9474.636058,0.000000,0.000000
4113.526999,-9178.553681,74.020594,-229.828649
4113.527329,-9622.677246,74.020594,-459.657299
4113.527659,-9992.780217,74.020594,0.000000
4113.527988,-10066.800811,148.041188,383.047749
4113.528318,-9696.697840,0.000000,1225.752797
4113.528648,-9770.718434,0.000000,536.266849
4113.528978,-10436.903782,0.000000,995.924147
4113.529307,-9992.780217,0.000000,1149.143247
4113.529637,-9030.512492,-296.082377,383.047749
4113.529967,-9252.574275,-74.020594,0.000000
4113.530297,-10140.821405,0.000000,383.047749
4113.530626,-10584.944971,74.020594,842.705048
4113.530956,-10140.821405,-296.082377,0.000000
4113.531286,-9548.656652,-666.185348,0.000000
4113.531616,-9622.677246,-370.102971,-459.657299
4113.531946,-9548.656652,-592.164754,-153.219100
4113.532275,-9326.594869,-444.123565,-153.219100
4113.532605,-9474.636058,-148.041188,383.047749
4113.532935,-10066.800811,0.000000,766.095498
4113.533265,-10436.903782,-222.061783,612.876398
4113.533594,-10584.944971,-444.123565,536.266849
4113.533924,-10881.027347,-148.041188,383.047749
4113.534254,-10140.821405,-518.144159,0.000000
4113.534584,-9474.636058,-740.205942,-229.828649
4113.534914,-8808.450710,-370.102971,153.219100
4113.535243,-9178.553681,-296.082377,1378.971896
4113.535573,-9622.677246,-370.102971,919.314598
4113.535903,-9548.656652,-296.082377,0.000000
4113.536233,-9400.615463,-518.144159,-306.438199
4113.536562,-9178.553681,-740.205942,-306.438199
4113.536892,-9474.636058,-962.267725,76.609550
4113.537222,-9622.677246,-370.102971,1225.752797
4113.537552,-9474.636058,-444.123565,1455.581446
4113.537882,-9104.533087,0.000000,459.657299
4113.538211,-9474.636058,0.000000,229.828649
4113.538541,-10881.027347,518.144159,536.266849
4113.538871,-10955.047942,296.082377,689.485948
4113.539201,-9918.759623,74.020594,766.095498
4113.539530,-9030.512492,0.000000,919.314598
4113.539860,-8956.491898,148.041188,459.657299
4113.540190,-9474.636058,0.000000,0.000000
4113.540520,-9252.574275,222.061783,-842.705048
4113.540849,-9844.739029,666.185348,-766.095498
4113.541179,-10140.821405,592.164754,-383.047749
4113.541509,-10288.862594,740.205942,0.000000
4113.541839,-9548.656652,518.144159,0.000000
4113.542169,-10140.821405,296.082377,842.705048
4113.542498,-10214.842000,0.000000,766.095498
4113.542828,-9548.656652,0.000000,306.438199
4113.543158,-9474.636058,296.082377,0.000000
4113.543488,-9400.615463,592.164754,229.828649
4113.543817,-9548.656652,666.185348,229.828649
4113.544147,-9770.718434,592.164754,0.000000
4113.544477,-10510.924376,814.226536,-383.047749
4113.544807,-9548.656652,962.267725,0.000000
4113.545137,-9400.615463,814.226536,-383.047749
4113.545466,-9918.759623,740.205942,536.266849
4113.545796,-10066.800811,666.185348,612.876398
4113.546126,-9474.636058,888.247130,-229.828649
4113.546456,-10140.821405,518.144159,0.000000
4113.546785,-10881.027347,222.061783,-842.705048
4113.547115,-9770.718434,222.061783,-306.438199
4113.547445,-9400.615463,0.000000,153.219100
4113.547775,-9622.677246,222.061783,689.485948
4113.548104,-10066.800811,370.102971,766.095498
4113.548434,-9474.636058,0.000000,153.219100
4113.548764,-9252.574275,-296.082377,-612.876398
4113.549094,-9400.615463,296.082377,76.609550
4113.549424,-10066.800811,-74.020594,1378.971896
4113.549753,-9548.656652,0.000000,995.924147
4113.550083,-9178.553681,-592.164754,612.876398
4113.550413,-9030.512492,148.041188,-229.828649
4113.550743,-9622.677246,-296.082377,0.000000
4113.551072,-9474.636058,0.000000,-383.047749
4113.551402,-9474.636058,0.000000,306.438199
4113.551732,-9474.636058,296.082377,1149.143247
4113.552062,-9696.697840,0.000000,1149.143247
4113.552392,-9992.780217,296.082377,76.609550
4113.552721,-10362.883188,0.000000,-842.705048
4113.553051,-10362.883188,0.000000,-1072.533697
4113.553381,-9548.656652,0.000000,-1225.752797
4113.553711,-9844.739029,0.000000,383.047749
4113.554040,-9622.677246,148.041188,1072.533697
4113.554370,-10288.862594,148.041188,766.095498
4113.554700,-10140.821405,-370.102971,459.657299
4113.555030,-10510.924376,-148.041188,0.000000
4113.555360,-10066.800811,-370.102971,306.438199
4113.555689,-9696.697840,-592.164754,153.219100
4113.556019,-9622.677246,-592.164754,919.314598
4113.556349,-9326.594869,-518.144159,612.876398
4113.556679,-9030.512492,-296.082377,-383.047749
4113.557008,-9548.656652,-222.061783,-1072.533697
4113.557338,-10066.800811,222.061783,-383.047749
4113.557668,-10066.800811,-222.061783,229.828649
4113.557998,-9918.759623,-148.041188,766.095498
4113.558327,-9770.718434,-592.164754,1302.362347
4113.558657,-10362.883188,-296.082377,1225.752797
4113.558987,-9918.759623,-370.102971,153.219100
4113.559317,-9400.615463,-592.164754,229.828649
4113.559647,-9548.656652,-222.061783,766.095498
4113.559976,-9770.718434,74.020594,1072.533697
4113.560306,-9400.615463,518.144159,612.876398
4113.560636,-9400.615463,0.000000,0.000000
4113.560966,-9770.718434,296.082377,229.828649
4113.561295,-10066.800811,-222.061783,0.000000
4113.561625,-9548.656652,0.000000,-306.438199
4113.561955,-9400.615463,74.020594,153.219100
4113.562285,-9770.718434,148.041188,306.438199
4113.562615,-9696.697840,-296.082377,306.438199
4113.562944,-9474.636058,-74.020594,76.609550
4113.563274,-9178.553681,74.020594,229.828649
4113.563604,-9696.697840,222.061783,459.657299
4113.563934,-10436.903782,296.082377,459.657299
4113.564263,-9918.759623,370.102971,919.314598
4113.564593,-10362.883188,962.267725,1149.143247
4113.564923,-10436.903782,666.185348,-766.095498
4113.565253,-9992.780217,444.123565,-1532.190996
4113.565582,-9622.677246,740.205942,-1302.362347
4113.565912,-9474.636058,370.102971,-536.266849
4113.566242,-9474.636058,74.020594,-306.438199
4113.566572,-9918.759623,518.144159,153.219100
4113.566902,-10214.842000,444.123565,-153.219100
4113.567231,-9844.739029,74.020594,-153.219100
4113.567561,-9548.656652,296.082377,-459.657299
4113.567891,-9696.697840,222.061783,306.438199
4113.568221,-10066.800811,444.123565,1302.362347
4113.568550,-9844.739029,222.061783,1149.143247
4113.568880,-9992.780217,666.185348,766.095498
4113.569210,-10807.006753,592.164754,0.000000
4113.569540,-10214.842000,148.041188,0.000000
4113.569870,-9474.636058,-444.123565,-229.828649
4113.570199,-8660.409521,-222.061783,1378.971896
4113.570529,-9474.636058,0.000000,1455.581446
4113.570859,-9474.636058,0.000000,919.314598
4113.571189,-8882.471304,0.000000,-459.657299
4113.571518,-9474.636058,518.144159,-995.924147
4113.571848,-10510.924376,0.000000,-459.657299
4113.572178,-10658.965565,-74.020594,0.000000
4113.572508,-9178.553681,0.000000,919.314598
4113.572837,-8882.471304,0.000000,689.485948
4113.573167,-8956.491898,0.000000,0.000000
4113.573497,-10066.800811,-370.102971,-459.657299
4113.573827,-10881.027347,0.000000,0.000000
4113.574157,-10288.862594,-444.123565,536.266849
4113.574486,-9622.677246,74.020594,919.314598
4113.574816,-9326.594869,-370.102971,1455.581446
4113.575146,-9770.718434,370.102971,995.924147
4113.575476,-9474.636058,370.102971,-536.266849
4113.575805,-10362.883188,296.082377,-1302.362347
4113.576135,-11029.068536,518.144159,-153.219100
4113.576465,-10510.924376,518.144159,919.314598
4113.576795,-9696.697840,0.000000,536.266849
4113.577125,-9326.594869,0.000000,229.828649
4113.577454,-9992.780217,518.144159,229.828649
4113.577784,-10140.821405,-370.102971,-612.876398
4113.578114,-9770.718434,-74.020594,-919.314598
4113.578444,-9474.636058,296.082377,536.266849
4113.578773,-10510.924376,444.123565,1762.019645
4113.579103,-10140.821405,74.020594,1455.581446
4113.579433,-9844.739029,-518.144159,383.047749
4113.579763,-9548.656652,0.000000,76.609550
4113.580093,-9622.677246,0.000000,0.000000
4113.580422,-9326.594869,0.000000,-306.438199
4113.580752,-9400.615463,0.000000,306.438199
4113.581082,-9548.656652,148.041188,383.047749
4113.581412,-9770.718434,74.020594,766.095498
4113.581741,-10436.903782,0.000000,-153.219100
4113.582071,-10584.944971,74.020594,0.000000
4113.582401,-10066.800811,-444.123565,76.609550
4113.582731,-8364.327145,-888.247130,383.047749
4113.583060,-8068.244768,-592.164754,1378.971896
4113.583390,-9474.636058,444.123565,842.705048
4113.583720,-10510.924376,148.041188,842.705048
4113.584050,-10510.924376,74.020594,0.000000
4113.584380,-9918.759623,444.123565,229.828649
4113.584709,-10436.903782,296.082377,689.485948
4113.585039,-9918.759623,-296.082377,383.047749
4113.585369,-9178.553681,-370.102971,0.000000
4113.585699,-9252.574275,0.000000,229.828649
4113.586028,-9696.697840,0.000000,76.609550
4113.586358,-9696.697840,-592.164754,0.000000
4113.586688,-9252.574275,-444.123565,76.609550
4113.587018,-9178.553681,0.000000,306.438199
4113.587348,-9104.533087,148.041188,-76.609550
4113.587677,-9696.697840,0.000000,-153.219100
4113.588007,-10732.986159,518.144159,306.438199
4113.588337,-10362.883188,74.020594,459.657299
4113.588667,-10658.965565,74.020594,0.000000
4113.588996,-9918.759623,0.000000,76.609550
4113.589326,-9844.739029,0.000000,76.609550
4113.589656,-9474.636058,-74.020594,0.000000
4113.589986,-9400.615463,-222.061783,-689.485948
4113.590315,-9696.697840,370.102971,-76.609550
4113.590645,-10140.821405,222.061783,-76.609550
4113.590975,-9770.718434,296.082377,76.609550
4113.591305,-9326.594869,148.041188,76.609550
4113.591635,-10140.821405,444.123565,383.047749
4113.591964,-10362.883188,222.061783,-383.047749
4113.592294,-9770.718434,-814.226536,-383.047749
4113.592624,-9326.594869,-370.102971,459.657299
4113.592954,-9548.656652,-962.267725,1838.629195
4113.593283,-10066.800811,0.000000,1149.143247
4113.593613,-9178.553681,-444.123565,766.095498
4113.593943,-9622.677246,0.000000,842.705048
4113.594273,-9696.697840,222.061783,689.485948
4113.594603,-10362.883188,74.020594,0.000000
4113.594932,-9770.718434,0.000000,0.000000
4113.595262,-9326.594869,370.102971,459.657299
4113.595592,-9178.553681,148.041188,459.657299
4113.595922,-9474.636058,0.000000,0.000000
4113.596251,-10362.883188,370.102971,76.609550
4113.596581,-9844.739029,222.061783,-536.266849
4113.596911,-9400.615463,592.164754,-766.095498
4113.597241,-9622.677246,296.082377,0.000000
4113.597570,-9622.677246,666.185348,229.828649
4113.597900,-9696.697840,592.164754,383.047749
4113.598230,-9770.718434,296.082377,-306.438199
4113.598560,-10140.821405,222.061783,0.000000
4113.598890,-10288.862594,148.041188,0.000000
4113.599219,-9844.739029,-518.144159,-76.609550
4113.599549,-9252.574275,0.000000,306.438199
4113.599879,-9622.677246,296.082377,766.095498
4113.600209,-9400.615463,666.185348,383.047749
4113.600538,-9474.636058,740.205942,-536.266849
4113.600868,-9992.780217,740.205942,-459.657299
4113.601198,-10436.903782,888.247130,-459.657299
4113.601528,-10955.047942,814.226536,-612.876398
4113.601858,-10362.883188,0.000000,-536.266849
4113.602187,-9178.553681,-296.082377,76.609550
4113.602517,-8956.491898,-222.061783,842.705048
4113.602847,-8956.491898,-74.020594,-306.438199
4113.603177,-9252.574275,296.082377,-383.047749
4113.603506,-9844.739029,962.267725,0.000000
4113.603836,-10436.903782,962.267725,229.828649
4113.604166,-10807.006753,666.185348,612.876398
4113.604496,-10510.924376,370.102971,995.924147
4113.604826,-9918.759623,74.020594,842.705048
4113.605155,-9474.636058,0.000000,536.266849
4113.605485,-9548.656652,-296.082377,76.609550
4113.605815,-9178.553681,-592.164754,306.438199
4113.606145,-9030.512492,74.020594,459.657299
4113.606474,-9178.553681,74.020594,612.876398
4113.606804,-10066.800811,222.061783,919.314598
4113.607134,-10214.842000,296.082377,1149.143247
4113.607464,-9326.594869,74.020594,0.000000
4113.607793,-9030.512492,-148.041188,229.828649
4113.608123,-10436.903782,0.000000,995.924147
4113.608453,-10214.842000,-74.020594,995.924147
4113.608783,-9696.697840,-740.205942,-153.219100
4113.609113,-9400.615463,-592.164754,-153.219100
4113.609442,-9548.656652,-666.185348,766.095498
4113.609772,-9918.759623,-444.123565,536.266849
4113.610102,-9548.656652,-888.247130,229.828649
4113.610432,-9770.718434,0.000000,766.095498
4113.610761,-9844.739029,0.000000,766.095498
4113.611091,-10584.944971,0.000000,-306.438199
4113.611421,-9770.718434,-296.082377,-612.876398
4113.611751,-9992.780217,0.000000,-229.828649
4113.612081,-9844.739029,-370.102971,0.000000
4113.612410,-9992.780217,-222.061783,153.219100
4113.612740,-10288.862594,0.000000,0.000000
4113.613070,-9696.697840,-222.061783,153.219100
4113.613400,-9474.636058,0.000000,-766.095498
4113.613729,-9844.739029,0.000000,-612.876398
4113.614059,-10140.821405,0.000000,76.609550
4113.614389,-9548.656652,148.041188,0.000000
4113.614719,-9918.759623,0.000000,306.438199
4113.615048,-10362.883188,148.041188,229.828649
4113.615378,-10436.903782,-222.061783,0.000000
4113.615708,-9474.636058,-518.144159,-689.485948
4113.616038,-8808.450710,-296.082377,-612.876398
4113.616368,-8882.471304,-296.082377,-459.657299
4113.616697,-9326.594869,-222.061783,0.000000
4113.617027,-9474.636058,222.061783,76.609550
4113.617357,-10214.842000,518.144159,1072.533697
4113.617687,-11177.109724,222.061783,1149.143247
4113.618016,-10214.842000,-296.082377,153.219100
4113.618346,-8956.491898,-444.123565,76.609550
4113.618676,-9030.512492,148.041188,842.705048
4113.619006,-9622.677246,0.000000,1149.143247
4113.619336,-9992.780217,148.041188,612.876398
4113.619665,-9400.615463,370.102971,229.828649
4113.619995,-10362.883188,666.185348,459.657299
4113.620325,-10584.944971,370.102971,306.438199
4113.620655,-10288.862594,444.123565,536.266849
4113.620984,-9918.759623,518.144159,612.876398
4113.621314,-9252.574275,666.185348,689.485948
4113.621644,-9400.615463,222.061783,0.000000
4113.621974,-9770.718434,222.061783,0.000000
4113.622304,-9770.718434,296.082377,0.000000
4113.622633,-9178.553681,222.061783,0.000000
4113.622963,-9548.656652,296.082377,-919.314598
4113.623293,-9844.739029,222.061783,-306.438199
4113.623623,-9844.739029,296.082377,153.219100
4113.623953,-9252.574275,-222.061783,-76.609550
4113.624282,-8956.491898,148.041188,306.438199
4113.624612,-9696.697840,518.144159,689.485948
4113.624942,-10066.800811,814.226536,536.266849
4113.625272,-9918.759623,370.102971,153.219100
4113.625602,-10510.924376,444.123565,0.000000
4113.625932,-11029.068536,592.164754,229.828649
4113.626261,-10362.883188,444.123565,153.219100
4113.626591,-9178.553681,222.061783,-383.047749
4113.626921,-9844.739029,740.205942,-306.438199
4113.627251,-9844.739029,444.123565,76.609550
4113.627581,-9918.759623,-74.020594,-766.095498
4113.627910,-9548.656652,148.041188,153.219100
4113.628240,-10288.862594,592.164754,995.924147
4113.628570,-10436.903782,592.164754,1149.143247
4113.628900,-10066.800811,0.000000,383.047749
4113.629230,-9918.759623,666.185348,153.219100
4113.629560,-9992.780217,74.020594,536.266849
4113.629889,-10658.965565,0.000000,383.047749
4113.630219,-9770.718434,-296.082377,0.000000
4113.630549,-8734.430116,0.000000,0.000000
4113.630879,-8956.491898,296.082377,536.266849
4113.631209,-10066.800811,518.144159,0.000000
4113.631538,-10807.006753,74.020594,0.000000
4113.631868,-10214.842000,0.000000,153.219100
4113.632198,-9622.677246,-296.082377,-306.438199
4113.632528,-9252.574275,-518.144159,76.609550
4113.632858,-9252.574275,-370.102971,536.266849
4113.633188,-9474.636058,-444.123565,306.438199
4113.633517,-9030.512492,-740.205942,-536.266849
4113.633847,-8808.450710,-592.164754,76.609550
4113.634177,-10288.862594,74.020594,153.219100
4113.634507,-10140.821405,0.000000,76.609550
4113.634837,-9474.636058,-296.082377,76.609550
4113.635166,-9030.512492,0.000000,383.047749
4113.635496,-9844.739029,370.102971,76.609550
4113.635826,-10066.800811,0.000000,0.000000
4113.636156,-9178.553681,-444.123565,-229.828649
4113.636486,-10140.821405,0.000000,-76.609550
4113.636816,-10658.965565,518.144159,-1072.533697
4113.637145,-9696.697840,148.041188,-459.657299
4113.637475,-9178.553681,0.000000,-153.219100
4113.637805,-9252.574275,148.041188,0.000000
4113.638135,-9844.739029,148.041188,306.438199
4113.638465,-9770.718434,148.041188,842.705048
4113.638794,-10288.862594,518.144159,612.876398
4113.639124,-10362.883188,0.000000,612.876398
4113.639454,-10362.883188,-222.061783,153.219100
4113.639784,-10510.924376,-222.061783,1149.143247
4113.640114,-9696.697840,-1036.288319,1072.533697
4113.640444,-9400.615463,-444.123565,1149.143247
4113.640773,-9104.533087,-814.226536,1225.752797
4113.641103,-9696.697840,74.020594,1072.533697
4113.641433,-9918.759623,74.020594,995.924147
4113.641763,-10362.883188,-74.020594,383.047749
4113.642093,-10140.821405,74.020594,1608.800546
4113.642422,-9918.759623,-592.164754,1455.581446
4113.642752,-9400.615463,-370.102971,995.924147
4113.643082,-9178.553681,-592.164754,689.485948
4113.643412,-10436.903782,0.000000,919.314598
4113.643742,-10436.903782,-666.185348,306.438199
4113.644072,-9844.739029,-370.102971,-612.876398
4113.644401,-8956.491898,148.041188,0.000000
4113.644731,-9844.739029,444.123565,536.266849
4113.645061,-9622.677246,0.000000,383.047749
4113.645391,-9326.594869,0.000000,-306.438199
4113.645721,-9918.759623,0.000000,-76.609550
4113.646050,-10955.047942,0.000000,-459.657299
4113.646380,-11029.068536,0.000000,-229.828649
4113.646710,-9622.677246,-148.041188,229.828649
4113.647040,-8808.450710,296.082377,76.609550
4113.647370,-8882.471304,592.164754,0.000000
4113.647700,-9400.615463,444.123565,-536.266849
4113.648029,-10362.883188,962.267725,-153.219100
4113.648359,-10807.006753,888.247130,-766.095498
4113.648689,-10658.965565,666.185348,-766.095498
4113.649019,-10140.821405,222.061783,-383.047749
4113.649349,-9178.553681,370.102971,-689.485948
4113.649678,-8734.430116,0.000000,-1072.533697
4113.650008,-9326.594869,148.041188,-1225.752797
4113.650338,-9696.697840,296.082377,0.000000
4113.650668,-10214.842000,814.226536,306.438199
4113.650998,-10140.821405,740.205942,459.657299
4113.651328,-10140.821405,296.082377,995.924147
4113.651657,-9622.677246,888.247130,995.924147
4113.651987,-9844.739029,148.041188,842.705048
4113.652317,-10140.821405,0.000000,459.657299
4113.652647,-9474.636058,74.020594,1455.581446
4113.652977,-9770.718434,370.102971,1378.971896
4113.653306,-8956.491898,518.144159,842.705048
4113.653636,-8956.491898,518.144159,-766.095498
4113.653966,-9918.759623,1110.308913,-689.485948
4113.654296,-9696.697840,592.164754,0.000000
4113.654626,-9696.697840,592.164754,-306.438199
4113.654956,-9326.594869,370.102971,306.438199
4113.655285,-9992.780217,740.205942,1225.752797
4113.655615,-10214.842000,-148.041188,1838.629195
4113.655945,-9770.718434,74.020594,0.000000
4113.656275,-9474.636058,-222.061783,0.000000
4113.656605,-9326.594869,148.041188,0.000000
4113.656934,-9400.615463,222.061783,689.485948
4113.657264,-9992.780217,518.144159,1532.190996
4113.657594,-9992.780217,518.144159,1455.581446
4113.657924,-10140.821405,148.041188,229.828649
4113.658254,-10214.842000,74.020594,-919.314598
4113.658584,-9844.739029,-370.102971,-766.095498
4113.658913,-9696.697840,-518.144159,0.000000
4113.659243,-9326.594869,-592.164754,0.000000
4113.659573,-9474.636058,-518.144159,842.705048
4113.659903,-9696.697840,148.041188,1072.533697
4113.660233,-9918.759623,0.000000,536.266849
4113.660562,-10732.986159,-148.041188,-229.828649
4113.660892,-10140.821405,0.000000,-383.047749
4113.661222,-9696.697840,-666.185348,153.219100
4113.661552,-9400.615463,-592.164754,612.876398
4113.661882,-9474.636058,-666.185348,383.047749
4113.662212,-10214.842000,-370.102971,0.000000
4113.662541,-9918.759623,-666.185348,-536.266849
4113.662871,-9844.739029,-370.102971,-842.705048
4113.663201,-10214.842000,-444.123565,383.047749
4113.663531,-10436.903782,-148.041188,1149.143247
4113.663861,-10066.800811,-370.102971,1225.752797
4113.664190,-9104.533087,-1110.308913,229.828649
4113.664520,-9770.718434,-222.061783,459.657299
4113.664850,-10732.986159,-666.185348,0.000000
4113.665180,-9992.780217,-962.267725,-459.657299
4113.665510,-8586.388927,-1036.288319,-229.828649
4113.665840,-8734.430116,-296.082377,306.438199
4113.666169,-9400.615463,0.000000,612.876398
4113.666499,-9548.656652,-222.061783,-153.219100
4113.666829,-9844.739029,148.041188,-842.705048
4113.667159,-10362.883188,592.164754,-842.705048
4113.667489,-10584.944971,148.041188,-612.876398
4113.667818,-9622.677246,-444.123565,0.000000
4113.668148,-9104.533087,0.000000,229.828649
4113.668478,-8882.471304,148.041188,153.219100
4113.668808,-9400.615463,518.144159,-689.485948
4113.669138,-9696.697840,370.102971,-766.095498
4113.669468,-9918.759623,592.164754,-383.047749
4113.669797,-10214.842000,1036.288319,153.219100
4113.670127,-9770.718434,592.164754,383.047749
4113.670457,-10140.821405,814.226536,229.828649
4113.670787,-9696.697840,370.102971,383.047749
4113.671117,-9474.636058,296.082377,229.828649
4113.671446,-9770.718434,592.164754,306.438199
4113.671776,-10658.965565,888.247130,995.924147
4113.672106,-10510.924376,444.123565,1455.581446
4113.672436,-9622.677246,592.164754,612.876398
4113.672766,-9400.615463,740.205942,76.609550
4113.673096,-10066.800811,888.247130,-536.266849
4113.673425,-9844.739029,444.123565,-919.314598
4113.673755,-9030.512492,148.041188,-612.876398
4113.674085,-8882.471304,814.226536,306.438199
4113.674415,-9844.739029,592.164754,1072.533697
4113.674745,-10362.883188,296.082377,306.438199
4113.675074,-9770.718434,518.144159,-612.876398
4113.675404,-9696.697840,222.061783,-229.828649
4113.675734,-9770.718434,444.123565,459.657299
4113.676064,-9770.718434,148.041188,1149.143247
4113.676394,-10066.800811,222.061783,1532.190996
4113.676724,-9622.677246,74.020594,1225.752797
4113.677053,-9844.739029,0.000000,0.000000
4113.677383,-10214.842000,0.000000,-536.266849
4113.677713,-9474.636058,148.041188,0.000000
4113.678043,-9474.636058,222.061783,383.047749
4113.678373,-9548.656652,74.020594,229.828649
4113.678702,-10214.842000,0.000000,459.657299
4113.679032,-10140.821405,0.000000,383.047749
4113.679362,-9622.677246,-370.102971,0.000000
4113.679692,-9844.739029,-666.185348,153.219100
4113.680022,-9992.780217,-222.061783,459.657299
4113.680352,-9622.677246,-296.082377,919.314598
4113.680681,-9474.636058,-222.061783,459.657299
4113.681011,-10436.903782,0.000000,766.095498
4113.681341,-11177.109724,-370.102971,612.876398
4113.681671,-9844.739029,-370.102971,0.000000
4113.682001,-9474.636058,-148.041188,229.828649
4113.682330,-9844.739029,0.000000,612.876398
4113.682660,-9918.759623,-296.082377,153.219100
4113.682990,-9400.615463,0.000000,-766.095498
4113.683320,-9474.636058,0.000000,-689.485948
4113.683650,-10658.965565,296.082377,-229.828649
4113.683980,-9992.780217,-592.164754,-689.485948
4113.684309,-8438.347739,-962.267725,-459.657299
4113.684639,-8882.471304,-148.041188,0.000000
4113.684969,-10214.842000,0.000000,153.219100
4113.685299,-10288.862594,-666.185348,0.000000
4113.685629,-9622.677246,-888.247130,919.314598
4113.685958,-9548.656652,-222.061783,919.314598
4113.686288,-9844.739029,-666.185348,1072.533697
4113.686618,-9770.718434,-370.102971,1149.143247
4113.686948,-9918.759623,-148.041188,612.876398
4113.687278,-9770.718434,-222.061783,459.657299
4113.687608,-9548.656652,-444.123565,76.609550
4113.687937,-9918.759623,-592.164754,536.266849
4113.688267,-9696.697840,-148.041188,1225.752797
4113.688597,-9326.594869,-740.205942,1302.362347
4113.688927,-8808.450710,-814.226536,306.438199
4113.689257,-9252.574275,-444.123565,76.609550
4113.689586,-9548.656652,0.000000,383.047749
4113.689916,-10288.862594,0.000000,995.924147
4113.690246,-10732.986159,0.000000,1072.533697
4113.690576,-10658.965565,518.144159,1762.019645
4113.690906,-9918.759623,74.020594,1378.971896
4113.691236,-9548.656652,-296.082377,459.657299
4113.691565,-9844.739029,0.000000,-459.657299
4113.691895,-10362.883188,-296.082377,0.000000
4113.692225,-9326.594869,0.000000,306.438199
4113.692555,-8808.450710,0.000000,689.485948
4113.692885,-9326.594869,666.185348,612.876398
4113.693214,-10584.944971,518.144159,536.266849
4113.693544,-10140.821405,296.082377,-766.095498
4113.693874,-9992.780217,222.061783,-1225.752797
4113.694204,-9400.615463,370.102971,153.219100
4113.694534,-10140.821405,222.061783,919.314598
4113.694864,-10288.862594,296.082377,842.705048
4113.695193,-9770.718434,0.000000,306.438199
4113.695523,-9992.780217,148.041188,-76.609550
4113.695853,-10140.821405,-74.020594,-995.924147
4113.696183,-9326.594869,-370.102971,229.828649
4113.696513,-8956.491898,148.041188,536.266849
4113.696842,-9474.636058,740.205942,766.095498
4113.697172,-9770.718434,370.102971,0.000000
4113.697502,-10066.800811,296.082377,-1225.752797
4113.697832,-9548.656652,74.020594,-1532.190996
4113.698162,-9548.656652,-148.041188,-1455.581446
4113.698492,-9400.615463,370.102971,229.828649
4113.698821,-9770.718434,296.082377,536.266849
4113.699151,-9474.636058,-148.041188,0.000000
4113.699481,-8956.491898,148.041188,-229.828649
4113.699811,-9844.739029,296.082377,0.000000
4113.700141,-10658.965565,444.123565,536.266849
4113.700470,-10140.821405,0.000000,842.705048
4113.700800,-9030.512492,0.000000,689.485948
4113.701130,-9474.636058,370.102971,689.485948
4113.701460,-10584.944971,1036.288319,-229.828649
4113.701790,-10658.965565,518.144159,-1149.143247
4113.702120,-9844.739029,666.185348,-612.876398
4113.702449,-9992.780217,1036.288319,689.485948
4113.702779,-10214.842000,0.000000,1149.143247
4113.703109,-9844.739029,148.041188,689.485948
4113.703439,-9326.594869,222.061783,383.047749
4113.703769,-9622.677246,0.000000,153.219100
4113.704098,-9918.759623,518.144159,-919.314598
4113.704428,-9844.739029,370.102971,0.000000
4113.704758,-10362.883188,888.247130,766.095498
4113.705088,-10288.862594,370.102971,459.657299
4113.705418,-10288.862594,666.185348,-306.438199
4113.705748,-10214.842000,148.041188,229.828649
4113.706077,-9474.636058,-222.061783,842.705048
4113.706407,-9104.533087,-370.102971,689.485948
4113.706737,-9030.512492,0.000000,1302.362347
4113.707067,-10510.924376,444.123565,1378.971896
4113.707397,-9474.636058,-296.082377,306.438199
4113.707726,-9326.594869,-370.102971,-612.876398
4113.708056,-9474.636058,0.000000,0.000000
4113.708386,-9548.656652,0.000000,306.438199
4113.708716,-9252.574275,148.041188,383.047749
4113.709046,-8290.306550,-222.061783,0.000000
4113.709376,-9474.636058,444.123565,0.000000
4113.709705,-9992.780217,444.123565,-1072.533697
4113.710035,-10214.842000,74.020594,-995.924147
4113.710365,-10436.903782,0.000000,-536.266849
4113.710695,-9844.739029,-148.041188,766.095498
4113.711025,-10066.800811,-518.144159,1532.190996
4113.711354,-9918.759623,-888.247130,1149.143247
4113.711684,-9548.656652,-814.226536,1072.533697
4113.712014,-9178.553681,-444.123565,689.485948
4113.712344,-9696.697840,0.000000,76.609550
4113.712674,-10288.862594,74.020594,-536.266849
4113.713004,-10140.821405,74.020594,76.609550
4113.713333,-9918.759623,-296.082377,-383.047749
4113.713663,-10066.800811,-222.061783,-229.828649
4113.713993,-9696.697840,-222.061783,-612.876398
4113.714323,-10066.800811,-592.164754,76.609550
4113.714653,-9474.636058,-370.102971,229.828649
4113.714982,-9992.780217,-296.082377,-153.219100
4113.715312,-10362.883188,148.041188,536.266849
4113.715642,-9696.697840,-444.123565,689.485948
4113.715972,-9622.677246,-296.082377,536.266849
4113.716302,-10066.800811,0.000000,459.657299
4113.716632,-10584.944971,0.000000,383.047749
4113.716961,-9844.739029,-370.102971,153.219100
4113.717291,-9178.553681,74.020594,-383.047749
4113.717621,-9474.636058,222.061783,-153.219100
4113.717951,-10066.800811,296.082377,0.000000
4113.718281,-9770.718434,740.205942,-306.438199
4113.718610,-9770.718434,-148.041188,153.219100
4113.718940,-10584.944971,0.000000,766.095498
4113.719270,-10140.821405,-148.041188,459.657299
4113.719600,-9030.512492,0.000000,383.047749
4113.719930,-8364.327145,296.082377,306.438199
4113.720260,-9252.574275,518.144159,76.609550
4113.720589,-9918.759623,740.205942,0.000000
4113.720919,-10288.862594,666.185348,76.609550
4113.721249,-10436.903782,1258.350101,0.000000
4113.721579,-9918.759623,592.164754,-306.438199
4113.721909,-10066.800811,888.247130,229.828649
4113.722238,-9474.636058,444.123565,536.266849
4113.722568,-9400.615463,444.123565,0.000000
4113.722898,-9622.677246,740.205942,-229.828649
4113.723228,-9770.718434,222.061783,-306.438199
4113.723558,-9548.656652,962.267725,-306.438199
4113.723888,-9030.512492,962.267725,0.000000
4113.724217,-10140.821405,814.226536,-229.828649
4113.724547,-10066.800811,518.144159,536.266849
4113.724877,-10140.821405,444.123565,459.657299
4113.725207,-9696.697840,444.123565,0.000000
4113.725537,-9252.574275,0.000000,-306.438199
4113.725866,-9326.594869,296.082377,1149.143247
4113.726196,-9548.656652,74.020594,1455.581446
4113.726526,-9992.780217,0.000000,689.485948
4113.726856,-9844.739029,0.000000,689.485948
4113.727186,-10214.842000,0.000000,612.876398
4113.727515,-9844.739029,0.000000,536.266849
4113.727845,-9474.636058,-222.061783,383.047749
4113.728175,-9696.697840,222.061783,1532.190996
4113.728505,-10066.800811,0.000000,995.924147
4113.728835,-10214.842000,-148.041188,383.047749
4113.729165,-9770.718434,-444.123565,76.609550
4113.729494,-10140.821405,0.000000,536.266849
4113.729824,-9992.780217,-296.082377,689.485948
4113.730154,-9844.739029,-370.102971,689.485948
4113.730484,-9770.718434,-592.164754,689.485948
4113.730814,-8956.491898,-222.061783,612.876398
4113.731143,-9474.636058,-518.144159,76.609550
4113.731473,-9696.697840,0.000000,-536.266849
4113.731803,-9918.759623,-148.041188,-383.047749
4113.732133,-10066.800811,-222.061783,-383.047749
4113.732463,-10140.821405,222.061783,76.609550
4113.732792,-10288.862594,0.000000,383.047749
4113.733122,-10066.800811,74.020594,0.000000
4113.733452,-9918.759623,-222.061783,0.000000
4113.733782,-9622.677246,-370.102971,-536.266849
4113.734112,-10288.862594,296.082377,-383.047749
4113.734441,-9474.636058,-370.102971,-459.657299
4113.734771,-8956.491898,-518.144159,-229.828649
4113.735101,-9104.533087,-296.082377,0.000000
4113.735431,-10807.006753,148.041188,842.705048
4113.735761,-11547.212695,-296.082377,612.876398
4113.736091,-9844.739029,-592.164754,0.000000
4113.736420,-9252.574275,0.000000,0.000000
4113.736750,-9400.615463,-148.041188,536.266849
4113.737080,-10140.821405,0.000000,536.266849
4113.737410,-10140.821405,0.000000,459.657299
4113.737740,-10214.842000,296.082377,612.876398
4113.738069,-9992.780217,0.000000,153.219100
4113.738399,-9696.697840,-296.082377,153.219100
4113.738729,-9400.615463,-592.164754,536.266849
4113.739059,-9252.574275,-370.102971,689.485948
4113.739389,-9474.636058,-518.144159,536.266849
4113.739718,-9474.636058,-148.041188,153.219100
4113.740048,-9104.533087,296.082377,383.047749
4113.740378,-9326.594869,444.123565,995.924147
4113.740708,-10140.821405,222.061783,842.705048
4113.741038,-10510.924376,518.144159,919.314598
4113.741368,-10510.924376,296.082377,536.266849
4113.741697,-9252.574275,296.082377,-459.657299
4113.742027,-9252.574275,148.041188,-383.047749
4113.742357,-9622.677246,740.205942,229.828649
4113.742687,-9548.656652,518.144159,459.657299
4113.743017,-9844.739029,666.185348,0.000000
4113.743346,-9770.718434,962.267725,-612.876398
4113.743676,-10066.800811,814.226536,-1072.533697
4113.744006,-10066.800811,888.247130,-689.485948
4113.744336,-9770.718434,296.082377,-153.219100
4113.744666,-9918.759623,222.061783,919.314598
4113.744995,-9548.656652,444.123565,689.485948
4113.745325,-9622.677246,592.164754,-153.219100
4113.745655,-9178.553681,444.123565,-842.705048
4113.745985,-10066.800811,518.144159,-306.438199
4113.746315,-11251.130318,666.185348,459.657299
4113.746645,-10066.800811,296.082377,153.219100
4113.746974,-9326.594869,444.123565,0.000000
4113.747304,-8882.471304,0.000000,0.000000
4113.747634,-9400.615463,148.041188,0.000000
4113.747964,-9918.759623,0.000000,76.609550
4113.748294,-10288.862594,222.061783,0.000000
4113.748623,-10436.903782,222.061783,383.047749
4113.748953,-10140.821405,0.000000,306.438199
4113.749283,-9918.759623,296.082377,306.438199
4113.749613,-10066.800811,296.082377,536.266849
4113.749943,-10140.821405,0.000000,919.314598
4113.750272,-10436.903782,-370.102971,0.000000
4113.750602,-10140.821405,-296.082377,229.828649
4113.750932,-9326.594869,-962.267725,306.438199
4113.751262,-8586.388927,-592.164754,306.438199
4113.751592,-9474.636058,0.000000,842.705048
4113.751921,-10658.965565,296.082377,842.705048
4113.752251,-11029.068536,-74.020594,-229.828649
4113.752581,-10066.800811,-222.061783,-919.314598
4113.752911,-9696.697840,-444.123565,229.828649
4113.753241,-9992.780217,0.000000,1532.190996
4113.753571,-9844.739029,0.000000,612.876398
4113.753900,-9252.574275,-444.123565,-229.828649
4113.754230,-9474.636058,-74.020594,153.219100
4113.754560,-9844.739029,0.000000,0.000000
4113.754890,-10362.883188,-444.123565,0.000000
4113.755220,-8956.491898,0.000000,459.657299
4113.755549,-8364.327145,74.020594,306.438199
4113.755879,-8956.491898,74.020594,-766.095498
4113.756209,-9548.656652,-518.144159,-612.876398
4113.756539,-10214.842000,-222.061783,0.000000
4113.756869,-10066.800811,0.000000,919.314598
4113.757198,-9770.718434,0.000000,1685.410096
4113.757528,-9770.718434,0.000000,1302.362347
4113.757858,-9696.697840,-444.123565,153.219100
4113.758188,-9548.656652,0.000000,-1072.533697
4113.758518,-9474.636058,148.041188,-766.095498
4113.758848,-10436.903782,518.144159,229.828649
4113.759177,-9992.780217,740.205942,842.705048
4113.759507,-9622.677246,0.000000,459.657299
4113.759837,-9548.656652,74.020594,0.000000
4113.760167,-10214.842000,222.061783,-306.438199
4113.760497,-10362.883188,0.000000,-383.047749
4113.760826,-9696.697840,148.041188,0.000000
4113.761156,-9326.594869,222.061783,1149.143247
4113.761486,-10066.800811,222.061783,1225.752797
4113.761816,-10140.821405,296.082377,459.657299
4113.762146,-9770.718434,-222.061783,153.219100
4113.762475,-9918.759623,888.247130,153.219100
4113.762805,-9622.677246,148.041188,-306.438199
4113.763135,-9474.636058,0.000000,0.000000
4113.763465,-9474.636058,0.000000,0.000000
4113.763795,-9548.656652,0.000000,612.876398
4113.764125,-9622.677246,-222.061783,459.657299
4113.764454,-9622.677246,0.000000,0.000000
4113.764784,-10066.800811,0.000000,383.047749
4113.765114,-9918.759623,0.000000,536.266849
4113.765444,-9696.697840,0.000000,536.266849
4113.765774,-10436.903782,148.041188,229.828649
4113.766103,-10140.821405,222.061783,-153.219100
4113.766433,-9696.697840,0.000000,383.047749
4113.766763,-9548.656652,296.082377,0.000000
4113.767093,-9992.780217,222.061783,0.000000
4113.767423,-10140.821405,0.000000,-229.828649
4113.767752,-9104.533087,74.020594,-842.705048
4113.768082,-9474.636058,148.041188,-766.095498
4113.768412,-10658.965565,0.000000,229.828649
4113.768742,-10362.883188,296.082377,1149.143247
4113.769072,-9844.739029,0.000000,459.657299
4113.769402,-9696.697840,0.000000,229.828649
4113.769731,-9844.739029,222.061783,0.000000
4113.770061,-9622.677246,222.061783,306.438199
4113.770391,-9622.677246,74.020594,153.219100
4113.770721,-10362.883188,518.144159,1149.143247
4113.771051,-9992.780217,222.061783,0.000000
4113.771380,-10066.800811,814.226536,-766.095498
4113.771710,-9400.615463,74.020594,-842.705048
4113.772040,-9844.739029,148.041188,76.609550
4113.772370,-10140.821405,296.082377,766.095498
4113.772700,-9918.759623,74.020594,1378.971896
4113.773029,-9918.759623,0.000000,1225.752797
4113.773359,-9992.780217,0.000000,1378.971896
4113.773689,-10436.903782,-962.267725,689.485948
4113.774019,-9622.677246,-592.164754,459.657299
4113.774349,-8956.491898,-444.123565,766.095498
4113.774678,-8512.368333,-592.164754,766.095498
4113.775008,-8734.430116,-370.102971,229.828649
4113.775338,-9474.636058,-148.041188,459.657299
4113.775668,-10066.800811,74.020594,-383.047749
4113.775998,-10288.862594,0.000000,-689.485948
4113.776328,-10362.883188,-444.123565,229.828649
4113.776657,-9104.533087,-592.164754,229.828649
4113.776987,-7994.224174,-518.144159,153.219100
4113.777317,-8512.368333,-296.082377,0.000000
4113.777647,-10362.883188,74.020594,229.828649
4113.777977,-10732.986159,370.102971,153.219100
4113.778306,-10214.842000,-370.102971,0.000000
4113.778636,-9770.718434,74.020594,-229.828649
4113.778966,-9844.739029,-148.041188,689.485948
4113.779296,-9252.574275,-222.061783,306.438199
4113.779626,-9474.636058,-148.041188,-612.876398
4113.779955,-9844.739029,222.061783,-1225.752797
4113.780285,-10658.965565,296.082377,-612.876398
4113.780615,-10214.842000,0.000000,306.438199
4113.780945,-9770.718434,148.041188,612.876398
4113.781275,-10214.842000,296.082377,1225.752797
4113.781605,-10140.821405,0.000000,612.876398
4113.781934,-9622.677246,-1110.308913,76.609550
4113.782264,-9326.594869,-518.144159,-306.438199
4113.782594,-9918.759623,-370.102971,995.924147
4113.782924,-9918.759623,-148.041188,1378.971896
4113.783254,-9992.780217,-148.041188,1149.143247
4113.783583,-9622.677246,0.000000,689.485948
4113.783913,-10066.800811,0.000000,0.000000
4113.784243,-10140.821405,0.000000,-536.266849
4113.784573,-9696.697840,0.000000,0.000000
4113.784903,-9770.718434,0.000000,919.314598
4113.785232,-9326.594869,0.000000,919.314598
4113.785562,-9696.697840,-296.082377,229.828649
4113.785892,-9474.636058,-74.020594,-536.266849
4113.786222,-10140.821405,-74.020594,0.000000
4113.786552,-9918.759623,0.000000,-459.657299
4113.786882,-9252.574275,0.000000,842.705048
4113.787211,-9622.677246,592.164754,1762.019645
4113.787541,-9696.697840,370.102971,1225.752797
4113.787871,-10584.944971,444.123565,-612.876398
4113.788201,-9918.759623,296.082377,-536.266849
4113.788531,-9992.780217,0.000000,-76.609550
4113.788860,-9326.594869,222.061783,153.219100
4113.789190,-8734.430116,-296.082377,383.047749
4113.789520,-9030.512492,0.000000,919.314598
4113.789850,-9326.594869,74.020594,153.219100
4113.790180,-9696.697840,518.144159,-919.314598
4113.790509,-9622.677246,222.061783,-995.924147
4113.790839,-9696.697840,1036.288319,-229.828649
4113.791169,-10066.800811,888.247130,689.485948
4113.791499,-10066.800811,518.144159,612.876398
4113.791829,-10436.903782,592.164754,383.047749
4113.792158,-9992.780217,222.061783,0.000000
4113.792488,-9622.677246,0.000000,-459.657299
4113.792818,-9474.636058,370.102971,306.438199
4113.793148,-9918.759623,296.082377,1225.752797
4113.793478,-9548.656652,0.000000,1149.143247
4113.793808,-9622.677246,666.185348,536.266849
4113.794137,-10066.800811,888.247130,-76.609550
4113.794467,-10584.944971,814.226536,-1225.752797
4113.794797,-10510.924376,518.144159,0.000000
4113.795127,-9770.718434,0.000000,-229.828649
4113.795457,-9770.718434,-222.061783,0.000000
4113.795786,-9992.780217,148.041188,995.924147
4113.796116,-9474.636058,-888.247130,306.438199
4113.796446,-9474.636058,148.041188,306.438199
4113.796776,-9918.759623,0.000000,766.095498
4113.797106,-10140.821405,0.000000,1455.581446
4113.797435,-10214.842000,0.000000,1455.581446
4113.797765,-9696.697840,-370.102971,1302.362347
4113.798095,-9326.594869,-296.082377,383.047749
4113.798425,-9326.594869,-592.164754,-459.657299
4113.798755,-9400.615463,-666.185348,-995.924147
4113.799085,-9548.656652,74.020594,-306.438199
4113.799414,-9474.636058,0.000000,153.219100
4113.799744,-9770.718434,222.061783,229.828649
4113.800074,-9992.780217,0.000000,76.609550
4113.800404,-10436.903782,-370.102971,306.438199
4113.800734,-9844.739029,-518.144159,-383.047749
4113.801063,-9770.718434,-518.144159,-153.219100
4113.801393,-9548.656652,-592.164754,383.047749
4113.801723,-9030.512492,-962.267725,612.876398
4113.802053,-9104.533087,0.000000,306.438199
4113.802383,-9548.656652,-296.082377,612.876398
4113.802712,-10362.883188,74.020594,153.219100
4113.803042,-10584.944971,148.041188,459.657299
4113.803372,-10362.883188,74.020594,-306.438199
4113.803702,-10140.821405,222.061783,76.609550
4113.804032,-10140.821405,148.041188,-153.219100
4113.804362,-9992.780217,148.041188,-612.876398
4113.804691,-9474.636058,-518.144159,-995.924147
4113.805021,-9326.594869,74.020594,-383.047749
4113.805351,-9474.636058,-74.020594,459.657299
4113.805681,-9844.739029,74.020594,1149.143247
4113.806011,-9844.739029,0.000000,1685.410096
4113.806340,-9918.759623,0.000000,1225.752797
4113.806670,-9918.759623,148.041188,536.266849
4113.807000,-10510.924376,296.082377,536.266849
4113.807330,-10140.821405,296.082377,612.876398
4113.807660,-9844.739029,0.000000,1072.533697
4113.807989,-9474.636058,-74.020594,919.314598
4113.808319,-9474.636058,296.082377,1378.971896
4113.808649,-9770.718434,370.102971,995.924147
4113.808979,-9844.739029,0.000000,0.000000
4113.809309,-9104.533087,0.000000,-919.314598
4113.809639,-9030.512492,370.102971,-306.438199
4113.809968,-9992.780217,740.205942,0.000000
4113.810298,-9844.739029,148.041188,842.705048
4113.810628,-9400.615463,0.000000,383.047749
4113.810958,-9770.718434,222.061783,919.314598
4113.811288,-10288.862594,148.041188,536.266849
4113.811617,-10140.821405,222.061783,306.438199
4113.811947,-9770.718434,0.000000,-153.219100
4113.812277,-9474.636058,74.020594,766.095498
4113.812607,-9104.533087,74.020594,995.924147
4113.812937,-9474.636058,370.102971,612.876398
4113.813266,-10140.821405,518.144159,0.000000
4113.813596,-9326.594869,0.000000,-1455.581446
4113.813926,-9178.553681,0.000000,-1991.848295
4113.814256,-9770.718434,74.020594,-689.485948
4113.814586,-9992.780217,444.123565,229.828649
4113.814915,-9400.615463,74.020594,995.924147
4113.815245,-9030.512492,148.041188,306.438199
4113.815575,-10584.944971,444.123565,306.438199
4113.815905,-11325.150913,74.020594,306.438199
4113.816235,-10584.944971,-148.041188,229.828649
4113.816565,-10140.821405,-444.123565,919.314598
4113.816894,-10214.842000,-296.082377,1302.362347
4113.817224,-9992.780217,-148.041188,1072.533697
4113.817554,-9252.574275,-296.082377,-766.095498
4113.817884,-9474.636058,74.020594,-995.924147
4113.818214,-10066.800811,148.041188,-306.438199
4113.818543,-11177.109724,370.102971,-153.219100
4113.818873,-10658.965565,444.123565,536.266849
4113.819203,-9992.780217,222.061783,0.000000
4113.819533,-9400.615463,-370.102971,-383.047749
4113.819863,-9770.718434,-888.247130,-229.828649
4113.820192,-9844.739029,-888.247130,459.657299
4113.820522,-9104.533087,-444.123565,1532.190996
4113.820852,-9400.615463,0.000000,1302.362347
4113.821182,-9622.677246,74.020594,383.047749
4113.821512,-10436.903782,592.164754,-459.657299
4113.821842,-9770.718434,74.020594,-919.314598
4113.822171,-9474.636058,-222.061783,-536.266849
4113.822501,-9918.759623,-148.041188,1149.143247
4113.822831,-9548.656652,0.000000,1838.629195
4113.823161,-9474.636058,-222.061783,306.438199
4113.823490,-9252.574275,370.102971,-383.047749
4113.823820,-9770.718434,74.020594,-306.438199
4113.824149,-10288.862594,0.000000,-383.047749
4113.824479,-9326.594869,-518.144159,229.828649
4113.824809,-9030.512492,296.082377,919.314598
4113.825139,-9474.636058,518.144159,919.314598
4113.825468,-9474.636058,518.144159,-766.095498
4113.825798,-9918.759623,222.061783,-1838.629195
4113.826128,-9770.718434,370.102971,-1608.800546
4113.826457,-9696.697840,444.123565,153.219100
4113.826787,-10066.800811,148.041188,1838.629195
4113.827117,-9770.718434,370.102971,995.924147
4113.827446,-10140.821405,222.061783,919.314598
4113.827776,-10214.842000,296.082377,306.438199
4113.828106,-10066.800811,518.144159,-383.047749
4113.828435,-10066.800811,370.102971,766.095498
4113.828765,-9400.615463,0.000000,2145.067394
4113.829095,-9548.656652,592.164754,1149.143247
4113.829424,-10066.800811,814.226536,689.485948
4113.829754,-10881.027347,518.144159,-766.095498
4113.830084,-10510.924376,222.061783,-1532.190996
4113.830413,-9548.656652,370.102971,-766.095498
4113.830743,-9104.533087,74.020594,612.876398
4113.831073,-9622.677246,0.000000,1072.533697
4113.831402,-9474.636058,-444.123565,766.095498
4113.831732,-9696.697840,-666.185348,383.047749
4113.832062,-9918.759623,0.000000,459.657299
4113.832392,-9548.656652,-814.226536,612.876398
4113.832721,-9400.615463,-592.164754,383.047749
4113.833051,-9474.636058,-370.102971,842.705048
4113.833381,-9918.759623,-370.102971,1302.362347
4113.833710,-9770.718434,0.000000,76.609550
4113.834040,-9622.677246,-222.061783,-229.828649
4113.834370,-9992.780217,222.061783,0.000000
4113.834699,-10140.821405,74.020594,0.000000
4113.835029,-9770.718434,0.000000,-689.485948
4113.835359,-8956.491898,-444.123565,-612.876398
4113.835688,-9400.615463,148.041188,0.000000
4113.836018,-10140.821405,-370.102971,0.000000
4113.836348,-10140.821405,-592.164754,-153.219100
4113.836677,-9622.677246,-296.082377,612.876398
4113.837007,-9178.553681,-296.082377,995.924147
4113.837337,-10140.821405,0.000000,919.314598
4113.837666,-10066.800811,0.000000,689.485948
4113.837996,-9918.759623,0.000000,0.000000
4113.838326,-9474.636058,0.000000,76.609550
4113.838655,-9770.718434,-222.061783,0.000000
4113.838985,-10807.006753,518.144159,306.438199
4113.839315,-10288.862594,222.061783,-306.438199
4113.839644,-9622.677246,0.000000,-536.266849
4113.839974,-9474.636058,-370.102971,-842.705048
4113.840304,-9844.739029,0.000000,-459.657299
4113.840634,-9696.697840,0.000000,536.266849
4113.840963,-9474.636058,222.061783,919.314598
4113.841293,-10066.800811,370.102971,1149.143247
4113.841623,-10362.883188,0.000000,842.705048
4113.841952,-10288.862594,-296.082377,0.000000
4113.842282,-9992.780217,-222.061783,0.000000
4113.842612,-9992.780217,222.061783,1072.533697
4113.842941,-9844.739029,-666.185348,1149.143247
4113.843271,-8882.471304,-444.123565,842.705048
4113.843601,-8438.347739,0.000000,306.438199
4113.843930,-9622.677246,518.144159,383.047749
4113.844260,-9992.780217,370.102971,-383.047749
4113.844590,-9474.636058,222.061783,-842.705048
4113.844919,-9474.636058,296.082377,-306.438199
4113.845249,-10066.800811,666.185348,153.219100
4113.845579,-9918.759623,0.000000,-153.219100
4113.845908,-9252.574275,-370.102971,-689.485948
4113.846238,-9252.574275,74.020594,229.828649
4113.846568,-9622.677246,74.020594,766.095498
4113.846897,-9770.718434,222.061783,383.047749
4113.847227,-9400.615463,592.164754,76.609550
4113.847557,-9548.656652,444.123565,612.876398
4113.847887,-10066.800811,592.164754,306.438199
4113.848216,-10732.986159,592.164754,0.000000
4113.848546,-10140.821405,444.123565,0.000000
4113.848876,-9104.533087,370.102971,0.000000
4113.849205,-9696.697840,444.123565,-459.657299
4113.849535,-10584.944971,740.205942,0.000000
4113.849865,-10214.842000,814.226536,-612.876398
4113.850194,-9326.594869,518.144159,-1072.533697
4113.850524,-9474.636058,444.123565,-153.219100
4113.850854,-10510.924376,370.102971,766.095498
4113.851183,-10214.842000,444.123565,1302.362347
4113.851513,-9400.615463,-518.144159,612.876398
4113.851843,-10140.821405,518.144159,0.000000
4113.852172,-10510.924376,74.020594,0.000000
4113.852502,-10436.903782,148.041188,76.609550
4113.852832,-9326.594869,74.020594,-229.828649
4113.853161,-9770.718434,74.020594,919.314598
4113.853491,-10214.842000,0.000000,689.485948
4113.853821,-9992.780217,-592.164754,0.000000
4113.854150,-9400.615463,-740.205942,-1455.581446
4113.854480,-9474.636058,-74.020594,153.219100
4113.854810,-9474.636058,-222.061783,766.095498
4113.855139,-9326.594869,-592.164754,612.876398
4113.855469,-9474.636058,-222.061783,766.095498
4113.855799,-10288.862594,-222.061783,459.657299
4113.856129,-10881.027347,-370.102971,76.609550
4113.856458,-10140.821405,-740.205942,-459.657299
4113.856788,-9030.512492,-74.020594,0.000000
4113.857118,-8290.306550,-296.082377,536.266849
4113.857447,-8956.491898,-444.123565,919.314598
4113.857777,-9918.759623,0.000000,919.314598
4113.858107,-10436.903782,74.020594,0.000000
4113.858436,-10140.821405,74.020594,-459.657299
4113.858766,-9770.718434,0.000000,153.219100
4113.859096,-9696.697840,0.000000,919.314598
4113.859425,-9844.739029,74.020594,1532.190996
4113.859755,-9770.718434,-444.123565,-153.219100
4113.860085,-9474.636058,74.020594,0.000000
4113.860414,-9918.759623,518.144159,153.219100
4113.860744,-9696.697840,296.082377,0.000000
4113.861074,-9622.677246,592.164754,0.000000
4113.861403,-9326.594869,518.144159,383.047749
4113.861733,-9918.759623,74.020594,459.657299
4113.862063,-10140.821405,0.000000,-306.438199
4113.862392,-9622.677246,-518.144159,-536.266849
4113.862722,-9622.677246,222.061783,153.219100
4113.863052,-9474.636058,-222.061783,383.047749
4113.863382,-9104.533087,74.020594,995.924147
4113.863711,-9252.574275,74.020594,842.705048
4113.864041,-9696.697840,370.102971,689.485948
4113.864371,-10214.842000,518.144159,0.000000
4113.864700,-10214.842000,148.041188,-153.219100
4113.865030,-11103.089130,222.061783,459.657299
4113.865360,-9770.718434,-296.082377,536.266849
4113.865689,-8586.388927,-666.185348,0.000000
4113.866019,-9178.553681,-444.123565,-536.266849
4113.866349,-9770.718434,-74.020594,0.000000
4113.866678,-9918.759623,-148.041188,689.485948
4113.867008,-9696.697840,74.020594,1378.971896
4113.867338,-10436.903782,222.061783,1378.971896
4113.867667,-9844.739029,148.041188,689.485948
4113.867997,-9400.615463,0.000000,-536.266849
4113.868327,-9474.636058,0.000000,-842.705048
4113.868656,-9622.677246,74.020594,-229.828649
4113.868986,-9918.759623,148.041188,153.219100
4113.869316,-9844.739029,-148.041188,229.828649
4113.869645,-9696.697840,-222.061783,612.876398
4113.869975,-9770.718434,148.041188,1225.752797
4113.870305,-10140.821405,0.000000,0.000000
4113.870634,-9770.718434,0.000000,-229.828649
4113.870964,-9474.636058,74.020594,229.828649
4113.871294,-9770.718434,666.185348,0.000000
4113.871624,-10436.903782,0.000000,536.266849
4113.871953,-10066.800811,222.061783,306.438199
4113.872283,-8956.491898,222.061783,0.000000
4113.872613,-9326.594869,740.205942,-1149.143247
4113.872942,-9918.759623,370.102971,-689.485948
4113.873272,-10140.821405,370.102971,76.609550
4113.873602,-9992.780217,222.061783,306.438199
4113.873931,-9252.574275,0.000000,-153.219100
4113.874261,-9548.656652,74.020594,-76.609550
4113.874591,-10510.924376,148.041188,383.047749
4113.874920,-10066.800811,0.000000,0.000000
4113.875250,-8956.491898,-370.102971,76.609550
4113.875580,-9030.512492,444.123565,919.314598
4113.875909,-10510.924376,148.041188,1532.190996
4113.876239,-10436.903782,0.000000,306.438199
4113.876569,-9770.718434,222.061783,-383.047749
4113.876898,-9622.677246,888.247130,0.000000
4113.877228,-9252.574275,-222.061783,-76.609550
4113.877558,-9844.739029,296.082377,0.000000
4113.877887,-9400.615463,74.020594,536.266849
4113.878217,-9474.636058,0.000000,612.876398
4113.878547,-10066.800811,0.000000,153.219100
4113.878877,-9992.780217,-296.082377,383.047749
4113.879206,-10140.821405,0.000000,919.314598
4113.879536,-9696.697840,-370.102971,766.095498
4113.879866,-9252.574275,-296.082377,0.000000
4113.880195,-9326.594869,296.082377,306.438199
4113.880525,-9474.636058,222.061783,-153.219100
4113.880855,-9992.780217,296.082377,0.000000
4113.881184,-10066.800811,222.061783,153.219100
4113.881514,-10510.924376,740.205942,306.438199
4113.881844,-9992.780217,0.000000,153.219100
4113.882173,-9548.656652,0.000000,-1149.143247
4113.882503,-8734.430116,-296.082377,-306.438199
4113.882833,-9104.533087,0.000000,459.657299
4113.883162,-9252.574275,222.061783,0.000000
4113.883492,-10214.842000,222.061783,153.219100
4113.883822,-10807.006753,296.082377,612.876398
4113.884151,-10807.006753,444.123565,-229.828649
4113.884481,-9770.718434,74.020594,-842.705048
4113.884811,-9178.553681,-74.020594,229.828649
4113.885140,-9474.636058,148.041188,995.924147
4113.885470,-9474.636058,-74.020594,1302.362347
4113.885800,-9400.615463,0.000000,229.828649
4113.886129,-10140.821405,0.000000,0.000000
4113.886459,-10807.006753,0.000000,-153.219100
4113.886789,-9918.759623,-740.205942,383.047749
4113.887119,-9252.574275,-518.144159,612.876398
4113.887448,-9548.656652,0.000000,1072.533697
4113.887778,-9992.780217,148.041188,919.314598
4113.888108,-9918.759623,148.041188,536.266849
4113.888437,-10362.883188,444.123565,229.828649
4113.888767,-10140.821405,148.041188,306.438199
4113.889097,-10436.903782,-296.082377,459.657299
4113.889426,-9992.780217,-222.061783,766.095498
4113.889756,-9474.636058,0.000000,766.095498
4113.890086,-9400.615463,0.000000,153.219100
4113.890415,-9252.574275,0.000000,-76.609550
4113.890745,-9992.780217,592.164754,612.876398
4113.891075,-10362.883188,1036.288319,459.657299
4113.891404,-10214.842000,444.123565,0.000000
4113.891734,-10140.821405,-148.041188,0.000000
4113.892064,-10510.924376,296.082377,-153.219100
4113.892393,-9548.656652,-296.082377,-383.047749
4113.892723,-8956.491898,-296.082377,0.000000
4113.893053,-9474.636058,0.000000,995.924147
4113.893382,-10066.800811,148.041188,1378.971896
4113.893712,-9844.739029,0.000000,383.047749
4113.894042,-9622.677246,74.020594,-459.657299
4113.894372,-9992.780217,-222.061783,-383.047749
4113.894701,-10288.862594,-74.020594,536.266849
4113.895031,-9844.739029,0.000000,229.828649
4113.895361,-9030.512492,-74.020594,383.047749
4113.895690,-8808.450710,518.144159,0.000000
4113.896020,-9474.636058,74.020594,-612.876398
4113.896350,-9918.759623,0.000000,-919.314598
4113.896679,-9992.780217,0.000000,-306.438199
4113.897009,-9696.697840,-148.041188,76.609550
4113.897339,-9770.718434,0.000000,229.828649
4113.897668,-9474.636058,-222.061783,76.609550
4113.897998,-9696.697840,-370.102971,229.828649
4113.898328,-9474.636058,0.000000,0.000000
4113.898657,-9696.697840,0.000000,-612.876398
4113.898987,-9992.780217,296.082377,229.828649
4113.899317,-9992.780217,0.000000,842.705048
4113.899646,-10955.047942,0.000000,536.266849
4113.899976,-10510.924376,296.082377,306.438199
4113.900306,-10362.883188,0.000000,536.266849
4113.900635,-9326.594869,-666.185348,229.828649
4113.900965,-8882.471304,-148.041188,689.485948
4113.901295,-9918.759623,0.000000,1685.410096
4113.901625,-10214.842000,74.020594,536.266849
4113.901954,-9918.759623,444.123565,-612.876398
4113.902284,-9992.780217,0.000000,-766.095498
4113.902614,-10584.944971,518.144159,76.609550
4113.902943,-9918.759623,0.000000,842.705048
4113.903273,-9030.512492,0.000000,306.438199
4113.903603,-8586.388927,-74.020594,-229.828649
4113.903932,-8956.491898,296.082377,153.219100
4113.904262,-9844.739029,74.020594,0.000000
4113.904592,-10214.842000,74.020594,-536.266849
4113.904921,-10066.800811,-296.082377,-229.828649
4113.905251,-9696.697840,0.000000,995.924147
4113.905581,-9548.656652,0.000000,689.485948
4113.905910,-9326.594869,148.041188,689.485948
4113.906240,-9178.553681,148.041188,229.828649
4113.906570,-10066.800811,592.164754,0.000000
4113.906899,-10214.842000,1110.308913,-153.219100
4113.907229,-10955.047942,518.144159,536.266849
4113.907559,-10362.883188,518.144159,306.438199
4113.907888,-9696.697840,0.000000,-229.828649
4113.908218,-9474.636058,-74.020594,-995.924147
4113.908548,-9326.594869,0.000000,-536.266849
4113.908877,-9474.636058,444.123565,306.438199
4113.909207,-9548.656652,148.041188,842.705048
4113.909537,-9844.739029,888.247130,1149.143247
4113.909867,-10436.903782,962.267725,919.314598
4113.910196,-10362.883188,222.061783,536.266849
4113.910526,-10362.883188,518.144159,0.000000
4113.910856,-9548.656652,74.020594,229.828649
4113.911185,-9696.697840,-222.061783,-76.609550
4113.911515,-9030.512492,74.020594,306.438199
4113.911845,-9104.533087,0.000000,842.705048
4113.912174,-10288.862594,222.061783,459.657299
4113.912504,-9918.759623,0.000000,-153.219100
4113.912834,-9770.718434,0.000000,-229.828649
4113.913163,-9548.656652,0.000000,383.047749
4113.913493,-9474.636058,0.000000,1455.581446
4113.913823,-9548.656652,-370.102971,1225.752797
4113.914152,-9030.512492,0.000000,229.828649
4113.914482,-9548.656652,0.000000,0.000000
4113.914812,-10066.800811,0.000000,-536.266849
4113.915141,-10658.965565,-148.041188,-306.438199
4113.915471,-10362.883188,-222.061783,-383.047749
4113.915801,-9918.759623,-296.082377,1072.533697
4113.916130,-9104.533087,-888.247130,919.314598
4113.916460,-8438.347739,-962.267725,229.828649
4113.916790,-8808.450710,74.020594,689.485948
4113.917120,-9844.739029,0.000000,306.438199
4113.917449,-10584.944971,0.000000,0.000000
4113.917779,-11325.150913,0.000000,153.219100
4113.918109,-10807.006753,-222.061783,459.657299
4113.918438,-9770.718434,-962.267725,306.438199
4113.918768,-9252.574275,-888.247130,0.000000
4113.919098,-9178.553681,-666.185348,536.266849
4113.919427,-9622.677246,222.061783,1455.581446
4113.919757,-9844.739029,0.000000,612.876398
4113.920087,-10510.924376,0.000000,0.000000
4113.920416,-10362.883188,74.020594,-612.876398
4113.920746,-10288.862594,0.000000,-459.657299
4113.921076,-9770.718434,0.000000,-536.266849
4113.921405,-10140.821405,-666.185348,689.485948
4113.921735,-9326.594869,-370.102971,612.876398
4113.922065,-9030.512492,-444.123565,306.438199
4113.922394,-9326.594869,74.020594,229.828649
4113.922724,-9622.677246,0.000000,306.438199
4113.923054,-10288.862594,518.144159,536.266849
4113.923383,-9844.739029,0.000000,153.219100
4113.923713,-10362.883188,0.000000,76.609550
4113.924043,-10510.924376,0.000000,0.000000
4113.924373,-9474.636058,-592.164754,0.000000
4113.924702,-8660.409521,0.000000,-536.266849
4113.925032,-8290.306550,0.000000,0.000000
4113.925362,-9104.533087,740.205942,-995.924147
4113.925691,-9400.615463,814.226536,0.000000
4113.926021,-9918.759623,814.226536,-153.219100
4113.926351,-10510.924376,1332.370696,76.609550
4113.926680,-10881.027347,1184.329507,-306.438199
4113.927010,-10510.924376,148.041188,-995.924147
4113.927340,-8438.347739,0.000000,-612.876398
4113.927669,-8512.368333,222.061783,-306.438199
4113.927999,-9326.594869,1036.288319,-153.219100
4113.928329,-10214.842000,296.082377,0.000000
4113.928658,-10214.842000,1036.288319,612.876398
4113.928988,-9770.718434,1184.329507,1225.752797
4113.929318,-11325.150913,1850.514855,766.095498
4113.929647,-11177.109724,814.226536,153.219100
4113.929977,-9992.780217,814.226536,229.828649
4113.930307,-8660.409521,740.205942,0.000000
4113.930637,-9548.656652,666.185348,-153.219100
4113.930966,-10214.842000,592.164754,459.657299
4113.931296,-9326.594869,666.185348,76.609550
4113.931626,-8956.491898,1036.288319,-995.924147
4113.931955,-10288.862594,296.082377,-76.609550
4113.932285,-10807.006753,444.123565,306.438199
4113.932615,-9474.636058,74.020594,689.485948
4113.932944,-8364.327145,592.164754,536.266849
4113.933274,-9844.739029,518.144159,919.314598
4113.933604,-11103.089130,222.061783,1072.533697
4113.933933,-10955.047942,0.000000,76.609550
4113.934263,-9622.677246,148.041188,-306.438199
4113.934593,-9400.615463,0.000000,0.000000
4113.934922,-9104.533087,-370.102971,0.000000
4113.935252,-8438.347739,-518.144159,612.876398
4113.935582,-8734.430116,-148.041188,842.705048
4113.935911,-9770.718434,74.020594,0.000000
4113.936241,-10658.965565,-296.082377,-919.314598
4113.936571,-10510.924376,0.000000,-306.438199
4113.936901,-9548.656652,-370.102971,229.828649
4113.937230,-9030.512492,-740.205942,689.485948
4113.937560,-9770.718434,-592.164754,459.657299
4113.937890,-10214.842000,-592.164754,612.876398
4113.938219,-10288.862594,-518.144159,153.219100
4113.938549,-9474.636058,-518.144159,-76.609550
4113.938879,-9178.553681,-444.123565,-229.828649
4113.939208,-9474.636058,0.000000,612.876398
4113.939538,-9844.739029,-444.123565,612.876398
4113.939868,-9400.615463,-592.164754,0.000000
4113.940197,-9696.697840,-740.205942,306.438199
4113.940527,-11029.068536,0.000000,536.266849
4113.940857,-10955.047942,-740.205942,229.828649
4113.941186,-9844.739029,-962.267725,0.000000
4113.941516,-8808.450710,-518.144159,842.705048
4113.941846,-9696.697840,-148.041188,766.095498
4113.942176,-10362.883188,-444.123565,153.219100
4113.942505,-10362.883188,-814.226536,76.609550
4113.942835,-9622.677246,-444.123565,536.266849
4113.943165,-10066.800811,-666.185348,919.314598
4113.943494,-10584.944971,-296.082377,689.485948
4113.943824,-9474.636058,-814.226536,536.266849
4113.944154,-8586.388927,-296.082377,612.876398
4113.944483,-8956.491898,0.000000,0.000000
4113.944813,-10807.006753,74.020594,842.705048
4113.945143,-11473.192101,444.123565,995.924147
4113.945472,-10288.862594,-74.020594,842.705048
4113.945802,-9622.677246,74.020594,76.609550
4113.946132,-10510.924376,0.000000,459.657299
4113.946461,-10362.883188,-444.123565,383.047749
4113.946791,-8216.285956,-740.205942,76.609550
4113.947121,-7994.224174,-370.102971,383.047749
4113.947450,-9474.636058,518.144159,459.657299
4113.947780,-9918.759623,74.020594,459.657299
4113.948110,-9696.697840,222.061783,0.000000
4113.948440,-9474.636058,0.000000,-76.609550
4113.948769,-10362.883188,370.102971,0.000000
4113.949099,-9844.739029,74.020594,459.657299
4113.949429,-8808.450710,0.000000,0.000000
4113.949758,-8290.306550,222.061783,536.266849
4113.950088,-9178.553681,296.082377,153.219100
4113.950418,-10658.965565,888.247130,153.219100
4113.950747,-10955.047942,592.164754,-612.876398
4113.951077,-9844.739029,740.205942,-229.828649
4113.951407,-9696.697840,592.164754,0.000000
4113.951736,-9770.718434,370.102971,0.000000
4113.952066,-8956.491898,518.144159,0.000000
4113.952396,-9030.512492,592.164754,-689.485948
4113.952725,-9770.718434,222.061783,-689.485948
4113.953055,-10807.006753,740.205942,153.219100
4113.953385,-10510.924376,740.205942,0.000000
4113.953714,-9696.697840,518.144159,0.000000
4113.954044,-9326.594869,296.082377,536.266849
4113.954374,-9326.594869,222.061783,842.705048
4113.954704,-9992.780217,148.041188,1072.533697
4113.955033,-10066.800811,0.000000,0.000000
4113.955363,-9474.636058,370.102971,229.828649
4113.955693,-9178.553681,148.041188,76.609550
4113.956022,-10288.862594,888.247130,0.000000
4113.956352,-9992.780217,0.000000,-612.876398
4113.956682,-10066.800811,222.061783,0.000000
4113.957011,-9474.636058,666.185348,536.266849
4113.957341,-10140.821405,0.000000,383.047749
4113.957671,-10658.965565,222.061783,459.657299
4113.958000,-9548.656652,-222.061783,153.219100
4113.958330,-8438.347739,0.000000,76.609550
4113.958660,-9400.615463,0.000000,229.828649
4113.958989,-10732.986159,0.000000,1072.533697
4113.959319,-10510.924376,-296.082377,1762.019645
4113.959649,-9178.553681,-444.123565,1072.533697
4113.959978,-9326.594869,-444.123565,459.657299
4113.960308,-9696.697840,0.000000,153.219100
4113.960638,-10288.862594,74.020594,76.609550
4113.960968,-9548.656652,296.082377,-306.438199
4113.961297,-9252.574275,74.020594,0.000000
4113.961627,-9918.759623,148.041188,229.828649
4113.961957,-9400.615463,0.000000,0.000000
4113.962286,-9548.656652,74.020594,-229.828649
4113.962616,-8882.471304,74.020594,-995.924147
4113.962946,-10066.800811,296.082377,0.000000
4113.963275,-9622.677246,222.061783,229.828649
4113.963605,-9770.718434,-222.061783,536.266849
4113.963935,-10584.944971,222.061783,1225.752797
4113.964264,-10955.047942,0.000000,842.705048
4113.964594,-10214.842000,0.000000,306.438199
4113.964924,-9326.594869,74.020594,306.438199
4113.965253,-9474.636058,740.205942,229.828649
4113.965583,-10140.821405,370.102971,0.000000
4113.965913,-10288.862594,296.082377,0.000000
4113.966243,-10140.821405,74.020594,76.609550
4113.966572,-9696.697840,222.061783,153.219100
4113.966902,-9844.739029,-518.144159,-306.438199
4113.967232,-9252.574275,-444.123565,153.219100
4113.967561,-9178.553681,148.041188,1072.533697
4113.967891,-9326.594869,-296.082377,229.828649
4113.968221,-9696.697840,-592.164754,612.876398
4113.968550,-9918.759623,-814.226536,1225.752797
4113.968880,-9474.636058,-666.185348,1378.971896
4113.969210,-9474.636058,-518.144159,1532.190996
4113.969539,-9844.739029,-814.226536,1532.190996
4113.969869,-9844.739029,-148.041188,995.924147
4113.970199,-9474.636058,-962.267725,-153.219100
4113.970528,-9400.615463,-592.164754,-842.705048
4113.970858,-9696.697840,-518.144159,306.438199
4113.971188,-9844.739029,296.082377,1225.752797
4113.971517,-9622.677246,-222.061783,306.438199
4113.971847,-9104.533087,0.000000,-1532.190996
4113.972177,-9548.656652,0.000000,-1532.190996
4113.972507,-9992.780217,-444.123565,-995.924147
4113.972836,-10214.842000,0.000000,0.000000
4113.973166,-9844.739029,0.000000,306.438199
4113.973496,-9622.677246,296.082377,306.438199
4113.973825,-9474.636058,-148.041188,0.000000
4113.974155,-10214.842000,-296.082377,0.000000
4113.974485,-10066.800811,0.000000,0.000000
4113.974814,-10584.944971,74.020594,766.095498
4113.975144,-10066.800811,0.000000,536.266849
4113.975474,-9178.553681,0.000000,306.438199
4113.975803,-9770.718434,148.041188,229.828649
4113.976133,-9844.739029,148.041188,0.000000
4113.976463,-9696.697840,0.000000,-383.047749
4113.976792,-9474.636058,814.226536,0.000000
4113.977122,-9918.759623,592.164754,919.314598
4113.977452,-10066.800811,1036.288319,612.876398
4113.977781,-10436.903782,444.123565,536.266849
4113.978111,-10955.047942,1036.288319,-153.219100
4113.978441,-10436.903782,74.020594,-229.828649
4113.978771,-9104.533087,222.061783,306.438199
4113.979100,-8882.471304,222.061783,919.314598
4113.979430,-9770.718434,740.205942,1915.238745
4113.979760,-9400.615463,148.041188,842.705048
4113.980089,-9696.697840,888.247130,153.219100
4113.980419,-10066.800811,1036.288319,383.047749
4113.980749,-10140.821405,296.082377,306.438199
4113.981078,-9548.656652,296.082377,-306.438199
4113.981408,-9252.574275,444.123565,383.047749
4113.981738,-9622.677246,444.123565,0.000000
4113.982067,-9252.574275,148.041188,0.000000
4113.982397,-8808.450710,370.102971,-766.095498
4113.982727,-9474.636058,518.144159,-306.438199
4113.983056,-9400.615463,444.123565,306.438199
4113.983386,-10288.862594,518.144159,306.438199
4113.983716,-9474.636058,296.082377,-306.438199
4113.984046,-9178.553681,296.082377,0.000000
4113.984375,-10140.821405,222.061783,-536.266849
4113.984705,-10288.862594,74.020594,-459.657299
4113.985035,-9992.780217,-148.041188,536.266849
4113.985364,-8956.491898,-74.020594,536.266849
4113.985694,-8660.409521,-444.123565,-459.657299
4113.986024,-9252.574275,0.000000,-842.705048
4113.986353,-9326.594869,0.000000,0.000000
4113.986683,-10214.842000,370.102971,153.219100
4113.987013,-10362.883188,222.061783,-459.657299
4113.987342,-10436.903782,222.061783,0.000000
4113.987672,-10732.986159,0.000000,689.485948
4113.988002,-9918.759623,-666.185348,536.266849
4113.988331,-9548.656652,-592.164754,459.657299
4113.988661,-9696.697840,-518.144159,919.314598
4113.988991,-9770.718434,-518.144159,459.657299
4113.989320,-9252.574275,-592.164754,-306.438199
4113.989650,-9474.636058,0.000000,306.438199
4113.989980,-10436.903782,-148.041188,1072.533697
4113.990310,-11103.089130,-148.041188,1762.019645
4113.990639,-10955.047942,-740.205942,689.485948
4113.990969,-9622.677246,0.000000,76.609550
4113.991299,-9030.512492,-666.185348,-459.657299
4113.991628,-9326.594869,0.000000,-536.266849
4113.991958,-9770.718434,-370.102971,229.828649
4113.992288,-9992.780217,-222.061783,1991.848295
4113.992617,-9474.636058,-518.144159,766.095498
4113.992947,-9622.677246,-370.102971,0.000000
4113.993277,-10140.821405,-222.061783,-306.438199
4113.993606,-9992.780217,-148.041188,0.000000
4113.993936,-8956.491898,-444.123565,-76.609550
4113.994266,-8882.471304,148.041188,153.219100
4113.994595,-10362.883188,740.205942,766.095498
4113.994925,-10658.965565,0.000000,0.000000
4113.995255,-9400.615463,296.082377,-536.266849
4113.995584,-9474.636058,0.000000,0.000000
4113.995914,-10362.883188,222.061783,1072.533697
4113.996244,-10214.842000,0.000000,1072.533697
4113.996574,-8882.471304,-444.123565,76.609550
4113.996903,-7994.224174,-370.102971,612.876398
