#time,accel_x,accel_y,accel_z
3753.379250,-9992.780217,0.000000,612.876398
3753.379580,-9844.739029,0.000000,153.219100
3753.379910,-10066.800811,0.000000,383.047749
3753.380240,-9696.697840,0.000000,153.219100
3753.380570,-9696.697840,74.020594,153.219100
3753.380900,-9770.718434,148.041188,76.609550
3753.381230,-9696.697840,0.000000,0.000000
3753.381560,-9696.697840,-222.061783,0.000000
3753.381890,-9622.677246,-222.061783,459.657299
3753.382220,-9696.697840,-222.061783,689.485948
3753.382550,-10066.800811,0.000000,459.657299
3753.382880,-9770.718434,-370.102971,-306.438199
3753.383210,-9770.718434,148.041188,153.219100
3753.383541,-9548.656652,222.061783,-766.095498
3753.383871,-9622.677246,-222.061783,-919.314598
3753.384201,-10066.800811,0.000000,-306.438199
3753.384531,-9770.718434,-74.020594,0.000000
3753.384861,-9844.739029,-518.144159,0.000000
3753.385191,-9696.697840,-370.102971,76.609550
3753.385521,-9474.636058,-592.164754,-766.095498
3753.385851,-9474.636058,-370.102971,-842.705048
3753.386181,-9474.636058,-148.041188,-842.705048
3753.386511,-9844.739029,-592.164754,-383.047749
3753.386841,-10066.800811,-370.102971,0.000000
3753.387171,-10214.842000,-444.123565,459.657299
3753.387501,-10288.862594,-592.164754,-153.219100
3753.387832,-9844.739029,-444.123565,-1149.143247
3753.388162,-10214.842000,-222.061783,-1838.629195
3753.388492,-9770.718434,-370.102971,-1762.019645
3753.388822,-9326.594869,-740.205942,-1762.019645
3753.389152,-9474.636058,-1110.308913,-919.314598
3753.389482,-9178.553681,-1184.329507,-383.047749
3753.389812,-9548.656652,-1406.391290,-383.047749
3753.390142,-9474.636058,-1036.288319,0.000000
3753.390472,-9770.718434,-888.247130,-229.828649
3753.390802,-10288.862594,-592.164754,-1072.533697
3753.391132,-9844.739029,-962.267725,-1225.752797
3753.391462,-10436.903782,-666.185348,-1378.971896
3753.391792,-11103.089130,-370.102971,-1608.800546
3753.392123,-9918.759623,-1110.308913,-2298.286494
3753.392453,-10066.800811,-1406.391290,-2298.286494
3753.392783,-9992.780217,-1628.453072,-2221.676944
3753.393113,-9770.718434,-1850.514855,-2374.896044
3753.393443,-9030.512492,-2146.597232,-2451.505594
3753.393773,-8586.388927,-1998.556043,-2221.676944
3753.394103,-8290.306550,-2294.638420,-1685.410096
3753.394433,-8808.450710,-1776.494261,-766.095498
3753.394763,-9548.656652,-1258.350101,383.047749
3753.395093,-10362.883188,-1036.288319,0.000000
3753.395423,-11547.212695,-1258.350101,0.000000
3753.395753,-12065.356855,-1628.453072,-612.876398
3753.396084,-12435.459826,-1702.473667,-1838.629195
3753.396414,-11325.150913,-2368.659014,-3600.648841
3753.396744,-9548.656652,-3478.967927,-4673.182538
3753.397074,-7846.182985,-3552.988522,-4290.134789
3753.397404,-6957.935855,-3552.988522,-1915.238745
3753.397734,-7920.203579,-2294.638420,-1072.533697
3753.398064,-9474.636058,-1332.370696,-1149.143247
3753.398394,-10584.944971,-1110.308913,-2757.943793
3753.398724,-11029.068536,-1702.473667,-4826.401637
3753.399054,-11473.192101,-2738.761985,-4519.963438
3753.399384,-11917.315666,-4219.173869,-3217.601092
3753.399714,-10510.924376,-4811.338623,-1685.410096
3753.400044,-8438.347739,-5625.565159,-1532.190996
3753.400375,-7105.977043,-4959.379811,-1991.848295
3753.400705,-7402.059420,-4293.194464,-2451.505594
3753.401035,-8586.388927,-3034.844362,-2451.505594
3753.401365,-9844.739029,-1850.514855,-1762.019645
3753.401695,-11177.109724,-1184.329507,-1685.410096
3753.402025,-11251.130318,-1480.411884,-2528.115143
3753.402355,-11251.130318,-2590.720797,-4366.744339
3753.402685,-10140.821405,-4441.235652,-5362.668486
3753.403015,-9474.636058,-5625.565159,-4673.182538
3753.403345,-9252.574275,-5033.400406,-3140.991542
3753.403675,-8290.306550,-5033.400406,-1302.362347
3753.404005,-7476.080014,-4737.318029,229.828649
3753.404335,-7846.182985,-3330.926739,1302.362347
3753.404666,-10214.842000,-2368.659014,766.095498
3753.404996,-12287.418637,-1776.494261,-1378.971896
3753.405326,-12213.398043,-2146.597232,-2604.724693
3753.405656,-10362.883188,-2738.761985,-3064.381992
3753.405986,-9400.615463,-4071.132681,-2374.896044
3753.406316,-9474.636058,-4293.194464,-1915.238745
3753.406646,-9474.636058,-4737.318029,-1455.581446
3753.406976,-8660.409521,-3997.112087,-1378.971896
3753.407306,-8512.368333,-2960.823768,-1302.362347
3753.407636,-9474.636058,-2442.679609,-1532.190996
3753.407966,-10658.965565,-1776.494261,-689.485948
3753.408296,-11547.212695,-1406.391290,459.657299
3753.408626,-12583.501014,-1332.370696,-306.438199
3753.408957,-11177.109724,-2220.617826,-1762.019645
3753.409287,-8512.368333,-2664.741391,-1915.238745
3753.409617,-8956.491898,-2738.761985,-2145.067394
3753.409947,-10214.842000,-2516.700203,-2911.162892
3753.410277,-10362.883188,-2220.617826,-1915.238745
3753.410607,-9252.574275,-1850.514855,-1762.019645
3753.410937,-9326.594869,-2072.576638,-995.924147
3753.411267,-10140.821405,-1776.494261,-76.609550
3753.411597,-10658.965565,-1036.288319,76.609550
3753.411927,-9326.594869,-1628.453072,-2374.896044
3753.412257,-9400.615463,-1258.350101,-3830.477490
3753.412587,-9400.615463,-1554.432478,-2451.505594
3753.412917,-9178.553681,-1110.308913,-995.924147
3753.413248,-10140.821405,-518.144159,-153.219100
3753.413578,-11029.068536,-222.061783,-1532.190996
3753.413908,-10881.027347,0.000000,-3294.210641
3753.414238,-10584.944971,-888.247130,-4979.620737
3753.414568,-9474.636058,-1406.391290,-4366.744339
3753.414898,-9252.574275,-1554.432478,-2604.724693
3753.415228,-9918.759623,-444.123565,-995.924147
3753.415558,-8586.388927,-740.205942,-1838.629195
3753.415888,-7254.018232,-1184.329507,-2987.772442
3753.416218,-7105.977043,-888.247130,-4213.525239
3753.416548,-9548.656652,-666.185348,-1991.848295
3753.416878,-11769.274478,148.041188,919.314598
3753.417208,-11547.212695,592.164754,306.438199
3753.417539,-10732.986159,-296.082377,-1532.190996
3753.417869,-10288.862594,-1036.288319,-3294.210641
3753.418199,-10584.944971,-888.247130,-4213.525239
3753.418529,-11769.274478,-1480.411884,-3600.648841
3753.418859,-9918.759623,-1776.494261,-2757.943793
3753.419189,-8364.327145,-1554.432478,-1378.971896
3753.419519,-7402.059420,-888.247130,153.219100
3753.419849,-8956.491898,-888.247130,-536.266849
3753.420179,-11695.253884,-666.185348,-2068.457845
3753.420509,-9770.718434,-962.267725,-2757.943793
3753.420839,-8734.430116,-1628.453072,-1225.752797
3753.421169,-9474.636058,-1850.514855,306.438199
3753.421499,-11177.109724,-1998.556043,842.705048
3753.421830,-11695.253884,-1850.514855,0.000000
3753.422160,-10510.924376,-3034.844362,-1915.238745
3753.422490,-9770.718434,-2664.741391,-2374.896044
3753.422820,-10288.862594,-2368.659014,-1302.362347
3753.423150,-10288.862594,-2368.659014,-76.609550
3753.423480,-9252.574275,-1776.494261,-153.219100
3753.423810,-8438.347739,-2590.720797,-2528.115143
3753.424140,-9030.512492,-1924.535449,-4060.306139
3753.424470,-11251.130318,-2516.700203,-4290.134789
3753.424800,-10955.047942,-2442.679609,-3294.210641
3753.425130,-8808.450710,-3034.844362,-2298.286494
3753.425460,-8512.368333,-3034.844362,-1608.800546
3753.425790,-9992.780217,-3330.926739,-995.924147
3753.426121,-10584.944971,-3552.988522,-536.266849
3753.426451,-10881.027347,-3923.091493,-995.924147
3753.426781,-10362.883188,-3552.988522,-1915.238745
3753.427111,-10436.903782,-3997.112087,-2451.505594
3753.427441,-9252.574275,-3256.906145,-1991.848295
3753.427771,-8512.368333,-3330.926739,-1302.362347
3753.428101,-8586.388927,-2368.659014,-2298.286494
3753.428431,-8882.471304,-2886.803174,-3447.429741
3753.428761,-9474.636058,-2442.679609,-3294.210641
3753.429091,-11177.109724,-1998.556043,-612.876398
3753.429421,-11473.192101,-1998.556043,-536.266849
3753.429751,-10140.821405,-2664.741391,-1302.362347
3753.430081,-8882.471304,-3330.926739,-2145.067394
3753.430412,-9548.656652,-2664.741391,76.609550
3753.430742,-9770.718434,-2516.700203,919.314598
3753.431072,-10288.862594,-1850.514855,1225.752797
3753.431402,-10140.821405,-1258.350101,-459.657299
3753.431732,-9548.656652,-1258.350101,-1685.410096
3753.432062,-10066.800811,-1406.391290,-1378.971896
3753.432392,-10288.862594,-888.247130,0.000000
3753.432722,-9622.677246,-1184.329507,76.609550
3753.433052,-8882.471304,-666.185348,-383.047749
3753.433382,-8364.327145,-1332.370696,-1149.143247
3753.433712,-8882.471304,-814.226536,-536.266849
3753.434042,-10362.883188,-962.267725,689.485948
3753.434372,-10658.965565,-666.185348,1915.238745
3753.434702,-10066.800811,-666.185348,1685.410096
3753.435031,-8586.388927,0.000000,1378.971896
3753.435361,-8734.430116,296.082377,1685.410096
3753.435691,-9770.718434,1110.308913,1302.362347
3753.436021,-10288.862594,1258.350101,919.314598
3753.436351,-10955.047942,740.205942,229.828649
3753.436681,-10288.862594,1110.308913,306.438199
3753.437011,-10732.986159,1110.308913,689.485948
3753.437341,-10584.944971,1184.329507,-306.438199
3753.437670,-9252.574275,148.041188,-2145.067394
3753.438000,-8438.347739,444.123565,-2528.115143
3753.438330,-8290.306550,1184.329507,-1532.190996
3753.438660,-9030.512492,1406.391290,1149.143247
3753.438990,-9474.636058,1258.350101,2528.115143
3753.439320,-9474.636058,1258.350101,1762.019645
3753.439650,-9918.759623,814.226536,1225.752797
3753.439980,-10436.903782,888.247130,1072.533697
3753.440309,-10584.944971,1258.350101,612.876398
3753.440639,-10362.883188,1258.350101,842.705048
3753.440969,-9474.636058,1110.308913,-153.219100
3753.441299,-9622.677246,1258.350101,229.828649
3753.441629,-9252.574275,1406.391290,-306.438199
3753.441959,-9918.759623,1776.494261,0.000000
3753.442289,-10658.965565,2220.617826,-689.485948
3753.442619,-10510.924376,1998.556043,-689.485948
3753.442948,-9622.677246,2368.659014,306.438199
3753.443278,-9548.656652,2368.659014,1455.581446
3753.443608,-10732.986159,2590.720797,919.314598
3753.443938,-10140.821405,2146.597232,-229.828649
3753.444268,-9252.574275,1480.411884,-919.314598
3753.444598,-10584.944971,1628.453072,229.828649
3753.444928,-11103.089130,1480.411884,995.924147
3753.445258,-11103.089130,518.144159,1608.800546
3753.445588,-9252.574275,148.041188,1225.752797
3753.445917,-8290.306550,592.164754,1685.410096
3753.446247,-8808.450710,888.247130,2298.286494
3753.446577,-10362.883188,666.185348,1915.238745
3753.446907,-9770.718434,666.185348,1072.533697
3753.447237,-9400.615463,1036.288319,153.219100
3753.447567,-9918.759623,888.247130,306.438199
3753.447897,-11325.150913,888.247130,0.000000
3753.448227,-10807.006753,444.123565,-459.657299
3753.448556,-9400.615463,0.000000,-842.705048
3753.448886,-9548.656652,296.082377,-536.266849
3753.449216,-10066.800811,0.000000,-459.657299
3753.449546,-9252.574275,-296.082377,536.266849
3753.449876,-9030.512492,-148.041188,919.314598
3753.450206,-9844.739029,-222.061783,0.000000
3753.450536,-9992.780217,-444.123565,-383.047749
3753.450866,-9992.780217,-666.185348,0.000000
3753.451195,-9548.656652,-518.144159,-306.438199
3753.451525,-8808.450710,-592.164754,-919.314598
3753.451855,-9178.553681,-962.267725,-689.485948
3753.452185,-9770.718434,-814.226536,-536.266849
3753.452515,-9770.718434,-962.267725,0.000000
3753.452845,-9474.636058,-1036.288319,536.266849
3753.453175,-9992.780217,-1184.329507,689.485948
3753.453505,-10140.821405,-1110.308913,0.000000
3753.453834,-9326.594869,-666.185348,306.438199
3753.454164,-9474.636058,-814.226536,-306.438199
3753.454494,-9474.636058,-888.247130,-306.438199
3753.454824,-9548.656652,-148.041188,-536.266849
3753.455154,-9548.656652,-148.041188,76.609550
3753.455484,-10584.944971,-592.164754,306.438199
3753.455814,-10732.986159,-592.164754,1225.752797
3753.456144,-10807.006753,-1110.308913,1302.362347
3753.456473,-10362.883188,-518.144159,459.657299
3753.456803,-9770.718434,-1480.411884,0.000000
3753.457133,-9474.636058,-1110.308913,1302.362347
3753.457463,-9326.594869,-1110.308913,2221.676944
3753.457793,-10214.842000,-814.226536,1302.362347
3753.458123,-9992.780217,-592.164754,612.876398
3753.458453,-9844.739029,-74.020594,-306.438199
3753.458783,-9992.780217,-518.144159,0.000000
3753.459112,-10214.842000,-444.123565,306.438199
3753.459442,-9696.697840,-1036.288319,842.705048
3753.459772,-10510.924376,-592.164754,1225.752797
3753.460102,-10362.883188,-814.226536,153.219100
3753.460432,-10362.883188,-1036.288319,-153.219100
3753.460762,-9474.636058,-1184.329507,-842.705048
3753.461092,-9252.574275,-1184.329507,-383.047749
3753.461422,-8882.471304,-814.226536,0.000000
3753.461752,-8882.471304,-1258.350101,919.314598
3753.462081,-8364.327145,-666.185348,1532.190996
3753.462411,-8734.430116,-222.061783,536.266849
3753.462741,-9770.718434,-148.041188,-383.047749
3753.463071,-10436.903782,74.020594,-536.266849
3753.463401,-10436.903782,0.000000,-306.438199
3753.463731,-9548.656652,-370.102971,766.095498
3753.464061,-9548.656652,0.000000,0.000000
3753.464391,-8808.450710,74.020594,-536.266849
3753.464720,-9104.533087,296.082377,-1685.410096
3753.465050,-9918.759623,814.226536,-1225.752797
3753.465380,-10436.903782,1184.329507,-1149.143247
3753.465710,-10066.800811,1480.411884,-1455.581446
3753.466040,-9400.615463,1406.391290,-612.876398
3753.466370,-10066.800811,1036.288319,689.485948
3753.466700,-10066.800811,1184.329507,1149.143247
3753.467030,-10807.006753,1036.288319,919.314598
3753.467359,-10510.924376,1184.329507,306.438199
3753.467689,-9918.759623,1110.308913,-383.047749
3753.468019,-9918.759623,1258.350101,766.095498
3753.468349,-10362.883188,1110.308913,1455.581446
3753.468679,-10807.006753,1850.514855,2068.457845
3753.469009,-10510.924376,1406.391290,612.876398
3753.469339,-9770.718434,1184.329507,-229.828649
3753.469669,-9474.636058,1406.391290,-536.266849
3753.469998,-9474.636058,1258.350101,0.000000
3753.470328,-9474.636058,1110.308913,1532.190996
3753.470658,-9326.594869,962.267725,1991.848295
3753.470988,-9918.759623,1628.453072,1072.533697
3753.471318,-10140.821405,740.205942,153.219100
3753.471648,-9474.636058,666.185348,229.828649
3753.471978,-9696.697840,148.041188,229.828649
3753.472308,-9474.636058,0.000000,612.876398
3753.472637,-9622.677246,-296.082377,1149.143247
3753.472967,-8290.306550,-518.144159,1225.752797
3753.473297,-7624.121203,-148.041188,766.095498
3753.473627,-8290.306550,74.020594,536.266849
3753.473957,-9400.615463,222.061783,459.657299
3753.474287,-9696.697840,666.185348,153.219100
3753.474617,-9548.656652,148.041188,689.485948
3753.474947,-10066.800811,222.061783,153.219100
3753.475276,-9770.718434,74.020594,0.000000
3753.475606,-10584.944971,-222.061783,-153.219100
3753.475936,-9696.697840,0.000000,153.219100
3753.476266,-9918.759623,0.000000,-76.609550
3753.476596,-9178.553681,370.102971,-536.266849
3753.476926,-9400.615463,666.185348,536.266849
3753.477256,-10807.006753,1036.288319,1302.362347
3753.477586,-11177.109724,814.226536,1072.533697
3753.477916,-11473.192101,888.247130,842.705048
3753.478245,-10436.903782,222.061783,-459.657299
3753.478575,-10362.883188,518.144159,153.219100
3753.478905,-10288.862594,-222.061783,1455.581446
3753.479235,-11251.130318,0.000000,2145.067394
3753.479565,-11399.171507,74.020594,2145.067394
3753.479895,-10807.006753,-370.102971,1149.143247
3753.480225,-10288.862594,-148.041188,842.705048
3753.480555,-9770.718434,-518.144159,842.705048
3753.480884,-9770.718434,-740.205942,1378.971896
3753.481214,-9178.553681,-1332.370696,1532.190996
3753.481544,-8586.388927,-1480.411884,383.047749
3753.481874,-8512.368333,-1258.350101,306.438199
3753.482204,-8660.409521,-1480.411884,0.000000
3753.482534,-10288.862594,-666.185348,-766.095498
3753.482864,-10362.883188,-592.164754,-919.314598
3753.483194,-9844.739029,-1258.350101,-1455.581446
3753.483523,-9104.533087,-1628.453072,-459.657299
3753.483853,-9030.512492,-1480.411884,229.828649
3753.484183,-8734.430116,-1850.514855,229.828649
3753.484513,-8142.265362,-888.247130,-306.438199
3753.484843,-8142.265362,-740.205942,-1608.800546
3753.485173,-9252.574275,-666.185348,-2221.676944
3753.485503,-10140.821405,-518.144159,-536.266849
3753.485833,-11177.109724,-518.144159,459.657299
3753.486162,-9918.759623,-296.082377,229.828649
3753.486492,-9400.615463,-814.226536,-383.047749
3753.486822,-9474.636058,-370.102971,-536.266849
3753.487152,-9770.718434,0.000000,-1149.143247
3753.487482,-9400.615463,148.041188,-995.924147
3753.487812,-9844.739029,370.102971,-76.609550
3753.488142,-11177.109724,740.205942,1072.533697
3753.488472,-11177.109724,518.144159,1149.143247
3753.488801,-9622.677246,148.041188,383.047749
3753.489131,-8734.430116,0.000000,-842.705048
3753.489461,-8956.491898,740.205942,-919.314598
3753.489791,-9770.718434,592.164754,689.485948
3753.490121,-11177.109724,888.247130,1225.752797
3753.490451,-11399.171507,1258.350101,919.314598
3753.490781,-11325.150913,740.205942,153.219100
3753.491111,-10658.965565,666.185348,0.000000
3753.491440,-9918.759623,370.102971,-766.095498
3753.491770,-9622.677246,370.102971,229.828649
3753.492100,-8882.471304,74.020594,766.095498
3753.492430,-9474.636058,148.041188,842.705048
3753.492760,-9178.553681,444.123565,0.000000
3753.493090,-8956.491898,518.144159,-153.219100
3753.493420,-9918.759623,222.061783,0.000000
3753.493750,-9548.656652,0.000000,-1378.971896
3753.494080,-9030.512492,-592.164754,-1072.533697
3753.494409,-9252.574275,-444.123565,0.000000
3753.494739,-10066.800811,-444.123565,689.485948
3753.495069,-10066.800811,-518.144159,1072.533697
3753.495399,-8956.491898,-814.226536,153.219100
3753.495729,-8142.265362,-592.164754,-383.047749
3753.496059,-8438.347739,-592.164754,-459.657299
3753.496389,-8956.491898,0.000000,383.047749
3753.496719,-9992.780217,0.000000,919.314598
3753.497048,-9252.574275,518.144159,842.705048
3753.497378,-9770.718434,296.082377,536.266849
3753.497708,-11029.068536,740.205942,-306.438199
3753.498038,-10955.047942,666.185348,-1072.533697
3753.498368,-10510.924376,370.102971,-1149.143247
3753.498698,-9770.718434,-444.123565,0.000000
3753.499028,-9918.759623,74.020594,919.314598
3753.499358,-10214.842000,296.082377,1915.238745
3753.499687,-9474.636058,296.082377,2068.457845
3753.500017,-9696.697840,592.164754,1149.143247
3753.500347,-10066.800811,1110.308913,229.828649
3753.500677,-10584.944971,814.226536,612.876398
3753.501007,-11029.068536,1184.329507,1378.971896
3753.501337,-10807.006753,1036.288319,2068.457845
3753.501667,-11399.171507,1184.329507,1608.800546
3753.501997,-11177.109724,296.082377,153.219100
3753.502326,-10510.924376,-222.061783,-153.219100
3753.502656,-9548.656652,-222.061783,-459.657299
3753.502986,-8734.430116,-666.185348,689.485948
3753.503316,-8956.491898,-888.247130,1455.581446
3753.503646,-9474.636058,-296.082377,1991.848295
3753.503976,-8956.491898,-222.061783,2145.067394
3753.504306,-9696.697840,592.164754,459.657299
3753.504636,-9696.697840,74.020594,-1225.752797
3753.504965,-10140.821405,0.000000,-919.314598
3753.505295,-9696.697840,0.000000,459.657299
3753.505625,-9992.780217,222.061783,1302.362347
3753.505955,-9474.636058,-222.061783,1149.143247
3753.506285,-8734.430116,0.000000,-153.219100
3753.506615,-9844.739029,222.061783,-1532.190996
3753.506945,-10214.842000,370.102971,-2068.457845
3753.507275,-9696.697840,0.000000,-1225.752797
3753.507605,-9252.574275,0.000000,-383.047749
3753.507934,-7846.182985,444.123565,-76.609550
3753.508264,-8364.327145,592.164754,153.219100
3753.508594,-9474.636058,666.185348,-612.876398
3753.508924,-10955.047942,1110.308913,-1302.362347
3753.509254,-11029.068536,444.123565,-1072.533697
3753.509584,-10955.047942,296.082377,536.266849
3753.509914,-10362.883188,222.061783,1762.019645
3753.510244,-10066.800811,370.102971,2221.676944
3753.510573,-9548.656652,74.020594,842.705048
3753.510903,-9622.677246,0.000000,-306.438199
3753.511233,-9474.636058,666.185348,-689.485948
3753.511563,-9770.718434,814.226536,306.438199
3753.511893,-10066.800811,1036.288319,1225.752797
3753.512223,-10066.800811,592.164754,919.314598
3753.512553,-9992.780217,370.102971,229.828649
3753.512883,-9770.718434,74.020594,-306.438199
3753.513212,-10584.944971,74.020594,-612.876398
3753.513542,-10732.986159,0.000000,-306.438199
3753.513872,-10066.800811,-370.102971,536.266849
3753.514202,-10362.883188,-222.061783,995.924147
3753.514532,-9696.697840,-296.082377,919.314598
3753.514862,-9474.636058,-592.164754,459.657299
3753.515192,-8808.450710,-666.185348,-76.609550
3753.515522,-9030.512492,-296.082377,0.000000
3753.515851,-9030.512492,0.000000,-229.828649
3753.516181,-9474.636058,-148.041188,229.828649
3753.516511,-9918.759623,-148.041188,76.609550
3753.516841,-10288.862594,-370.102971,-76.609550
3753.517171,-10140.821405,-740.205942,-689.485948
3753.517501,-9770.718434,-666.185348,-306.438199
3753.517831,-9030.512492,-1036.288319,0.000000
3753.518161,-8438.347739,-1258.350101,459.657299
3753.518490,-8956.491898,-814.226536,689.485948
3753.518820,-9252.574275,-222.061783,689.485948
3753.519150,-9622.677246,-148.041188,842.705048
3753.519480,-9918.759623,0.000000,995.924147
3753.519810,-10066.800811,296.082377,689.485948
3753.520140,-10066.800811,148.041188,536.266849
3753.520470,-10214.842000,0.000000,919.314598
3753.520800,-10584.944971,-148.041188,1378.971896
3753.521129,-10658.965565,740.205942,2145.067394
3753.521459,-10881.027347,222.061783,1685.410096
3753.521789,-10362.883188,222.061783,842.705048
3753.522119,-10436.903782,444.123565,229.828649
3753.522449,-10140.821405,444.123565,612.876398
3753.522779,-9918.759623,444.123565,766.095498
3753.523109,-9474.636058,370.102971,1302.362347
3753.523439,-9474.636058,370.102971,1455.581446
3753.523769,-10140.821405,296.082377,1455.581446
3753.524098,-10362.883188,740.205942,1225.752797
3753.524428,-10658.965565,370.102971,0.000000
3753.524758,-10658.965565,0.000000,76.609550
3753.525088,-10584.944971,0.000000,383.047749
3753.525418,-9992.780217,-296.082377,612.876398
3753.525748,-9474.636058,0.000000,842.705048
3753.526078,-9474.636058,-148.041188,383.047749
3753.526408,-9400.615463,74.020594,-842.705048
3753.526737,-8660.409521,296.082377,-1455.581446
3753.527067,-8438.347739,296.082377,-1532.190996
3753.527397,-9400.615463,370.102971,-689.485948
3753.527727,-10140.821405,592.164754,-306.438199
3753.528057,-9918.759623,148.041188,-459.657299
3753.528387,-9770.718434,370.102971,-1072.533697
3753.528717,-9548.656652,222.061783,-1225.752797
3753.529047,-8956.491898,0.000000,-689.485948
3753.529376,-9844.739029,148.041188,-612.876398
3753.529706,-9992.780217,592.164754,-689.485948
3753.530036,-9548.656652,74.020594,0.000000
3753.530366,-9474.636058,222.061783,153.219100
3753.530696,-8734.430116,296.082377,0.000000
3753.531026,-8438.347739,222.061783,306.438199
3753.531356,-9252.574275,666.185348,842.705048
3753.531686,-10510.924376,740.205942,689.485948
3753.532015,-11029.068536,962.267725,842.705048
3753.532345,-10214.842000,592.164754,1225.752797
3753.532675,-10881.027347,518.144159,1378.971896
3753.533005,-11103.089130,518.144159,919.314598
3753.533335,-9770.718434,0.000000,842.705048
3753.533665,-9400.615463,592.164754,612.876398
3753.533995,-9844.739029,444.123565,0.000000
3753.534325,-9400.615463,370.102971,76.609550
3753.534654,-9178.553681,370.102971,689.485948
3753.534984,-9844.739029,888.247130,766.095498
3753.535314,-10881.027347,444.123565,1149.143247
3753.535644,-10881.027347,0.000000,842.705048
3753.535974,-10584.944971,-814.226536,306.438199
3753.536304,-9696.697840,-518.144159,0.000000
3753.536634,-9992.780217,-1036.288319,383.047749
3753.536964,-9918.759623,-1110.308913,842.705048
3753.537294,-9030.512492,-1480.411884,536.266849
3753.537624,-8142.265362,-1184.329507,-306.438199
3753.537953,-8808.450710,-1110.308913,-229.828649
3753.538283,-9770.718434,-740.205942,-459.657299
3753.538613,-9104.533087,-1036.288319,-229.828649
3753.538943,-8734.430116,-592.164754,76.609550
3753.539273,-9918.759623,148.041188,536.266849
3753.539603,-11177.109724,-444.123565,0.000000
3753.539933,-10658.965565,-962.267725,-383.047749
3753.540263,-9622.677246,-962.267725,-919.314598
3753.540593,-8512.368333,-666.185348,-612.876398
3753.540923,-9030.512492,-666.185348,229.828649
3753.541253,-8882.471304,-222.061783,612.876398
3753.541582,-9548.656652,74.020594,919.314598
3753.541912,-9622.677246,370.102971,-229.828649
3753.542242,-10362.883188,444.123565,0.000000
3753.542572,-11029.068536,592.164754,612.876398
3753.542902,-10658.965565,444.123565,1378.971896
3753.543232,-10214.842000,0.000000,2145.067394
3753.543562,-9770.718434,296.082377,1991.848295
3753.543892,-9844.739029,370.102971,995.924147
3753.544222,-10362.883188,370.102971,76.609550
3753.544552,-10436.903782,222.061783,76.609550
3753.544881,-10732.986159,370.102971,459.657299
3753.545211,-10066.800811,0.000000,1532.190996
3753.545541,-9918.759623,296.082377,1378.971896
3753.545871,-9548.656652,370.102971,919.314598
3753.546201,-9178.553681,370.102971,-153.219100
3753.546531,-9918.759623,592.164754,-306.438199
3753.546861,-10658.965565,74.020594,0.000000
3753.547191,-10510.924376,444.123565,76.609550
3753.547521,-9696.697840,0.000000,689.485948
3753.547851,-10288.862594,222.061783,76.609550
3753.548180,-10066.800811,-740.205942,-766.095498
3753.548510,-9400.615463,-296.082377,-1302.362347
3753.548840,-9104.533087,-370.102971,-459.657299
3753.549170,-8882.471304,222.061783,0.000000
3753.549500,-8808.450710,0.000000,76.609550
3753.549830,-8586.388927,0.000000,229.828649
3753.550160,-9178.553681,518.144159,-306.438199
3753.550490,-9548.656652,222.061783,-1302.362347
3753.550820,-9696.697840,74.020594,-1685.410096
3753.551150,-9474.636058,0.000000,-689.485948
3753.551479,-8882.471304,-296.082377,229.828649
3753.551809,-9622.677246,0.000000,995.924147
3753.552139,-9844.739029,222.061783,383.047749
3753.552469,-9770.718434,74.020594,-689.485948
3753.552799,-9178.553681,148.041188,-842.705048
3753.553129,-9178.553681,74.020594,0.000000
3753.553459,-9770.718434,370.102971,1072.533697
3753.553789,-9844.739029,740.205942,2604.724693
3753.554119,-9918.759623,370.102971,1455.581446
3753.554449,-9992.780217,740.205942,153.219100
3753.554779,-10288.862594,814.226536,-1072.533697
3753.555108,-10807.006753,444.123565,-153.219100
3753.555438,-11103.089130,518.144159,689.485948
3753.555768,-10807.006753,444.123565,1532.190996
3753.556098,-9844.739029,370.102971,1685.410096
3753.556428,-9992.780217,74.020594,1302.362347
3753.556758,-10732.986159,0.000000,842.705048
3753.557088,-10288.862594,0.000000,383.047749
3753.557418,-9326.594869,74.020594,536.266849
3753.557748,-9474.636058,0.000000,919.314598
3753.558078,-9992.780217,-148.041188,689.485948
3753.558407,-9548.656652,-370.102971,612.876398
3753.558737,-9622.677246,-370.102971,-383.047749
3753.559067,-10140.821405,-888.247130,-1072.533697
3753.559397,-9770.718434,-592.164754,-459.657299
3753.559727,-9474.636058,-962.267725,1149.143247
3753.560057,-9400.615463,-518.144159,1302.362347
3753.560387,-9474.636058,-962.267725,0.000000
3753.560717,-9622.677246,-666.185348,-612.876398
3753.561047,-9252.574275,-296.082377,-919.314598
3753.561377,-9400.615463,-518.144159,-919.314598
3753.561706,-9474.636058,-222.061783,153.219100
3753.562036,-9992.780217,-148.041188,842.705048
3753.562366,-9548.656652,-222.061783,76.609550
3753.562696,-9326.594869,-444.123565,-383.047749
3753.563026,-9622.677246,-518.144159,-842.705048
3753.563356,-10288.862594,-222.061783,-383.047749
3753.563686,-9770.718434,-370.102971,459.657299
3753.564016,-9770.718434,-370.102971,1302.362347
3753.564346,-9474.636058,74.020594,1455.581446
3753.564676,-9770.718434,148.041188,1455.581446
3753.565006,-10066.800811,444.123565,383.047749
3753.565335,-9770.718434,1110.308913,0.000000
3753.565665,-10362.883188,962.267725,153.219100
3753.565995,-10436.903782,1332.370696,383.047749
3753.566325,-10362.883188,518.144159,1225.752797
3753.566655,-10881.027347,1036.288319,459.657299
3753.566985,-10288.862594,518.144159,-612.876398
3753.567315,-10510.924376,370.102971,-919.314598
3753.567645,-9918.759623,0.000000,0.000000
3753.567975,-9474.636058,370.102971,766.095498
3753.568305,-9474.636058,-370.102971,2221.676944
3753.568634,-9770.718434,-296.082377,2068.457845
3753.568964,-9844.739029,148.041188,1149.143247
3753.569294,-9474.636058,-444.123565,-842.705048
3753.569624,-9326.594869,0.000000,-1225.752797
3753.569954,-9400.615463,0.000000,-766.095498
3753.570284,-9400.615463,74.020594,-459.657299
3753.570614,-9548.656652,-222.061783,-383.047749
3753.570944,-9474.636058,-74.020594,0.000000
3753.571274,-9696.697840,-666.185348,0.000000
3753.571604,-9770.718434,-444.123565,-612.876398
3753.571933,-9326.594869,-370.102971,-766.095498
3753.572263,-8956.491898,-444.123565,-1072.533697
3753.572593,-8808.450710,-222.061783,0.000000
3753.572923,-9252.574275,0.000000,842.705048
3753.573253,-9400.615463,296.082377,383.047749
3753.573583,-9474.636058,518.144159,-383.047749
3753.573913,-10584.944971,296.082377,-995.924147
3753.574243,-10955.047942,444.123565,-459.657299
3753.574573,-10510.924376,0.000000,0.000000
3753.574903,-9622.677246,0.000000,1072.533697
3753.575233,-9030.512492,0.000000,1225.752797
3753.575562,-9030.512492,666.185348,306.438199
3753.575892,-9770.718434,888.247130,-76.609550
3753.576222,-10140.821405,1258.350101,-306.438199
3753.576552,-9992.780217,1332.370696,-766.095498
3753.576882,-10362.883188,962.267725,612.876398
3753.577212,-10807.006753,962.267725,1762.019645
3753.577542,-11103.089130,1110.308913,1532.190996
3753.577872,-10140.821405,1184.329507,612.876398
3753.578202,-10288.862594,888.247130,-919.314598
3753.578532,-10362.883188,370.102971,-1149.143247
3753.578861,-10066.800811,444.123565,0.000000
3753.579191,-9992.780217,0.000000,2221.676944
3753.579521,-10066.800811,0.000000,2374.896044
3753.579851,-9474.636058,74.020594,766.095498
3753.580181,-8882.471304,-444.123565,-612.876398
3753.580511,-9474.636058,0.000000,-1762.019645
3753.580841,-9622.677246,-148.041188,-1302.362347
3753.581171,-9252.574275,-518.144159,459.657299
3753.581501,-8660.409521,-888.247130,1225.752797
3753.581831,-8808.450710,-740.205942,1455.581446
3753.582160,-9030.512492,0.000000,306.438199
3753.582490,-10066.800811,-518.144159,-459.657299
3753.582820,-9696.697840,-444.123565,-1149.143247
3753.583150,-8660.409521,-740.205942,-306.438199
3753.583480,-8660.409521,74.020594,1072.533697
3753.583810,-9178.553681,-666.185348,2374.896044
3753.584140,-9104.533087,370.102971,842.705048
3753.584470,-9326.594869,74.020594,-919.314598
3753.584800,-9770.718434,222.061783,-1991.848295
3753.585130,-10510.924376,592.164754,-1072.533697
3753.585460,-10288.862594,740.205942,459.657299
3753.585789,-9844.739029,74.020594,1455.581446
3753.586119,-10362.883188,148.041188,1762.019645
3753.586449,-9918.759623,370.102971,2374.896044
3753.586779,-10732.986159,444.123565,995.924147
3753.587109,-10362.883188,222.061783,-306.438199
3753.587439,-9844.739029,518.144159,0.000000
3753.587769,-9548.656652,370.102971,1608.800546
3753.588099,-10807.006753,0.000000,2451.505594
3753.588429,-10955.047942,814.226536,1455.581446
3753.588759,-10807.006753,74.020594,0.000000
3753.589088,-10288.862594,370.102971,-766.095498
3753.589418,-10066.800811,-518.144159,-459.657299
3753.589748,-10362.883188,-74.020594,842.705048
3753.590078,-10362.883188,-592.164754,2068.457845
3753.590408,-10288.862594,-444.123565,1685.410096
3753.590738,-9474.636058,-962.267725,306.438199
3753.591068,-9622.677246,-814.226536,-306.438199
3753.591398,-9400.615463,0.000000,-919.314598
3753.591728,-9178.553681,-592.164754,-1225.752797
3753.592058,-8882.471304,-370.102971,0.000000
3753.592387,-8586.388927,-592.164754,842.705048
3753.592717,-9252.574275,-296.082377,153.219100
3753.593047,-10140.821405,-666.185348,-842.705048
3753.593377,-10510.924376,-1110.308913,-1532.190996
3753.593707,-9474.636058,-814.226536,-1762.019645
3753.594037,-9104.533087,-814.226536,-1302.362347
3753.594367,-8438.347739,-740.205942,0.000000
3753.594697,-8734.430116,-74.020594,383.047749
3753.595027,-9252.574275,296.082377,-229.828649
3753.595357,-9770.718434,0.000000,-1149.143247
3753.595687,-10140.821405,888.247130,-766.095498
3753.596016,-10584.944971,888.247130,-536.266849
3753.596346,-9918.759623,1036.288319,76.609550
3753.596676,-9474.636058,148.041188,995.924147
3753.597006,-10732.986159,0.000000,842.705048
3753.597336,-10510.924376,740.205942,995.924147
3753.597666,-10510.924376,740.205942,919.314598
3753.597996,-10066.800811,1184.329507,153.219100
3753.598326,-10362.883188,888.247130,383.047749
3753.598656,-10214.842000,1184.329507,536.266849
3753.598986,-10807.006753,740.205942,1838.629195
3753.599315,-10658.965565,518.144159,1608.800546
3753.599645,-9918.759623,518.144159,919.314598
3753.599975,-9104.533087,740.205942,229.828649
3753.600305,-9770.718434,148.041188,153.219100
3753.600635,-10807.006753,518.144159,536.266849
3753.600965,-9992.780217,222.061783,766.095498
3753.601295,-10955.047942,-222.061783,306.438199
3753.601625,-9770.718434,0.000000,0.000000
3753.601955,-9622.677246,-592.164754,919.314598
3753.602285,-9400.615463,0.000000,76.609550
3753.602614,-8734.430116,-592.164754,-842.705048
3753.602944,-8438.347739,0.000000,-1225.752797
3753.603274,-8364.327145,-370.102971,-459.657299
3753.603604,-9548.656652,0.000000,0.000000
3753.603934,-9992.780217,0.000000,766.095498
3753.604264,-9770.718434,0.000000,383.047749
3753.604594,-9252.574275,-666.185348,-919.314598
3753.604924,-9400.615463,-518.144159,-995.924147
3753.605254,-9178.553681,-666.185348,0.000000
3753.605584,-9400.615463,-444.123565,842.705048
3753.605914,-9770.718434,148.041188,1072.533697
3753.606243,-9992.780217,-370.102971,1225.752797
3753.606573,-9918.759623,370.102971,842.705048
3753.606903,-9844.739029,0.000000,0.000000
3753.607233,-9992.780217,222.061783,-306.438199
3753.607563,-9252.574275,0.000000,-459.657299
3753.607893,-9252.574275,222.061783,689.485948
3753.608223,-9400.615463,444.123565,1838.629195
3753.608553,-10510.924376,666.185348,1915.238745
3753.608883,-11251.130318,666.185348,689.485948
3753.609213,-11547.212695,222.061783,0.000000
3753.609542,-10807.006753,666.185348,-306.438199
3753.609872,-10436.903782,148.041188,1072.533697
3753.610202,-10658.965565,814.226536,1762.019645
3753.610532,-10288.862594,814.226536,2068.457845
3753.610862,-9992.780217,814.226536,1762.019645
3753.611192,-10214.842000,814.226536,0.000000
3753.611522,-10584.944971,962.267725,-995.924147
3753.611852,-10807.006753,518.144159,-536.266849
3753.612182,-10510.924376,-296.082377,-229.828649
3753.612512,-9474.636058,-296.082377,383.047749
3753.612841,-9030.512492,-592.164754,689.485948
3753.613171,-9252.574275,-370.102971,459.657299
3753.613501,-9178.553681,-1036.288319,-612.876398
3753.613831,-8808.450710,-444.123565,-1302.362347
3753.614161,-8882.471304,-740.205942,-1072.533697
3753.614491,-9696.697840,-592.164754,612.876398
3753.614821,-9548.656652,-740.205942,1915.238745
3753.615151,-8438.347739,-1036.288319,1378.971896
3753.615481,-8142.265362,-962.267725,0.000000
3753.615811,-8882.471304,-518.144159,-689.485948
3753.616141,-9252.574275,-444.123565,-995.924147
3753.616470,-9548.656652,-518.144159,-153.219100
3753.616800,-9770.718434,74.020594,-306.438199
3753.617130,-9622.677246,-592.164754,229.828649
3753.617460,-9104.533087,-444.123565,306.438199
3753.617790,-9178.553681,-222.061783,0.000000
3753.618120,-9400.615463,296.082377,-919.314598
3753.618450,-9992.780217,370.102971,-766.095498
3753.618780,-10362.883188,296.082377,229.828649
3753.619110,-10214.842000,518.144159,1608.800546
3753.619440,-10288.862594,592.164754,2757.943793
3753.619769,-10807.006753,888.247130,1532.190996
3753.620099,-10584.944971,1036.288319,-689.485948
3753.620429,-10510.924376,518.144159,-1378.971896
3753.620759,-10807.006753,666.185348,-842.705048
3753.621089,-11621.233289,888.247130,842.705048
3753.621419,-11103.089130,814.226536,1685.410096
3753.621749,-9770.718434,222.061783,995.924147
3753.622079,-9548.656652,592.164754,-1302.362347
3753.622409,-9918.759623,592.164754,-1915.238745
3753.622739,-10140.821405,0.000000,-1838.629195
3753.623068,-10066.800811,148.041188,-536.266849
3753.623398,-9104.533087,-148.041188,1072.533697
3753.623728,-9474.636058,-296.082377,2145.067394
3753.624058,-10066.800811,-666.185348,1455.581446
3753.624388,-10140.821405,-592.164754,-306.438199
3753.624718,-9104.533087,-1036.288319,-1915.238745
3753.625048,-8586.388927,-1702.473667,-766.095498
3753.625378,-9178.553681,-1110.308913,689.485948
3753.625708,-8956.491898,-888.247130,1915.238745
3753.626038,-8364.327145,-962.267725,1608.800546
3753.626368,-8142.265362,-1480.411884,-383.047749
3753.626697,-8882.471304,-518.144159,-1532.190996
3753.627027,-9474.636058,-592.164754,-1072.533697
3753.627357,-9844.739029,-444.123565,459.657299
3753.627687,-9622.677246,0.000000,1072.533697
3753.628017,-9178.553681,0.000000,1072.533697
3753.628347,-9474.636058,222.061783,0.000000
3753.628677,-10362.883188,148.041188,-612.876398
3753.629007,-10807.006753,370.102971,-459.657299
3753.629337,-10288.862594,296.082377,-459.657299
3753.629667,-9474.636058,74.020594,612.876398
3753.629996,-8586.388927,222.061783,1302.362347
3753.630326,-9696.697840,1332.370696,2604.724693
3753.630656,-11473.192101,1554.432478,1762.019645
3753.630986,-11621.233289,1184.329507,229.828649
3753.631316,-10732.986159,1480.411884,-459.657299
3753.631646,-10881.027347,1184.329507,612.876398
3753.631976,-10955.047942,962.267725,1455.581446
3753.632306,-10510.924376,444.123565,2145.067394
3753.632636,-9252.574275,296.082377,1378.971896
3753.632966,-9104.533087,222.061783,459.657299
3753.633295,-10362.883188,370.102971,306.438199
3753.633625,-10732.986159,0.000000,919.314598
3753.633955,-10732.986159,222.061783,689.485948
3753.634285,-8734.430116,-296.082377,766.095498
3753.634615,-7846.182985,-518.144159,1225.752797
3753.634945,-9696.697840,222.061783,766.095498
3753.635275,-10362.883188,-148.041188,76.609550
3753.635605,-9178.553681,-74.020594,-842.705048
3753.635934,-9178.553681,0.000000,-612.876398
3753.636264,-10140.821405,222.061783,0.000000
3753.636594,-10066.800811,-740.205942,612.876398
3753.636924,-8956.491898,-444.123565,76.609550
3753.637254,-8216.285956,-888.247130,-536.266849
3753.637584,-8882.471304,-74.020594,-842.705048
3753.637913,-9622.677246,-74.020594,-612.876398
3753.638243,-9696.697840,296.082377,153.219100
3753.638573,-8364.327145,222.061783,306.438199
3753.638903,-8808.450710,0.000000,459.657299
3753.639233,-10510.924376,370.102971,-536.266849
3753.639563,-11473.192101,666.185348,-689.485948
3753.639892,-10066.800811,148.041188,-459.657299
3753.640222,-9474.636058,0.000000,383.047749
3753.640552,-10140.821405,518.144159,766.095498
3753.640882,-9696.697840,0.000000,1838.629195
3753.641212,-9770.718434,814.226536,1455.581446
3753.641542,-9474.636058,814.226536,459.657299
3753.641871,-10214.842000,1110.308913,0.000000
3753.642201,-10881.027347,1776.494261,0.000000
3753.642531,-10955.047942,0.000000,536.266849
3753.642861,-10140.821405,1776.494261,1532.190996
3753.643191,-10955.047942,1036.288319,459.657299
3753.643521,-11251.130318,814.226536,-1455.581446
3753.643850,-9770.718434,-370.102971,-766.095498
3753.644180,-10140.821405,740.205942,536.266849
3753.644510,-10140.821405,222.061783,1532.190996
3753.644840,-10732.986159,370.102971,842.705048
3753.645170,-9178.553681,-666.185348,995.924147
3753.645500,-8512.368333,-740.205942,1072.533697
3753.645830,-9770.718434,0.000000,76.609550
3753.646159,-10362.883188,-370.102971,-153.219100
3753.646489,-9400.615463,-222.061783,-766.095498
3753.646819,-8216.285956,-814.226536,-1302.362347
3753.647149,-8882.471304,-444.123565,-766.095498
3753.647479,-9622.677246,-740.205942,-229.828649
3753.647809,-9696.697840,-740.205942,-766.095498
3753.648138,-8882.471304,-1258.350101,0.000000
3753.648468,-8660.409521,-962.267725,0.000000
3753.648798,-9030.512492,-814.226536,229.828649
3753.649128,-9104.533087,-1036.288319,0.000000
3753.649458,-8956.491898,-518.144159,229.828649
3753.649788,-9252.574275,-370.102971,229.828649
3753.650117,-10066.800811,0.000000,76.609550
3753.650447,-10510.924376,0.000000,76.609550
3753.650777,-9992.780217,222.061783,229.828649
3753.651107,-9400.615463,-296.082377,76.609550
3753.651437,-9918.759623,74.020594,383.047749
3753.651767,-10436.903782,0.000000,612.876398
3753.652096,-10214.842000,-74.020594,919.314598
3753.652426,-9770.718434,0.000000,1149.143247
3753.652756,-9844.739029,74.020594,612.876398
3753.653086,-10140.821405,592.164754,459.657299
3753.653416,-10881.027347,444.123565,306.438199
3753.653746,-10955.047942,296.082377,383.047749
3753.654075,-10436.903782,444.123565,153.219100
3753.654405,-10584.944971,518.144159,-76.609550
3753.654735,-10436.903782,0.000000,229.828649
3753.655065,-10140.821405,0.000000,153.219100
3753.655395,-9400.615463,-222.061783,0.000000
3753.655725,-9844.739029,0.000000,-1455.581446
3753.656055,-9696.697840,-518.144159,-1225.752797
3753.656384,-9622.677246,-296.082377,76.609550
3753.656714,-9622.677246,-222.061783,1225.752797
3753.657044,-10066.800811,-666.185348,1225.752797
3753.657374,-9622.677246,-666.185348,383.047749
3753.657704,-8956.491898,-1036.288319,0.000000
3753.658034,-8586.388927,-666.185348,-306.438199
3753.658363,-9104.533087,-740.205942,229.828649
3753.658693,-9770.718434,-592.164754,612.876398
3753.659023,-9104.533087,-296.082377,76.609550
3753.659353,-9030.512492,-518.144159,-76.609550
3753.659683,-8734.430116,-148.041188,-306.438199
3753.660013,-9622.677246,148.041188,-536.266849
3753.660342,-9696.697840,148.041188,-306.438199
3753.660672,-9474.636058,148.041188,0.000000
3753.661002,-9326.594869,592.164754,612.876398
3753.661332,-10066.800811,740.205942,536.266849
3753.661662,-10066.800811,814.226536,536.266849
3753.661992,-9770.718434,740.205942,229.828649
3753.662321,-10140.821405,888.247130,0.000000
3753.662651,-10214.842000,518.144159,383.047749
3753.662981,-10510.924376,1036.288319,1072.533697
3753.663311,-10510.924376,1332.370696,1149.143247
3753.663641,-10066.800811,1628.453072,612.876398
3753.663971,-9770.718434,1406.391290,0.000000
3753.664300,-10436.903782,962.267725,536.266849
3753.664630,-10732.986159,1258.350101,536.266849
3753.664960,-10140.821405,1036.288319,383.047749
3753.665290,-10732.986159,1332.370696,766.095498
3753.665620,-10584.944971,740.205942,306.438199
3753.665950,-9844.739029,592.164754,153.219100
3753.666279,-10066.800811,296.082377,229.828649
3753.666609,-9770.718434,444.123565,-612.876398
3753.666939,-9104.533087,0.000000,-383.047749
3753.667269,-8734.430116,-74.020594,-459.657299
3753.667599,-9252.574275,-74.020594,0.000000
3753.667929,-10362.883188,0.000000,-383.047749
3753.668259,-9326.594869,-666.185348,0.000000
3753.668588,-9104.533087,-666.185348,-153.219100
3753.668918,-8438.347739,-592.164754,-383.047749
3753.669248,-8956.491898,-296.082377,76.609550
3753.669578,-9622.677246,-740.205942,153.219100
3753.669908,-9326.594869,-814.226536,0.000000
3753.670238,-9400.615463,0.000000,-536.266849
3753.670567,-9844.739029,-444.123565,-306.438199
3753.670897,-10362.883188,-148.041188,383.047749
3753.671227,-10066.800811,-148.041188,153.219100
3753.671557,-9326.594869,-222.061783,0.000000
3753.671887,-9030.512492,-74.020594,-689.485948
3753.672217,-8734.430116,0.000000,-1225.752797
3753.672546,-9400.615463,0.000000,-536.266849
3753.672876,-10288.862594,370.102971,612.876398
3753.673206,-11029.068536,296.082377,1762.019645
3753.673536,-10658.965565,74.020594,1072.533697
3753.673866,-10510.924376,0.000000,689.485948
3753.674196,-9918.759623,-222.061783,0.000000
3753.674525,-9770.718434,0.000000,229.828649
3753.674855,-9474.636058,-518.144159,612.876398
3753.675185,-9844.739029,74.020594,1455.581446
3753.675515,-10362.883188,666.185348,1608.800546
3753.675845,-11399.171507,296.082377,919.314598
3753.676175,-11695.253884,222.061783,76.609550
3753.676504,-10436.903782,-444.123565,-306.438199
3753.676834,-9474.636058,-518.144159,229.828649
3753.677164,-8956.491898,-888.247130,1225.752797
3753.677494,-9548.656652,0.000000,1455.581446
3753.677824,-8956.491898,0.000000,-306.438199
3753.678154,-9548.656652,-148.041188,-1149.143247
3753.678484,-10288.862594,-148.041188,-1455.581446
3753.678813,-10362.883188,-740.205942,-842.705048
3753.679143,-8956.491898,-444.123565,153.219100
3753.679473,-8438.347739,-814.226536,689.485948
3753.679803,-8068.244768,-888.247130,0.000000
3753.680133,-8512.368333,-888.247130,-153.219100
3753.680463,-9548.656652,-74.020594,0.000000
3753.680792,-10066.800811,-222.061783,0.000000
3753.681122,-9992.780217,148.041188,306.438199
3753.681452,-9252.574275,0.000000,536.266849
3753.681782,-9474.636058,148.041188,0.000000
3753.682112,-8808.450710,518.144159,-383.047749
3753.682442,-10955.047942,666.185348,-229.828649
3753.682771,-11621.233289,740.205942,-612.876398
3753.683101,-10362.883188,740.205942,-1149.143247
3753.683431,-8364.327145,592.164754,-153.219100
3753.683761,-8808.450710,592.164754,995.924147
3753.684091,-10066.800811,592.164754,842.705048
3753.684421,-9918.759623,518.144159,919.314598
3753.684750,-9400.615463,518.144159,536.266849
3753.685080,-10214.842000,1332.370696,459.657299
3753.685410,-11103.089130,1184.329507,1532.190996
3753.685740,-11029.068536,962.267725,2145.067394
3753.686070,-10807.006753,740.205942,1532.190996
3753.686400,-9844.739029,666.185348,612.876398
3753.686729,-10510.924376,518.144159,-306.438199
3753.687059,-10510.924376,740.205942,-383.047749
3753.687389,-10955.047942,518.144159,76.609550
3753.687719,-9992.780217,370.102971,612.876398
3753.688049,-9326.594869,222.061783,612.876398
3753.688379,-9474.636058,444.123565,229.828649
3753.688708,-9400.615463,222.061783,0.000000
3753.689038,-9474.636058,74.020594,76.609550
3753.689368,-9622.677246,222.061783,0.000000
3753.689698,-9770.718434,-148.041188,-919.314598
3753.690028,-9770.718434,-370.102971,-1378.971896
3753.690358,-9844.739029,-666.185348,-536.266849
3753.690688,-9474.636058,-740.205942,-459.657299
3753.691017,-8290.306550,-962.267725,-153.219100
3753.691347,-8586.388927,-1110.308913,76.609550
3753.691677,-9252.574275,-444.123565,229.828649
3753.692007,-8882.471304,-370.102971,-766.095498
3753.692337,-9326.594869,0.000000,229.828649
3753.692667,-10658.965565,0.000000,536.266849
3753.692996,-10140.821405,0.000000,459.657299
3753.693326,-9474.636058,0.000000,76.609550
3753.693656,-9474.636058,0.000000,-383.047749
3753.693986,-9844.739029,74.020594,-689.485948
3753.694316,-10362.883188,0.000000,-153.219100
3753.694646,-10658.965565,0.000000,919.314598
3753.694975,-10288.862594,370.102971,1072.533697
3753.695305,-10066.800811,296.082377,766.095498
3753.695635,-9844.739029,296.082377,0.000000
3753.695965,-9474.636058,370.102971,995.924147
3753.696295,-10214.842000,-74.020594,1302.362347
3753.696625,-10066.800811,0.000000,1532.190996
3753.696954,-10658.965565,592.164754,2068.457845
3753.697284,-10584.944971,0.000000,1149.143247
3753.697614,-10214.842000,0.000000,612.876398
3753.697944,-10362.883188,0.000000,459.657299
3753.698274,-10584.944971,-222.061783,459.657299
3753.698604,-10066.800811,-74.020594,919.314598
3753.698933,-9178.553681,-1036.288319,1225.752797
3753.699263,-9474.636058,-296.082377,612.876398
3753.699593,-9844.739029,-222.061783,0.000000
3753.699923,-9622.677246,-148.041188,-689.485948
3753.700253,-8956.491898,-962.267725,-689.485948
3753.700583,-9326.594869,0.000000,229.828649
3753.700913,-8660.409521,-740.205942,153.219100
3753.701242,-9030.512492,-148.041188,383.047749
3753.701572,-9474.636058,444.123565,0.000000
3753.701902,-10436.903782,74.020594,459.657299
3753.702232,-11029.068536,-666.185348,-153.219100
3753.702562,-9548.656652,-666.185348,0.000000
3753.702892,-7846.182985,-444.123565,459.657299
3753.703221,-8290.306550,-296.082377,306.438199
3753.703551,-9104.533087,-370.102971,229.828649
3753.703881,-9400.615463,148.041188,0.000000
3753.704211,-9918.759623,1036.288319,0.000000
3753.704541,-11251.130318,962.267725,-689.485948
3753.704871,-11251.130318,740.205942,-612.876398
3753.705200,-9844.739029,1036.288319,-766.095498
3753.705530,-9474.636058,444.123565,-536.266849
3753.705860,-9992.780217,814.226536,-536.266849
3753.706190,-9992.780217,518.144159,-306.438199
3753.706520,-9326.594869,666.185348,459.657299
3753.706850,-9548.656652,1036.288319,612.876398
3753.707179,-10214.842000,1184.329507,919.314598
3753.707509,-10436.903782,518.144159,689.485948
3753.707839,-10732.986159,1110.308913,766.095498
3753.708169,-9992.780217,592.164754,612.876398
3753.708499,-10362.883188,518.144159,1378.971896
3753.708829,-10362.883188,814.226536,1072.533697
3753.709158,-10436.903782,740.205942,689.485948
3753.709488,-9696.697840,962.267725,-383.047749
3753.709818,-10362.883188,370.102971,-689.485948
3753.710148,-10214.842000,0.000000,-459.657299
3753.710478,-8734.430116,74.020594,229.828649
3753.710808,-8808.450710,0.000000,-306.438199
3753.711137,-9252.574275,74.020594,-766.095498
3753.711467,-9474.636058,222.061783,-1991.848295
3753.711797,-9474.636058,-296.082377,-995.924147
3753.712127,-9844.739029,0.000000,0.000000
3753.712457,-10214.842000,-592.164754,383.047749
3753.712787,-9474.636058,-1110.308913,1225.752797
3753.713117,-8882.471304,-1554.432478,612.876398
3753.713446,-8956.491898,-1628.453072,459.657299
3753.713776,-8734.430116,-962.267725,306.438199
3753.714106,-9104.533087,-814.226536,0.000000
3753.714436,-9030.512492,-370.102971,383.047749
3753.714766,-9252.574275,148.041188,536.266849
3753.715096,-10510.924376,518.144159,766.095498
3753.715425,-11177.109724,148.041188,-1378.971896
3753.715755,-10732.986159,74.020594,-1991.848295
3753.716085,-9548.656652,-74.020594,-919.314598
3753.716415,-10140.821405,-222.061783,536.266849
3753.716745,-9844.739029,74.020594,1302.362347
3753.717075,-9030.512492,-222.061783,2145.067394
3753.717404,-9474.636058,296.082377,1685.410096
3753.717734,-10881.027347,518.144159,689.485948
3753.718064,-11917.315666,666.185348,536.266849
3753.718394,-11473.192101,296.082377,995.924147
3753.718724,-10584.944971,222.061783,1302.362347
3753.719054,-9696.697840,444.123565,1072.533697
3753.719383,-9474.636058,-222.061783,1149.143247
3753.719713,-9992.780217,592.164754,1149.143247
3753.720043,-9770.718434,222.061783,383.047749
3753.720373,-10066.800811,222.061783,-536.266849
3753.720703,-10066.800811,74.020594,0.000000
3753.721033,-10362.883188,-370.102971,153.219100
3753.721362,-9548.656652,-592.164754,919.314598
3753.721692,-8660.409521,-814.226536,1378.971896
3753.722022,-8808.450710,-296.082377,383.047749
3753.722352,-8512.368333,-592.164754,-383.047749
3753.722682,-8956.491898,0.000000,-612.876398
3753.723012,-9770.718434,-444.123565,0.000000
3753.723342,-10288.862594,0.000000,459.657299
3753.723671,-9918.759623,-296.082377,1378.971896
3753.724001,-9696.697840,-370.102971,842.705048
3753.724331,-9844.739029,-74.020594,-536.266849
3753.724661,-8882.471304,0.000000,-1225.752797
3753.724991,-8734.430116,74.020594,-1685.410096
3753.725321,-9548.656652,444.123565,-1149.143247
3753.725650,-9918.759623,370.102971,-306.438199
3753.725980,-9770.718434,666.185348,76.609550
3753.726310,-9844.739029,370.102971,0.000000
3753.726640,-10140.821405,370.102971,-459.657299
3753.726970,-9548.656652,370.102971,-229.828649
3753.727300,-9696.697840,518.144159,689.485948
3753.727629,-10510.924376,814.226536,1149.143247
3753.727959,-9696.697840,444.123565,1455.581446
3753.728289,-10436.903782,296.082377,1685.410096
3753.728619,-10955.047942,666.185348,536.266849
3753.728949,-10288.862594,1110.308913,-536.266849
3753.729279,-10066.800811,1110.308913,-1149.143247
3753.729608,-10140.821405,1110.308913,-306.438199
3753.729938,-10807.006753,888.247130,766.095498
3753.730268,-9548.656652,666.185348,1378.971896
3753.730598,-10066.800811,296.082377,536.266849
3753.730928,-10510.924376,592.164754,-995.924147
3753.731258,-10066.800811,0.000000,-1455.581446
3753.731587,-9844.739029,0.000000,-689.485948
3753.731917,-10140.821405,-888.247130,229.828649
3753.732247,-9548.656652,-740.205942,766.095498
3753.732577,-8882.471304,-962.267725,1455.581446
3753.732907,-8660.409521,-1110.308913,-229.828649
3753.733237,-9104.533087,-1110.308913,-1225.752797
3753.733567,-9400.615463,-814.226536,-1225.752797
3753.733896,-9844.739029,-962.267725,-459.657299
3753.734226,-9252.574275,-1258.350101,76.609550
3753.734556,-8290.306550,-1480.411884,689.485948
3753.734886,-9178.553681,-1258.350101,536.266849
3753.735216,-9696.697840,-1406.391290,-383.047749
3753.735546,-9400.615463,-1480.411884,-995.924147
3753.735875,-8808.450710,-1332.370696,-536.266849
3753.736205,-9030.512492,-592.164754,-459.657299
3753.736535,-9474.636058,0.000000,459.657299
3753.736865,-9992.780217,0.000000,536.266849
3753.737195,-10140.821405,0.000000,-842.705048
3753.737525,-10362.883188,-370.102971,-1991.848295
3753.737855,-9918.759623,74.020594,-1762.019645
3753.738184,-9622.677246,-370.102971,-153.219100
3753.738514,-9252.574275,-518.144159,1225.752797
3753.738844,-9474.636058,-444.123565,2451.505594
3753.739174,-10584.944971,370.102971,2298.286494
3753.739504,-10732.986159,518.144159,1225.752797
3753.739834,-11325.150913,814.226536,306.438199
3753.740164,-10807.006753,1258.350101,76.609550
3753.740493,-11769.274478,444.123565,1762.019645
3753.740823,-10436.903782,444.123565,2221.676944
3753.741153,-10066.800811,222.061783,2068.457845
3753.741483,-9474.636058,592.164754,842.705048
3753.741813,-9104.533087,0.000000,-383.047749
3753.742143,-9400.615463,222.061783,-383.047749
3753.742473,-9918.759623,0.000000,153.219100
3753.742802,-10436.903782,296.082377,1225.752797
3753.743132,-10066.800811,-370.102971,1455.581446
3753.743462,-9918.759623,-148.041188,1378.971896
3753.743792,-9918.759623,-148.041188,536.266849
3753.744122,-9326.594869,-74.020594,0.000000
3753.744452,-7920.203579,-148.041188,-306.438199
3753.744782,-9030.512492,222.061783,612.876398
3753.745111,-9178.553681,592.164754,1149.143247
3753.745441,-8734.430116,148.041188,919.314598
3753.745771,-9104.533087,1258.350101,919.314598
3753.746101,-9770.718434,1258.350101,0.000000
3753.746431,-10362.883188,1258.350101,-1149.143247
3753.746761,-9326.594869,296.082377,-1532.190996
3753.747091,-9400.615463,592.164754,-919.314598
3753.747420,-9104.533087,1406.391290,0.000000
3753.747750,-9622.677246,1036.288319,153.219100
3753.748080,-10214.842000,1110.308913,0.000000
3753.748410,-10214.842000,814.226536,-306.438199
3753.748740,-9696.697840,1110.308913,306.438199
3753.749070,-9770.718434,1110.308913,383.047749
3753.749400,-10140.821405,1036.288319,842.705048
3753.749729,-9400.615463,888.247130,1302.362347
3753.750059,-9400.615463,666.185348,1838.629195
3753.750389,-10658.965565,1110.308913,842.705048
3753.750719,-10955.047942,740.205942,76.609550
3753.751049,-10436.903782,962.267725,383.047749
3753.751379,-9918.759623,962.267725,1149.143247
3753.751709,-10288.862594,518.144159,842.705048
3753.752038,-10214.842000,814.226536,383.047749
3753.752368,-9918.759623,666.185348,-459.657299
3753.752698,-9474.636058,666.185348,-1455.581446
3753.753028,-9696.697840,1110.308913,-1072.533697
3753.753358,-10066.800811,962.267725,-766.095498
3753.753688,-10881.027347,888.247130,-612.876398
3753.754018,-9548.656652,0.000000,-1072.533697
3753.754347,-9474.636058,0.000000,-842.705048
3753.754677,-9474.636058,-370.102971,-229.828649
3753.755007,-9548.656652,-1036.288319,229.828649
3753.755337,-9178.553681,-1110.308913,842.705048
3753.755667,-9252.574275,-666.185348,612.876398
3753.755997,-9622.677246,-888.247130,459.657299
3753.756326,-8956.491898,-1480.411884,842.705048
3753.756656,-9178.553681,-1258.350101,1072.533697
3753.756986,-8808.450710,-1184.329507,766.095498
3753.757316,-8956.491898,-814.226536,76.609550
3753.757646,-9104.533087,-962.267725,-306.438199
3753.757976,-9326.594869,-888.247130,-919.314598
3753.758306,-9548.656652,-740.205942,0.000000
3753.758635,-9622.677246,-740.205942,459.657299
3753.758965,-10066.800811,-518.144159,842.705048
3753.759295,-10214.842000,-444.123565,383.047749
3753.759625,-10214.842000,-222.061783,306.438199
3753.759955,-10214.842000,-296.082377,0.000000
3753.760285,-10288.862594,-74.020594,919.314598
3753.760615,-9844.739029,0.000000,1608.800546
3753.760944,-10658.965565,518.144159,2068.457845
3753.761274,-10807.006753,962.267725,1378.971896
3753.761604,-10881.027347,148.041188,459.657299
3753.761934,-10658.965565,0.000000,306.438199
3753.762264,-11177.109724,-148.041188,766.095498
3753.762594,-10436.903782,-148.041188,1685.410096
3753.762924,-9326.594869,-518.144159,1455.581446
3753.763253,-9030.512492,-592.164754,689.485948
3753.763583,-9548.656652,-74.020594,76.609550
3753.763913,-9844.739029,-444.123565,-536.266849
3753.764243,-9474.636058,-370.102971,-919.314598
3753.764573,-9030.512492,-222.061783,-612.876398
3753.764903,-9178.553681,-296.082377,153.219100
3753.765233,-9548.656652,-740.205942,306.438199
3753.765562,-10066.800811,0.000000,-306.438199
3753.765892,-10214.842000,-592.164754,-1302.362347
3753.766222,-9622.677246,-1184.329507,-995.924147
3753.766552,-9326.594869,-1184.329507,-536.266849
3753.766882,-8216.285956,-1332.370696,0.000000
3753.767212,-7254.018232,-1036.288319,229.828649
3753.767542,-8216.285956,0.000000,153.219100
3753.767871,-9844.739029,296.082377,-306.438199
3753.768201,-9770.718434,518.144159,-842.705048
3753.768531,-9252.574275,444.123565,-1378.971896
3753.768861,-9992.780217,814.226536,-1072.533697
3753.769191,-9992.780217,222.061783,-1072.533697
3753.769521,-9548.656652,518.144159,766.095498
3753.769851,-9918.759623,370.102971,306.438199
3753.770180,-10214.842000,666.185348,0.000000
3753.770510,-9400.615463,1406.391290,0.000000
3753.770840,-10066.800811,1110.308913,612.876398
3753.771170,-10807.006753,1776.494261,766.095498
3753.771500,-10510.924376,1480.411884,1149.143247
3753.771830,-10362.883188,1406.391290,536.266849
3753.772160,-10140.821405,1480.411884,76.609550
3753.772489,-9696.697840,962.267725,153.219100
3753.772819,-10288.862594,1110.308913,919.314598
3753.773149,-10881.027347,1628.453072,612.876398
3753.773479,-10658.965565,666.185348,842.705048
3753.773809,-9770.718434,740.205942,612.876398
3753.774139,-9844.739029,1628.453072,1378.971896
3753.774469,-10881.027347,370.102971,1532.190996
3753.774798,-9844.739029,518.144159,919.314598
3753.775128,-9326.594869,370.102971,766.095498
3753.775458,-10436.903782,962.267725,919.314598
3753.775788,-9770.718434,222.061783,0.000000
3753.776118,-9770.718434,-74.020594,0.000000
3753.776448,-9252.574275,0.000000,0.000000
3753.776778,-9252.574275,-296.082377,-153.219100
3753.777107,-9030.512492,-444.123565,-306.438199
3753.777437,-8956.491898,-370.102971,229.828649
3753.777767,-9474.636058,74.020594,0.000000
3753.778097,-8734.430116,-296.082377,459.657299
3753.778427,-8660.409521,444.123565,383.047749
3753.778757,-9844.739029,0.000000,-383.047749
3753.779086,-9474.636058,0.000000,0.000000
3753.779416,-9770.718434,-296.082377,612.876398
3753.779746,-9844.739029,-296.082377,1149.143247
3753.780076,-9326.594869,74.020594,1608.800546
3753.780406,-9844.739029,0.000000,612.876398
3753.780736,-10362.883188,370.102971,229.828649
3753.781066,-10732.986159,370.102971,-383.047749
3753.781395,-9918.759623,592.164754,0.000000
3753.781725,-9696.697840,518.144159,612.876398
3753.782055,-10584.944971,962.267725,1302.362347
3753.782385,-10732.986159,666.185348,1991.848295
3753.782715,-10510.924376,814.226536,1532.190996
3753.783045,-10510.924376,222.061783,306.438199
3753.783375,-10436.903782,0.000000,919.314598
3753.783704,-9770.718434,148.041188,1378.971896
3753.784034,-9992.780217,-222.061783,1915.238745
3753.784364,-9992.780217,0.000000,1072.533697
3753.784694,-10436.903782,-666.185348,842.705048
3753.785024,-10584.944971,-444.123565,766.095498
3753.785354,-10066.800811,-1036.288319,536.266849
3753.785684,-10066.800811,-518.144159,919.314598
3753.786013,-9400.615463,-1332.370696,1072.533697
3753.786343,-9030.512492,-518.144159,229.828649
3753.786673,-8882.471304,-666.185348,-689.485948
3753.787003,-9400.615463,-592.164754,-995.924147
3753.787333,-10362.883188,-518.144159,-536.266849
3753.787663,-9992.780217,-592.164754,-612.876398
3753.787993,-9474.636058,-592.164754,-229.828649
3753.788322,-9770.718434,-148.041188,-919.314598
3753.788652,-8808.450710,-1184.329507,-1149.143247
3753.788982,-8364.327145,-1480.411884,-1378.971896
3753.789312,-8142.265362,-1110.308913,-1302.362347
3753.789642,-9474.636058,-666.185348,-842.705048
3753.789972,-9622.677246,-296.082377,-842.705048
3753.790302,-9030.512492,-370.102971,-766.095498
3753.790631,-9400.615463,0.000000,-612.876398
3753.790961,-9400.615463,0.000000,-383.047749
3753.791291,-10658.965565,296.082377,153.219100
3753.791621,-10436.903782,148.041188,0.000000
3753.791951,-9474.636058,0.000000,-766.095498
3753.792281,-9696.697840,0.000000,0.000000
3753.792611,-10214.842000,0.000000,459.657299
3753.792940,-10510.924376,444.123565,1378.971896
3753.793270,-9622.677246,370.102971,459.657299
3753.793600,-9474.636058,888.247130,0.000000
3753.793930,-9918.759623,1332.370696,153.219100
3753.794260,-11177.109724,1480.411884,536.266849
3753.794590,-12213.398043,1332.370696,1072.533697
3753.794920,-11843.295072,888.247130,919.314598
3753.795249,-10288.862594,740.205942,153.219100
3753.795579,-9622.677246,74.020594,0.000000
3753.795909,-9474.636058,148.041188,459.657299
3753.796239,-9400.615463,-222.061783,536.266849
3753.796569,-9770.718434,0.000000,919.314598
3753.796899,-9622.677246,0.000000,1762.019645
3753.797229,-10362.883188,-444.123565,1225.752797
3753.797558,-9548.656652,-370.102971,459.657299
3753.797888,-9030.512492,-1554.432478,-76.609550
3753.798218,-8882.471304,-518.144159,-919.314598
3753.798548,-8586.388927,-1036.288319,76.609550
3753.798878,-8734.430116,-1184.329507,766.095498
3753.799208,-8586.388927,-888.247130,995.924147
3753.799537,-9104.533087,74.020594,536.266849
3753.799867,-9104.533087,222.061783,0.000000
3753.800197,-9844.739029,444.123565,-536.266849
3753.800527,-10066.800811,74.020594,-1378.971896
3753.800857,-9548.656652,0.000000,-1149.143247
3753.801187,-8882.471304,0.000000,-612.876398
3753.801517,-9400.615463,0.000000,0.000000
3753.801846,-9474.636058,518.144159,0.000000
3753.802176,-9400.615463,296.082377,689.485948
3753.802506,-9178.553681,1406.391290,-1378.971896
3753.802836,-9770.718434,666.185348,-842.705048
3753.803166,-10584.944971,1110.308913,229.828649
3753.803496,-11399.171507,888.247130,1838.629195
3753.803826,-11547.212695,1554.432478,1378.971896
3753.804155,-10362.883188,962.267725,766.095498
3753.804485,-9400.615463,592.164754,0.000000
3753.804815,-9696.697840,1184.329507,306.438199
3753.805145,-10732.986159,1258.350101,612.876398
3753.805475,-11103.089130,1036.288319,1608.800546
3753.805805,-11177.109724,666.185348,1838.629195
3753.806135,-9992.780217,370.102971,1532.190996
3753.806464,-10140.821405,148.041188,1225.752797
3753.806794,-10436.903782,222.061783,383.047749
3753.807124,-10214.842000,-370.102971,766.095498
3753.807454,-9474.636058,0.000000,306.438199
3753.807784,-9844.739029,0.000000,536.266849
3753.808114,-9548.656652,0.000000,306.438199
3753.808444,-9252.574275,-296.082377,459.657299
3753.808773,-9918.759623,0.000000,153.219100
3753.809103,-10362.883188,0.000000,-536.266849
3753.809433,-9770.718434,-740.205942,-1762.019645
3753.809763,-8216.285956,-1110.308913,-1302.362347
3753.810093,-8068.244768,-740.205942,-459.657299
3753.810423,-8586.388927,-296.082377,76.609550
3753.810753,-8660.409521,-592.164754,306.438199
3753.811082,-8882.471304,0.000000,-229.828649
3753.811412,-9622.677246,-296.082377,-1455.581446
3753.811742,-10362.883188,-222.061783,-1685.410096
3753.812072,-10436.903782,-740.205942,459.657299
3753.812402,-9474.636058,-592.164754,1915.238745
3753.812732,-8364.327145,-518.144159,2068.457845
3753.813062,-8364.327145,-518.144159,306.438199
3753.813391,-9030.512492,592.164754,-842.705048
3753.813721,-9844.739029,666.185348,-1149.143247
3753.814051,-10436.903782,814.226536,-612.876398
3753.814381,-10658.965565,444.123565,536.266849
3753.814711,-11029.068536,1110.308913,1455.581446
3753.815041,-10288.862594,296.082377,689.485948
3753.815371,-10214.842000,74.020594,536.266849
3753.815700,-10362.883188,370.102971,-229.828649
3753.816030,-9992.780217,296.082377,0.000000
3753.816360,-10658.965565,814.226536,1149.143247
3753.816690,-10214.842000,888.247130,2145.067394
3753.817020,-10362.883188,1332.370696,2298.286494
3753.817350,-10955.047942,962.267725,1149.143247
3753.817680,-11399.171507,814.226536,-459.657299
3753.818009,-10807.006753,518.144159,-2451.505594
3753.818339,-9696.697840,148.041188,-1225.752797
3753.818669,-8956.491898,-740.205942,0.000000
3753.818999,-9252.574275,-444.123565,1149.143247
3753.819329,-8512.368333,-740.205942,2145.067394
3753.819659,-9030.512492,-962.267725,995.924147
3753.819989,-10140.821405,-296.082377,-229.828649
3753.820318,-10436.903782,-1110.308913,-1302.362347
3753.820648,-8882.471304,-1554.432478,0.000000
3753.820978,-8512.368333,-1184.329507,1378.971896
3753.821308,-8438.347739,-962.267725,2298.286494
3753.821638,-8142.265362,-1850.514855,1225.752797
3753.821968,-8512.368333,-1110.308913,-766.095498
3753.822297,-8734.430116,-518.144159,-1915.238745
3753.822627,-9400.615463,0.000000,-1378.971896
3753.822957,-10436.903782,-592.164754,-153.219100
3753.823287,-9844.739029,-444.123565,766.095498
3753.823617,-8512.368333,-518.144159,689.485948
3753.823947,-9030.512492,-518.144159,-229.828649
3753.824277,-9548.656652,-370.102971,-1378.971896
3753.824606,-10140.821405,222.061783,-1378.971896
3753.824936,-10066.800811,296.082377,-383.047749
3753.825266,-10214.842000,296.082377,919.314598
3753.825596,-10288.862594,740.205942,1072.533697
3753.825926,-10732.986159,370.102971,1072.533697
3753.826256,-11621.233289,740.205942,612.876398
3753.826586,-10732.986159,222.061783,612.876398
3753.826915,-10732.986159,814.226536,76.609550
3753.827245,-10658.965565,444.123565,229.828649
3753.827575,-10732.986159,0.000000,612.876398
3753.827905,-9104.533087,0.000000,842.705048
3753.828235,-9622.677246,-74.020594,766.095498
3753.828565,-10658.965565,814.226536,995.924147
3753.828895,-11325.150913,0.000000,306.438199
3753.829224,-10436.903782,148.041188,76.609550
3753.829554,-9770.718434,0.000000,766.095498
3753.829884,-10066.800811,0.000000,689.485948
3753.830214,-9400.615463,-370.102971,1378.971896
3753.830544,-9918.759623,-148.041188,1608.800546
3753.830874,-9400.615463,0.000000,0.000000
3753.831204,-9548.656652,0.000000,-1149.143247
3753.831533,-9548.656652,-296.082377,-1225.752797
3753.831863,-9104.533087,-740.205942,76.609550
3753.832193,-8586.388927,296.082377,1762.019645
3753.832523,-8808.450710,-296.082377,1532.190996
3753.832853,-8586.388927,0.000000,-229.828649
3753.833183,-8512.368333,0.000000,-1072.533697
3753.833513,-9770.718434,1110.308913,-1455.581446
3753.833842,-10362.883188,148.041188,-842.705048
3753.834172,-10362.883188,222.061783,459.657299
3753.834502,-8290.306550,148.041188,1302.362347
3753.834832,-9178.553681,296.082377,2068.457845
3753.835162,-9844.739029,592.164754,229.828649
3753.835492,-9770.718434,74.020594,-995.924147
3753.835822,-9178.553681,592.164754,-1302.362347
3753.836151,-8882.471304,814.226536,-383.047749
3753.836481,-10066.800811,1702.473667,1072.533697
3753.836811,-10288.862594,666.185348,1762.019645
3753.837141,-10510.924376,1406.391290,766.095498
3753.837471,-10510.924376,1480.411884,-153.219100
3753.837801,-11103.089130,1184.329507,-919.314598
3753.838131,-11103.089130,1184.329507,-383.047749
3753.838461,-10584.944971,1184.329507,766.095498
3753.838791,-9696.697840,1036.288319,1685.410096
3753.839120,-10436.903782,666.185348,1455.581446
3753.839450,-11103.089130,814.226536,153.219100
3753.839780,-10881.027347,148.041188,-459.657299
3753.840110,-9770.718434,222.061783,-766.095498
3753.840440,-9252.574275,-296.082377,0.000000
3753.840770,-9622.677246,0.000000,536.266849
3753.841100,-9474.636058,-148.041188,1455.581446
3753.841430,-9770.718434,0.000000,842.705048
3753.841759,-9474.636058,0.000000,0.000000
3753.842089,-9918.759623,-444.123565,-689.485948
3753.842419,-9918.759623,-666.185348,-383.047749
3753.842749,-9622.677246,-296.082377,842.705048
3753.843079,-9326.594869,-444.123565,995.924147
3753.843409,-8882.471304,-962.267725,229.828649
3753.843739,-8586.388927,-1036.288319,0.000000
3753.844069,-9474.636058,-962.267725,-153.219100
3753.844399,-9326.594869,-296.082377,229.828649
3753.844728,-9622.677246,-666.185348,689.485948
3753.845058,-9030.512492,-74.020594,0.000000
3753.845388,-9030.512492,-740.205942,0.000000
3753.845718,-9918.759623,-370.102971,153.219100
3753.846048,-9918.759623,-444.123565,612.876398
3753.846378,-9548.656652,-370.102971,-383.047749
3753.846708,-9030.512492,0.000000,-919.314598
3753.847038,-9548.656652,-666.185348,-229.828649
3753.847368,-9548.656652,148.041188,842.705048
3753.847697,-9178.553681,444.123565,995.924147
3753.848027,-10658.965565,962.267725,536.266849
3753.848357,-11177.109724,518.144159,0.000000
3753.848687,-10732.986159,444.123565,76.609550
3753.849017,-9992.780217,518.144159,689.485948
3753.849347,-11547.212695,814.226536,612.876398
3753.849677,-11177.109724,444.123565,153.219100
3753.850007,-9844.739029,-148.041188,0.000000
3753.850336,-9474.636058,0.000000,0.000000
3753.850666,-9844.739029,0.000000,-76.609550
3753.850996,-10658.965565,0.000000,-76.609550
3753.851326,-10288.862594,-814.226536,0.000000
3753.851656,-9474.636058,-592.164754,0.000000
3753.851986,-9178.553681,-444.123565,229.828649
3753.852316,-9622.677246,-1184.329507,612.876398
3753.852646,-9104.533087,-1480.411884,536.266849
3753.852976,-8438.347739,-1036.288319,0.000000
3753.853305,-8586.388927,-666.185348,76.609550
3753.853635,-9770.718434,-814.226536,459.657299
3753.853965,-10066.800811,-666.185348,689.485948
3753.854295,-8956.491898,-1258.350101,919.314598
3753.854625,-9326.594869,-444.123565,459.657299
3753.854955,-9104.533087,-444.123565,229.828649
3753.855285,-8734.430116,-148.041188,-229.828649
3753.855615,-8512.368333,-370.102971,-689.485948
3753.855945,-9104.533087,-74.020594,-1072.533697
3753.856274,-9548.656652,518.144159,-229.828649
3753.856604,-10140.821405,592.164754,0.000000
3753.856934,-9844.739029,666.185348,-153.219100
3753.857264,-9844.739029,888.247130,-919.314598
3753.857594,-10436.903782,444.123565,-536.266849
3753.857924,-10807.006753,222.061783,459.657299
3753.858254,-10288.862594,666.185348,995.924147
3753.858584,-9918.759623,370.102971,1608.800546
3753.858913,-10214.842000,444.123565,1149.143247
3753.859243,-9696.697840,666.185348,459.657299
3753.859573,-9770.718434,740.205942,459.657299
3753.859903,-10807.006753,1258.350101,919.314598
3753.860233,-11843.295072,1184.329507,1455.581446
3753.860563,-11769.274478,1110.308913,536.266849
3753.860893,-9992.780217,444.123565,-383.047749
3753.861223,-9548.656652,370.102971,0.000000
3753.861553,-9992.780217,370.102971,-76.609550
3753.861882,-9918.759623,0.000000,-689.485948
3753.862212,-9548.656652,0.000000,-1225.752797
3753.862542,-9474.636058,-222.061783,-459.657299
3753.862872,-9252.574275,-592.164754,536.266849
3753.863202,-9474.636058,-296.082377,1762.019645
3753.863532,-9252.574275,-518.144159,1378.971896
3753.863862,-8512.368333,0.000000,306.438199
3753.864192,-8142.265362,-444.123565,306.438199
3753.864522,-9252.574275,296.082377,0.000000
3753.864851,-9548.656652,370.102971,842.705048
3753.865181,-9918.759623,-222.061783,842.705048
3753.865511,-9474.636058,148.041188,689.485948
3753.865841,-8808.450710,-666.185348,0.000000
3753.866171,-9474.636058,0.000000,-383.047749
3753.866501,-9918.759623,-296.082377,76.609550
3753.866831,-9770.718434,296.082377,383.047749
3753.867161,-9104.533087,518.144159,0.000000
3753.867490,-9104.533087,814.226536,766.095498
3753.867820,-10066.800811,1110.308913,1608.800546
3753.868150,-10807.006753,1258.350101,1072.533697
3753.868480,-10955.047942,888.247130,0.000000
3753.868810,-10658.965565,888.247130,229.828649
3753.869140,-10881.027347,1258.350101,383.047749
3753.869470,-10584.944971,814.226536,459.657299
3753.869800,-9844.739029,592.164754,995.924147
3753.870130,-9474.636058,888.247130,1532.190996
3753.870459,-10288.862594,962.267725,919.314598
3753.870789,-10881.027347,1036.288319,1072.533697
3753.871119,-10510.924376,592.164754,842.705048
3753.871449,-9918.759623,592.164754,536.266849
3753.871779,-10510.924376,370.102971,1378.971896
3753.872109,-11029.068536,814.226536,842.705048
3753.872439,-10955.047942,296.082377,0.000000
3753.872769,-9104.533087,74.020594,-1149.143247
3753.873098,-8734.430116,-148.041188,-1838.629195
3753.873428,-9252.574275,0.000000,-842.705048
3753.873758,-9844.739029,-370.102971,1149.143247
3753.874088,-9918.759623,-370.102971,1915.238745
3753.874418,-8882.471304,-370.102971,842.705048
3753.874748,-8364.327145,-296.082377,-612.876398
3753.875078,-8882.471304,-74.020594,-153.219100
3753.875408,-9622.677246,-148.041188,-153.219100
3753.875738,-9844.739029,0.000000,536.266849
3753.876067,-9104.533087,-370.102971,995.924147
3753.876397,-9696.697840,0.000000,0.000000
3753.876727,-10066.800811,0.000000,-153.219100
3753.877057,-9622.677246,0.000000,-383.047749
3753.877387,-9030.512492,-222.061783,-919.314598
3753.877717,-8364.327145,0.000000,-1532.190996
3753.878047,-9030.512492,-296.082377,-306.438199
3753.878377,-9622.677246,0.000000,459.657299
3753.878707,-9622.677246,0.000000,919.314598
3753.879036,-9548.656652,-222.061783,612.876398
3753.879366,-9474.636058,0.000000,536.266849
3753.879696,-9918.759623,296.082377,536.266849
3753.880026,-10732.986159,666.185348,1072.533697
3753.880356,-10584.944971,0.000000,2145.067394
3753.880686,-11103.089130,74.020594,2221.676944
3753.881016,-11251.130318,148.041188,1532.190996
3753.881346,-10658.965565,370.102971,153.219100
3753.881675,-10066.800811,370.102971,-1149.143247
3753.882005,-9474.636058,370.102971,-2451.505594
3753.882335,-9474.636058,444.123565,-1838.629195
3753.882665,-10288.862594,0.000000,-536.266849
3753.882995,-10362.883188,296.082377,-306.438199
3753.883325,-9474.636058,-444.123565,0.000000
3753.883655,-9178.553681,-148.041188,-766.095498
3753.883985,-10214.842000,-888.247130,-459.657299
3753.884315,-10807.006753,-962.267725,306.438199
3753.884644,-10066.800811,-1406.391290,536.266849
3753.884974,-9548.656652,-1554.432478,306.438199
3753.885304,-8586.388927,-1480.411884,-306.438199
3753.885634,-8142.265362,-1702.473667,229.828649
3753.885964,-8586.388927,-1332.370696,995.924147
3753.886294,-8956.491898,-1184.329507,76.609550
3753.886624,-8956.491898,-814.226536,-842.705048
3753.886954,-9104.533087,-1110.308913,-229.828649
3753.887284,-9548.656652,-370.102971,229.828649
3753.887613,-10066.800811,0.000000,766.095498
3753.887943,-10436.903782,74.020594,0.000000
3753.888273,-10288.862594,0.000000,-689.485948
3753.888603,-10140.821405,-222.061783,-1685.410096
3753.888933,-9548.656652,0.000000,-459.657299
3753.889263,-9918.759623,74.020594,536.266849
3753.889593,-9992.780217,222.061783,1225.752797
3753.889923,-9400.615463,444.123565,1072.533697
3753.890252,-9326.594869,592.164754,1915.238745
3753.890582,-11029.068536,1184.329507,536.266849
3753.890912,-11695.253884,1406.391290,1149.143247
3753.891242,-10881.027347,370.102971,1455.581446
3753.891572,-10066.800811,740.205942,1225.752797
3753.891902,-10658.965565,370.102971,383.047749
3753.892232,-10436.903782,296.082377,612.876398
3753.892562,-9992.780217,518.144159,0.000000
3753.892892,-9844.739029,592.164754,0.000000
3753.893221,-9844.739029,1036.288319,383.047749
3753.893551,-9696.697840,666.185348,766.095498
3753.893881,-9474.636058,888.247130,1149.143247
3753.894211,-9030.512492,814.226536,229.828649
3753.894541,-9992.780217,666.185348,612.876398
3753.894871,-11029.068536,0.000000,-153.219100
3753.895201,-11103.089130,0.000000,76.609550
3753.895531,-9030.512492,-740.205942,306.438199
3753.895861,-8808.450710,-444.123565,536.266849
3753.896190,-9326.594869,-296.082377,229.828649
3753.896520,-8586.388927,-222.061783,76.609550
3753.896850,-8734.430116,-296.082377,383.047749
3753.897180,-9474.636058,444.123565,766.095498
3753.897510,-9918.759623,444.123565,-153.219100
3753.897840,-9400.615463,74.020594,0.000000
3753.898170,-9030.512492,0.000000,76.609550
3753.898500,-9474.636058,74.020594,153.219100
3753.898829,-10510.924376,518.144159,0.000000
3753.899159,-10881.027347,0.000000,153.219100
3753.899489,-9770.718434,444.123565,-383.047749
3753.899819,-9178.553681,740.205942,0.000000
3753.900149,-11177.109724,888.247130,-306.438199
3753.900479,-11103.089130,740.205942,689.485948
3753.900809,-9696.697840,592.164754,306.438199
3753.901139,-9326.594869,1036.288319,612.876398
3753.901469,-10362.883188,814.226536,995.924147
3753.901798,-10436.903782,1184.329507,536.266849
3753.902128,-9696.697840,518.144159,842.705048
3753.902458,-9770.718434,666.185348,459.657299
3753.902788,-10732.986159,740.205942,689.485948
3753.903118,-11251.130318,1628.453072,1225.752797
3753.903448,-11103.089130,370.102971,919.314598
3753.903778,-11029.068536,74.020594,153.219100
3753.904108,-9474.636058,-148.041188,0.000000
3753.904438,-9030.512492,-592.164754,-842.705048
3753.904767,-8808.450710,0.000000,-459.657299
3753.905097,-8438.347739,-518.144159,0.000000
3753.905427,-9178.553681,0.000000,-306.438199
3753.905757,-9326.594869,-74.020594,-306.438199
3753.906087,-10066.800811,74.020594,-1072.533697
3753.906417,-10436.903782,-592.164754,-612.876398
3753.906747,-10732.986159,-444.123565,-459.657299
3753.907077,-9622.677246,-1480.411884,-612.876398
3753.907406,-7698.141797,-1184.329507,-995.924147
3753.907736,-7476.080014,-1776.494261,536.266849
3753.908066,-8734.430116,-1332.370696,1072.533697
3753.908396,-9474.636058,-962.267725,229.828649
3753.908726,-8660.409521,-1036.288319,-995.924147
3753.909056,-9548.656652,-592.164754,-383.047749
3753.909386,-9992.780217,-74.020594,383.047749
3753.909716,-9622.677246,-148.041188,383.047749
3753.910046,-9400.615463,0.000000,0.000000
3753.910375,-9474.636058,148.041188,-306.438199
3753.910705,-9844.739029,74.020594,-536.266849
3753.911035,-11029.068536,740.205942,0.000000
3753.911365,-11843.295072,74.020594,-153.219100
3753.911695,-10066.800811,370.102971,-459.657299
3753.912025,-9104.533087,74.020594,612.876398
3753.912355,-9844.739029,222.061783,689.485948
3753.912685,-10066.800811,0.000000,1302.362347
3753.913014,-8808.450710,0.000000,1991.848295
3753.913344,-9400.615463,296.082377,1608.800546
3753.913674,-10658.965565,888.247130,1455.581446
3753.914004,-11399.171507,592.164754,1685.410096
3753.914334,-11177.109724,370.102971,1302.362347
3753.914664,-11029.068536,148.041188,612.876398
3753.914994,-10066.800811,0.000000,383.047749
3753.915324,-10140.821405,-518.144159,842.705048
3753.915654,-10140.821405,-148.041188,0.000000
3753.915983,-8290.306550,-814.226536,0.000000
3753.916313,-8512.368333,0.000000,-766.095498
3753.916643,-9844.739029,0.000000,-76.609550
3753.916973,-10066.800811,0.000000,0.000000
3753.917303,-8068.244768,-296.082377,-689.485948
3753.917633,-8216.285956,74.020594,0.000000
3753.917963,-9770.718434,74.020594,0.000000
3753.918293,-11103.089130,296.082377,-229.828649
3753.918623,-10066.800811,-370.102971,306.438199
3753.918952,-9918.759623,-370.102971,229.828649
3753.919282,-9178.553681,-74.020594,459.657299
3753.919612,-9548.656652,-518.144159,766.095498
3753.919942,-8956.491898,0.000000,612.876398
3753.920272,-8142.265362,0.000000,76.609550
3753.920602,-9252.574275,592.164754,229.828649
3753.920932,-9992.780217,518.144159,-306.438199
3753.921262,-9622.677246,592.164754,-306.438199
3753.921591,-8660.409521,888.247130,153.219100
3753.921921,-10510.924376,1258.350101,306.438199
3753.922251,-12213.398043,1332.370696,-229.828649
3753.922581,-10584.944971,296.082377,-766.095498
3753.922911,-9326.594869,666.185348,0.000000
3753.923241,-9696.697840,518.144159,1225.752797
3753.923571,-10066.800811,1258.350101,1991.848295
3753.923901,-9992.780217,888.247130,1532.190996
3753.924231,-9622.677246,1184.329507,76.609550
3753.924560,-9770.718434,814.226536,-459.657299
3753.924890,-11325.150913,962.267725,0.000000
3753.925220,-11251.130318,962.267725,306.438199
3753.925550,-9622.677246,370.102971,612.876398
3753.925880,-9252.574275,148.041188,229.828649
3753.926210,-9918.759623,148.041188,153.219100
3753.926540,-10584.944971,-518.144159,-383.047749
3753.926870,-9548.656652,0.000000,-766.095498
3753.927200,-8586.388927,0.000000,-689.485948
3753.927529,-9696.697840,-740.205942,229.828649
3753.927859,-9474.636058,-666.185348,1225.752797
3753.928189,-9474.636058,-518.144159,689.485948
3753.928519,-9400.615463,74.020594,229.828649
3753.928849,-8734.430116,-962.267725,-919.314598
3753.929179,-9104.533087,-592.164754,-612.876398
3753.929509,-9104.533087,-74.020594,229.828649
3753.929839,-9992.780217,74.020594,995.924147
3753.930168,-9178.553681,-518.144159,383.047749
3753.930498,-9474.636058,-740.205942,-536.266849
3753.930828,-10140.821405,-518.144159,-383.047749
3753.931158,-9992.780217,-666.185348,0.000000
3753.931488,-9474.636058,0.000000,0.000000
3753.931818,-8734.430116,-666.185348,459.657299
3753.932148,-9622.677246,0.000000,612.876398
3753.932478,-9844.739029,-296.082377,1455.581446
3753.932808,-11621.233289,370.102971,1455.581446
3753.933137,-11399.171507,518.144159,306.438199
3753.933467,-10362.883188,518.144159,-536.266849
3753.933797,-9474.636058,0.000000,229.828649
3753.934127,-9622.677246,0.000000,1532.190996
3753.934457,-10214.842000,370.102971,2298.286494
3753.934787,-10658.965565,148.041188,1991.848295
3753.935117,-10807.006753,0.000000,306.438199
3753.935447,-10658.965565,0.000000,-229.828649
3753.935777,-9326.594869,0.000000,-612.876398
3753.936106,-9326.594869,-74.020594,689.485948
3753.936436,-9104.533087,-518.144159,1378.971896
3753.936766,-9400.615463,222.061783,1225.752797
3753.937096,-10362.883188,222.061783,459.657299
3753.937426,-11103.089130,296.082377,612.876398
3753.937756,-10658.965565,222.061783,-76.609550
3753.938086,-10214.842000,148.041188,-1072.533697
3753.938416,-9992.780217,148.041188,0.000000
3753.938746,-9178.553681,0.000000,0.000000
3753.939076,-8364.327145,-888.247130,-229.828649
3753.939406,-8216.285956,-370.102971,-536.266849
3753.939735,-8364.327145,-148.041188,-1455.581446
3753.940065,-9400.615463,296.082377,-1072.533697
3753.940395,-9992.780217,518.144159,-842.705048
3753.940725,-10140.821405,222.061783,-689.485948
3753.941055,-9178.553681,370.102971,-1072.533697
3753.941385,-8734.430116,74.020594,-995.924147
3753.941715,-9474.636058,148.041188,0.000000
3753.942045,-9622.677246,0.000000,0.000000
3753.942375,-9696.697840,74.020594,153.219100
3753.942705,-9548.656652,444.123565,0.000000
3753.943035,-9770.718434,222.061783,536.266849
3753.943364,-9474.636058,444.123565,612.876398
3753.943694,-9844.739029,592.164754,306.438199
3753.944024,-10214.842000,888.247130,-689.485948
3753.944354,-9696.697840,74.020594,-766.095498
3753.944684,-10066.800811,1110.308913,-383.047749
3753.945014,-10658.965565,444.123565,612.876398
3753.945344,-10066.800811,518.144159,1072.533697
3753.945674,-9548.656652,296.082377,1072.533697
3753.946004,-10066.800811,666.185348,842.705048
3753.946334,-10584.944971,370.102971,229.828649
3753.946663,-10658.965565,148.041188,0.000000
3753.946993,-10658.965565,666.185348,842.705048
3753.947323,-10584.944971,148.041188,1225.752797
3753.947653,-9770.718434,0.000000,919.314598
3753.947983,-9400.615463,-444.123565,689.485948
3753.948313,-9400.615463,0.000000,229.828649
3753.948643,-9770.718434,0.000000,-306.438199
3753.948973,-9548.656652,-296.082377,-766.095498
3753.949303,-9844.739029,-518.144159,0.000000
3753.949633,-9548.656652,-518.144159,0.000000
3753.949963,-9030.512492,-962.267725,612.876398
3753.950292,-9696.697840,-296.082377,306.438199
3753.950622,-9252.574275,-1036.288319,-612.876398
3753.950952,-8512.368333,-1258.350101,-919.314598
3753.951282,-7920.203579,-1036.288319,153.219100
3753.951612,-9770.718434,-518.144159,689.485948
3753.951942,-9770.718434,-370.102971,612.876398
3753.952272,-9548.656652,-444.123565,689.485948
3753.952602,-9622.677246,-444.123565,306.438199
3753.952932,-9696.697840,-592.164754,229.828649
3753.953262,-9918.759623,0.000000,-76.609550
3753.953592,-9622.677246,-592.164754,0.000000
3753.953921,-9178.553681,370.102971,-153.219100
3753.954251,-8512.368333,74.020594,383.047749
3753.954581,-10955.047942,1036.288319,612.876398
3753.954911,-11769.274478,444.123565,306.438199
3753.955241,-11029.068536,222.061783,0.000000
3753.955571,-9474.636058,888.247130,-306.438199
3753.955901,-9696.697840,0.000000,995.924147
3753.956231,-10066.800811,222.061783,1991.848295
3753.956561,-9770.718434,0.000000,2528.115143
3753.956891,-10066.800811,1036.288319,1915.238745
3753.957220,-10362.883188,888.247130,1072.533697
3753.957550,-10955.047942,1110.308913,-229.828649
3753.957880,-10807.006753,518.144159,459.657299
3753.958210,-10436.903782,814.226536,612.876398
3753.958540,-9622.677246,592.164754,1302.362347
3753.958870,-10066.800811,0.000000,612.876398
3753.959200,-10362.883188,370.102971,383.047749
3753.959530,-9622.677246,-518.144159,229.828649
3753.959860,-8882.471304,518.144159,-842.705048
3753.960190,-9770.718434,148.041188,-612.876398
3753.960520,-9696.697840,0.000000,229.828649
3753.960849,-9326.594869,0.000000,766.095498
3753.961179,-9622.677246,370.102971,-459.657299
3753.961509,-9548.656652,148.041188,-995.924147
3753.961839,-9548.656652,0.000000,-1225.752797
3753.962169,-8660.409521,0.000000,-1532.190996
3753.962499,-8512.368333,-148.041188,-919.314598
3753.962829,-8956.491898,0.000000,-306.438199
3753.963159,-9474.636058,-518.144159,153.219100
3753.963489,-9622.677246,-296.082377,459.657299
3753.963819,-9252.574275,-74.020594,0.000000
3753.964148,-9252.574275,296.082377,-383.047749
3753.964478,-9548.656652,148.041188,-536.266849
3753.964808,-9622.677246,444.123565,-229.828649
3753.965138,-9844.739029,592.164754,76.609550
3753.965468,-10658.965565,592.164754,153.219100
3753.965798,-10658.965565,814.226536,306.438199
3753.966128,-10066.800811,296.082377,0.000000
3753.966458,-9770.718434,444.123565,0.000000
3753.966788,-10066.800811,370.102971,229.828649
3753.967118,-9548.656652,222.061783,842.705048
3753.967448,-9474.636058,222.061783,1685.410096
3753.967777,-10732.986159,444.123565,1532.190996
3753.968107,-10362.883188,74.020594,536.266849
3753.968437,-9992.780217,0.000000,766.095498
3753.968767,-10214.842000,0.000000,1072.533697
3753.969097,-10584.944971,518.144159,1225.752797
3753.969427,-10066.800811,-370.102971,76.609550
3753.969757,-9474.636058,0.000000,306.438199
3753.970087,-9770.718434,-148.041188,0.000000
3753.970417,-10066.800811,0.000000,-229.828649
3753.970747,-10140.821405,-296.082377,-612.876398
3753.971077,-9770.718434,-592.164754,-383.047749
3753.971406,-9030.512492,-962.267725,-459.657299
3753.971736,-9104.533087,-962.267725,229.828649
3753.972066,-9400.615463,-962.267725,842.705048
3753.972396,-8956.491898,-518.144159,536.266849
3753.972726,-9104.533087,-370.102971,-229.828649
3753.973056,-9696.697840,-592.164754,229.828649
3753.973386,-10214.842000,-148.041188,229.828649
3753.973716,-9770.718434,-666.185348,612.876398
3753.974046,-9844.739029,-1110.308913,1838.629195
3753.974376,-10436.903782,-74.020594,2145.067394
3753.974705,-9992.780217,-814.226536,919.314598
3753.975035,-9400.615463,-444.123565,-536.266849
3753.975365,-9400.615463,222.061783,-1149.143247
3753.975695,-9400.615463,592.164754,-612.876398
3753.976025,-9030.512492,888.247130,-689.485948
3753.976355,-9474.636058,962.267725,-766.095498
3753.976685,-9474.636058,592.164754,-842.705048
3753.977015,-10214.842000,1036.288319,153.219100
3753.977345,-11547.212695,296.082377,153.219100
3753.977675,-11399.171507,74.020594,766.095498
3753.978005,-10362.883188,0.000000,1225.752797
3753.978334,-9474.636058,0.000000,1915.238745
3753.978664,-9844.739029,-74.020594,1838.629195
3753.978994,-9474.636058,148.041188,1149.143247
3753.979324,-9326.594869,0.000000,306.438199
3753.979654,-9474.636058,814.226536,612.876398
3753.979984,-9770.718434,148.041188,689.485948
3753.980314,-9474.636058,296.082377,459.657299
3753.980644,-9622.677246,518.144159,536.266849
3753.980974,-10288.862594,740.205942,1072.533697
3753.981304,-10955.047942,518.144159,-995.924147
3753.981634,-10140.821405,518.144159,-1608.800546
3753.981963,-10214.842000,148.041188,-1608.800546
3753.982293,-9622.677246,296.082377,-153.219100
3753.982623,-9178.553681,-222.061783,76.609550
3753.982953,-9696.697840,0.000000,0.000000
3753.983283,-8512.368333,-740.205942,-612.876398
3753.983613,-7624.121203,-740.205942,-612.876398
3753.983943,-8438.347739,0.000000,459.657299
3753.984273,-9992.780217,0.000000,995.924147
3753.984603,-9548.656652,0.000000,1685.410096
3753.984933,-9622.677246,-222.061783,1608.800546
3753.985262,-10807.006753,222.061783,1302.362347
3753.985592,-10140.821405,-518.144159,-153.219100
3753.985922,-9400.615463,0.000000,-919.314598
3753.986252,-9252.574275,-148.041188,0.000000
3753.986582,-9326.594869,148.041188,0.000000
3753.986912,-9252.574275,444.123565,-306.438199
3753.987242,-9770.718434,888.247130,-842.705048
3753.987572,-9992.780217,1184.329507,-842.705048
3753.987902,-10214.842000,1258.350101,0.000000
3753.988232,-10288.862594,962.267725,536.266849
3753.988562,-10658.965565,888.247130,689.485948
3753.988891,-10955.047942,814.226536,1455.581446
3753.989221,-11473.192101,444.123565,1302.362347
3753.989551,-11177.109724,962.267725,1838.629195
3753.989881,-10510.924376,74.020594,1455.581446
3753.990211,-10288.862594,518.144159,1685.410096
3753.990541,-9548.656652,0.000000,1072.533697
3753.990871,-9474.636058,592.164754,689.485948
3753.991201,-8808.450710,0.000000,-306.438199
3753.991531,-9770.718434,222.061783,0.000000
3753.991861,-10732.986159,592.164754,383.047749
3753.992190,-10584.944971,0.000000,0.000000
3753.992520,-9474.636058,-296.082377,-459.657299
3753.992850,-9252.574275,-370.102971,0.000000
3753.993180,-9992.780217,-518.144159,76.609550
3753.993510,-9696.697840,-518.144159,1302.362347
3753.993840,-9400.615463,-518.144159,766.095498
3753.994170,-9252.574275,-370.102971,153.219100
3753.994500,-9548.656652,-370.102971,536.266849
3753.994830,-9548.656652,-296.082377,995.924147
3753.995160,-9548.656652,-814.226536,306.438199
3753.995490,-8216.285956,-592.164754,-383.047749
3753.995819,-8808.450710,-370.102971,229.828649
3753.996149,-9400.615463,0.000000,-153.219100
3753.996479,-9400.615463,0.000000,-766.095498
3753.996809,-9474.636058,0.000000,-536.266849
3753.997139,-10658.965565,74.020594,306.438199
3753.997469,-10881.027347,0.000000,229.828649
3753.997799,-9400.615463,-740.205942,306.438199
3753.998129,-8882.471304,-296.082377,0.000000
3753.998459,-8364.327145,0.000000,153.219100
3753.998789,-9104.533087,222.061783,459.657299
3753.999119,-9400.615463,518.144159,612.876398
3753.999448,-9770.718434,1332.370696,766.095498
3753.999778,-10362.883188,1036.288319,612.876398
3754.000108,-11029.068536,666.185348,153.219100
3754.000438,-11399.171507,592.164754,229.828649
3754.000768,-10955.047942,0.000000,306.438199
3754.001098,-10066.800811,296.082377,995.924147
3754.001428,-9844.739029,0.000000,919.314598
3754.001758,-9400.615463,148.041188,383.047749
3754.002088,-9030.512492,370.102971,-153.219100
3754.002418,-9474.636058,592.164754,-306.438199
3754.002747,-11103.089130,666.185348,-536.266849
3754.003077,-11547.212695,74.020594,-536.266849
3754.003407,-10214.842000,-296.082377,-383.047749
3754.003737,-9030.512492,-370.102971,153.219100
3754.004067,-8586.388927,-740.205942,689.485948
3754.004397,-8364.327145,-962.267725,689.485948
3754.004727,-9400.615463,-444.123565,76.609550
3754.005057,-9992.780217,-444.123565,-229.828649
3754.005387,-10140.821405,-592.164754,0.000000
3754.005717,-9844.739029,-370.102971,76.609550
3754.006047,-9326.594869,-740.205942,-153.219100
3754.006376,-8142.265362,-666.185348,-383.047749
3754.006706,-8142.265362,-592.164754,153.219100
3754.007036,-9104.533087,148.041188,0.000000
3754.007366,-9918.759623,444.123565,-229.828649
3754.007696,-10140.821405,296.082377,-76.609550
3754.008026,-11103.089130,444.123565,689.485948
3754.008356,-10732.986159,444.123565,919.314598
3754.008686,-9696.697840,222.061783,306.438199
3754.009016,-9622.677246,296.082377,-383.047749
3754.009346,-9252.574275,666.185348,0.000000
3754.009676,-9252.574275,148.041188,229.828649
3754.010005,-9696.697840,518.144159,842.705048
3754.010335,-10510.924376,1406.391290,1532.190996
3754.010665,-10658.965565,1480.411884,1455.581446
3754.010995,-10214.842000,814.226536,842.705048
3754.011325,-11251.130318,666.185348,-459.657299
3754.011655,-10955.047942,444.123565,0.000000
3754.011985,-10807.006753,370.102971,842.705048
3754.012315,-9696.697840,444.123565,1378.971896
3754.012645,-9474.636058,740.205942,1302.362347
3754.012975,-10140.821405,814.226536,536.266849
3754.013304,-10140.821405,296.082377,76.609550
3754.013634,-10955.047942,1110.308913,76.609550
3754.013964,-10362.883188,0.000000,-842.705048
3754.014294,-9622.677246,0.000000,-383.047749
3754.014624,-8956.491898,-518.144159,459.657299
3754.014954,-8734.430116,-518.144159,689.485948
3754.015284,-8808.450710,-518.144159,383.047749
3754.015614,-10066.800811,-148.041188,-1532.190996
3754.015944,-9992.780217,-592.164754,-1685.410096
3754.016274,-9770.718434,-814.226536,-612.876398
3754.016604,-9474.636058,-814.226536,536.266849
3754.016933,-8956.491898,-1184.329507,689.485948
3754.017263,-7846.182985,-1036.288319,0.000000
3754.017593,-8142.265362,-814.226536,-229.828649
3754.017923,-9104.533087,-222.061783,76.609550
3754.018253,-9252.574275,-592.164754,-612.876398
3754.018583,-9474.636058,-444.123565,229.828649
3754.018913,-10288.862594,-148.041188,1532.190996
3754.019243,-10140.821405,222.061783,1532.190996
3754.019573,-9326.594869,0.000000,0.000000
3754.019903,-9918.759623,222.061783,-612.876398
3754.020232,-10214.842000,592.164754,-459.657299
3754.020562,-10214.842000,592.164754,-306.438199
3754.020892,-10807.006753,888.247130,842.705048
3754.021222,-11029.068536,666.185348,1915.238745
3754.021552,-10436.903782,222.061783,1685.410096
3754.021882,-10658.965565,148.041188,612.876398
3754.022212,-10881.027347,592.164754,383.047749
3754.022542,-10732.986159,0.000000,306.438199
3754.022872,-9252.574275,0.000000,2145.067394
3754.023202,-10732.986159,0.000000,2834.553343
3754.023532,-11769.274478,888.247130,1455.581446
3754.023861,-10214.842000,370.102971,-612.876398
3754.024191,-10288.862594,0.000000,-1149.143247
3754.024521,-10658.965565,0.000000,-689.485948
3754.024851,-10510.924376,-666.185348,0.000000
3754.025181,-9770.718434,-814.226536,536.266849
3754.025511,-8364.327145,-1110.308913,995.924147
3754.025841,-7698.141797,-1184.329507,689.485948
3754.026171,-9252.574275,-296.082377,76.609550
3754.026501,-10732.986159,-444.123565,-306.438199
3754.026831,-9548.656652,-740.205942,-536.266849
3754.027161,-8068.244768,-518.144159,0.000000
3754.027490,-9474.636058,-518.144159,1378.971896
3754.027820,-10732.986159,-444.123565,2068.457845
3754.028150,-8882.471304,-1036.288319,76.609550
3754.028480,-7920.203579,-888.247130,-919.314598
3754.028810,-8808.450710,-370.102971,0.000000
3754.029140,-10214.842000,0.000000,0.000000
3754.029470,-9548.656652,148.041188,306.438199
3754.029800,-9400.615463,370.102971,153.219100
3754.030130,-8882.471304,666.185348,76.609550
3754.030460,-9252.574275,222.061783,-459.657299
3754.030789,-10510.924376,1332.370696,0.000000
3754.031119,-9918.759623,1110.308913,0.000000
3754.031449,-9770.718434,1332.370696,-306.438199
3754.031779,-10066.800811,1184.329507,-383.047749
3754.032109,-11399.171507,1702.473667,0.000000
3754.032439,-10955.047942,1110.308913,1149.143247
3754.032769,-9992.780217,814.226536,1225.752797
3754.033099,-9918.759623,962.267725,76.609550
3754.033429,-9918.759623,1184.329507,-306.438199
3754.033759,-9622.677246,1406.391290,-383.047749
3754.034089,-11029.068536,1406.391290,229.828649
3754.034418,-11473.192101,1036.288319,76.609550
3754.034748,-10288.862594,148.041188,0.000000
3754.035078,-10140.821405,592.164754,-383.047749
3754.035408,-9770.718434,296.082377,-766.095498
3754.035738,-9622.677246,-74.020594,-1149.143247
3754.036068,-9400.615463,222.061783,-1532.190996
3754.036398,-9178.553681,0.000000,-995.924147
3754.036728,-9030.512492,0.000000,306.438199
3754.037058,-9474.636058,-74.020594,1455.581446
3754.037387,-9696.697840,-148.041188,536.266849
3754.037717,-8586.388927,-1406.391290,-612.876398
3754.038047,-7772.162391,-1258.350101,-76.609550
3754.038377,-9326.594869,-1036.288319,1608.800546
3754.038706,-10732.986159,-666.185348,1455.581446
3754.039036,-9178.553681,-1036.288319,1072.533697
3754.039366,-8290.306550,-1036.288319,536.266849
3754.039696,-9178.553681,0.000000,459.657299
3754.040026,-10584.944971,0.000000,306.438199
3754.040355,-9992.780217,-74.020594,0.000000
3754.040685,-8438.347739,-888.247130,0.000000
3754.041015,-8956.491898,148.041188,612.876398
3754.041345,-10362.883188,0.000000,1532.190996
3754.041675,-11399.171507,296.082377,1149.143247
3754.042004,-10362.883188,444.123565,689.485948
3754.042334,-9178.553681,370.102971,-612.876398
3754.042664,-10436.903782,666.185348,0.000000
3754.042994,-11917.315666,444.123565,1991.848295
3754.043323,-10955.047942,888.247130,3447.429741
3754.043653,-9918.759623,370.102971,2451.505594
3754.043983,-11103.089130,666.185348,612.876398
3754.044313,-10807.006753,-370.102971,-306.438199
3754.044643,-9992.780217,-296.082377,-229.828649
3754.044972,-9326.594869,-444.123565,842.705048
3754.045302,-9548.656652,-148.041188,1685.410096
3754.045632,-9104.533087,148.041188,1149.143247
3754.045962,-9400.615463,518.144159,306.438199
3754.046292,-10362.883188,666.185348,306.438199
3754.046621,-11029.068536,148.041188,-766.095498
3754.046951,-11399.171507,-296.082377,-1302.362347
3754.047281,-10140.821405,-592.164754,-1225.752797
3754.047611,-8438.347739,-518.144159,1302.362347
3754.047940,-8216.285956,-888.247130,1838.629195
3754.048270,-9252.574275,-296.082377,459.657299
3754.048600,-9548.656652,-666.185348,-1685.410096
3754.048930,-8364.327145,-222.061783,-1915.238745
3754.049260,-8660.409521,0.000000,-383.047749
3754.049589,-9400.615463,370.102971,383.047749
3754.049919,-8882.471304,-370.102971,1072.533697
3754.050249,-9474.636058,-518.144159,766.095498
3754.050579,-9770.718434,-74.020594,306.438199
3754.050908,-10214.842000,-370.102971,-689.485948
3754.051238,-10066.800811,148.041188,-919.314598
3754.051568,-9326.594869,-296.082377,0.000000
3754.051898,-8956.491898,0.000000,1225.752797
3754.052228,-8882.471304,148.041188,1455.581446
3754.052557,-9844.739029,296.082377,459.657299
3754.052887,-10288.862594,740.205942,-1302.362347
3754.053217,-9474.636058,1332.370696,-1991.848295
3754.053547,-9474.636058,1184.329507,-689.485948
3754.053877,-11399.171507,1332.370696,689.485948
3754.054206,-11251.130318,592.164754,1685.410096
3754.054536,-11399.171507,666.185348,842.705048
3754.054866,-11177.109724,814.226536,-766.095498
3754.055196,-10288.862594,148.041188,-1149.143247
3754.055525,-10362.883188,592.164754,-689.485948
3754.055855,-10807.006753,666.185348,76.609550
3754.056185,-10214.842000,-370.102971,612.876398
3754.056515,-8364.327145,-444.123565,-536.266849
3754.056845,-9252.574275,0.000000,-76.609550
3754.057174,-10732.986159,148.041188,-76.609550
3754.057504,-10066.800811,-888.247130,-1455.581446
3754.057834,-8660.409521,-592.164754,-1838.629195
3754.058164,-9696.697840,-962.267725,-995.924147
3754.058494,-9548.656652,-1258.350101,1225.752797
3754.058823,-8512.368333,-1628.453072,2451.505594
3754.059153,-7920.203579,-1184.329507,2145.067394
3754.059483,-9104.533087,-1184.329507,766.095498
3754.059813,-9622.677246,-1332.370696,-306.438199
3754.060142,-9326.594869,-1332.370696,-459.657299
3754.060472,-8808.450710,-1258.350101,536.266849
3754.060802,-7994.224174,-666.185348,1302.362347
3754.061132,-9252.574275,-592.164754,1378.971896
3754.061462,-10436.903782,74.020594,0.000000
3754.061791,-9326.594869,-222.061783,-1225.752797
3754.062121,-9252.574275,0.000000,-2298.286494
3754.062451,-10214.842000,-222.061783,-689.485948
3754.062781,-10510.924376,0.000000,1532.190996
3754.063110,-9326.594869,0.000000,2221.676944
3754.063440,-8882.471304,962.267725,842.705048
3754.063770,-9918.759623,1110.308913,-153.219100
3754.064100,-10140.821405,1110.308913,-689.485948
3754.064430,-11029.068536,962.267725,229.828649
3754.064759,-11325.150913,962.267725,2298.286494
3754.065089,-10362.883188,444.123565,2987.772442
3754.065419,-10066.800811,444.123565,2374.896044
3754.065749,-10066.800811,962.267725,0.000000
3754.066079,-10881.027347,666.185348,-919.314598
3754.066408,-10436.903782,1332.370696,-306.438199
3754.066738,-10807.006753,888.247130,536.266849
3754.067068,-10584.944971,1184.329507,612.876398
3754.067398,-9474.636058,148.041188,536.266849
3754.067727,-9474.636058,370.102971,1378.971896
3754.068057,-9992.780217,-74.020594,689.485948
3754.068387,-9474.636058,296.082377,0.000000
3754.068717,-9400.615463,74.020594,0.000000
3754.069047,-9918.759623,-148.041188,536.266849
3754.069376,-10658.965565,222.061783,919.314598
3754.069706,-10214.842000,-296.082377,1685.410096
3754.070036,-10288.862594,0.000000,459.657299
3754.070366,-9178.553681,-444.123565,-766.095498
3754.070696,-7476.080014,0.000000,-919.314598
3754.071025,-8364.327145,-296.082377,-1149.143247
3754.071355,-8808.450710,74.020594,-612.876398
3754.071685,-8882.471304,-148.041188,76.609550
3754.072015,-9326.594869,592.164754,459.657299
3754.072344,-9844.739029,370.102971,0.000000
3754.072674,-9178.553681,0.000000,-842.705048
3754.073004,-8660.409521,148.041188,-842.705048
3754.073334,-9918.759623,888.247130,-766.095498
3754.073664,-10807.006753,666.185348,612.876398
3754.073993,-9548.656652,0.000000,1302.362347
3754.074323,-9770.718434,962.267725,689.485948
3754.074653,-9474.636058,814.226536,612.876398
3754.074983,-9474.636058,962.267725,-842.705048
3754.075312,-10214.842000,888.247130,-1302.362347
3754.075642,-9844.739029,814.226536,-612.876398
3754.075972,-9178.553681,888.247130,306.438199
3754.076302,-9696.697840,1110.308913,995.924147
3754.076632,-11547.212695,1406.391290,612.876398
3754.076961,-11695.253884,370.102971,-306.438199
3754.077291,-11029.068536,814.226536,-766.095498
3754.077621,-11399.171507,814.226536,-995.924147
3754.077951,-10881.027347,222.061783,-383.047749
3754.078281,-8882.471304,-518.144159,1072.533697
3754.078610,-9474.636058,-148.041188,1532.190996
3754.078940,-9992.780217,74.020594,995.924147
3754.079270,-9844.739029,-296.082377,-536.266849
3754.079600,-9992.780217,-814.226536,-1378.971896
3754.079929,-10214.842000,-888.247130,-766.095498
3754.080259,-9400.615463,-888.247130,1302.362347
3754.080589,-9252.574275,-1480.411884,2374.896044
3754.080919,-9770.718434,-888.247130,1685.410096
3754.081249,-8290.306550,-1998.556043,-383.047749
3754.081578,-7179.997637,-1332.370696,-1225.752797
3754.081908,-8142.265362,-1036.288319,-919.314598
3754.082238,-10584.944971,-370.102971,842.705048
3754.082568,-9770.718434,-1406.391290,1838.629195
3754.082898,-9104.533087,-1554.432478,919.314598
3754.083227,-7994.224174,-888.247130,0.000000
3754.083557,-8882.471304,-962.267725,-383.047749
3754.083887,-9992.780217,0.000000,383.047749
3754.084217,-10436.903782,-296.082377,766.095498
3754.084546,-10066.800811,444.123565,383.047749
3754.084876,-10140.821405,444.123565,536.266849
3754.085206,-11547.212695,888.247130,842.705048
3754.085536,-11325.150913,518.144159,536.266849
3754.085866,-9400.615463,74.020594,-612.876398
3754.086195,-9252.574275,740.205942,153.219100
3754.086525,-10362.883188,666.185348,536.266849
3754.086855,-10436.903782,148.041188,1378.971896
3754.087185,-10362.883188,0.000000,1302.362347
3754.087515,-10658.965565,1258.350101,1685.410096
3754.087844,-11103.089130,444.123565,995.924147
3754.088174,-10584.944971,444.123565,612.876398
3754.088504,-10288.862594,296.082377,536.266849
3754.088834,-10658.965565,444.123565,612.876398
3754.089163,-9548.656652,0.000000,1225.752797
3754.089493,-10510.924376,148.041188,995.924147
3754.089823,-10510.924376,518.144159,459.657299
3754.090153,-9326.594869,148.041188,76.609550
3754.090483,-9326.594869,0.000000,-1072.533697
3754.090812,-9030.512492,74.020594,-1685.410096
3754.091142,-9030.512492,-222.061783,-766.095498
3754.091472,-9252.574275,-296.082377,536.266849
3754.091802,-9474.636058,74.020594,-306.438199
3754.092131,-9104.533087,74.020594,-383.047749
3754.092461,-8142.265362,-740.205942,-766.095498
3754.092791,-8734.430116,-370.102971,459.657299
3754.093121,-9844.739029,0.000000,1149.143247
3754.093451,-8882.471304,-222.061783,459.657299
3754.093780,-8290.306550,0.000000,229.828649
3754.094110,-8364.327145,0.000000,0.000000
3754.094440,-9252.574275,0.000000,76.609550
3754.094770,-9844.739029,814.226536,76.609550
3754.095100,-10658.965565,962.267725,-229.828649
3754.095429,-10066.800811,666.185348,-689.485948
3754.095759,-9844.739029,592.164754,-76.609550
3754.096089,-11029.068536,1480.411884,-306.438199
3754.096419,-10140.821405,740.205942,0.000000
3754.096748,-8956.491898,1110.308913,-76.609550
3754.097078,-10066.800811,1110.308913,153.219100
3754.097408,-11695.253884,1924.535449,766.095498
3754.097738,-10955.047942,1036.288319,229.828649
3754.098068,-10584.944971,740.205942,459.657299
3754.098397,-10140.821405,814.226536,612.876398
3754.098727,-10436.903782,666.185348,1225.752797
3754.099057,-10214.842000,740.205942,1072.533697
3754.099387,-10881.027347,666.185348,306.438199
3754.099717,-10807.006753,296.082377,0.000000
3754.100046,-9844.739029,-370.102971,229.828649
3754.100376,-10214.842000,74.020594,229.828649
3754.100706,-9844.739029,-296.082377,459.657299
3754.101036,-9474.636058,-296.082377,536.266849
3754.101365,-8512.368333,-518.144159,306.438199
3754.101695,-8734.430116,0.000000,-536.266849
3754.102025,-9326.594869,-740.205942,-229.828649
3754.102355,-9992.780217,-1110.308913,459.657299
3754.102685,-9696.697840,-666.185348,766.095498
3754.103014,-9104.533087,-1110.308913,306.438199
3754.103344,-8734.430116,-888.247130,383.047749
3754.103674,-9770.718434,-962.267725,919.314598
3754.104004,-10214.842000,-370.102971,919.314598
3754.104333,-9104.533087,-1036.288319,153.219100
3754.104663,-8808.450710,-296.082377,153.219100
3754.104993,-9178.553681,-222.061783,229.828649
3754.105323,-9474.636058,0.000000,383.047749
3754.105653,-9770.718434,222.061783,76.609550
3754.105982,-10584.944971,592.164754,0.000000
3754.106312,-10732.986159,444.123565,-229.828649
3754.106642,-9770.718434,0.000000,-536.266849
3754.106972,-9400.615463,222.061783,-536.266849
3754.107302,-9326.594869,148.041188,1149.143247
3754.107631,-9548.656652,0.000000,383.047749
3754.107961,-10066.800811,222.061783,612.876398
3754.108291,-10807.006753,444.123565,153.219100
3754.108621,-10288.862594,0.000000,76.609550
3754.108950,-10510.924376,74.020594,995.924147
3754.109280,-10881.027347,518.144159,689.485948
3754.109610,-9622.677246,0.000000,306.438199
3754.109940,-8734.430116,0.000000,0.000000
3754.110270,-10288.862594,592.164754,842.705048
3754.110599,-11473.192101,148.041188,842.705048
3754.110929,-10214.842000,-148.041188,459.657299
3754.111259,-9770.718434,74.020594,229.828649
3754.111589,-9622.677246,74.020594,76.609550
3754.111919,-9844.739029,-148.041188,-153.219100
3754.112248,-9474.636058,-592.164754,-995.924147
3754.112578,-9104.533087,-444.123565,-306.438199
3754.112908,-8882.471304,-370.102971,76.609550
3754.113238,-9474.636058,-444.123565,689.485948
3754.113567,-10288.862594,74.020594,0.000000
3754.113897,-9252.574275,-74.020594,-995.924147
3754.114227,-7328.038826,-592.164754,-842.705048
3754.114557,-8882.471304,0.000000,383.047749
3754.114887,-11251.130318,296.082377,995.924147
3754.115216,-9992.780217,-370.102971,766.095498
3754.115546,-9030.512492,-370.102971,76.609550
3754.115876,-8216.285956,444.123565,-766.095498
3754.116206,-9474.636058,0.000000,-536.266849
3754.116535,-9918.759623,296.082377,-459.657299
3754.116865,-9918.759623,74.020594,-383.047749
3754.117195,-8956.491898,370.102971,612.876398
3754.117525,-9030.512492,296.082377,1072.533697
3754.117855,-10436.903782,1184.329507,842.705048
3754.118184,-10510.924376,222.061783,919.314598
3754.118514,-9844.739029,814.226536,919.314598
3754.118844,-10362.883188,666.185348,1225.752797
3754.119174,-11843.295072,962.267725,1685.410096
3754.119504,-10732.986159,740.205942,2068.457845
3754.119833,-9326.594869,592.164754,1072.533697
3754.120163,-9548.656652,1554.432478,306.438199
3754.120493,-11325.150913,740.205942,-153.219100
3754.120823,-11325.150913,740.205942,0.000000
3754.121152,-10140.821405,370.102971,153.219100
3754.121482,-10066.800811,1110.308913,76.609550
3754.121812,-9400.615463,370.102971,153.219100
3754.122142,-10362.883188,814.226536,153.219100
3754.122472,-10066.800811,222.061783,153.219100
3754.122801,-9696.697840,74.020594,459.657299
3754.123131,-9992.780217,-444.123565,0.000000
3754.123461,-10510.924376,-1036.288319,229.828649
3754.123791,-9326.594869,-1184.329507,995.924147
3754.124121,-8290.306550,-1036.288319,1608.800546
3754.124450,-8808.450710,-518.144159,536.266849
3754.124780,-9178.553681,74.020594,-1378.971896
3754.125110,-8882.471304,-444.123565,-1455.581446
3754.125440,-8808.450710,-222.061783,-383.047749
3754.125769,-9548.656652,0.000000,995.924147
3754.126099,-9918.759623,-518.144159,383.047749
3754.126429,-9252.574275,-444.123565,-229.828649
3754.126759,-9030.512492,-740.205942,-842.705048
3754.127089,-9178.553681,-814.226536,-689.485948
3754.127418,-9622.677246,0.000000,-153.219100
3754.127748,-9622.677246,222.061783,0.000000
3754.128078,-8808.450710,74.020594,76.609550
3754.128408,-8956.491898,0.000000,459.657299
3754.128737,-10881.027347,888.247130,1072.533697
3754.129067,-11325.150913,370.102971,-383.047749
3754.129397,-10807.006753,-370.102971,-919.314598
3754.129727,-9622.677246,-518.144159,306.438199
3754.130057,-9548.656652,740.205942,2145.067394
3754.130386,-9696.697840,740.205942,1149.143247
3754.130716,-10288.862594,814.226536,-153.219100
3754.131046,-10288.862594,1554.432478,-1072.533697
3754.131376,-10362.883188,740.205942,-1685.410096
3754.131706,-11251.130318,1110.308913,0.000000
3754.132035,-11991.336260,592.164754,1378.971896
3754.132365,-11251.130318,-74.020594,1455.581446
3754.132695,-8290.306550,-1480.411884,536.266849
3754.133025,-8660.409521,-740.205942,229.828649
3754.133354,-10658.965565,0.000000,-536.266849
3754.133684,-10066.800811,-148.041188,-229.828649
3754.134014,-8882.471304,-888.247130,76.609550
3754.134344,-9474.636058,-740.205942,1149.143247
3754.134674,-10658.965565,-592.164754,1762.019645
3754.135003,-10066.800811,-1110.308913,919.314598
3754.135333,-9400.615463,-1110.308913,-536.266849
3754.135663,-8142.265362,-1554.432478,-1378.971896
3754.135993,-8216.285956,-1184.329507,-842.705048
3754.136322,-9770.718434,-814.226536,1149.143247
3754.136652,-9696.697840,-444.123565,2145.067394
3754.136982,-8660.409521,-592.164754,1608.800546
3754.137312,-9474.636058,-296.082377,306.438199
3754.137641,-10510.924376,-518.144159,-689.485948
3754.137971,-9696.697840,-222.061783,0.000000
3754.138301,-8808.450710,-148.041188,689.485948
3754.138631,-9548.656652,444.123565,766.095498
3754.138960,-9696.697840,888.247130,689.485948
3754.139290,-8956.491898,666.185348,459.657299
3754.139620,-10066.800811,1406.391290,229.828649
3754.139950,-10881.027347,1850.514855,-842.705048
3754.140279,-10288.862594,518.144159,-1149.143247
3754.140609,-10066.800811,370.102971,0.000000
3754.140939,-10214.842000,592.164754,1378.971896
3754.141269,-10510.924376,518.144159,2298.286494
3754.141598,-9844.739029,740.205942,1072.533697
3754.141928,-9770.718434,888.247130,0.000000
3754.142258,-10066.800811,1258.350101,-229.828649
3754.142588,-10807.006753,1184.329507,689.485948
3754.142917,-11473.192101,814.226536,1149.143247
3754.143247,-10140.821405,740.205942,919.314598
3754.143577,-9474.636058,518.144159,229.828649
3754.143907,-10658.965565,444.123565,153.219100
3754.144236,-10807.006753,222.061783,76.609550
3754.144566,-9696.697840,-296.082377,-919.314598
3754.144896,-9030.512492,0.000000,-383.047749
3754.145226,-9696.697840,0.000000,229.828649
3754.145555,-8734.430116,148.041188,612.876398
3754.145885,-9178.553681,0.000000,689.485948
3754.146215,-10362.883188,296.082377,-153.219100
3754.146545,-10881.027347,148.041188,-1302.362347
3754.146874,-9696.697840,-814.226536,-1149.143247
3754.147204,-8586.388927,-740.205942,76.609550
3754.147534,-8956.491898,-814.226536,1762.019645
3754.147864,-8956.491898,-592.164754,1455.581446
3754.148193,-9030.512492,-888.247130,0.000000
3754.148523,-8808.450710,0.000000,-689.485948
3754.148853,-9400.615463,-740.205942,-689.485948
3754.149182,-9622.677246,0.000000,0.000000
3754.149512,-9992.780217,148.041188,153.219100
3754.149842,-9474.636058,148.041188,76.609550
3754.150172,-8734.430116,-370.102971,459.657299
3754.150501,-10732.986159,0.000000,0.000000
3754.150831,-10140.821405,148.041188,-1378.971896
3754.151161,-8956.491898,74.020594,-2451.505594
3754.151491,-9178.553681,518.144159,-842.705048
3754.151820,-9770.718434,222.061783,995.924147
3754.152150,-9844.739029,444.123565,2068.457845
3754.152480,-9844.739029,74.020594,1991.848295
3754.152810,-10658.965565,962.267725,1455.581446
3754.153139,-10955.047942,518.144159,995.924147
3754.153469,-10955.047942,1036.288319,1455.581446
3754.153799,-11029.068536,1036.288319,1378.971896
3754.154129,-11029.068536,296.082377,995.924147
3754.154458,-9918.759623,0.000000,689.485948
3754.154788,-9770.718434,222.061783,1378.971896
3754.155118,-9696.697840,592.164754,1838.629195
3754.155448,-9918.759623,444.123565,2068.457845
3754.155777,-10066.800811,518.144159,1685.410096
3754.156107,-10658.965565,444.123565,1378.971896
3754.156437,-9844.739029,444.123565,1378.971896
3754.156767,-9030.512492,-222.061783,2068.457845
3754.157096,-9400.615463,962.267725,2604.724693
3754.157426,-9178.553681,740.205942,2451.505594
3754.157756,-9326.594869,666.185348,1608.800546
3754.158086,-9696.697840,1184.329507,1378.971896
3754.158415,-10807.006753,1036.288319,1915.238745
3754.158745,-10362.883188,1258.350101,1762.019645
3754.159075,-8364.327145,444.123565,229.828649
3754.159405,-7624.121203,740.205942,1225.752797
3754.159734,-8364.327145,888.247130,2681.334243
3754.160064,-8882.471304,1924.535449,3064.381992
3754.160394,-8882.471304,1998.556043,2068.457845
3754.160724,-9548.656652,2294.638420,2145.067394
3754.161053,-10436.903782,2664.741391,3294.210641
3754.161383,-11399.171507,2590.720797,3370.820191
3754.161713,-10658.965565,2368.659014,2528.115143
3754.162043,-9104.533087,2294.638420,2068.457845
3754.162372,-9178.553681,2442.679609,1532.190996
3754.162702,-9178.553681,2738.761985,1838.629195
3754.163032,-9770.718434,2738.761985,2757.943793
3754.163362,-9770.718434,3775.050304,3524.039291
3754.163691,-10066.800811,3330.926739,3294.210641
3754.164021,-10362.883188,2960.823768,2451.505594
3754.164351,-10214.842000,3182.885551,2451.505594
3754.164681,-10658.965565,3182.885551,2068.457845
3754.165010,-10658.965565,3404.947333,459.657299
3754.165340,-10658.965565,3849.070898,-229.828649
3754.165670,-8660.409521,3034.844362,1455.581446
3754.165999,-8956.491898,3552.988522,3140.991542
3754.166329,-10510.924376,3404.947333,4213.525239
3754.166659,-11473.192101,2738.761985,3830.477490
3754.166989,-9400.615463,2220.617826,3140.991542
3754.167318,-8364.327145,2368.659014,2757.943793
3754.167648,-10362.883188,2220.617826,3524.039291
3754.167978,-11325.150913,3552.988522,2604.724693
3754.168308,-9474.636058,3034.844362,1378.971896
3754.168637,-8882.471304,2886.803174,306.438199
3754.168967,-10510.924376,3478.967927,612.876398
3754.169297,-11991.336260,2368.659014,2374.896044
3754.169627,-10436.903782,2072.576638,2451.505594
3754.169956,-7328.038826,888.247130,2374.896044
3754.170286,-6217.729913,1110.308913,3447.429741
3754.170616,-8586.388927,1184.329507,4136.915689
3754.170946,-9474.636058,1924.535449,2221.676944
3754.171275,-7994.224174,1406.391290,766.095498
3754.171605,-8512.368333,2368.659014,612.876398
3754.171935,-9992.780217,2812.782580,2451.505594
3754.172265,-12287.418637,2664.741391,3983.696590
3754.172594,-11843.295072,3330.926739,3600.648841
3754.172924,-9474.636058,1924.535449,1302.362347
3754.173254,-8290.306550,1850.514855,76.609550
3754.173584,-8364.327145,1554.432478,1838.629195
3754.173913,-9696.697840,1480.411884,3830.477490
3754.174243,-10066.800811,3108.864956,4136.915689
3754.174573,-8586.388927,2368.659014,1072.533697
3754.174903,-8882.471304,2072.576638,0.000000
3754.175232,-11621.233289,2590.720797,229.828649
3754.175562,-12287.418637,2738.761985,2757.943793
3754.175892,-10436.903782,2368.659014,4060.306139
3754.176222,-8808.450710,2368.659014,2604.724693
3754.176551,-9178.553681,1702.473667,2298.286494
3754.176881,-10807.006753,2368.659014,3370.820191
3754.177211,-11029.068536,2072.576638,3370.820191
3754.177541,-9326.594869,1332.370696,3983.696590
3754.177870,-9696.697840,2368.659014,2757.943793
3754.178200,-10362.883188,2738.761985,1838.629195
3754.178530,-11029.068536,2146.597232,2757.943793
3754.178860,-10584.944971,2738.761985,1225.752797
3754.179189,-9918.759623,1480.411884,0.000000
3754.179519,-9252.574275,1110.308913,1072.533697
3754.179849,-9474.636058,1628.453072,3753.867940
3754.180179,-9474.636058,814.226536,6205.373534
3754.180508,-8808.450710,888.247130,4519.963438
3754.180838,-8808.450710,592.164754,1915.238745
3754.181168,-8438.347739,0.000000,1302.362347
3754.181498,-9030.512492,1850.514855,3370.820191
3754.181827,-9400.615463,1702.473667,4596.572988
3754.182157,-8808.450710,2220.617826,5056.230287
3754.182487,-9696.697840,3775.050304,2298.286494
3754.182816,-10066.800811,2738.761985,0.000000
3754.183146,-11325.150913,2812.782580,-1302.362347
3754.183476,-11325.150913,2294.638420,-919.314598
3754.183806,-8808.450710,1554.432478,536.266849
3754.184135,-7994.224174,888.247130,1532.190996
3754.184465,-8290.306550,1036.288319,2068.457845
3754.184795,-8734.430116,592.164754,3140.991542
3754.185125,-7994.224174,1924.535449,2221.676944
3754.185454,-8586.388927,2516.700203,1838.629195
3754.185784,-10436.903782,3330.926739,2757.943793
3754.186114,-12139.377449,4219.173869,3294.210641
3754.186444,-12361.439231,3478.967927,2681.334243
3754.186773,-11695.253884,3627.009116,2068.457845
3754.187103,-11621.233289,2294.638420,459.657299
3754.187433,-11029.068536,1998.556043,153.219100
3754.187763,-9252.574275,2294.638420,1302.362347
3754.188092,-8142.265362,2220.617826,1685.410096
3754.188422,-7624.121203,2442.679609,1532.190996
3754.188752,-8290.306550,2960.823768,1685.410096
3754.189082,-9474.636058,3923.091493,2528.115143
3754.189411,-10881.027347,4071.132681,3294.210641
3754.189741,-11843.295072,4071.132681,1838.629195
3754.190071,-12657.521608,2886.803174,919.314598
3754.190401,-12139.377449,2294.638420,1302.362347
3754.190730,-10658.965565,814.226536,2221.676944
3754.191060,-8290.306550,666.185348,3294.210641
3754.191390,-7550.100608,1036.288319,3983.696590
3754.191720,-5995.668130,740.205942,3677.258390
3754.192049,-7105.977043,1776.494261,2451.505594
3754.192379,-7994.224174,2960.823768,2221.676944
3754.192709,-9252.574275,3182.885551,2145.067394
3754.193039,-10362.883188,3478.967927,3294.210641
3754.193368,-11251.130318,2664.741391,3064.381992
3754.193698,-11843.295072,2590.720797,1991.848295
3754.194028,-10510.924376,2146.597232,2221.676944
3754.194358,-10288.862594,1554.432478,1455.581446
3754.194687,-9548.656652,1480.411884,2374.896044
3754.195017,-9548.656652,2146.597232,3753.867940
3754.195347,-8364.327145,1998.556043,4060.306139
3754.195677,-7994.224174,2590.720797,3140.991542
3754.196006,-8586.388927,2738.761985,842.705048
3754.196336,-9252.574275,2072.576638,0.000000
3754.196666,-9326.594869,2072.576638,-383.047749
3754.196996,-10362.883188,1776.494261,1762.019645
3754.197325,-10140.821405,1776.494261,2987.772442
3754.197655,-10214.842000,1924.535449,3524.039291
3754.197985,-9918.759623,2886.803174,2604.724693
3754.198315,-10732.986159,2664.741391,1838.629195
3754.198644,-10732.986159,2368.659014,1762.019645
3754.198974,-10658.965565,2886.803174,1762.019645
3754.199304,-10510.924376,2590.720797,2528.115143
3754.199633,-10510.924376,2368.659014,2451.505594
3754.199963,-10362.883188,2368.659014,1762.019645
3754.200293,-10066.800811,1554.432478,229.828649
3754.200623,-9622.677246,1110.308913,-612.876398
3754.200952,-8734.430116,1258.350101,-612.876398
3754.201282,-9918.759623,592.164754,2145.067394
