#time,accel_x,accel_y,accel_z
3592.422036,-10214.842000,-1924.535449,-1838.629195
3592.422366,-9474.636058,-1332.370696,-1915.238745
3592.422696,-9622.677246,-1702.473667,-1915.238745
3592.423025,-9474.636058,-1776.494261,-1838.629195
3592.423355,-9104.533087,-1332.370696,-1915.238745
3592.423685,-9400.615463,-740.205942,-2757.943793
3592.424015,-9548.656652,-592.164754,-1762.019645
3592.424345,-9622.677246,0.000000,-1072.533697
3592.424675,-9326.594869,-370.102971,-842.705048
3592.425005,-9474.636058,-222.061783,-1608.800546
3592.425335,-9696.697840,148.041188,-1915.238745
3592.425665,-10214.842000,-74.020594,-995.924147
3592.425995,-10288.862594,-74.020594,-689.485948
3592.426325,-9992.780217,74.020594,-842.705048
3592.426654,-9178.553681,0.000000,-2451.505594
3592.426984,-9770.718434,222.061783,-2604.724693
3592.427314,-9844.739029,222.061783,-2451.505594
3592.427644,-9474.636058,148.041188,-1608.800546
3592.427974,-9474.636058,370.102971,-689.485948
3592.428304,-9918.759623,0.000000,536.266849
3592.428634,-9548.656652,74.020594,689.485948
3592.428964,-9844.739029,0.000000,306.438199
3592.429294,-9770.718434,0.000000,-229.828649
3592.429624,-9548.656652,-296.082377,-1762.019645
3592.429954,-9844.739029,-370.102971,-1838.629195
3592.430283,-10140.821405,444.123565,-306.438199
3592.430613,-10066.800811,518.144159,1149.143247
3592.430943,-12509.480420,1036.288319,306.438199
3592.431273,-10214.842000,444.123565,-1225.752797
3592.431603,-8586.388927,0.000000,-842.705048
3592.431933,-10807.006753,0.000000,-2068.457845
3592.432263,-10288.862594,-370.102971,-2528.115143
3592.432593,-9104.533087,-888.247130,-1608.800546
3592.432923,-8512.368333,-740.205942,-1072.533697
3592.433253,-8734.430116,-962.267725,0.000000
3592.433583,-9030.512492,-1702.473667,689.485948
3592.433912,-9696.697840,-962.267725,842.705048
3592.434242,-9992.780217,-666.185348,383.047749
3592.434572,-10658.965565,-370.102971,76.609550
3592.434902,-11177.109724,0.000000,306.438199
3592.435232,-10584.944971,0.000000,-306.438199
3592.435562,-10584.944971,-666.185348,-1762.019645
3592.435892,-9844.739029,-1406.391290,-2068.457845
3592.436222,-9696.697840,-2146.597232,-2374.896044
3592.436552,-8068.244768,-2220.617826,-1378.971896
3592.436882,-7846.182985,-2294.638420,229.828649
3592.437212,-8216.285956,-1554.432478,689.485948
3592.437541,-9844.739029,-370.102971,689.485948
3592.437871,-10584.944971,0.000000,-229.828649
3592.438201,-11473.192101,444.123565,-689.485948
3592.438531,-12213.398043,-148.041188,-1378.971896
3592.438861,-13249.686362,-1332.370696,-1991.848295
3592.439191,-12139.377449,-2664.741391,-1762.019645
3592.439521,-9844.739029,-3923.091493,-1915.238745
3592.439851,-7254.018232,-4441.235652,-1455.581446
3592.440181,-6439.791695,-4293.194464,-612.876398
3592.440511,-6735.874072,-2812.782580,-383.047749
3592.440841,-7105.977043,-1998.556043,536.266849
3592.441170,-8290.306550,-444.123565,1302.362347
3592.441500,-10436.903782,-222.061783,689.485948
3592.441830,-12879.583391,-296.082377,306.438199
3592.442160,-13767.830521,-1702.473667,0.000000
3592.442490,-12509.480420,-3256.906145,-459.657299
3592.442820,-10214.842000,-3997.112087,-689.485948
3592.443150,-8512.368333,-4515.256246,-1225.752797
3592.443480,-8290.306550,-3775.050304,-2221.676944
3592.443810,-7402.059420,-2812.782580,-2145.067394
3592.444140,-7254.018232,-1776.494261,-1915.238745
3592.444470,-7624.121203,-740.205942,-842.705048
3592.444799,-8660.409521,-592.164754,612.876398
3592.445129,-9844.739029,-444.123565,1072.533697
3592.445459,-9918.759623,-888.247130,1378.971896
3592.445788,-10584.944971,-1850.514855,153.219100
3592.446117,-10881.027347,-2442.679609,-229.828649
3592.446447,-11399.171507,-2294.638420,-306.438199
3592.446777,-11177.109724,-2812.782580,1838.629195
3592.447106,-10288.862594,-2368.659014,2528.115143
3592.447436,-8808.450710,-2072.576638,2298.286494
3592.447766,-7994.224174,-666.185348,1915.238745
3592.448095,-8512.368333,592.164754,689.485948
3592.448425,-9400.615463,1036.288319,-612.876398
3592.448755,-9622.677246,1332.370696,-2221.676944
3592.449085,-10436.903782,962.267725,-2221.676944
3592.449414,-11177.109724,592.164754,-1302.362347
3592.449744,-11843.295072,-370.102971,0.000000
3592.450074,-11103.089130,-1480.411884,995.924147
3592.450403,-9474.636058,-1850.514855,1915.238745
3592.450733,-8438.347739,-1702.473667,3064.381992
3592.451063,-9178.553681,0.000000,3830.477490
3592.451392,-9548.656652,666.185348,4136.915689
3592.451722,-9326.594869,1628.453072,3370.820191
3592.452052,-9400.615463,1998.556043,2374.896044
3592.452381,-10140.821405,2294.638420,995.924147
3592.452711,-10807.006753,1924.535449,76.609550
3592.453041,-10362.883188,2072.576638,-536.266849
3592.453370,-11029.068536,2072.576638,-2068.457845
3592.453700,-10732.986159,2146.597232,-3140.991542
3592.454030,-10807.006753,1776.494261,-2528.115143
3592.454359,-9992.780217,1332.370696,-1149.143247
3592.454689,-8882.471304,1258.350101,1225.752797
3592.455019,-7846.182985,1628.453072,2681.334243
3592.455348,-7624.121203,2072.576638,2528.115143
3592.455678,-8512.368333,2442.679609,2145.067394
3592.456008,-9696.697840,3256.906145,766.095498
3592.456338,-10510.924376,3552.988522,383.047749
3592.456667,-11251.130318,3256.906145,-229.828649
3592.456997,-11029.068536,2516.700203,-76.609550
3592.457327,-10584.944971,2294.638420,153.219100
3592.457656,-9918.759623,1702.473667,689.485948
3592.457986,-9400.615463,1628.453072,229.828649
3592.458316,-9548.656652,2146.597232,-766.095498
3592.458645,-9178.553681,2516.700203,-1915.238745
3592.458975,-9400.615463,3034.844362,-1838.629195
3592.459305,-9548.656652,2812.782580,-1532.190996
3592.459634,-9844.739029,2220.617826,-1455.581446
3592.459964,-9622.677246,1776.494261,-383.047749
3592.460294,-9400.615463,1480.411884,689.485948
3592.460623,-8882.471304,888.247130,1608.800546
3592.460953,-9622.677246,1332.370696,1455.581446
3592.461283,-10214.842000,1036.288319,1455.581446
3592.461612,-10732.986159,666.185348,995.924147
3592.461942,-11029.068536,666.185348,766.095498
3592.462272,-10510.924376,0.000000,1072.533697
3592.462601,-10066.800811,0.000000,1378.971896
3592.462931,-9326.594869,0.000000,689.485948
3592.463261,-9696.697840,222.061783,-459.657299
3592.463591,-9622.677246,666.185348,-1762.019645
3592.463920,-9696.697840,0.000000,-2911.162892
3592.464250,-9400.615463,0.000000,-3064.381992
3592.464580,-9252.574275,-962.267725,-1762.019645
3592.464909,-9474.636058,-1924.535449,612.876398
3592.465239,-9400.615463,-2368.659014,2374.896044
3592.465569,-8808.450710,-2368.659014,2528.115143
3592.465898,-9622.677246,-2072.576638,1991.848295
3592.466228,-9918.759623,-1628.453072,1838.629195
3592.466558,-10510.924376,-1998.556043,1378.971896
3592.466887,-10510.924376,-1924.535449,1378.971896
3592.467217,-10288.862594,-1998.556043,1378.971896
3592.467547,-9622.677246,-2590.720797,1378.971896
3592.467876,-9178.553681,-2442.679609,306.438199
3592.468206,-9252.574275,-1850.514855,-383.047749
3592.468536,-9770.718434,-1184.329507,-1149.143247
3592.468865,-10584.944971,-740.205942,-2221.676944
3592.469195,-11399.171507,-888.247130,-2757.943793
3592.469525,-10807.006753,-1554.432478,-2298.286494
3592.469855,-10510.924376,-2294.638420,-766.095498
3592.470184,-9844.739029,-2886.803174,612.876398
3592.470514,-9252.574275,-2812.782580,1915.238745
3592.470844,-8808.450710,-2590.720797,2528.115143
3592.471173,-8734.430116,-1628.453072,2451.505594
3592.471503,-9252.574275,-1184.329507,2068.457845
3592.471833,-10066.800811,-444.123565,2068.457845
3592.472162,-10732.986159,-518.144159,1532.190996
3592.472492,-11695.253884,-370.102971,842.705048
3592.472822,-11103.089130,-814.226536,612.876398
3592.473151,-10510.924376,-592.164754,-536.266849
3592.473481,-9918.759623,-814.226536,-1915.238745
3592.473811,-9474.636058,-370.102971,-2451.505594
3592.474140,-9252.574275,-296.082377,-2757.943793
3592.474470,-8438.347739,-666.185348,-1762.019645
3592.474800,-7550.100608,-666.185348,-306.438199
3592.475129,-7994.224174,-296.082377,1762.019645
3592.475459,-8734.430116,148.041188,2451.505594
3592.475789,-9696.697840,666.185348,2528.115143
3592.476118,-9844.739029,1628.453072,1072.533697
3592.476448,-10584.944971,1258.350101,306.438199
3592.476778,-11325.150913,962.267725,-153.219100
3592.477108,-11103.089130,592.164754,153.219100
3592.477437,-9992.780217,222.061783,229.828649
3592.477767,-8586.388927,444.123565,612.876398
3592.478097,-7994.224174,962.267725,0.000000
3592.478426,-8512.368333,1776.494261,-842.705048
3592.478756,-9252.574275,2516.700203,-2068.457845
3592.479086,-9548.656652,3256.906145,-2681.334243
3592.479415,-10140.821405,2960.823768,-2374.896044
3592.479745,-10955.047942,2220.617826,-1608.800546
3592.480075,-10658.965565,1258.350101,-766.095498
3592.480404,-9696.697840,666.185348,0.000000
3592.480734,-8882.471304,370.102971,1149.143247
3592.481064,-9030.512492,518.144159,1762.019645
3592.481393,-9474.636058,1110.308913,2681.334243
3592.481723,-9992.780217,1628.453072,2451.505594
3592.482053,-10214.842000,1998.556043,2451.505594
3592.482382,-10584.944971,2072.576638,1685.410096
3592.482712,-10955.047942,1628.453072,1532.190996
3592.483042,-10584.944971,1776.494261,842.705048
3592.483371,-10214.842000,1332.370696,-766.095498
3592.483701,-9992.780217,1480.411884,-2068.457845
3592.484031,-9992.780217,1480.411884,-3140.991542
3592.484361,-9770.718434,814.226536,-2834.553343
3592.484690,-9104.533087,370.102971,-1378.971896
3592.485020,-8586.388927,-222.061783,766.095498
3592.485350,-8956.491898,-74.020594,2374.896044
3592.485679,-8660.409521,0.000000,2987.772442
3592.486009,-9474.636058,518.144159,2604.724693
3592.486339,-10066.800811,666.185348,1991.848295
3592.486668,-11251.130318,666.185348,1149.143247
3592.486998,-11399.171507,74.020594,766.095498
3592.487328,-11251.130318,-74.020594,689.485948
3592.487657,-10436.903782,-814.226536,995.924147
3592.487987,-9178.553681,-1258.350101,612.876398
3592.488317,-8438.347739,-962.267725,0.000000
3592.488646,-9030.512492,-296.082377,-689.485948
3592.488976,-9622.677246,222.061783,-1762.019645
3592.489306,-10140.821405,222.061783,-2451.505594
3592.489635,-10436.903782,74.020594,-2757.943793
3592.489965,-10288.862594,-518.144159,-1762.019645
3592.490295,-10066.800811,-1110.308913,0.000000
3592.490624,-9474.636058,-1184.329507,1762.019645
3592.490954,-8956.491898,-1702.473667,1915.238745
3592.491284,-9252.574275,-1406.391290,1608.800546
3592.491614,-9696.697840,-666.185348,1608.800546
3592.491943,-10658.965565,-444.123565,2221.676944
3592.492273,-11103.089130,-222.061783,1838.629195
3592.492603,-10881.027347,-740.205942,1455.581446
3592.492932,-10362.883188,-740.205942,689.485948
3592.493262,-9770.718434,-962.267725,-536.266849
3592.493592,-9400.615463,-814.226536,-1915.238745
3592.493921,-9548.656652,-888.247130,-2681.334243
3592.494251,-9474.636058,-592.164754,-2681.334243
3592.494581,-9252.574275,-1184.329507,-2374.896044
3592.494910,-8660.409521,-1332.370696,-306.438199
3592.495240,-8808.450710,-1850.514855,1915.238745
3592.495570,-9030.512492,-1480.411884,2987.772442
3592.495899,-9104.533087,-1036.288319,3294.210641
3592.496229,-9474.636058,-444.123565,2911.162892
3592.496559,-10214.842000,-296.082377,1838.629195
3592.496888,-11177.109724,-296.082377,1149.143247
3592.497218,-11399.171507,-222.061783,766.095498
3592.497548,-10658.965565,-1036.288319,306.438199
3592.497878,-9474.636058,-1184.329507,229.828649
3592.498207,-8512.368333,-1036.288319,0.000000
3592.498537,-8438.347739,-444.123565,-459.657299
3592.498867,-8882.471304,148.041188,-1532.190996
3592.499196,-9326.594869,740.205942,-2221.676944
3592.499526,-10140.821405,740.205942,-1915.238745
3592.499856,-10732.986159,518.144159,-1149.143247
3592.500185,-10881.027347,-222.061783,-153.219100
3592.500515,-9992.780217,-814.226536,995.924147
3592.500845,-9178.553681,-1332.370696,1532.190996
3592.501174,-8512.368333,-1110.308913,2298.286494
3592.501504,-8956.491898,-444.123565,1991.848295
3592.501834,-9474.636058,222.061783,1378.971896
3592.502163,-10066.800811,962.267725,842.705048
3592.502493,-10436.903782,1110.308913,536.266849
3592.502823,-10881.027347,1110.308913,229.828649
3592.503152,-10362.883188,518.144159,-229.828649
3592.503482,-9992.780217,888.247130,-1455.581446
3592.503812,-9844.739029,888.247130,-2757.943793
3592.504141,-9622.677246,814.226536,-3447.429741
3592.504471,-9474.636058,814.226536,-3064.381992
3592.504801,-9178.553681,666.185348,-1378.971896
3592.505131,-8882.471304,296.082377,229.828649
3592.505460,-8882.471304,518.144159,2298.286494
3592.505790,-9104.533087,296.082377,2987.772442
3592.506120,-9474.636058,1110.308913,2911.162892
3592.506449,-10436.903782,1332.370696,2221.676944
3592.506779,-10955.047942,1628.453072,842.705048
3592.507109,-11325.150913,1480.411884,536.266849
3592.507438,-10881.027347,1036.288319,459.657299
3592.507768,-10140.821405,592.164754,612.876398
3592.508098,-9178.553681,296.082377,766.095498
3592.508427,-8734.430116,888.247130,229.828649
3592.508757,-9326.594869,1628.453072,0.000000
3592.509087,-9992.780217,1776.494261,-1072.533697
3592.509416,-10362.883188,2146.597232,-1685.410096
3592.509746,-10658.965565,1628.453072,-1455.581446
3592.510076,-10288.862594,1110.308913,-536.266849
3592.510405,-10066.800811,518.144159,1149.143247
3592.510735,-9992.780217,0.000000,1838.629195
3592.511065,-9030.512492,-148.041188,2604.724693
3592.511394,-9178.553681,0.000000,2757.943793
3592.511724,-9622.677246,888.247130,2298.286494
3592.512054,-10214.842000,1036.288319,1838.629195
3592.512384,-10510.924376,962.267725,1838.629195
3592.512713,-10881.027347,1110.308913,995.924147
3592.513043,-10807.006753,518.144159,536.266849
3592.513373,-9548.656652,296.082377,-612.876398
3592.513702,-9474.636058,0.000000,-1378.971896
3592.514032,-9548.656652,0.000000,-2528.115143
3592.514362,-9474.636058,148.041188,-3294.210641
3592.514691,-9030.512492,-222.061783,-2681.334243
3592.515021,-8734.430116,-370.102971,-1149.143247
3592.515351,-8734.430116,-962.267725,766.095498
3592.515680,-9104.533087,-962.267725,2298.286494
3592.516010,-9178.553681,-592.164754,3217.601092
3592.516340,-9696.697840,-370.102971,1991.848295
3592.516669,-9992.780217,-148.041188,766.095498
3592.516999,-10955.047942,-222.061783,0.000000
3592.517329,-11103.089130,-444.123565,-229.828649
3592.517658,-10510.924376,-1036.288319,0.000000
3592.517988,-9770.718434,-1332.370696,0.000000
3592.518318,-8586.388927,-1702.473667,459.657299
3592.518647,-8438.347739,-592.164754,0.000000
3592.518977,-9030.512492,370.102971,-1532.190996
3592.519307,-9918.759623,370.102971,-2221.676944
3592.519637,-10436.903782,370.102971,-2145.067394
3592.519966,-10807.006753,0.000000,-1838.629195
3592.520296,-10584.944971,-814.226536,-306.438199
3592.520626,-10214.842000,-1702.473667,995.924147
3592.520955,-9474.636058,-2072.576638,2451.505594
3592.521285,-8734.430116,-2072.576638,2298.286494
3592.521615,-8956.491898,-1480.411884,2145.067394
3592.521944,-9474.636058,-1110.308913,1762.019645
3592.522274,-10288.862594,-222.061783,1302.362347
3592.522604,-10658.965565,0.000000,1608.800546
3592.522933,-11251.130318,-148.041188,1072.533697
3592.523263,-10436.903782,-74.020594,153.219100
3592.523593,-9844.739029,-888.247130,-1302.362347
3592.523922,-9992.780217,-666.185348,-2145.067394
3592.524252,-9400.615463,-740.205942,-2834.553343
3592.524582,-9326.594869,-518.144159,-2374.896044
3592.524911,-9252.574275,-444.123565,-1455.581446
3592.525241,-8660.409521,-962.267725,-153.219100
3592.525571,-8660.409521,-1036.288319,1072.533697
3592.525901,-8956.491898,-888.247130,2757.943793
3592.526230,-9252.574275,-296.082377,2757.943793
3592.526560,-9770.718434,148.041188,1838.629195
3592.526890,-10584.944971,814.226536,919.314598
3592.527219,-11103.089130,444.123565,-459.657299
3592.527549,-11399.171507,518.144159,-612.876398
3592.527879,-10510.924376,0.000000,0.000000
3592.528208,-9178.553681,-444.123565,-306.438199
3592.528538,-8290.306550,0.000000,0.000000
3592.528868,-8512.368333,888.247130,-383.047749
3592.529197,-9104.533087,1332.370696,-919.314598
3592.529527,-10214.842000,1998.556043,-1838.629195
3592.529857,-10584.944971,1776.494261,-2068.457845
3592.530186,-10807.006753,1406.391290,-1991.848295
3592.530516,-10658.965565,518.144159,-229.828649
3592.530846,-9992.780217,0.000000,1455.581446
3592.531175,-9104.533087,-148.041188,1762.019645
3592.531505,-9178.553681,148.041188,2528.115143
3592.531835,-9474.636058,888.247130,2298.286494
3592.532164,-10140.821405,1258.350101,1762.019645
3592.532494,-10510.924376,1332.370696,1302.362347
3592.532824,-10436.903782,1258.350101,1225.752797
3592.533154,-10584.944971,1258.350101,689.485948
3592.533483,-10214.842000,1184.329507,536.266849
3592.533813,-9622.677246,1036.288319,-306.438199
3592.534143,-9548.656652,888.247130,-1915.238745
3592.534472,-9548.656652,814.226536,-2834.553343
3592.534802,-9696.697840,814.226536,-2604.724693
3592.535132,-9252.574275,518.144159,-1149.143247
3592.535461,-8734.430116,148.041188,766.095498
3592.535791,-8734.430116,0.000000,2451.505594
3592.536121,-8734.430116,0.000000,2911.162892
3592.536450,-9326.594869,370.102971,2528.115143
3592.536780,-9992.780217,814.226536,1225.752797
3592.537110,-10732.986159,962.267725,536.266849
3592.537439,-10955.047942,518.144159,306.438199
3592.537769,-11103.089130,962.267725,766.095498
3592.538099,-9696.697840,-148.041188,459.657299
3592.538428,-9104.533087,-296.082377,306.438199
3592.538758,-8364.327145,-370.102971,153.219100
3592.539088,-8882.471304,296.082377,0.000000
3592.539417,-9770.718434,1036.288319,-1532.190996
3592.539747,-10214.842000,1184.329507,-1991.848295
3592.540077,-10658.965565,740.205942,-1762.019645
3592.540407,-10584.944971,148.041188,-995.924147
3592.540736,-10584.944971,-740.205942,229.828649
3592.541066,-9696.697840,-1406.391290,1608.800546
3592.541396,-8882.471304,-1332.370696,1915.238745
3592.541725,-9252.574275,-814.226536,2298.286494
3592.542055,-9918.759623,-222.061783,2298.286494
3592.542385,-10362.883188,0.000000,1302.362347
3592.542714,-10436.903782,0.000000,1072.533697
3592.543044,-10955.047942,0.000000,383.047749
3592.543374,-10584.944971,-296.082377,229.828649
3592.543703,-9992.780217,-888.247130,-842.705048
3592.544033,-9770.718434,-666.185348,-1302.362347
3592.544363,-9770.718434,-814.226536,-2451.505594
3592.544692,-9474.636058,-370.102971,-2604.724693
3592.545022,-9030.512492,-1184.329507,-2145.067394
3592.545352,-8956.491898,-1184.329507,-842.705048
3592.545681,-8808.450710,-1702.473667,1532.190996
3592.546011,-9104.533087,-1480.411884,2987.772442
3592.546341,-9178.553681,-740.205942,3140.991542
3592.546670,-9770.718434,-740.205942,2221.676944
3592.547000,-10140.821405,-444.123565,919.314598
3592.547330,-10881.027347,-370.102971,-153.219100
3592.547660,-11325.150913,0.000000,0.000000
3592.547989,-10288.862594,-814.226536,76.609550
3592.548319,-9326.594869,-1184.329507,383.047749
3592.548649,-8586.388927,-740.205942,153.219100
3592.548979,-8290.306550,-296.082377,-306.438199
3592.549309,-9400.615463,296.082377,-1149.143247
3592.549639,-10140.821405,814.226536,-1762.019645
3592.549969,-10436.903782,666.185348,-1838.629195
3592.550298,-10436.903782,296.082377,-1225.752797
3592.550628,-10658.965565,-296.082377,76.609550
3592.550958,-10066.800811,-888.247130,1149.143247
3592.551288,-9252.574275,-1036.288319,1838.629195
3592.551618,-8882.471304,-518.144159,1991.848295
3592.551948,-9326.594869,518.144159,2068.457845
3592.552278,-9918.759623,518.144159,1608.800546
3592.552608,-10658.965565,1110.308913,1302.362347
3592.552937,-10510.924376,1110.308913,1072.533697
3592.553267,-10658.965565,962.267725,153.219100
3592.553597,-10140.821405,444.123565,-306.438199
3592.553927,-9770.718434,296.082377,-766.095498
3592.554257,-9696.697840,444.123565,-1762.019645
3592.554587,-9474.636058,888.247130,-2221.676944
3592.554917,-9326.594869,814.226536,-2068.457845
3592.555246,-9030.512492,370.102971,-919.314598
3592.555576,-8808.450710,222.061783,612.876398
3592.555906,-8882.471304,222.061783,2451.505594
3592.556236,-9030.512492,592.164754,3140.991542
3592.556566,-9548.656652,666.185348,2987.772442
3592.556896,-10288.862594,1110.308913,1915.238745
3592.557226,-10584.944971,1110.308913,612.876398
3592.557556,-10807.006753,1258.350101,306.438199
3592.557885,-10955.047942,888.247130,-229.828649
3592.558215,-10362.883188,370.102971,459.657299
3592.558545,-9326.594869,296.082377,689.485948
3592.558875,-8586.388927,370.102971,153.219100
3592.559205,-9178.553681,1332.370696,-306.438199
3592.559535,-9696.697840,1776.494261,-995.924147
3592.559865,-10140.821405,2072.576638,-1685.410096
3592.560194,-10510.924376,1702.473667,-1838.629195
3592.560524,-10436.903782,888.247130,-995.924147
3592.560854,-10362.883188,0.000000,0.000000
3592.561184,-9696.697840,-666.185348,1455.581446
3592.561514,-8586.388927,-962.267725,2374.896044
3592.561844,-8586.388927,-222.061783,1838.629195
3592.562174,-8956.491898,296.082377,2145.067394
3592.562503,-9844.739029,518.144159,1762.019645
3592.562833,-10510.924376,740.205942,1302.362347
3592.563163,-11177.109724,814.226536,1149.143247
3592.563493,-10955.047942,370.102971,689.485948
3592.563823,-9918.759623,0.000000,-306.438199
3592.564153,-9252.574275,0.000000,-1149.143247
3592.564483,-9474.636058,-148.041188,-2451.505594
3592.564813,-9474.636058,0.000000,-2681.334243
3592.565142,-9178.553681,-592.164754,-2221.676944
3592.565472,-9252.574275,-444.123565,-995.924147
3592.565802,-9030.512492,-740.205942,919.314598
3592.566132,-9104.533087,-962.267725,2068.457845
3592.566462,-9178.553681,-592.164754,3064.381992
3592.566792,-9400.615463,-518.144159,1762.019645
3592.567122,-10066.800811,-370.102971,1072.533697
3592.567451,-10732.986159,0.000000,0.000000
3592.567781,-11103.089130,-222.061783,76.609550
3592.568111,-11029.068536,-592.164754,0.000000
3592.568441,-10140.821405,-1036.288319,76.609550
3592.568771,-8734.430116,-1480.411884,383.047749
3592.569101,-8364.327145,-740.205942,76.609550
3592.569431,-9104.533087,-148.041188,-229.828649
3592.569761,-10066.800811,592.164754,-1532.190996
3592.570090,-10140.821405,518.144159,-2145.067394
3592.570420,-10807.006753,444.123565,-1762.019645
3592.570750,-11029.068536,-444.123565,-689.485948
3592.571080,-10584.944971,-1184.329507,536.266849
3592.571410,-9400.615463,-1628.453072,1455.581446
3592.571740,-8882.471304,-1850.514855,1991.848295
3592.572070,-8956.491898,-1258.350101,2604.724693
3592.572399,-9400.615463,-592.164754,1685.410096
3592.572729,-9918.759623,-296.082377,1149.143247
3592.573059,-10732.986159,222.061783,1532.190996
3592.573389,-10807.006753,74.020594,842.705048
3592.573719,-10510.924376,-148.041188,383.047749
3592.574049,-9770.718434,-222.061783,-306.438199
3592.574379,-9770.718434,-222.061783,-1608.800546
3592.574709,-9844.739029,-222.061783,-2451.505594
3592.575038,-9548.656652,-370.102971,-2528.115143
3592.575368,-9178.553681,-444.123565,-1915.238745
3592.575698,-9104.533087,-666.185348,229.828649
3592.576028,-9178.553681,-444.123565,1608.800546
3592.576358,-8882.471304,-370.102971,3217.601092
3592.576688,-9104.533087,-296.082377,2681.334243
3592.577018,-9992.780217,0.000000,2068.457845
3592.577347,-10288.862594,370.102971,919.314598
3592.577677,-10881.027347,296.082377,766.095498
3592.578007,-10584.944971,74.020594,0.000000
3592.578337,-10214.842000,0.000000,153.219100
3592.578667,-9622.677246,-148.041188,459.657299
3592.578997,-8734.430116,0.000000,612.876398
3592.579327,-8586.388927,444.123565,383.047749
3592.579656,-9326.594869,1184.329507,-995.924147
3592.579986,-9844.739029,1554.432478,-1608.800546
3592.580316,-10436.903782,1702.473667,-1838.629195
3592.580646,-10807.006753,1480.411884,-995.924147
3592.580976,-10362.883188,444.123565,76.609550
3592.581306,-9844.739029,-740.205942,1225.752797
3592.581636,-9252.574275,-592.164754,1838.629195
3592.581966,-9104.533087,-222.061783,2681.334243
3592.582295,-8956.491898,222.061783,1915.238745
3592.582625,-9548.656652,592.164754,1608.800546
3592.582955,-10362.883188,1332.370696,919.314598
3592.583285,-10584.944971,740.205942,1225.752797
3592.583615,-10732.986159,962.267725,536.266849
3592.583945,-10288.862594,740.205942,-229.828649
3592.584275,-9918.759623,518.144159,-1072.533697
3592.584604,-9548.656652,666.185348,-2145.067394
3592.584934,-9918.759623,1110.308913,-2757.943793
3592.585264,-9918.759623,666.185348,-2451.505594
3592.585594,-9474.636058,370.102971,-1455.581446
3592.585924,-8882.471304,0.000000,459.657299
3592.586254,-8882.471304,148.041188,1838.629195
3592.586584,-8956.491898,-222.061783,2451.505594
3592.586914,-9548.656652,0.000000,2451.505594
3592.587243,-10214.842000,444.123565,1455.581446
3592.587573,-10732.986159,666.185348,0.000000
3592.587903,-11177.109724,444.123565,0.000000
3592.588233,-11177.109724,518.144159,0.000000
3592.588563,-10436.903782,-444.123565,0.000000
3592.588893,-8956.491898,-666.185348,536.266849
3592.589223,-8512.368333,-296.082377,153.219100
3592.589552,-9030.512492,296.082377,0.000000
3592.589882,-9326.594869,814.226536,-1225.752797
3592.590212,-9622.677246,888.247130,-1991.848295
3592.590542,-9992.780217,740.205942,-2221.676944
3592.590872,-10955.047942,222.061783,-1072.533697
3592.591202,-10584.944971,-740.205942,383.047749
3592.591532,-9992.780217,-1406.391290,1762.019645
3592.591862,-9030.512492,-962.267725,2145.067394
3592.592191,-8660.409521,-1036.288319,2068.457845
3592.592521,-9400.615463,0.000000,2145.067394
3592.592851,-9844.739029,222.061783,1608.800546
3592.593181,-10288.862594,518.144159,1072.533697
3592.593511,-10510.924376,370.102971,919.314598
3592.593841,-10584.944971,222.061783,689.485948
3592.594171,-10214.842000,-222.061783,-383.047749
3592.594500,-9770.718434,-222.061783,-1608.800546
3592.594830,-9474.636058,0.000000,-2374.896044
3592.595160,-9474.636058,0.000000,-2374.896044
3592.595490,-9474.636058,-666.185348,-1762.019645
3592.595820,-8882.471304,-666.185348,-1225.752797
3592.596150,-8660.409521,-1110.308913,1378.971896
3592.596480,-8956.491898,-1184.329507,1991.848295
3592.596809,-9252.574275,-666.185348,2757.943793
3592.597139,-9844.739029,-444.123565,1991.848295
3592.597469,-10214.842000,296.082377,919.314598
3592.597799,-10732.986159,148.041188,306.438199
3592.598129,-11325.150913,148.041188,0.000000
3592.598459,-11029.068536,-148.041188,0.000000
3592.598789,-9992.780217,-888.247130,459.657299
3592.599119,-8660.409521,-1184.329507,766.095498
3592.599448,-8290.306550,-518.144159,229.828649
3592.599778,-9104.533087,370.102971,-153.219100
3592.600108,-10140.821405,888.247130,-1378.971896
3592.600438,-10807.006753,1036.288319,-1608.800546
3592.600768,-10584.944971,370.102971,-1378.971896
3592.601098,-10510.924376,-370.102971,-153.219100
3592.601428,-10362.883188,-740.205942,1149.143247
3592.601757,-9326.594869,-1406.391290,2451.505594
3592.602087,-9252.574275,-1110.308913,1991.848295
3592.602417,-9030.512492,-518.144159,1762.019645
3592.602747,-9474.636058,148.041188,1532.190996
3592.603077,-10140.821405,296.082377,1149.143247
3592.603407,-10584.944971,888.247130,1532.190996
3592.603737,-10732.986159,666.185348,919.314598
3592.604067,-10362.883188,592.164754,0.000000
3592.604396,-9918.759623,296.082377,-612.876398
3592.604726,-9622.677246,740.205942,-1608.800546
3592.605056,-9696.697840,518.144159,-2298.286494
3592.605386,-9770.718434,518.144159,-2451.505594
3592.605716,-9400.615463,74.020594,-1532.190996
3592.606046,-8882.471304,222.061783,612.876398
3592.606376,-8956.491898,0.000000,1762.019645
3592.606705,-9104.533087,74.020594,2451.505594
3592.607035,-9252.574275,370.102971,2451.505594
3592.607365,-9696.697840,888.247130,1762.019645
3592.607695,-10362.883188,1332.370696,842.705048
3592.608025,-11029.068536,1184.329507,0.000000
3592.608355,-11103.089130,814.226536,0.000000
3592.608685,-10362.883188,74.020594,153.219100
3592.609015,-9252.574275,296.082377,919.314598
3592.609344,-8586.388927,74.020594,229.828649
3592.609674,-8734.430116,814.226536,0.000000
3592.610004,-9326.594869,1554.432478,-689.485948
3592.610334,-10214.842000,2220.617826,-1072.533697
3592.610664,-10807.006753,1702.473667,-1608.800546
3592.610994,-10955.047942,962.267725,-1225.752797
3592.611324,-10436.903782,148.041188,459.657299
3592.611653,-9548.656652,-444.123565,1455.581446
3592.611983,-8586.388927,-888.247130,1991.848295
3592.612313,-8660.409521,-444.123565,2145.067394
3592.612643,-9474.636058,148.041188,1762.019645
3592.612973,-10214.842000,518.144159,1378.971896
3592.613303,-10584.944971,1036.288319,1762.019645
3592.613633,-10584.944971,814.226536,689.485948
3592.613962,-10807.006753,592.164754,536.266849
3592.614292,-10436.903782,-148.041188,153.219100
3592.614622,-9844.739029,222.061783,-383.047749
3592.614952,-9622.677246,148.041188,-1915.238745
3592.615282,-9548.656652,74.020594,-2528.115143
3592.615612,-9474.636058,74.020594,-2068.457845
3592.615942,-9252.574275,-296.082377,-536.266849
3592.616272,-9178.553681,-444.123565,766.095498
3592.616601,-9030.512492,-888.247130,2221.676944
3592.616931,-9400.615463,-370.102971,2451.505594
3592.617261,-10214.842000,-222.061783,1991.848295
3592.617591,-10436.903782,222.061783,1072.533697
3592.617921,-10584.944971,-296.082377,0.000000
3592.618251,-10732.986159,-296.082377,0.000000
3592.618581,-10584.944971,-444.123565,0.000000
3592.618910,-9548.656652,-444.123565,383.047749
3592.619240,-9252.574275,-1184.329507,766.095498
3592.619570,-8586.388927,-962.267725,0.000000
3592.619900,-9104.533087,0.000000,-383.047749
3592.620230,-9770.718434,444.123565,-919.314598
3592.620560,-10140.821405,444.123565,-1685.410096
3592.620890,-10658.965565,0.000000,-1608.800546
3592.621220,-10807.006753,-666.185348,-1072.533697
3592.621549,-10066.800811,-1554.432478,383.047749
3592.621879,-9474.636058,-1924.535449,1455.581446
3592.622209,-8808.450710,-1776.494261,2068.457845
3592.622539,-8734.430116,-1184.329507,2145.067394
3592.622869,-9326.594869,-370.102971,1149.143247
3592.623199,-9992.780217,-148.041188,1072.533697
3592.623529,-10436.903782,370.102971,1072.533697
3592.623858,-10584.944971,296.082377,842.705048
3592.624188,-11029.068536,74.020594,842.705048
3592.624518,-10436.903782,-666.185348,306.438199
3592.624848,-9622.677246,-740.205942,-995.924147
3592.625178,-9696.697840,-296.082377,-2221.676944
3592.625508,-9770.718434,-444.123565,-2068.457845
3592.625838,-9770.718434,-370.102971,-1685.410096
3592.626168,-9400.615463,-592.164754,0.000000
3592.626497,-8808.450710,-962.267725,1455.581446
3592.626827,-9030.512492,-592.164754,2528.115143
3592.627157,-9326.594869,-370.102971,2757.943793
3592.627487,-9474.636058,0.000000,1915.238745
3592.627817,-10140.821405,444.123565,612.876398
3592.628147,-10807.006753,444.123565,0.000000
3592.628477,-10955.047942,444.123565,-383.047749
3592.628806,-10584.944971,370.102971,-306.438199
3592.629136,-9770.718434,-148.041188,459.657299
3592.629466,-8808.450710,-444.123565,383.047749
3592.629796,-8586.388927,0.000000,0.000000
3592.630126,-9400.615463,962.267725,-689.485948
3592.630456,-9696.697840,1406.391290,-1455.581446
3592.630786,-10288.862594,1628.453072,-1762.019645
3592.631115,-10362.883188,888.247130,-1762.019645
3592.631445,-10436.903782,148.041188,-383.047749
3592.631775,-9844.739029,-518.144159,536.266849
3592.632105,-9252.574275,-814.226536,1915.238745
3592.632435,-8882.471304,-370.102971,1685.410096
3592.632765,-9326.594869,148.041188,1685.410096
3592.633095,-9400.615463,370.102971,1378.971896
3592.633425,-10288.862594,962.267725,1149.143247
3592.633754,-10436.903782,1110.308913,1762.019645
3592.634084,-10955.047942,666.185348,1378.971896
3592.634414,-10436.903782,222.061783,766.095498
3592.634744,-9622.677246,592.164754,-459.657299
3592.635074,-9770.718434,222.061783,-1225.752797
3592.635404,-9770.718434,444.123565,-2221.676944
3592.635734,-9844.739029,592.164754,-1532.190996
3592.636063,-9400.615463,148.041188,-919.314598
3592.636393,-8956.491898,0.000000,229.828649
3592.636723,-8882.471304,0.000000,1532.190996
3592.637053,-9178.553681,-148.041188,2298.286494
3592.637383,-9252.574275,74.020594,1991.848295
3592.637713,-10140.821405,222.061783,1072.533697
3592.638043,-10362.883188,740.205942,306.438199
3592.638373,-10807.006753,444.123565,0.000000
3592.638702,-10214.842000,296.082377,0.000000
3592.639032,-9992.780217,-370.102971,76.609550
3592.639362,-9252.574275,-518.144159,612.876398
3592.639692,-8734.430116,-370.102971,536.266849
3592.640022,-8882.471304,370.102971,536.266849
3592.640352,-9548.656652,888.247130,-842.705048
3592.640682,-10214.842000,1332.370696,-1991.848295
3592.641011,-10732.986159,888.247130,-2145.067394
3592.641341,-10510.924376,518.144159,-1838.629195
3592.641671,-10288.862594,-444.123565,-153.219100
3592.642001,-9622.677246,-592.164754,1149.143247
3592.642331,-8882.471304,-1184.329507,2374.896044
3592.642661,-8882.471304,-592.164754,1838.629195
3592.642991,-9474.636058,0.000000,1608.800546
3592.643321,-10362.883188,444.123565,995.924147
3592.643650,-10658.965565,814.226536,919.314598
3592.643980,-10807.006753,518.144159,1149.143247
3592.644310,-10732.986159,0.000000,1838.629195
3592.644640,-10436.903782,148.041188,842.705048
3592.644970,-9696.697840,-74.020594,-766.095498
3592.645300,-9770.718434,0.000000,-1838.629195
3592.645630,-9474.636058,0.000000,-1991.848295
3592.645959,-9548.656652,-296.082377,-1685.410096
3592.646289,-9474.636058,-148.041188,-306.438199
3592.646619,-9104.533087,-592.164754,766.095498
3592.646949,-9030.512492,-740.205942,2221.676944
3592.647279,-9474.636058,-518.144159,2451.505594
3592.647609,-9622.677246,-74.020594,1915.238745
3592.647939,-10510.924376,74.020594,1225.752797
3592.648268,-10955.047942,370.102971,153.219100
3592.648598,-10732.986159,0.000000,0.000000
3592.648928,-10436.903782,-518.144159,-383.047749
3592.649258,-9770.718434,-1184.329507,153.219100
3592.649588,-8882.471304,-814.226536,842.705048
3592.649918,-8438.347739,-666.185348,612.876398
3592.650248,-9030.512492,74.020594,0.000000
3592.650577,-9844.739029,518.144159,-1378.971896
3592.650907,-10510.924376,888.247130,-1762.019645
3592.651237,-10510.924376,296.082377,-1915.238745
3592.651567,-10807.006753,-222.061783,-689.485948
3592.651897,-9992.780217,-1184.329507,383.047749
3592.652227,-9030.512492,-1850.514855,1608.800546
3592.652556,-8734.430116,-1110.308913,1685.410096
3592.652886,-8956.491898,-592.164754,2221.676944
3592.653216,-9252.574275,0.000000,1225.752797
3592.653546,-10066.800811,518.144159,1149.143247
3592.653876,-10510.924376,592.164754,1302.362347
3592.654205,-10732.986159,296.082377,1378.971896
3592.654535,-10807.006753,148.041188,459.657299
3592.654865,-10140.821405,0.000000,0.000000
3592.655195,-10066.800811,296.082377,-995.924147
3592.655525,-9622.677246,148.041188,-2374.896044
3592.655855,-9548.656652,0.000000,-3064.381992
3592.656184,-9474.636058,-148.041188,-1838.629195
3592.656514,-9178.553681,-296.082377,-536.266849
3592.656844,-8808.450710,-148.041188,1378.971896
3592.657174,-8882.471304,-740.205942,2451.505594
3592.657504,-9252.574275,296.082377,2374.896044
3592.657834,-9844.739029,592.164754,1685.410096
3592.658163,-10658.965565,962.267725,766.095498
3592.658493,-11251.130318,740.205942,459.657299
3592.658823,-10955.047942,518.144159,76.609550
3592.659153,-10436.903782,0.000000,459.657299
3592.659483,-9474.636058,-74.020594,842.705048
3592.659812,-9104.533087,-222.061783,766.095498
3592.660142,-9030.512492,666.185348,306.438199
3592.660472,-9474.636058,1184.329507,-612.876398
3592.660802,-9918.759623,1554.432478,-1225.752797
3592.661132,-10214.842000,1406.391290,-1762.019645
3592.661462,-10955.047942,1110.308913,-1072.533697
3592.661791,-10436.903782,148.041188,-459.657299
3592.662121,-9992.780217,-444.123565,995.924147
3592.662451,-9030.512492,-666.185348,1608.800546
3592.662781,-8438.347739,-222.061783,2834.553343
3592.663111,-9178.553681,592.164754,2068.457845
3592.663440,-9918.759623,740.205942,1838.629195
3592.663770,-10436.903782,962.267725,1532.190996
3592.664100,-10732.986159,1036.288319,1302.362347
3592.664430,-10732.986159,740.205942,689.485948
3592.664760,-10214.842000,592.164754,459.657299
3592.665090,-9622.677246,296.082377,-229.828649
3592.665419,-9622.677246,666.185348,-1915.238745
3592.665749,-9548.656652,814.226536,-2757.943793
3592.666079,-9918.759623,666.185348,-2298.286494
3592.666409,-9696.697840,296.082377,-1302.362347
3592.666739,-9474.636058,74.020594,153.219100
3592.667068,-8882.471304,0.000000,1762.019645
3592.667398,-9104.533087,0.000000,2528.115143
3592.667728,-9622.677246,148.041188,2221.676944
3592.668058,-10140.821405,148.041188,1685.410096
3592.668388,-10288.862594,370.102971,229.828649
3592.668718,-10955.047942,296.082377,0.000000
3592.669047,-10584.944971,0.000000,229.828649
3592.669377,-10214.842000,-222.061783,306.438199
3592.669707,-9030.512492,-1036.288319,612.876398
3592.670037,-8586.388927,-518.144159,383.047749
3592.670367,-8956.491898,0.000000,-536.266849
3592.670697,-9400.615463,740.205942,-1225.752797
3592.671026,-9844.739029,740.205942,-1838.629195
3592.671356,-10214.842000,296.082377,-1915.238745
3592.671686,-10436.903782,0.000000,-1532.190996
3592.672016,-10288.862594,-962.267725,-383.047749
3592.672346,-9474.636058,-1554.432478,919.314598
3592.672675,-8438.347739,-1776.494261,1915.238745
3592.673005,-8882.471304,-1110.308913,1685.410096
3592.673335,-9104.533087,-592.164754,1378.971896
3592.673665,-9844.739029,0.000000,1072.533697
3592.673995,-10362.883188,222.061783,1149.143247
3592.674325,-11029.068536,148.041188,995.924147
3592.674654,-10658.965565,-296.082377,536.266849
3592.674984,-10362.883188,-518.144159,0.000000
3592.675314,-9918.759623,-370.102971,-689.485948
3592.675644,-9622.677246,-74.020594,-1762.019645
3592.675974,-9548.656652,-296.082377,-2451.505594
3592.676303,-9696.697840,-296.082377,-1991.848295
3592.676633,-9474.636058,-592.164754,-536.266849
3592.676963,-8956.491898,-296.082377,995.924147
3592.677293,-9326.594869,-666.185348,2451.505594
3592.677623,-9104.533087,-518.144159,2681.334243
3592.677953,-9770.718434,-222.061783,2374.896044
3592.678282,-9770.718434,74.020594,1455.581446
3592.678612,-11103.089130,296.082377,612.876398
3592.678942,-10955.047942,0.000000,536.266849
3592.679272,-10436.903782,-444.123565,612.876398
3592.679602,-9844.739029,-666.185348,1072.533697
3592.679932,-8882.471304,-888.247130,1072.533697
3592.680261,-8438.347739,-148.041188,459.657299
3592.680591,-9252.574275,666.185348,-842.705048
3592.680921,-9918.759623,962.267725,-1302.362347
3592.681251,-10066.800811,1258.350101,-1915.238745
3592.681581,-10584.944971,888.247130,-1838.629195
3592.681910,-10288.862594,0.000000,-1225.752797
3592.682240,-10140.821405,-518.144159,0.000000
3592.682570,-8956.491898,-666.185348,842.705048
3592.682900,-8586.388927,-740.205942,2145.067394
3592.683230,-8882.471304,0.000000,1915.238745
3592.683560,-9178.553681,296.082377,1378.971896
3592.683889,-10140.821405,518.144159,1455.581446
3592.684219,-10140.821405,592.164754,1455.581446
3592.684549,-10584.944971,740.205942,1225.752797
3592.684879,-10510.924376,592.164754,536.266849
3592.685209,-10066.800811,592.164754,0.000000
3592.685538,-9622.677246,222.061783,-1378.971896
3592.685868,-10140.821405,444.123565,-2528.115143
3592.686198,-9844.739029,666.185348,-2987.772442
3592.686528,-9844.739029,296.082377,-2528.115143
3592.686858,-8734.430116,222.061783,-1608.800546
3592.687188,-8660.409521,0.000000,842.705048
3592.687517,-8882.471304,0.000000,1762.019645
3592.687847,-9030.512492,518.144159,1991.848295
3592.688177,-9548.656652,370.102971,1455.581446
3592.688507,-10658.965565,888.247130,842.705048
3592.688837,-11399.171507,592.164754,919.314598
3592.689166,-11325.150913,444.123565,995.924147
3592.689496,-10955.047942,74.020594,842.705048
3592.689826,-9696.697840,-444.123565,1072.533697
3592.690156,-8512.368333,-592.164754,842.705048
3592.690486,-8734.430116,222.061783,0.000000
3592.690816,-9178.553681,740.205942,-919.314598
3592.691145,-9696.697840,1554.432478,-1608.800546
3592.691475,-10140.821405,1184.329507,-2068.457845
3592.691805,-10732.986159,518.144159,-1762.019645
3592.692135,-10362.883188,0.000000,-842.705048
3592.692465,-9992.780217,-592.164754,459.657299
3592.692795,-8956.491898,-1184.329507,1685.410096
3592.693124,-8438.347739,-1332.370696,1915.238745
3592.693454,-9030.512492,-518.144159,1838.629195
3592.693784,-9918.759623,148.041188,1532.190996
3592.694114,-10510.924376,74.020594,1915.238745
3592.694444,-10510.924376,148.041188,1838.629195
3592.694773,-11103.089130,444.123565,1149.143247
3592.695103,-10214.842000,0.000000,689.485948
3592.695433,-9696.697840,148.041188,-689.485948
3592.695763,-9548.656652,0.000000,-2451.505594
3592.696093,-9622.677246,0.000000,-2681.334243
3592.696423,-9622.677246,-148.041188,-3294.210641
3592.696752,-9400.615463,74.020594,-2145.067394
3592.697082,-8808.450710,-666.185348,-306.438199
3592.697412,-8882.471304,-740.205942,1455.581446
3592.697742,-9104.533087,-666.185348,2221.676944
3592.698072,-9548.656652,0.000000,2145.067394
3592.698401,-10288.862594,74.020594,1532.190996
3592.698731,-10807.006753,222.061783,383.047749
3592.699061,-11029.068536,0.000000,383.047749
3592.699391,-10881.027347,-518.144159,766.095498
3592.699721,-10214.842000,-666.185348,842.705048
3592.700051,-9474.636058,-814.226536,919.314598
3592.700380,-9104.533087,-444.123565,536.266849
3592.700710,-9030.512492,0.000000,-383.047749
3592.701040,-9548.656652,888.247130,-1072.533697
3592.701370,-9918.759623,814.226536,-2298.286494
3592.701700,-10140.821405,296.082377,-2374.896044
3592.702030,-10214.842000,-296.082377,-1378.971896
3592.702359,-9844.739029,-1258.350101,383.047749
3592.702689,-9104.533087,-1628.453072,1455.581446
3592.703019,-8364.327145,-1480.411884,2528.115143
3592.703349,-8586.388927,-962.267725,2374.896044
3592.703679,-9400.615463,-148.041188,2451.505594
3592.704008,-10288.862594,222.061783,1685.410096
3592.704338,-10807.006753,814.226536,1608.800546
3592.704668,-10955.047942,592.164754,1378.971896
3592.704998,-10658.965565,296.082377,766.095498
3592.705328,-9918.759623,222.061783,-153.219100
3592.705658,-9992.780217,296.082377,-1225.752797
3592.705987,-9696.697840,148.041188,-2528.115143
3592.706317,-9474.636058,74.020594,-3064.381992
3592.706647,-9030.512492,518.144159,-2451.505594
3592.706977,-8956.491898,0.000000,-612.876398
3592.707307,-8512.368333,-370.102971,1072.533697
3592.707636,-9030.512492,0.000000,2528.115143
3592.707966,-9252.574275,148.041188,2757.943793
3592.708296,-9918.759623,518.144159,2451.505594
3592.708626,-10658.965565,814.226536,1378.971896
3592.708956,-11399.171507,740.205942,766.095498
3592.709286,-11399.171507,666.185348,536.266849
3592.709615,-10658.965565,148.041188,383.047749
3592.709945,-9696.697840,-222.061783,689.485948
3592.710275,-8660.409521,0.000000,612.876398
3592.710605,-8364.327145,296.082377,-306.438199
3592.710935,-9104.533087,1332.370696,-1225.752797
3592.711264,-9770.718434,1628.453072,-2374.896044
3592.711594,-10140.821405,1702.473667,-2221.676944
3592.711924,-10436.903782,1184.329507,-2298.286494
3592.712254,-10288.862594,148.041188,-766.095498
3592.712584,-9844.739029,-592.164754,842.705048
3592.712914,-8882.471304,-962.267725,1685.410096
3592.713243,-8734.430116,-814.226536,2451.505594
3592.713573,-9104.533087,-222.061783,2298.286494
3592.713903,-9844.739029,222.061783,2145.067394
3592.714233,-10362.883188,888.247130,2068.457845
3592.714563,-11103.089130,1110.308913,1762.019645
3592.714893,-10955.047942,814.226536,1302.362347
3592.715222,-10288.862594,888.247130,229.828649
3592.715552,-9844.739029,518.144159,-229.828649
3592.715882,-9696.697840,444.123565,-1838.629195
3592.716212,-10066.800811,518.144159,-2604.724693
3592.716542,-9918.759623,888.247130,-2757.943793
3592.716871,-9622.677246,148.041188,-2068.457845
3592.717201,-9104.533087,0.000000,-383.047749
3592.717531,-8956.491898,-444.123565,1455.581446
3592.717861,-9326.594869,-74.020594,2681.334243
3592.718191,-8956.491898,0.000000,2451.505594
3592.718521,-9770.718434,148.041188,1838.629195
3592.718850,-10510.924376,592.164754,1149.143247
3592.719180,-11325.150913,592.164754,1225.752797
3592.719510,-10881.027347,370.102971,919.314598
3592.719840,-10584.944971,-296.082377,536.266849
3592.720170,-9548.656652,-666.185348,153.219100
3592.720499,-8734.430116,-370.102971,0.000000
3592.720829,-8290.306550,222.061783,-766.095498
3592.721159,-9548.656652,666.185348,-1455.581446
3592.721489,-9844.739029,1110.308913,-2451.505594
3592.721819,-9844.739029,740.205942,-2451.505594
3592.722149,-10214.842000,370.102971,-1915.238745
3592.722478,-10288.862594,-592.164754,-612.876398
3592.722808,-9770.718434,-1554.432478,766.095498
3592.723138,-8882.471304,-1554.432478,1915.238745
3592.723468,-8660.409521,-1332.370696,2681.334243
3592.723798,-9178.553681,-666.185348,2681.334243
3592.724128,-9770.718434,-296.082377,1838.629195
3592.724457,-10288.862594,296.082377,995.924147
3592.724787,-10807.006753,222.061783,919.314598
3592.725117,-10362.883188,222.061783,842.705048
3592.725447,-10066.800811,-296.082377,153.219100
3592.725777,-9770.718434,-74.020594,-842.705048
3592.726106,-9770.718434,-296.082377,-2298.286494
3592.726436,-9622.677246,0.000000,-2911.162892
3592.726766,-9474.636058,-444.123565,-3140.991542
3592.727096,-9104.533087,-518.144159,-1608.800546
3592.727426,-9104.533087,-592.164754,536.266849
3592.727756,-9326.594869,-814.226536,2221.676944
3592.728085,-9326.594869,-444.123565,2681.334243
3592.728415,-9622.677246,-296.082377,2528.115143
3592.728745,-10362.883188,0.000000,1608.800546
3592.729075,-10881.027347,0.000000,1072.533697
3592.729405,-11251.130318,74.020594,383.047749
3592.729734,-10881.027347,-370.102971,153.219100
3592.730064,-10066.800811,-888.247130,306.438199
3592.730394,-9178.553681,-888.247130,536.266849
3592.730724,-8586.388927,74.020594,-612.876398
3592.731054,-8956.491898,222.061783,-766.095498
3592.731384,-9400.615463,962.267725,-1455.581446
3592.731713,-10436.903782,1184.329507,-1838.629195
3592.732043,-10436.903782,592.164754,-1685.410096
3592.732373,-10510.924376,0.000000,-1072.533697
3592.732703,-10362.883188,-592.164754,383.047749
3592.733033,-9474.636058,-1332.370696,1991.848295
3592.733362,-8882.471304,-1406.391290,2451.505594
3592.733692,-8512.368333,-518.144159,2757.943793
3592.734022,-9252.574275,0.000000,1915.238745
3592.734352,-10214.842000,518.144159,1685.410096
3592.734682,-10584.944971,888.247130,1838.629195
3592.735012,-10881.027347,888.247130,1762.019645
3592.735341,-10658.965565,592.164754,229.828649
3592.735671,-10066.800811,518.144159,-459.657299
3592.736001,-9548.656652,370.102971,-1762.019645
3592.736331,-9622.677246,370.102971,-2911.162892
3592.736661,-9474.636058,370.102971,-3064.381992
3592.736991,-9474.636058,222.061783,-2451.505594
3592.737320,-9252.574275,74.020594,-842.705048
3592.737650,-8882.471304,-74.020594,689.485948
3592.737980,-8290.306550,-222.061783,2145.067394
3592.738310,-9030.512492,74.020594,2604.724693
3592.738640,-9844.739029,666.185348,2451.505594
3592.738969,-10362.883188,814.226536,1532.190996
3592.739299,-11473.192101,518.144159,1149.143247
3592.739629,-11399.171507,666.185348,0.000000
3592.739959,-11103.089130,296.082377,0.000000
3592.740289,-10288.862594,-74.020594,76.609550
3592.740619,-8956.491898,-148.041188,0.000000
3592.740948,-8586.388927,222.061783,-612.876398
3592.741278,-9178.553681,888.247130,-1455.581446
3592.741608,-9622.677246,1184.329507,-2298.286494
3592.741938,-10066.800811,1258.350101,-2451.505594
3592.742268,-10288.862594,518.144159,-1608.800546
3592.742597,-10214.842000,0.000000,-612.876398
3592.742927,-9548.656652,-1110.308913,1149.143247
3592.743257,-9104.533087,-1406.391290,2451.505594
3592.743587,-8364.327145,-1258.350101,2834.553343
3592.743917,-9104.533087,-222.061783,1915.238745
3592.744247,-9844.739029,222.061783,1762.019645
3592.744576,-10658.965565,666.185348,1762.019645
3592.744906,-10881.027347,148.041188,1378.971896
3592.745236,-11029.068536,296.082377,1149.143247
3592.745566,-10140.821405,0.000000,689.485948
3592.745896,-9548.656652,-222.061783,-842.705048
3592.746226,-9400.615463,0.000000,-1991.848295
3592.746555,-9474.636058,0.000000,-2604.724693
3592.746885,-9770.718434,0.000000,-2834.553343
3592.747215,-9474.636058,-370.102971,-1608.800546
3592.747545,-9326.594869,-370.102971,306.438199
3592.747875,-9104.533087,-962.267725,2145.067394
3592.748204,-9252.574275,-592.164754,3524.039291
3592.748534,-9918.759623,-148.041188,3064.381992
3592.748864,-10140.821405,0.000000,2298.286494
3592.749194,-10732.986159,0.000000,1378.971896
3592.749524,-11325.150913,148.041188,306.438199
3592.749853,-11103.089130,148.041188,229.828649
3592.750183,-10362.883188,-592.164754,229.828649
3592.750513,-9104.533087,-962.267725,0.000000
3592.750843,-8216.285956,-740.205942,0.000000
3592.751173,-8364.327145,0.000000,-842.705048
3592.751502,-9474.636058,1036.288319,-1685.410096
3592.751832,-9844.739029,1184.329507,-2451.505594
3592.752162,-10658.965565,1110.308913,-2681.334243
3592.752492,-10362.883188,0.000000,-1608.800546
3592.752821,-10140.821405,-666.185348,-306.438199
3592.753151,-9844.739029,-1406.391290,1378.971896
3592.753481,-8956.491898,-962.267725,1762.019645
3592.753811,-8586.388927,-1110.308913,2068.457845
3592.754141,-9474.636058,0.000000,1608.800546
3592.754470,-9844.739029,222.061783,1762.019645
3592.754800,-10510.924376,740.205942,1455.581446
3592.755130,-10436.903782,592.164754,1225.752797
3592.755460,-10436.903782,148.041188,536.266849
3592.755790,-9844.739029,0.000000,0.000000
3592.756119,-9770.718434,74.020594,-1225.752797
3592.756449,-9844.739029,518.144159,-2451.505594
3592.756779,-9400.615463,222.061783,-2681.334243
3592.757109,-9326.594869,222.061783,-2145.067394
3592.757438,-9252.574275,0.000000,-536.266849
3592.757768,-8808.450710,-444.123565,1455.581446
3592.758098,-9104.533087,-296.082377,2604.724693
3592.758428,-9400.615463,0.000000,2911.162892
3592.758758,-9770.718434,148.041188,2451.505594
3592.759087,-10584.944971,666.185348,1608.800546
3592.759417,-11251.130318,666.185348,842.705048
3592.759747,-11399.171507,666.185348,153.219100
3592.760077,-10658.965565,0.000000,229.828649
3592.760407,-9918.759623,-444.123565,459.657299
3592.760736,-8882.471304,-444.123565,766.095498
3592.761066,-8734.430116,0.000000,0.000000
3592.761396,-9030.512492,740.205942,-842.705048
3592.761726,-9474.636058,1110.308913,-1225.752797
3592.762055,-9844.739029,888.247130,-1915.238745
3592.762385,-10584.944971,888.247130,-1455.581446
3592.762715,-10214.842000,222.061783,-766.095498
3592.763045,-9992.780217,-666.185348,459.657299
3592.763375,-9104.533087,-814.226536,1455.581446
3592.763704,-8734.430116,-666.185348,1991.848295
3592.764034,-9178.553681,-74.020594,2068.457845
3592.764364,-9770.718434,518.144159,1455.581446
3592.764694,-10140.821405,814.226536,1378.971896
3592.765024,-10658.965565,1110.308913,1532.190996
3592.765353,-10807.006753,962.267725,689.485948
3592.765683,-10584.944971,666.185348,229.828649
3592.766013,-9918.759623,518.144159,-306.438199
3592.766343,-9770.718434,296.082377,-1608.800546
3592.766672,-9918.759623,666.185348,-2451.505594
3592.767002,-10066.800811,666.185348,-2604.724693
3592.767332,-9474.636058,74.020594,-1685.410096
3592.767662,-8660.409521,-370.102971,153.219100
3592.767992,-8956.491898,-666.185348,2068.457845
3592.768321,-8956.491898,-666.185348,3217.601092
3592.768651,-9104.533087,-370.102971,2834.553343
3592.768981,-9548.656652,74.020594,2221.676944
3592.769311,-10362.883188,444.123565,689.485948
3592.769641,-10881.027347,148.041188,612.876398
3592.769970,-10955.047942,74.020594,0.000000
3592.770300,-10362.883188,-296.082377,0.000000
3592.770630,-9474.636058,-666.185348,0.000000
3592.770960,-8290.306550,-888.247130,0.000000
3592.771289,-8364.327145,0.000000,-689.485948
3592.771619,-9104.533087,592.164754,-1302.362347
3592.771949,-9400.615463,1110.308913,-2221.676944
3592.772279,-9622.677246,592.164754,-2298.286494
3592.772609,-9918.759623,222.061783,-1838.629195
3592.772938,-10362.883188,-518.144159,-76.609550
3592.773268,-9696.697840,-888.247130,919.314598
3592.773598,-9252.574275,-1110.308913,1532.190996
3592.773928,-8956.491898,-888.247130,1991.848295
3592.774258,-9474.636058,-148.041188,1915.238745
3592.774587,-10214.842000,0.000000,1378.971896
3592.774917,-10658.965565,148.041188,1225.752797
3592.775247,-10584.944971,148.041188,1149.143247
3592.775577,-10658.965565,0.000000,842.705048
3592.775906,-10362.883188,74.020594,0.000000
3592.776236,-9918.759623,0.000000,-1072.533697
3592.776566,-9918.759623,148.041188,-1838.629195
3592.776896,-10066.800811,148.041188,-2374.896044
3592.777226,-9622.677246,0.000000,-2374.896044
3592.777555,-9844.739029,-222.061783,-536.266849
3592.777885,-9030.512492,-592.164754,689.485948
3592.778215,-8956.491898,-888.247130,2374.896044
3592.778545,-8956.491898,-740.205942,2987.772442
3592.778875,-9474.636058,-148.041188,2528.115143
3592.779204,-9918.759623,222.061783,2145.067394
3592.779534,-10658.965565,518.144159,689.485948
3592.779864,-11029.068536,296.082377,153.219100
3592.780194,-10955.047942,74.020594,0.000000
3592.780523,-9696.697840,-296.082377,459.657299
3592.780853,-8882.471304,-814.226536,229.828649
3592.781183,-8512.368333,-296.082377,0.000000
3592.781513,-8882.471304,370.102971,-766.095498
3592.781843,-9252.574275,1036.288319,-1149.143247
3592.782172,-9918.759623,1110.308913,-1991.848295
3592.782502,-10510.924376,888.247130,-1685.410096
3592.782832,-10510.924376,0.000000,-766.095498
3592.783162,-10362.883188,-592.164754,0.000000
3592.783492,-9474.636058,-1184.329507,1762.019645
3592.783821,-8808.450710,-1110.308913,2068.457845
3592.784151,-9030.512492,-444.123565,2145.067394
3592.784481,-9326.594869,74.020594,1991.848295
3592.784811,-10140.821405,592.164754,1378.971896
3592.785140,-10510.924376,888.247130,1378.971896
3592.785470,-10807.006753,814.226536,766.095498
3592.785800,-10807.006753,666.185348,842.705048
3592.786130,-10214.842000,518.144159,153.219100
3592.786460,-9844.739029,296.082377,-1302.362347
3592.786789,-9696.697840,222.061783,-2451.505594
3592.787119,-9696.697840,370.102971,-2757.943793
3592.787449,-9474.636058,444.123565,-2145.067394
3592.787779,-8956.491898,0.000000,-459.657299
3592.788108,-8956.491898,0.000000,1532.190996
3592.788438,-9030.512492,-296.082377,2987.772442
3592.788768,-9474.636058,0.000000,2911.162892
3592.789098,-9844.739029,0.000000,2298.286494
3592.789428,-10436.903782,518.144159,995.924147
3592.789757,-10955.047942,370.102971,153.219100
3592.790087,-11251.130318,518.144159,0.000000
3592.790417,-10658.965565,148.041188,-842.705048
3592.790747,-9992.780217,-74.020594,459.657299
3592.791077,-8956.491898,-444.123565,229.828649
3592.791406,-8734.430116,74.020594,-459.657299
3592.791736,-9326.594869,1184.329507,-766.095498
3592.792066,-9474.636058,962.267725,-2068.457845
3592.792396,-10140.821405,1184.329507,-2451.505594
3592.792725,-10362.883188,666.185348,-1991.848295
3592.793055,-10288.862594,74.020594,-1072.533697
3592.793385,-9770.718434,-814.226536,76.609550
3592.793715,-9252.574275,-1406.391290,1838.629195
3592.794045,-8808.450710,-1110.308913,2298.286494
3592.794374,-8956.491898,-740.205942,2451.505594
3592.794704,-9474.636058,222.061783,2298.286494
3592.795034,-10362.883188,148.041188,1455.581446
3592.795364,-10510.924376,444.123565,1149.143247
3592.795694,-10881.027347,296.082377,536.266849
3592.796023,-10584.944971,518.144159,306.438199
3592.796353,-9992.780217,0.000000,-536.266849
3592.796683,-9918.759623,518.144159,-1838.629195
3592.797013,-9992.780217,370.102971,-3064.381992
3592.797342,-9696.697840,222.061783,-3140.991542
3592.797672,-9400.615463,-148.041188,-1608.800546
3592.798002,-9178.553681,-518.144159,76.609550
3592.798332,-9030.512492,-740.205942,2068.457845
3592.798662,-9178.553681,-888.247130,3370.820191
3592.798991,-9326.594869,-592.164754,2987.772442
3592.799321,-9844.739029,0.000000,2298.286494
3592.799651,-10510.924376,0.000000,995.924147
3592.799981,-11325.150913,222.061783,612.876398
3592.800311,-11547.212695,0.000000,306.438199
3592.800640,-10510.924376,-666.185348,306.438199
3592.800970,-9474.636058,-1036.288319,459.657299
3592.801300,-8438.347739,-814.226536,153.219100
3592.801630,-8364.327145,0.000000,0.000000
3592.801959,-9178.553681,444.123565,-1455.581446
3592.802289,-9622.677246,888.247130,-2068.457845
3592.802619,-10066.800811,592.164754,-1762.019645
3592.802949,-10436.903782,296.082377,-842.705048
3592.803279,-10436.903782,-370.102971,0.000000
3592.803608,-10214.842000,-888.247130,842.705048
3592.803938,-9252.574275,-1184.329507,1608.800546
3592.804268,-8808.450710,-962.267725,2145.067394
3592.804598,-9548.656652,0.000000,2221.676944
3592.804928,-10214.842000,222.061783,1991.848295
3592.805257,-10288.862594,592.164754,1378.971896
3592.805587,-10436.903782,592.164754,536.266849
3592.805917,-10510.924376,518.144159,1072.533697
3592.806247,-10140.821405,518.144159,0.000000
3592.806576,-9770.718434,148.041188,-612.876398
3592.806906,-9548.656652,222.061783,-1838.629195
3592.807236,-9770.718434,740.205942,-2374.896044
3592.807566,-9696.697840,74.020594,-1991.848295
3592.807896,-9400.615463,0.000000,-383.047749
3592.808225,-9178.553681,-370.102971,1378.971896
3592.808555,-9326.594869,-296.082377,3217.601092
3592.808885,-9474.636058,74.020594,3294.210641
3592.809215,-9548.656652,148.041188,2528.115143
3592.809545,-10436.903782,814.226536,1149.143247
3592.809874,-10732.986159,888.247130,306.438199
3592.810204,-10955.047942,592.164754,0.000000
3592.810534,-11029.068536,370.102971,306.438199
3592.810864,-10214.842000,0.000000,536.266849
3592.811193,-9104.533087,-592.164754,229.828649
3592.811523,-8364.327145,-222.061783,-383.047749
3592.811853,-8734.430116,592.164754,-689.485948
3592.812183,-9326.594869,1036.288319,-1685.410096
3592.812513,-10140.821405,1480.411884,-1685.410096
3592.812842,-10066.800811,888.247130,-1915.238745
3592.813172,-10288.862594,370.102971,-612.876398
3592.813502,-9622.677246,-592.164754,612.876398
3592.813832,-9104.533087,-740.205942,1838.629195
3592.814162,-8808.450710,-814.226536,2068.457845
3592.814491,-8512.368333,-1036.288319,2221.676944
3592.814821,-9400.615463,444.123565,1532.190996
3592.815151,-10288.862594,592.164754,1455.581446
3592.815481,-10955.047942,1258.350101,919.314598
3592.815810,-10436.903782,592.164754,919.314598
3592.816140,-10436.903782,592.164754,229.828649
3592.816470,-10214.842000,370.102971,-536.266849
3592.816800,-9622.677246,370.102971,-1225.752797
3592.817130,-9918.759623,814.226536,-2374.896044
3592.817459,-9548.656652,518.144159,-2681.334243
3592.817789,-9622.677246,222.061783,-1762.019645
3592.818119,-9326.594869,0.000000,0.000000
3592.818449,-9252.574275,-296.082377,1455.581446
3592.818779,-9030.512492,-370.102971,2987.772442
3592.819108,-9400.615463,-296.082377,2987.772442
3592.819438,-9918.759623,148.041188,1991.848295
3592.819768,-10881.027347,518.144159,1072.533697
3592.820098,-11029.068536,370.102971,919.314598
3592.820427,-11103.089130,0.000000,306.438199
3592.820757,-10436.903782,-444.123565,306.438199
3592.821087,-9474.636058,-666.185348,383.047749
3592.821417,-8438.347739,-740.205942,306.438199
3592.821747,-8512.368333,-370.102971,-383.047749
3592.822076,-9474.636058,592.164754,-1225.752797
3592.822406,-9696.697840,814.226536,-2374.896044
3592.822736,-10140.821405,962.267725,-2528.115143
3592.823066,-10214.842000,296.082377,-2221.676944
3592.823395,-10214.842000,-666.185348,-689.485948
3592.823725,-9844.739029,-1036.288319,536.266849
3592.824055,-8956.491898,-1480.411884,1532.190996
3592.824385,-8438.347739,-888.247130,1302.362347
3592.824715,-9178.553681,-518.144159,1608.800546
3592.825044,-9696.697840,0.000000,1378.971896
3592.825374,-10362.883188,296.082377,1455.581446
3592.825704,-10584.944971,814.226536,1072.533697
3592.826034,-10881.027347,74.020594,919.314598
3592.826364,-10436.903782,0.000000,383.047749
3592.826693,-10066.800811,0.000000,-766.095498
3592.827023,-10066.800811,0.000000,-1838.629195
3592.827353,-9622.677246,296.082377,-2451.505594
3592.827683,-9918.759623,0.000000,-2451.505594
3592.828012,-9474.636058,-370.102971,-919.314598
3592.828342,-8956.491898,-740.205942,536.266849
3592.828672,-8586.388927,-740.205942,1762.019645
3592.829002,-8734.430116,-592.164754,2987.772442
3592.829332,-9178.553681,-74.020594,2757.943793
3592.829661,-10288.862594,444.123565,1455.581446
3592.829991,-11029.068536,740.205942,689.485948
3592.830321,-11621.233289,518.144159,536.266849
3592.830651,-11251.130318,148.041188,0.000000
3592.830981,-10510.924376,-370.102971,0.000000
3592.831310,-9178.553681,-740.205942,612.876398
3592.831640,-8364.327145,-666.185348,153.219100
3592.831970,-8290.306550,0.000000,-689.485948
3592.832300,-9252.574275,962.267725,-1072.533697
3592.832629,-9696.697840,1332.370696,-1838.629195
3592.832959,-10510.924376,1480.411884,-1991.848295
3592.833289,-10584.944971,444.123565,-1225.752797
3592.833619,-10584.944971,-222.061783,0.000000
3592.833949,-9844.739029,-888.247130,1302.362347
3592.834278,-9030.512492,-888.247130,1838.629195
3592.834608,-8882.471304,-518.144159,1915.238745
3592.834938,-9474.636058,0.000000,1608.800546
3592.835268,-9844.739029,74.020594,1532.190996
3592.835598,-10362.883188,814.226536,995.924147
3592.835927,-10658.965565,592.164754,689.485948
3592.836257,-10436.903782,592.164754,306.438199
3592.836587,-9992.780217,74.020594,-383.047749
3592.836917,-9548.656652,370.102971,-1378.971896
3592.837246,-9696.697840,592.164754,-1838.629195
3592.837576,-9844.739029,370.102971,-2757.943793
3592.837906,-9548.656652,0.000000,-2145.067394
3592.838236,-9252.574275,-370.102971,-766.095498
3592.838566,-8882.471304,0.000000,1072.533697
3592.838895,-9104.533087,-666.185348,2528.115143
3592.839225,-9104.533087,-222.061783,3217.601092
3592.839555,-9770.718434,222.061783,2528.115143
3592.839885,-10362.883188,740.205942,1149.143247
3592.840215,-11029.068536,814.226536,0.000000
3592.840544,-11473.192101,666.185348,0.000000
3592.840874,-10732.986159,222.061783,-153.219100
3592.841204,-9844.739029,-222.061783,0.000000
3592.841534,-8660.409521,-518.144159,459.657299
3592.841863,-8512.368333,0.000000,0.000000
3592.842193,-8660.409521,222.061783,-842.705048
3592.842523,-9548.656652,888.247130,-1302.362347
3592.842853,-9844.739029,1184.329507,-2528.115143
3592.843183,-10362.883188,666.185348,-1302.362347
3592.843512,-10288.862594,-148.041188,-459.657299
3592.843842,-10362.883188,-740.205942,229.828649
3592.844172,-9400.615463,-1036.288319,1685.410096
3592.844502,-8438.347739,-1184.329507,1838.629195
3592.844832,-8364.327145,-740.205942,1685.410096
3592.845161,-9252.574275,0.000000,1302.362347
3592.845491,-10362.883188,296.082377,1302.362347
3592.845821,-10584.944971,888.247130,842.705048
3592.846151,-10584.944971,296.082377,536.266849
3592.846480,-10510.924376,296.082377,0.000000
3592.846810,-9918.759623,0.000000,-919.314598
3592.847140,-9622.677246,0.000000,-1915.238745
3592.847470,-9770.718434,148.041188,-2681.334243
3592.847800,-9918.759623,-148.041188,-2451.505594
3592.848129,-9474.636058,0.000000,-1685.410096
3592.848459,-8956.491898,-592.164754,-153.219100
3592.848789,-8882.471304,-592.164754,1685.410096
3592.849119,-9178.553681,-518.144159,2528.115143
3592.849449,-9474.636058,0.000000,2834.553343
3592.849779,-10214.842000,222.061783,1915.238745
3592.850109,-10955.047942,370.102971,689.485948
3592.850439,-11399.171507,148.041188,-229.828649
3592.850769,-11103.089130,0.000000,-153.219100
3592.851099,-10214.842000,-740.205942,0.000000
3592.851429,-9252.574275,-740.205942,459.657299
3592.851758,-8290.306550,-592.164754,536.266849
3592.852088,-8216.285956,0.000000,0.000000
3592.852418,-9474.636058,962.267725,-842.705048
3592.852748,-9992.780217,1406.391290,-1685.410096
3592.853078,-10288.862594,1110.308913,-1685.410096
3592.853408,-10658.965565,444.123565,-1149.143247
3592.853738,-10436.903782,-370.102971,0.000000
3592.854068,-10214.842000,-740.205942,1455.581446
3592.854398,-9104.533087,-1110.308913,1838.629195
3592.854728,-8660.409521,-814.226536,1838.629195
3592.855057,-9252.574275,-74.020594,2221.676944
3592.855387,-9696.697840,296.082377,1608.800546
3592.855717,-10362.883188,888.247130,1378.971896
3592.856047,-10436.903782,814.226536,1225.752797
3592.856377,-10584.944971,888.247130,842.705048
3592.856707,-10288.862594,518.144159,306.438199
3592.857037,-9474.636058,740.205942,-766.095498
3592.857367,-9770.718434,148.041188,-1608.800546
3592.857697,-9622.677246,444.123565,-2451.505594
3592.858027,-9548.656652,74.020594,-1991.848295
3592.858357,-9178.553681,518.144159,-459.657299
3592.858686,-8882.471304,0.000000,1302.362347
3592.859016,-8882.471304,0.000000,2834.553343
3592.859346,-9326.594869,370.102971,2911.162892
3592.859676,-9696.697840,444.123565,2374.896044
3592.860006,-10436.903782,962.267725,1378.971896
3592.860336,-11029.068536,814.226536,612.876398
3592.860666,-11251.130318,592.164754,-229.828649
3592.860996,-10658.965565,444.123565,0.000000
3592.861326,-9770.718434,-222.061783,76.609550
3592.861656,-8956.491898,-370.102971,689.485948
3592.861985,-8364.327145,-74.020594,536.266849
3592.862315,-9030.512492,814.226536,-153.219100
3592.862645,-9326.594869,962.267725,-1302.362347
3592.862975,-10140.821405,1480.411884,-1685.410096
3592.863305,-10732.986159,1036.288319,-1762.019645
3592.863635,-10658.965565,148.041188,-1149.143247
3592.863965,-10362.883188,0.000000,76.609550
3592.864295,-9400.615463,-1184.329507,766.095498
3592.864625,-8660.409521,-1110.308913,1072.533697
3592.864955,-8808.450710,-740.205942,1378.971896
3592.865285,-9326.594869,0.000000,842.705048
3592.865614,-10066.800811,370.102971,1302.362347
3592.865944,-10436.903782,666.185348,842.705048
3592.866274,-10584.944971,444.123565,459.657299
3592.866604,-10288.862594,148.041188,229.828649
3592.866934,-9844.739029,222.061783,0.000000
3592.867264,-9918.759623,0.000000,-1225.752797
3592.867594,-9918.759623,74.020594,-2221.676944
3592.867924,-9844.739029,0.000000,-2451.505594
3592.868254,-9548.656652,0.000000,-1532.190996
3592.868584,-9252.574275,-666.185348,0.000000
3592.868913,-8956.491898,-740.205942,1455.581446
3592.869243,-8734.430116,-740.205942,2528.115143
3592.869573,-9030.512492,0.000000,2451.505594
3592.869903,-9770.718434,74.020594,1762.019645
3592.870233,-10510.924376,444.123565,306.438199
3592.870563,-11177.109724,518.144159,-76.609550
3592.870893,-10955.047942,0.000000,0.000000
3592.871223,-10807.006753,0.000000,-76.609550
3592.871553,-9548.656652,-888.247130,383.047749
3592.871883,-8734.430116,-666.185348,689.485948
3592.872212,-8586.388927,-74.020594,459.657299
3592.872542,-9400.615463,666.185348,-536.266849
3592.872872,-9918.759623,1258.350101,-1072.533697
3592.873202,-10140.821405,962.267725,-1532.190996
3592.873532,-10658.965565,592.164754,-1302.362347
3592.873862,-10584.944971,-148.041188,-689.485948
3592.874192,-10140.821405,-1036.288319,76.609550
3592.874522,-9178.553681,-962.267725,1302.362347
3592.874852,-8734.430116,-1036.288319,1915.238745
3592.875182,-8956.491898,-518.144159,1685.410096
3592.875512,-9326.594869,148.041188,1072.533697
3592.875841,-9992.780217,518.144159,1302.362347
3592.876171,-10436.903782,814.226536,766.095498
3592.876501,-10807.006753,666.185348,536.266849
3592.876831,-10510.924376,518.144159,76.609550
3592.877161,-9918.759623,74.020594,76.609550
3592.877491,-9992.780217,518.144159,-1302.362347
3592.877821,-9474.636058,0.000000,-2681.334243
3592.878151,-9770.718434,370.102971,-2451.505594
3592.878481,-9548.656652,-370.102971,-1455.581446
3592.878811,-9474.636058,-518.144159,229.828649
3592.879140,-9030.512492,-370.102971,2374.896044
3592.879470,-8882.471304,-518.144159,2757.943793
3592.879800,-9104.533087,0.000000,2451.505594
3592.880130,-9844.739029,148.041188,842.705048
3592.880460,-10510.924376,518.144159,0.000000
3592.880790,-11251.130318,444.123565,0.000000
3592.881120,-10658.965565,222.061783,0.000000
3592.881450,-10732.986159,-148.041188,689.485948
3592.881780,-9770.718434,-592.164754,689.485948
3592.882110,-8586.388927,-518.144159,536.266849
3592.882440,-8512.368333,370.102971,-612.876398
3592.882769,-9474.636058,666.185348,-1072.533697
3592.883099,-10140.821405,1036.288319,-1532.190996
3592.883429,-10510.924376,888.247130,-1302.362347
3592.883759,-10362.883188,74.020594,-842.705048
3592.884089,-10288.862594,-370.102971,-76.609550
3592.884419,-9918.759623,-1332.370696,766.095498
3592.884749,-8956.491898,-1332.370696,1225.752797
3592.885079,-8660.409521,-962.267725,1838.629195
3592.885409,-8882.471304,-148.041188,2145.067394
3592.885739,-9548.656652,222.061783,1685.410096
3592.886068,-10288.862594,740.205942,1378.971896
3592.886398,-10658.965565,666.185348,1149.143247
3592.886728,-10140.821405,592.164754,612.876398
3592.887058,-10362.883188,444.123565,76.609550
3592.887388,-10066.800811,444.123565,-306.438199
3592.887718,-10140.821405,518.144159,-1608.800546
3592.888048,-10214.842000,814.226536,-3447.429741
3592.888378,-9918.759623,74.020594,-2451.505594
3592.888708,-9400.615463,0.000000,-1608.800546
3592.889038,-9104.533087,0.000000,229.828649
3592.889367,-9030.512492,-666.185348,2298.286494
3592.889697,-8882.471304,0.000000,2757.943793
3592.890027,-9326.594869,0.000000,2145.067394
3592.890357,-10140.821405,518.144159,919.314598
3592.890687,-10732.986159,592.164754,76.609550
3592.891017,-11103.089130,296.082377,383.047749
3592.891347,-10732.986159,0.000000,536.266849
3592.891677,-10140.821405,-444.123565,842.705048
3592.892007,-9178.553681,-666.185348,995.924147
3592.892337,-8142.265362,-370.102971,689.485948
3592.892667,-8808.450710,444.123565,-229.828649
3592.892996,-9770.718434,1406.391290,-1762.019645
3592.893326,-10214.842000,1332.370696,-1838.629195
3592.893656,-10436.903782,962.267725,-1685.410096
3592.893986,-10510.924376,222.061783,-1149.143247
3592.894316,-9992.780217,-370.102971,-229.828649
3592.894646,-9104.533087,-1258.350101,459.657299
3592.894976,-8586.388927,-1258.350101,766.095498
3592.895306,-8216.285956,-1332.370696,1302.362347
3592.895636,-8882.471304,-222.061783,1225.752797
3592.895966,-9400.615463,222.061783,1455.581446
3592.896295,-10066.800811,592.164754,1302.362347
3592.896625,-10584.944971,518.144159,1532.190996
3592.896955,-10807.006753,74.020594,689.485948
3592.897285,-10510.924376,0.000000,76.609550
3592.897615,-9992.780217,148.041188,-1072.533697
3592.897945,-9918.759623,148.041188,-2145.067394
3592.898275,-9918.759623,74.020594,-2374.896044
3592.898605,-9844.739029,0.000000,-2068.457845
3592.898935,-9326.594869,0.000000,-689.485948
3592.899265,-8660.409521,-444.123565,842.705048
3592.899595,-8882.471304,-666.185348,1915.238745
3592.899924,-9178.553681,0.000000,2374.896044
3592.900254,-9844.739029,222.061783,2451.505594
3592.900584,-10436.903782,444.123565,1072.533697
3592.900914,-11103.089130,-222.061783,229.828649
3592.901244,-11177.109724,0.000000,612.876398
3592.901574,-10807.006753,-518.144159,536.266849
3592.901904,-9770.718434,-814.226536,1072.533697
3592.902234,-8660.409521,-1036.288319,766.095498
3592.902564,-8290.306550,0.000000,766.095498
3592.902894,-9030.512492,740.205942,0.000000
3592.903223,-9992.780217,1258.350101,-1149.143247
3592.903553,-10288.862594,1036.288319,-2145.067394
3592.903883,-10510.924376,592.164754,-2068.457845
3592.904213,-10658.965565,-148.041188,-612.876398
3592.904543,-10436.903782,-1036.288319,153.219100
3592.904873,-9104.533087,-1480.411884,1225.752797
3592.905203,-8512.368333,-1036.288319,1608.800546
3592.905533,-8808.450710,-444.123565,1915.238745
3592.905863,-9474.636058,222.061783,1532.190996
3592.906193,-10214.842000,814.226536,1838.629195
3592.906522,-10214.842000,814.226536,1455.581446
3592.906852,-10807.006753,592.164754,1225.752797
3592.907182,-10436.903782,296.082377,536.266849
3592.907512,-9770.718434,296.082377,-612.876398
3592.907842,-9844.739029,444.123565,-1991.848295
3592.908172,-9844.739029,592.164754,-2911.162892
3592.908502,-9992.780217,370.102971,-2987.772442
3592.908832,-9400.615463,74.020594,-1991.848295
3592.909162,-8882.471304,-74.020594,0.000000
3592.909492,-8586.388927,-518.144159,1991.848295
3592.909822,-8956.491898,0.000000,2221.676944
3592.910151,-9178.553681,-222.061783,2298.286494
3592.910481,-9844.739029,444.123565,1685.410096
3592.910811,-10510.924376,518.144159,459.657299
3592.911141,-11547.212695,888.247130,612.876398
3592.911471,-11251.130318,74.020594,536.266849
3592.911801,-10214.842000,-370.102971,842.705048
3592.912131,-9178.553681,-666.185348,995.924147
3592.912461,-8512.368333,-222.061783,919.314598
3592.912791,-8808.450710,370.102971,-306.438199
3592.913121,-9622.677246,1258.350101,-1149.143247
3592.913450,-9844.739029,1258.350101,-1838.629195
3592.913780,-10288.862594,888.247130,-1991.848295
3592.914110,-10140.821405,370.102971,-1762.019645
3592.914440,-10140.821405,-296.082377,-229.828649
3592.914770,-9474.636058,-962.267725,536.266849
3592.915100,-8734.430116,-1184.329507,1532.190996
3592.915430,-8660.409521,-222.061783,2068.457845
3592.915760,-9252.574275,-148.041188,2145.067394
3592.916090,-10214.842000,222.061783,2221.676944
3592.916420,-10436.903782,592.164754,1762.019645
3592.916750,-10584.944971,444.123565,1608.800546
3592.917079,-10955.047942,518.144159,842.705048
3592.917409,-10288.862594,74.020594,229.828649
3592.917739,-10066.800811,222.061783,-1072.533697
3592.918069,-10066.800811,592.164754,-2374.896044
3592.918399,-9844.739029,444.123565,-2834.553343
3592.918729,-9622.677246,222.061783,-2834.553343
3592.919059,-9104.533087,0.000000,-1378.971896
3592.919389,-8882.471304,-148.041188,229.828649
3592.919719,-8364.327145,-296.082377,2221.676944
3592.920049,-8660.409521,-370.102971,2451.505594
3592.920378,-9326.594869,148.041188,1991.848295
3592.920708,-10214.842000,592.164754,995.924147
3592.921038,-11103.089130,518.144159,459.657299
3592.921368,-11177.109724,444.123565,153.219100
3592.921698,-10881.027347,148.041188,306.438199
3592.922028,-10066.800811,-370.102971,536.266849
3592.922358,-9030.512492,-444.123565,459.657299
3592.922688,-8364.327145,0.000000,306.438199
3592.923018,-9252.574275,1110.308913,-766.095498
3592.923348,-9548.656652,1406.391290,-1762.019645
3592.923678,-10214.842000,1406.391290,-2145.067394
3592.924007,-10732.986159,1184.329507,-2068.457845
3592.924337,-10584.944971,148.041188,-1149.143247
3592.924667,-10140.821405,-740.205942,0.000000
3592.924997,-9252.574275,-1406.391290,1302.362347
3592.925327,-8586.388927,-888.247130,1378.971896
3592.925657,-8734.430116,-444.123565,2298.286494
3592.925987,-9326.594869,0.000000,1991.848295
3592.926317,-10214.842000,296.082377,1991.848295
3592.926647,-10881.027347,666.185348,1991.848295
3592.926977,-10807.006753,444.123565,1762.019645
3592.927306,-10510.924376,74.020594,919.314598
3592.927636,-10214.842000,148.041188,0.000000
3592.927966,-9992.780217,0.000000,-1225.752797
3592.928296,-9474.636058,-592.164754,-2528.115143
3592.928626,-9326.594869,0.000000,-2987.772442
3592.928956,-9178.553681,-296.082377,-2374.896044
3592.929286,-8956.491898,-444.123565,-383.047749
3592.929616,-8512.368333,-592.164754,1072.533697
3592.929946,-8586.388927,-814.226536,2604.724693
3592.930276,-9104.533087,-74.020594,2374.896044
3592.930605,-9548.656652,-222.061783,1838.629195
3592.930935,-10510.924376,74.020594,766.095498
3592.931265,-11029.068536,0.000000,612.876398
3592.931595,-10881.027347,-444.123565,612.876398
3592.931925,-10288.862594,-518.144159,919.314598
3592.932255,-9178.553681,-888.247130,689.485948
3592.932585,-8438.347739,-444.123565,459.657299
3592.932915,-8882.471304,148.041188,0.000000
3592.933245,-9474.636058,666.185348,-1455.581446
3592.933575,-9992.780217,1110.308913,-2145.067394
3592.933905,-10214.842000,1258.350101,-2451.505594
3592.934234,-10881.027347,518.144159,-1838.629195
3592.934564,-10436.903782,-370.102971,-842.705048
3592.934894,-9918.759623,-1184.329507,0.000000
3592.935224,-8364.327145,-1702.473667,536.266849
3592.935554,-8660.409521,-1110.308913,2145.067394
3592.935884,-9252.574275,-370.102971,2221.676944
3592.936214,-9844.739029,148.041188,2145.067394
3592.936544,-10732.986159,666.185348,2145.067394
3592.936874,-10732.986159,740.205942,1762.019645
3592.937204,-11325.150913,814.226536,1149.143247
3592.937533,-10658.965565,222.061783,689.485948
3592.937863,-9918.759623,296.082377,-612.876398
3592.938193,-9696.697840,222.061783,-2145.067394
3592.938523,-9548.656652,148.041188,-2604.724693
3592.938853,-9474.636058,74.020594,-2757.943793
3592.939183,-8956.491898,-370.102971,-1838.629195
3592.939513,-7994.224174,-518.144159,-306.438199
3592.939843,-8438.347739,-444.123565,2221.676944
3592.940173,-8734.430116,-222.061783,2911.162892
3592.940503,-9548.656652,0.000000,2681.334243
3592.940833,-9844.739029,666.185348,1762.019645
3592.941162,-10732.986159,592.164754,383.047749
3592.941492,-11325.150913,592.164754,383.047749
3592.941822,-11325.150913,222.061783,459.657299
3592.942152,-10362.883188,-74.020594,766.095498
3592.942482,-8882.471304,-814.226536,1072.533697
3592.942812,-8216.285956,0.000000,229.828649
3592.943142,-8734.430116,666.185348,-689.485948
3592.943472,-9474.636058,1406.391290,-2068.457845
3592.943802,-9696.697840,1702.473667,-1685.410096
3592.944132,-10584.944971,1332.370696,-1915.238745
3592.944461,-10658.965565,666.185348,-1225.752797
3592.944791,-10288.862594,-370.102971,-536.266849
3592.945121,-9474.636058,-740.205942,229.828649
3592.945451,-8586.388927,-740.205942,1378.971896
3592.945781,-8956.491898,-740.205942,1838.629195
3592.946111,-9474.636058,222.061783,2068.457845
3592.946441,-10066.800811,666.185348,1685.410096
3592.946771,-10214.842000,888.247130,1838.629195
3592.947101,-10881.027347,888.247130,919.314598
3592.947431,-10732.986159,814.226536,612.876398
3592.947760,-10066.800811,296.082377,76.609550
3592.948090,-9474.636058,370.102971,-1302.362347
3592.948420,-9992.780217,592.164754,-1915.238745
3592.948750,-10066.800811,592.164754,-2681.334243
3592.949080,-10140.821405,370.102971,-2221.676944
3592.949410,-9474.636058,-148.041188,-1225.752797
3592.949740,-8734.430116,-592.164754,1072.533697
3592.950070,-8882.471304,-666.185348,2604.724693
3592.950400,-8808.450710,-444.123565,2834.553343
3592.950730,-9400.615463,0.000000,2451.505594
3592.951060,-10214.842000,518.144159,1225.752797
3592.951390,-11103.089130,74.020594,306.438199
3592.951719,-11399.171507,296.082377,612.876398
3592.952049,-10732.986159,-370.102971,612.876398
3592.952379,-10066.800811,-740.205942,919.314598
3592.952709,-8512.368333,-740.205942,306.438199
3592.953039,-8364.327145,-296.082377,-76.609550
3592.953369,-9030.512492,222.061783,-1225.752797
3592.953699,-9844.739029,740.205942,-1608.800546
3592.954029,-10140.821405,1036.288319,-2221.676944
3592.954359,-10658.965565,592.164754,-1685.410096
3592.954689,-10362.883188,-370.102971,-766.095498
3592.955019,-9992.780217,-1258.350101,306.438199
3592.955349,-9178.553681,-1850.514855,1149.143247
3592.955679,-8290.306550,-1480.411884,1532.190996
3592.956009,-9104.533087,-666.185348,1838.629195
3592.956339,-9696.697840,0.000000,2145.067394
3592.956668,-10658.965565,518.144159,1378.971896
3592.956998,-10510.924376,962.267725,1608.800546
3592.957328,-11103.089130,518.144159,1072.533697
3592.957658,-10732.986159,296.082377,689.485948
3592.957988,-10066.800811,296.082377,-536.266849
3592.958318,-10066.800811,592.164754,-1685.410096
3592.958648,-9918.759623,444.123565,-2528.115143
3592.958978,-9696.697840,444.123565,-2834.553343
3592.959308,-9696.697840,0.000000,-1378.971896
3592.959638,-9178.553681,0.000000,76.609550
3592.959968,-9178.553681,-296.082377,1991.848295
3592.960298,-9030.512492,-370.102971,3064.381992
3592.960628,-9252.574275,-444.123565,3064.381992
3592.960958,-9992.780217,0.000000,2374.896044
3592.961287,-10658.965565,592.164754,1532.190996
3592.961617,-11177.109724,518.144159,612.876398
3592.961947,-10807.006753,296.082377,919.314598
3592.962277,-10066.800811,-370.102971,766.095498
3592.962607,-8734.430116,-296.082377,842.705048
3592.962937,-8364.327145,0.000000,383.047749
3592.963267,-8882.471304,740.205942,-383.047749
3592.963597,-9474.636058,962.267725,-1225.752797
3592.963927,-10066.800811,1628.453072,-1915.238745
3592.964257,-10288.862594,1036.288319,-2221.676944
3592.964587,-10362.883188,518.144159,-1838.629195
3592.964917,-10066.800811,-296.082377,-766.095498
3592.965247,-9622.677246,-740.205942,612.876398
3592.965577,-8586.388927,-740.205942,1608.800546
3592.965906,-8660.409521,-444.123565,1991.848295
3592.966236,-9326.594869,74.020594,1915.238745
3592.966566,-9622.677246,444.123565,1915.238745
3592.966896,-10214.842000,1110.308913,919.314598
3592.967226,-10510.924376,666.185348,1149.143247
3592.967556,-10955.047942,666.185348,689.485948
3592.967886,-10436.903782,296.082377,306.438199
3592.968216,-9696.697840,592.164754,-919.314598
3592.968546,-10214.842000,370.102971,-2374.896044
3592.968876,-9696.697840,444.123565,-3140.991542
3592.969206,-9474.636058,222.061783,-2757.943793
3592.969536,-9474.636058,222.061783,-995.924147
3592.969866,-8956.491898,-370.102971,842.705048
3592.970196,-8808.450710,-444.123565,2221.676944
3592.970526,-9178.553681,-74.020594,2681.334243
3592.970855,-9696.697840,0.000000,2451.505594
3592.971185,-10214.842000,296.082377,1685.410096
3592.971515,-10807.006753,74.020594,766.095498
3592.971845,-11325.150913,222.061783,536.266849
3592.972175,-10881.027347,0.000000,766.095498
3592.972505,-9918.759623,-148.041188,76.609550
3592.972835,-8808.450710,-814.226536,536.266849
3592.973165,-8512.368333,-444.123565,536.266849
3592.973495,-9030.512492,444.123565,-612.876398
3592.973825,-9474.636058,1036.288319,-1378.971896
3592.974155,-10362.883188,962.267725,-1838.629195
3592.974485,-10584.944971,518.144159,-2221.676944
3592.974815,-10436.903782,0.000000,-1225.752797
3592.975145,-10362.883188,-814.226536,0.000000
3592.975474,-9770.718434,-1332.370696,689.485948
3592.975804,-8586.388927,-1702.473667,1762.019645
3592.976134,-8512.368333,-1184.329507,2145.067394
3592.976464,-9400.615463,0.000000,1762.019645
3592.976794,-9992.780217,518.144159,1532.190996
3592.977124,-10658.965565,518.144159,1532.190996
3592.977454,-10807.006753,148.041188,1225.752797
3592.977784,-10510.924376,0.000000,229.828649
3592.978114,-10066.800811,0.000000,-919.314598
3592.978444,-9770.718434,74.020594,-1302.362347
3592.978774,-9696.697840,0.000000,-2681.334243
3592.979104,-9696.697840,0.000000,-2987.772442
3592.979434,-9622.677246,-518.144159,-2068.457845
3592.979764,-8956.491898,-666.185348,-383.047749
3592.980094,-8808.450710,-592.164754,1991.848295
3592.980423,-8882.471304,-888.247130,3294.210641
3592.980753,-8808.450710,-518.144159,2911.162892
3592.981083,-9548.656652,0.000000,1762.019645
3592.981413,-10436.903782,518.144159,995.924147
3592.981743,-11029.068536,296.082377,459.657299
3592.982073,-11251.130318,296.082377,689.485948
3592.982403,-10436.903782,0.000000,0.000000
3592.982733,-10066.800811,0.000000,536.266849
3592.983063,-9252.574275,-296.082377,383.047749
3592.983393,-8882.471304,74.020594,-229.828649
3592.983723,-9252.574275,740.205942,-919.314598
3592.984053,-9548.656652,1036.288319,-1378.971896
3592.984383,-10140.821405,1110.308913,-1838.629195
3592.984713,-10510.924376,1036.288319,-1532.190996
3592.985042,-10362.883188,222.061783,-766.095498
3592.985372,-9918.759623,-888.247130,306.438199
3592.985702,-9178.553681,-740.205942,1455.581446
3592.986032,-8882.471304,-666.185348,2298.286494
3592.986362,-9252.574275,0.000000,2374.896044
3592.986692,-9474.636058,148.041188,1762.019645
3592.987022,-10288.862594,740.205942,1608.800546
3592.987352,-10584.944971,740.205942,1149.143247
3592.987682,-10955.047942,518.144159,229.828649
3592.988012,-10584.944971,148.041188,153.219100
3592.988342,-9844.739029,148.041188,-919.314598
3592.988672,-10066.800811,518.144159,-1915.238745
3592.989002,-9918.759623,518.144159,-2604.724693
3592.989332,-9474.636058,296.082377,-3217.601092
3592.989662,-8882.471304,74.020594,-2221.676944
3592.989991,-8956.491898,-296.082377,153.219100
3592.990321,-9030.512492,-444.123565,1762.019645
3592.990651,-9326.594869,-148.041188,2834.553343
3592.990981,-9178.553681,74.020594,2145.067394
3592.991311,-9696.697840,0.000000,1532.190996
3592.991641,-10658.965565,518.144159,459.657299
3592.991971,-10881.027347,370.102971,-229.828649
3592.992301,-10732.986159,222.061783,229.828649
3592.992631,-10362.883188,-370.102971,229.828649
3592.992961,-9252.574275,-370.102971,0.000000
3592.993291,-8512.368333,-296.082377,153.219100
3592.993621,-8734.430116,296.082377,-459.657299
3592.993951,-9326.594869,1110.308913,-2068.457845
3592.994281,-9696.697840,888.247130,-2451.505594
3592.994610,-10362.883188,1036.288319,-2298.286494
3592.994940,-10584.944971,296.082377,-1685.410096
3592.995270,-10066.800811,-666.185348,0.000000
3592.995600,-9622.677246,-1258.350101,1378.971896
3592.995930,-8364.327145,-1184.329507,2068.457845
3592.996260,-8734.430116,-888.247130,2145.067394
3592.996590,-9326.594869,-296.082377,2068.457845
3592.996920,-10140.821405,74.020594,2374.896044
3592.997250,-10510.924376,592.164754,2068.457845
3592.997580,-10881.027347,592.164754,1608.800546
3592.997910,-10955.047942,296.082377,612.876398
3592.998240,-10362.883188,0.000000,76.609550
3592.998570,-9844.739029,148.041188,-1072.533697
3592.998900,-9844.739029,0.000000,-1608.800546
3592.999230,-9844.739029,444.123565,-2298.286494
3592.999559,-9400.615463,-296.082377,-2374.896044
3592.999889,-9104.533087,-370.102971,-1225.752797
3593.000219,-8808.450710,-740.205942,1149.143247
3593.000549,-9252.574275,-814.226536,2528.115143
3593.000879,-8882.471304,-518.144159,2987.772442
3593.001209,-9548.656652,-296.082377,2911.162892
3593.001539,-10214.842000,148.041188,1685.410096
3593.001869,-10807.006753,0.000000,766.095498
3593.002199,-11325.150913,0.000000,459.657299
3593.002529,-10881.027347,-444.123565,306.438199
3593.002859,-9548.656652,-740.205942,229.828649
3593.003189,-8438.347739,-814.226536,459.657299
3593.003519,-8142.265362,-296.082377,0.000000
3593.003849,-8438.347739,148.041188,-1302.362347
3593.004178,-9474.636058,962.267725,-2451.505594
3593.004508,-10140.821405,1184.329507,-2604.724693
3593.004838,-10732.986159,888.247130,-2451.505594
3593.005168,-10288.862594,0.000000,-842.705048
3593.005498,-10140.821405,-666.185348,76.609550
3593.005828,-9474.636058,-1110.308913,1225.752797
3593.006158,-8438.347739,-1110.308913,1915.238745
3593.006488,-8882.471304,-592.164754,2145.067394
3593.006818,-9326.594869,74.020594,1838.629195
3593.007148,-10288.862594,814.226536,1302.362347
3593.007478,-10732.986159,1110.308913,1378.971896
3593.007808,-10955.047942,1184.329507,919.314598
3593.008138,-10807.006753,888.247130,229.828649
3593.008468,-10288.862594,296.082377,-612.876398
3593.008797,-10214.842000,592.164754,-1685.410096
3593.009127,-10288.862594,518.144159,-2528.115143
3593.009457,-9622.677246,148.041188,-2528.115143
3593.009787,-9696.697840,148.041188,-1608.800546
3593.010117,-9178.553681,-222.061783,0.000000
3593.010447,-8956.491898,-592.164754,2068.457845
3593.010777,-8290.306550,-444.123565,2834.553343
3593.011107,-8956.491898,-222.061783,3064.381992
3593.011437,-9844.739029,0.000000,2451.505594
3593.011767,-10584.944971,296.082377,1685.410096
3593.012097,-11177.109724,518.144159,766.095498
3593.012427,-11103.089130,296.082377,459.657299
3593.012757,-10436.903782,0.000000,306.438199
3593.013087,-9252.574275,-666.185348,383.047749
3593.013417,-8142.265362,-592.164754,306.438199
3593.013746,-8142.265362,148.041188,-306.438199
3593.014076,-8882.471304,1110.308913,-995.924147
3593.014406,-9622.677246,1110.308913,-1991.848295
3593.014736,-10362.883188,1480.411884,-2374.896044
3593.015066,-10436.903782,444.123565,-1302.362347
3593.015396,-10362.883188,0.000000,-612.876398
3593.015726,-10288.862594,-740.205942,536.266849
3593.016056,-8808.450710,-1258.350101,1378.971896
3593.016386,-8734.430116,-518.144159,1991.848295
3593.016716,-9030.512492,-370.102971,1608.800546
3593.017046,-9918.759623,74.020594,1762.019645
3593.017376,-10436.903782,518.144159,995.924147
3593.017706,-10955.047942,814.226536,995.924147
3593.018036,-10510.924376,518.144159,459.657299
3593.018365,-10288.862594,296.082377,153.219100
3593.018695,-10510.924376,740.205942,-842.705048
3593.019025,-10140.821405,518.144159,-2374.896044
3593.019355,-10140.821405,222.061783,-3140.991542
3593.019685,-9844.739029,518.144159,-2987.772442
3593.020015,-9474.636058,74.020594,-1532.190996
3593.020345,-9030.512492,-666.185348,306.438199
3593.020675,-9030.512492,-592.164754,1455.581446
3593.021005,-8734.430116,-888.247130,2681.334243
3593.021335,-9252.574275,-518.144159,2757.943793
3593.021665,-9992.780217,222.061783,1838.629195
3593.021995,-10807.006753,222.061783,689.485948
3593.022325,-10955.047942,148.041188,153.219100
3593.022655,-10807.006753,0.000000,229.828649
3593.022985,-10214.842000,-370.102971,383.047749
3593.023314,-9030.512492,-888.247130,842.705048
3593.023644,-8512.368333,-518.144159,76.609550
3593.023974,-8808.450710,148.041188,-306.438199
3593.024304,-9474.636058,740.205942,-1532.190996
3593.024634,-10066.800811,888.247130,-2298.286494
3593.024964,-9844.739029,222.061783,-1685.410096
3593.025294,-10066.800811,0.000000,-1225.752797
3593.025624,-9918.759623,-888.247130,0.000000
3593.025954,-9770.718434,-1258.350101,1608.800546
3593.026284,-8808.450710,-1184.329507,1991.848295
3593.026614,-8808.450710,-518.144159,1838.629195
3593.026944,-9400.615463,-148.041188,1991.848295
3593.027274,-10510.924376,222.061783,1915.238745
3593.027604,-10955.047942,740.205942,1685.410096
3593.027933,-10584.944971,74.020594,1378.971896
3593.028263,-10732.986159,592.164754,459.657299
3593.028593,-9844.739029,0.000000,-612.876398
3593.028923,-9622.677246,296.082377,-1838.629195
3593.029253,-9622.677246,0.000000,-2374.896044
3593.029583,-10066.800811,814.226536,-2987.772442
3593.029913,-9474.636058,222.061783,-2451.505594
3593.030243,-9030.512492,-148.041188,-919.314598
3593.030573,-8882.471304,-666.185348,1072.533697
3593.030903,-9104.533087,-666.185348,2145.067394
3593.031233,-9400.615463,-296.082377,2757.943793
3593.031563,-9548.656652,0.000000,2451.505594
3593.031893,-10066.800811,370.102971,1915.238745
3593.032223,-10807.006753,296.082377,766.095498
3593.032553,-11103.089130,370.102971,229.828649
3593.032882,-10807.006753,-74.020594,76.609550
3593.033212,-9992.780217,-370.102971,383.047749
3593.033542,-8882.471304,-1110.308913,612.876398
3593.033872,-8290.306550,0.000000,0.000000
3593.034202,-8956.491898,592.164754,-689.485948
3593.034532,-9474.636058,888.247130,-1991.848295
3593.034862,-9844.739029,1110.308913,-1915.238745
3593.035192,-10066.800811,592.164754,-1838.629195
3593.035522,-10140.821405,0.000000,-766.095498
3593.035852,-10066.800811,-888.247130,766.095498
3593.036182,-9474.636058,-962.267725,1915.238745
3593.036512,-8882.471304,-888.247130,2145.067394
3593.036842,-9104.533087,-592.164754,2298.286494
3593.037172,-9844.739029,0.000000,2068.457845
3593.037501,-10362.883188,444.123565,1455.581446
3593.037831,-10436.903782,370.102971,1302.362347
3593.038161,-10732.986159,518.144159,842.705048
3593.038491,-10658.965565,444.123565,383.047749
3593.038821,-10214.842000,518.144159,-612.876398
3593.039151,-9844.739029,518.144159,-1608.800546
3593.039481,-9770.718434,370.102971,-2757.943793
3593.039811,-9844.739029,518.144159,-2681.334243
3593.040141,-9178.553681,0.000000,-1608.800546
3593.040471,-9104.533087,-222.061783,153.219100
3593.040801,-8512.368333,-370.102971,1915.238745
3593.041131,-9326.594869,-296.082377,2834.553343
3593.041461,-9400.615463,74.020594,2911.162892
3593.041791,-10362.883188,74.020594,2145.067394
3593.042120,-10658.965565,666.185348,1608.800546
3593.042450,-11177.109724,444.123565,383.047749
3593.042780,-11029.068536,0.000000,76.609550
3593.043110,-10584.944971,0.000000,153.219100
3593.043440,-9252.574275,-666.185348,612.876398
3593.043770,-8586.388927,-518.144159,612.876398
3593.044100,-8438.347739,74.020594,-612.876398
3593.044430,-9178.553681,740.205942,-1302.362347
3593.044760,-9548.656652,1036.288319,-1915.238745
3593.045090,-9992.780217,1036.288319,-1685.410096
3593.045420,-10140.821405,222.061783,-1608.800546
3593.045750,-10140.821405,-444.123565,-306.438199
3593.046080,-9844.739029,-1036.288319,612.876398
3593.046410,-8808.450710,-1332.370696,1532.190996
3593.046740,-8808.450710,-740.205942,1991.848295
3593.047069,-9104.533087,-148.041188,1991.848295
3593.047399,-9992.780217,296.082377,1685.410096
3593.047729,-10066.800811,888.247130,1225.752797
3593.048059,-10584.944971,666.185348,689.485948
3593.048389,-10658.965565,518.144159,229.828649
3593.048719,-10584.944971,444.123565,229.828649
3593.049049,-10066.800811,296.082377,-1302.362347
3593.049379,-9918.759623,222.061783,-2298.286494
3593.049709,-9992.780217,222.061783,-3524.039291
3593.050039,-9548.656652,0.000000,-2911.162892
3593.050369,-9326.594869,-370.102971,-1455.581446
3593.050698,-8586.388927,-518.144159,612.876398
3593.051028,-8734.430116,-740.205942,2681.334243
3593.051358,-9104.533087,-666.185348,3370.820191
3593.051688,-9844.739029,0.000000,2757.943793
3593.052018,-10362.883188,222.061783,1685.410096
3593.052348,-11029.068536,296.082377,919.314598
3593.052678,-11251.130318,444.123565,383.047749
3593.053007,-11029.068536,148.041188,612.876398
3593.053337,-9918.759623,-370.102971,0.000000
3593.053667,-9252.574275,-814.226536,919.314598
3593.053997,-8364.327145,-296.082377,459.657299
3593.054327,-8660.409521,444.123565,-536.266849
3593.054657,-9178.553681,814.226536,-1302.362347
3593.054987,-9844.739029,888.247130,-1838.629195
3593.055316,-10140.821405,444.123565,-1685.410096
3593.055646,-10140.821405,-74.020594,-612.876398
3593.055976,-10066.800811,-962.267725,766.095498
3593.056306,-9474.636058,-1332.370696,2068.457845
3593.056636,-8956.491898,-1036.288319,2298.286494
3593.056966,-8956.491898,-814.226536,2374.896044
3593.057296,-9400.615463,0.000000,2221.676944
3593.057626,-10288.862594,0.000000,1608.800546
3593.057955,-10584.944971,888.247130,1225.752797
3593.058285,-10732.986159,740.205942,383.047749
3593.058615,-10362.883188,518.144159,-229.828649
3593.058945,-10066.800811,222.061783,-1532.190996
3593.059275,-9770.718434,296.082377,-1991.848295
3593.059605,-9992.780217,444.123565,-2681.334243
3593.059935,-9696.697840,296.082377,-2987.772442
3593.060264,-9326.594869,0.000000,-1762.019645
3593.060594,-9104.533087,-148.041188,-76.609550
3593.060924,-8808.450710,-592.164754,1838.629195
3593.061254,-9104.533087,-296.082377,3064.381992
3593.061584,-9252.574275,-296.082377,3217.601092
3593.061914,-9696.697840,74.020594,1915.238745
3593.062244,-10288.862594,518.144159,1302.362347
3593.062574,-11177.109724,592.164754,383.047749
3593.062903,-11325.150913,444.123565,0.000000
3593.063233,-10658.965565,222.061783,-76.609550
3593.063563,-9400.615463,-666.185348,459.657299
3593.063893,-8660.409521,-518.144159,306.438199
3593.064223,-8512.368333,74.020594,0.000000
3593.064553,-8882.471304,740.205942,-612.876398
3593.064883,-9622.677246,1184.329507,-1838.629195
3593.065212,-10066.800811,1184.329507,-1838.629195
3593.065542,-10510.924376,592.164754,-1072.533697
3593.065872,-10362.883188,-148.041188,76.609550
3593.066202,-9844.739029,-518.144159,1072.533697
3593.066532,-9030.512492,-962.267725,1762.019645
3593.066862,-8734.430116,-666.185348,2145.067394
3593.067192,-9326.594869,0.000000,2298.286494
3593.067522,-9770.718434,444.123565,1762.019645
3593.067851,-10140.821405,814.226536,1225.752797
3593.068181,-10510.924376,1110.308913,612.876398
3593.068511,-11029.068536,1036.288319,689.485948
3593.068841,-10658.965565,740.205942,459.657299
3593.069171,-9770.718434,296.082377,-536.266849
3593.069501,-9918.759623,222.061783,-1685.410096
3593.069831,-9844.739029,296.082377,-2374.896044
3593.070160,-9918.759623,370.102971,-2221.676944
3593.070490,-9252.574275,74.020594,-919.314598
3593.070820,-8882.471304,-296.082377,689.485948
3593.071150,-8956.491898,-370.102971,1608.800546
3593.071480,-9326.594869,-296.082377,2987.772442
3593.071810,-9326.594869,-296.082377,3064.381992
3593.072140,-10214.842000,74.020594,1608.800546
3593.072470,-10807.006753,444.123565,383.047749
3593.072799,-11029.068536,74.020594,-229.828649
3593.073129,-10436.903782,0.000000,-153.219100
3593.073459,-10066.800811,-592.164754,-306.438199
3593.073789,-9400.615463,-592.164754,0.000000
3593.074119,-8438.347739,-518.144159,-153.219100
3593.074449,-8586.388927,0.000000,-459.657299
3593.074779,-9400.615463,888.247130,-995.924147
3593.075108,-9992.780217,888.247130,-1838.629195
3593.075438,-10362.883188,814.226536,-1915.238745
3593.075768,-10510.924376,0.000000,-1378.971896
3593.076098,-10436.903782,-666.185348,383.047749
3593.076428,-9696.697840,-1332.370696,1378.971896
3593.076758,-8882.471304,-1628.453072,2068.457845
3593.077088,-8956.491898,-1258.350101,1608.800546
3593.077418,-9252.574275,0.000000,1378.971896
3593.077747,-10066.800811,74.020594,1302.362347
3593.078077,-10658.965565,370.102971,995.924147
3593.078407,-10584.944971,296.082377,459.657299
3593.078737,-10658.965565,-148.041188,536.266849
3593.079067,-10140.821405,-370.102971,-536.266849
3593.079397,-9548.656652,-296.082377,-1225.752797
3593.079727,-9400.615463,-370.102971,-2068.457845
3593.080056,-9992.780217,-222.061783,-2298.286494
3593.080386,-9992.780217,-74.020594,-1378.971896
3593.080716,-9770.718434,-666.185348,-536.266849
3593.081046,-9178.553681,-1110.308913,1378.971896
3593.081376,-9178.553681,-1036.288319,2834.553343
3593.081706,-9104.533087,-740.205942,3140.991542
3593.082036,-9104.533087,-222.061783,2451.505594
3593.082366,-9844.739029,74.020594,1149.143247
3593.082695,-10807.006753,296.082377,76.609550
3593.083025,-11473.192101,518.144159,153.219100
3593.083355,-10955.047942,148.041188,-229.828649
3593.083685,-9918.759623,-518.144159,0.000000
3593.084015,-8882.471304,-740.205942,306.438199
3593.084345,-8290.306550,-518.144159,229.828649
3593.084675,-9030.512492,296.082377,-153.219100
3593.085004,-9770.718434,1184.329507,-995.924147
3593.085334,-9918.759623,1258.350101,-1838.629195
3593.085664,-10362.883188,814.226536,-1072.533697
3593.085994,-10658.965565,518.144159,0.000000
3593.086324,-10510.924376,-370.102971,919.314598
3593.086654,-9474.636058,-1036.288319,1991.848295
3593.086984,-8734.430116,-888.247130,1838.629195
3593.087313,-8882.471304,-222.061783,1762.019645
3593.087643,-9474.636058,444.123565,1532.190996
3593.087973,-10140.821405,888.247130,1608.800546
3593.088303,-10288.862594,1036.288319,1532.190996
3593.088633,-10510.924376,888.247130,919.314598
3593.088963,-10436.903782,740.205942,76.609550
3593.089293,-10066.800811,518.144159,-612.876398
3593.089623,-9918.759623,740.205942,-1685.410096
3593.089952,-9918.759623,1110.308913,-2681.334243
3593.090282,-9696.697840,814.226536,-2451.505594
3593.090612,-9326.594869,444.123565,-1455.581446
3593.090942,-9252.574275,222.061783,76.609550
3593.091272,-8956.491898,-444.123565,1378.971896
3593.091602,-9770.718434,222.061783,2911.162892
3593.091932,-9104.533087,148.041188,2298.286494
3593.092261,-9770.718434,518.144159,1455.581446
3593.092591,-10362.883188,1110.308913,919.314598
3593.092921,-11103.089130,962.267725,689.485948
3593.093251,-11251.130318,666.185348,0.000000
3593.093581,-10362.883188,0.000000,-919.314598
3593.093911,-9474.636058,-296.082377,0.000000
3593.094241,-8734.430116,0.000000,229.828649
3593.094571,-8956.491898,148.041188,-153.219100
3593.094900,-9030.512492,814.226536,-612.876398
3593.095230,-9844.739029,1036.288319,-1608.800546
3593.095560,-10362.883188,1036.288319,-2068.457845
3593.095890,-11029.068536,518.144159,-1302.362347
3593.096220,-10436.903782,-444.123565,-76.609550
3593.096550,-9770.718434,-888.247130,995.924147
3593.096880,-8956.491898,-1184.329507,2068.457845
3593.097209,-9104.533087,-1184.329507,2451.505594
3593.097539,-9178.553681,-444.123565,1532.190996
3593.097869,-9548.656652,0.000000,1072.533697
3593.098199,-10288.862594,222.061783,1149.143247
3593.098529,-10436.903782,444.123565,1149.143247
3593.098859,-10807.006753,-74.020594,766.095498
3593.099189,-9992.780217,-296.082377,459.657299
3593.099519,-9548.656652,-444.123565,-383.047749
3593.099848,-9992.780217,0.000000,-1991.848295
3593.100178,-10066.800811,0.000000,-2451.505594
3593.100508,-9770.718434,-148.041188,-2221.676944
3593.100838,-9548.656652,-296.082377,-842.705048
3593.101168,-9104.533087,-962.267725,76.609550
3593.101498,-9030.512492,-518.144159,2604.724693
3593.101828,-9252.574275,-962.267725,2528.115143
3593.102157,-9474.636058,-370.102971,2068.457845
3593.102487,-10140.821405,-296.082377,1378.971896
3593.102817,-10436.903782,74.020594,229.828649
3593.103147,-10807.006753,-444.123565,0.000000
3593.103477,-10584.944971,-222.061783,0.000000
3593.103807,-10066.800811,-592.164754,229.828649
3593.104137,-9104.533087,-814.226536,612.876398
3593.104467,-8660.409521,-592.164754,919.314598
3593.104796,-8956.491898,222.061783,0.000000
3593.105126,-9770.718434,814.226536,-689.485948
3593.105456,-10436.903782,1258.350101,-1608.800546
3593.105786,-10584.944971,592.164754,-995.924147
3593.106116,-10732.986159,444.123565,-612.876398
3593.106446,-10140.821405,-666.185348,459.657299
3593.106776,-9474.636058,-962.267725,1302.362347
3593.107105,-8586.388927,-1480.411884,2604.724693
3593.107435,-8660.409521,-592.164754,1838.629195
3593.107765,-9104.533087,0.000000,1685.410096
3593.108095,-9548.656652,444.123565,1225.752797
3593.108425,-10288.862594,740.205942,1532.190996
3593.108755,-10658.965565,666.185348,1302.362347
3593.109085,-10658.965565,370.102971,612.876398
3593.109415,-10214.842000,0.000000,0.000000
3593.109744,-10140.821405,370.102971,-919.314598
3593.110074,-10362.883188,592.164754,-1302.362347
3593.110404,-9770.718434,518.144159,-1915.238745
3593.110734,-9326.594869,518.144159,-1225.752797
3593.111064,-9474.636058,296.082377,-536.266849
3593.111394,-9178.553681,0.000000,1838.629195
3593.111724,-9326.594869,-296.082377,1838.629195
3593.112053,-9104.533087,-370.102971,2068.457845
3593.112383,-9326.594869,296.082377,1762.019645
3593.112713,-9918.759623,740.205942,919.314598
3593.113043,-10584.944971,740.205942,153.219100
3593.113373,-10807.006753,592.164754,0.000000
3593.113703,-10288.862594,0.000000,0.000000
3593.114033,-9548.656652,-296.082377,459.657299
3593.114362,-9178.553681,0.000000,995.924147
3593.114692,-8438.347739,74.020594,612.876398
3593.115022,-9030.512492,740.205942,-842.705048
3593.115352,-9918.759623,1480.411884,-1455.581446
3593.115682,-10362.883188,1406.391290,-1838.629195
3593.116012,-10584.944971,962.267725,-1915.238745
3593.116342,-10362.883188,370.102971,-995.924147
3593.116672,-9918.759623,-296.082377,459.657299
3593.117001,-9326.594869,-592.164754,1225.752797
3593.117331,-8586.388927,-444.123565,1225.752797
3593.117661,-8956.491898,0.000000,1072.533697
3593.117991,-9696.697840,444.123565,1455.581446
3593.118321,-10362.883188,740.205942,1225.752797
3593.118651,-10510.924376,592.164754,1378.971896
3593.118981,-11251.130318,518.144159,1225.752797
3593.119310,-10807.006753,444.123565,689.485948
3593.119640,-10066.800811,0.000000,0.000000
3593.119970,-10140.821405,666.185348,-612.876398
3593.120300,-9844.739029,370.102971,-1685.410096
3593.120630,-9548.656652,296.082377,-1991.848295
3593.120960,-9548.656652,0.000000,-1225.752797
3593.121290,-9104.533087,-74.020594,306.438199
3593.121620,-9104.533087,-444.123565,1762.019645
3593.121949,-9104.533087,-666.185348,2374.896044
3593.122279,-9178.553681,-296.082377,2068.457845
3593.122609,-9548.656652,0.000000,1302.362347
3593.122939,-10140.821405,518.144159,612.876398
3593.123269,-11177.109724,370.102971,-153.219100
3593.123599,-11029.068536,74.020594,306.438199
3593.123929,-10436.903782,-666.185348,689.485948
3593.124258,-9474.636058,-296.082377,766.095498
3593.124588,-8734.430116,-814.226536,536.266849
3593.124918,-8734.430116,148.041188,0.000000
3593.125248,-9474.636058,370.102971,-995.924147
3593.125578,-9844.739029,962.267725,-2298.286494
3593.125908,-10436.903782,888.247130,-2068.457845
3593.126238,-10584.944971,518.144159,-1838.629195
3593.126568,-10362.883188,-370.102971,-612.876398
3593.126897,-9474.636058,-1258.350101,306.438199
3593.127227,-8586.388927,-1406.391290,919.314598
3593.127557,-8586.388927,-962.267725,1225.752797
3593.127887,-9178.553681,-518.144159,1302.362347
3593.128217,-9770.718434,-222.061783,1302.362347
3593.128547,-10140.821405,222.061783,1378.971896
3593.128877,-10510.924376,74.020594,1302.362347
3593.129206,-10807.006753,74.020594,1072.533697
3593.129536,-10362.883188,-148.041188,459.657299
3593.129866,-9918.759623,0.000000,-919.314598
3593.130196,-9992.780217,74.020594,-1762.019645
3593.130526,-9622.677246,-148.041188,-2374.896044
3593.130856,-9474.636058,-296.082377,-2451.505594
3593.131186,-9252.574275,-518.144159,-1302.362347
3593.131516,-8882.471304,-814.226536,0.000000
3593.131845,-9400.615463,-740.205942,1225.752797
3593.132175,-9030.512492,-814.226536,2145.067394
3593.132505,-9474.636058,-370.102971,1991.848295
3593.132835,-9770.718434,148.041188,1378.971896
3593.133165,-10510.924376,74.020594,842.705048
3593.133495,-11177.109724,148.041188,383.047749
3593.133825,-11325.150913,-296.082377,306.438199
3593.134154,-10140.821405,-962.267725,842.705048
3593.134484,-9474.636058,-888.247130,1149.143247
3593.134814,-8512.368333,-592.164754,1149.143247
3593.135144,-9104.533087,296.082377,383.047749
3593.135474,-9622.677246,1258.350101,-612.876398
3593.135804,-9992.780217,1332.370696,-2145.067394
3593.136134,-10436.903782,962.267725,-2681.334243
3593.136464,-10510.924376,666.185348,-1838.629195
3593.136793,-10140.821405,0.000000,76.609550
3593.137123,-9400.615463,-814.226536,1225.752797
3593.137453,-8734.430116,-518.144159,1685.410096
3593.137783,-8956.491898,-296.082377,1149.143247
3593.138113,-9474.636058,222.061783,919.314598
3593.138443,-10510.924376,666.185348,919.314598
3593.138773,-10584.944971,888.247130,1685.410096
3593.139102,-10807.006753,962.267725,1915.238745
3593.139432,-10584.944971,518.144159,1685.410096
3593.139762,-9992.780217,148.041188,689.485948
3593.140092,-9918.759623,370.102971,-995.924147
3593.140422,-9918.759623,666.185348,-2068.457845
3593.140752,-9992.780217,814.226536,-2374.896044
3593.141082,-9696.697840,666.185348,-1608.800546
3593.141412,-9326.594869,74.020594,-766.095498
3593.141741,-8808.450710,0.000000,536.266849
3593.142071,-8882.471304,-370.102971,1225.752797
3593.142401,-9178.553681,0.000000,1532.190996
3593.142731,-9918.759623,370.102971,1991.848295
3593.143061,-9918.759623,370.102971,1225.752797
3593.143391,-10510.924376,592.164754,383.047749
3593.143721,-10955.047942,518.144159,76.609550
3593.144050,-10436.903782,222.061783,306.438199
3593.144380,-9770.718434,-370.102971,459.657299
3593.144710,-8734.430116,-814.226536,689.485948
3593.145040,-8586.388927,-222.061783,459.657299
3593.145370,-9474.636058,518.144159,0.000000
3593.145700,-9992.780217,740.205942,-1762.019645
3593.146030,-10288.862594,1036.288319,-2451.505594
3593.146359,-10362.883188,592.164754,-2221.676944
3593.146689,-10288.862594,-370.102971,-689.485948
3593.147019,-9770.718434,-666.185348,919.314598
3593.147349,-9030.512492,-814.226536,1608.800546
3593.147679,-8808.450710,-888.247130,1532.190996
3593.148009,-9326.594869,-592.164754,1532.190996
3593.148339,-9696.697840,-148.041188,1302.362347
3593.148669,-10436.903782,222.061783,919.314598
3593.148998,-10510.924376,296.082377,1455.581446
3593.149328,-10807.006753,74.020594,1378.971896
3593.149658,-10066.800811,-518.144159,1685.410096
3593.149988,-10066.800811,0.000000,0.000000
3593.150318,-10140.821405,0.000000,-1225.752797
3593.150648,-10288.862594,74.020594,-2068.457845
3593.150978,-9622.677246,0.000000,-2221.676944
3593.151307,-9474.636058,-74.020594,-1532.190996
3593.151637,-8956.491898,-814.226536,0.000000
3593.151967,-9252.574275,-666.185348,1762.019645
3593.152297,-9326.594869,-888.247130,2604.724693
3593.152627,-9474.636058,-666.185348,2604.724693
3593.152957,-9696.697840,-296.082377,1838.629195
3593.153287,-10066.800811,0.000000,1149.143247
3593.153616,-10732.986159,0.000000,766.095498
3593.153946,-10807.006753,296.082377,459.657299
3593.154276,-10140.821405,-592.164754,306.438199
3593.154606,-9400.615463,-814.226536,536.266849
3593.154936,-8660.409521,-296.082377,766.095498
3593.155266,-8734.430116,148.041188,0.000000
3593.155595,-9474.636058,888.247130,-995.924147
3593.155925,-10066.800811,1184.329507,-2145.067394
3593.156255,-10214.842000,814.226536,-2451.505594
3593.156585,-10510.924376,296.082377,-1532.190996
3593.156915,-10214.842000,-370.102971,0.000000
3593.157245,-9400.615463,-1110.308913,1072.533697
3593.157575,-8586.388927,-1036.288319,1685.410096
3593.157904,-8734.430116,-592.164754,1838.629195
3593.158234,-9326.594869,222.061783,612.876398
3593.158564,-9918.759623,444.123565,1225.752797
3593.158894,-10214.842000,518.144159,1762.019645
3593.159224,-10510.924376,740.205942,1149.143247
3593.159554,-10584.944971,888.247130,1225.752797
3593.159883,-10214.842000,518.144159,612.876398
3593.160213,-10214.842000,666.185348,-1225.752797
3593.160543,-10140.821405,888.247130,-2068.457845
3593.160873,-9992.780217,518.144159,-2451.505594
3593.161203,-9844.739029,222.061783,-1838.629195
3593.161533,-9178.553681,0.000000,-995.924147
3593.161863,-8512.368333,-518.144159,459.657299
3593.162192,-8586.388927,-592.164754,1991.848295
3593.162522,-8364.327145,-592.164754,2911.162892
3593.162852,-9104.533087,0.000000,2451.505594
3593.163182,-9992.780217,148.041188,1685.410096
3593.163512,-10732.986159,592.164754,842.705048
3593.163842,-11177.109724,1110.308913,383.047749
3593.164171,-10658.965565,74.020594,536.266849
3593.164501,-10288.862594,-296.082377,612.876398
3593.164831,-9104.533087,-444.123565,919.314598
3593.165161,-8512.368333,0.000000,383.047749
3593.165491,-8734.430116,666.185348,0.000000
3593.165821,-9548.656652,1036.288319,-1149.143247
3593.166151,-10140.821405,1554.432478,-2068.457845
3593.166480,-10362.883188,1110.308913,-1838.629195
3593.166810,-10362.883188,518.144159,-1149.143247
3593.167140,-10214.842000,-370.102971,76.609550
3593.167470,-9474.636058,-1036.288319,1532.190996
3593.167800,-8882.471304,-962.267725,1915.238745
3593.168130,-8808.450710,-370.102971,1991.848295
3593.168459,-9548.656652,0.000000,1608.800546
3593.168789,-10214.842000,296.082377,1455.581446
3593.169119,-10288.862594,740.205942,1685.410096
3593.169449,-10807.006753,666.185348,1532.190996
3593.169779,-10658.965565,740.205942,995.924147
3593.170109,-9918.759623,444.123565,0.000000
3593.170439,-9844.739029,666.185348,-1762.019645
3593.170768,-10362.883188,888.247130,-2528.115143
3593.171098,-10288.862594,666.185348,-2757.943793
3593.171428,-9992.780217,444.123565,-2068.457845
3593.171758,-9400.615463,0.000000,-995.924147
3593.172088,-9178.553681,-296.082377,1072.533697
3593.172418,-8956.491898,-444.123565,1915.238745
3593.172747,-8808.450710,-222.061783,2145.067394
3593.173077,-9474.636058,148.041188,1685.410096
3593.173407,-9918.759623,148.041188,1072.533697
3593.173737,-10732.986159,592.164754,536.266849
3593.174067,-11325.150913,444.123565,0.000000
3593.174397,-10881.027347,-222.061783,383.047749
3593.174727,-9696.697840,-370.102971,536.266849
3593.175056,-8956.491898,-444.123565,842.705048
3593.175386,-8586.388927,148.041188,0.000000
3593.175716,-9252.574275,666.185348,-689.485948
3593.176046,-9844.739029,962.267725,-1378.971896
3593.176376,-10066.800811,814.226536,-2298.286494
3593.176706,-9770.718434,814.226536,-2451.505594
3593.177035,-10362.883188,-370.102971,-919.314598
3593.177365,-10066.800811,-592.164754,536.266849
3593.177695,-9030.512492,-1332.370696,1608.800546
3593.178025,-8438.347739,-592.164754,1072.533697
3593.178355,-8734.430116,-370.102971,1455.581446
3593.178685,-9622.677246,0.000000,1225.752797
3593.179015,-10066.800811,0.000000,1455.581446
3593.179344,-10362.883188,666.185348,1225.752797
3593.179674,-10658.965565,0.000000,919.314598
3593.180004,-10584.944971,0.000000,612.876398
3593.180334,-10066.800811,0.000000,-612.876398
3593.180664,-9696.697840,0.000000,-1838.629195
3593.180994,-9622.677246,0.000000,-2451.505594
3593.181323,-9696.697840,148.041188,-2681.334243
3593.181653,-9696.697840,0.000000,-1608.800546
3593.181983,-9400.615463,-518.144159,-459.657299
3593.182313,-9326.594869,-518.144159,995.924147
3593.182643,-9252.574275,-592.164754,2145.067394
3593.182973,-9474.636058,-222.061783,2374.896044
3593.183303,-9770.718434,-296.082377,1685.410096
3593.183632,-10362.883188,296.082377,1072.533697
3593.183962,-10881.027347,0.000000,842.705048
3593.184292,-11029.068536,-296.082377,612.876398
3593.184622,-10584.944971,-592.164754,842.705048
3593.184952,-9844.739029,-518.144159,1149.143247
3593.185282,-8734.430116,-740.205942,383.047749
3593.185611,-8956.491898,0.000000,0.000000
3593.185941,-9548.656652,518.144159,-842.705048
3593.186271,-9992.780217,888.247130,-1915.238745
3593.186601,-10066.800811,666.185348,-1685.410096
3593.186931,-10066.800811,74.020594,-1225.752797
3593.187261,-10066.800811,-592.164754,0.000000
3593.187591,-9474.636058,-1258.350101,1302.362347
3593.187920,-8586.388927,-1480.411884,2221.676944
3593.188250,-9030.512492,-888.247130,2221.676944
3593.188580,-9178.553681,-296.082377,1532.190996
3593.188910,-9844.739029,74.020594,1838.629195
3593.189240,-10436.903782,518.144159,1685.410096
3593.189570,-10807.006753,592.164754,1915.238745
3593.189899,-10584.944971,518.144159,1685.410096
3593.190229,-10362.883188,370.102971,689.485948
3593.190559,-10140.821405,296.082377,-689.485948
3593.190889,-9622.677246,370.102971,-1915.238745
3593.191219,-9696.697840,814.226536,-2681.334243
3593.191549,-9474.636058,444.123565,-2451.505594
3593.191879,-9252.574275,222.061783,-1302.362347
3593.192208,-8660.409521,0.000000,536.266849
3593.192538,-8956.491898,-296.082377,1532.190996
3593.192868,-8956.491898,0.000000,2068.457845
3593.193198,-9326.594869,296.082377,1532.190996
3593.193528,-9918.759623,962.267725,1072.533697
3593.193858,-10732.986159,740.205942,459.657299
3593.194187,-11251.130318,444.123565,153.219100
3593.194517,-10807.006753,222.061783,0.000000
3593.194847,-10140.821405,-74.020594,689.485948
3593.195177,-9326.594869,-148.041188,612.876398
3593.195507,-8660.409521,0.000000,153.219100
3593.195837,-8882.471304,444.123565,-536.266849
3593.196167,-9400.615463,1110.308913,-1915.238745
3593.196496,-9622.677246,1554.432478,-2604.724693
3593.196826,-10362.883188,962.267725,-2221.676944
3593.197156,-10362.883188,296.082377,-1455.581446
3593.197486,-10066.800811,-592.164754,0.000000
3593.197816,-9252.574275,-592.164754,459.657299
3593.198146,-8808.450710,-1110.308913,1608.800546
3593.198475,-9104.533087,-666.185348,1378.971896
3593.198805,-9474.636058,-148.041188,1378.971896
3593.199135,-10362.883188,222.061783,1455.581446
3593.199465,-10362.883188,296.082377,1915.238745
3593.199795,-10658.965565,148.041188,1915.238745
3593.200125,-10066.800811,0.000000,1685.410096
3593.200455,-9770.718434,-222.061783,459.657299
3593.200784,-9844.739029,148.041188,-1455.581446
3593.201114,-10288.862594,0.000000,-2374.896044
3593.201444,-9992.780217,0.000000,-2528.115143
3593.201774,-9770.718434,-444.123565,-2221.676944
3593.202104,-9252.574275,-444.123565,-306.438199
3593.202434,-8956.491898,-740.205942,919.314598
3593.202763,-8808.450710,-1184.329507,1915.238745
3593.203093,-8808.450710,-888.247130,1915.238745
3593.203423,-9548.656652,-296.082377,1378.971896
3593.203753,-10436.903782,0.000000,1302.362347
3593.204083,-11029.068536,296.082377,842.705048
3593.204413,-11325.150913,148.041188,842.705048
3593.204743,-10955.047942,-296.082377,842.705048
3593.205072,-10288.862594,-370.102971,919.314598
3593.205402,-8956.491898,-666.185348,612.876398
3593.205732,-8956.491898,0.000000,0.000000
3593.206062,-9326.594869,592.164754,-919.314598
3593.206392,-9548.656652,1332.370696,-2145.067394
3593.206722,-9992.780217,1036.288319,-2221.676944
3593.207051,-10288.862594,814.226536,-1838.629195
3593.207381,-10436.903782,-148.041188,-919.314598
3593.207711,-9622.677246,-444.123565,1072.533697
3593.208041,-9030.512492,-888.247130,1991.848295
3593.208371,-8808.450710,-740.205942,1838.629195
3593.208701,-9400.615463,-74.020594,1991.848295
3593.209030,-9992.780217,296.082377,1685.410096
3593.209360,-10362.883188,814.226536,1302.362347
3593.209690,-10658.965565,740.205942,1685.410096
3593.210020,-10584.944971,666.185348,1915.238745
3593.210350,-10214.842000,370.102971,995.924147
3593.210680,-9474.636058,1110.308913,-153.219100
3593.211010,-9992.780217,740.205942,-1608.800546
3593.211339,-10066.800811,888.247130,-2451.505594
3593.211669,-9844.739029,740.205942,-2681.334243
3593.211999,-9474.636058,740.205942,-1302.362347
3593.212329,-8882.471304,-222.061783,76.609550
3593.212659,-8734.430116,-444.123565,1838.629195
3593.212989,-8660.409521,-518.144159,2681.334243
3593.213318,-9252.574275,0.000000,2298.286494
3593.213648,-9622.677246,296.082377,1685.410096
3593.213978,-10584.944971,814.226536,1378.971896
3593.214308,-11325.150913,666.185348,919.314598
3593.214638,-10881.027347,370.102971,842.705048
3593.214968,-10584.944971,444.123565,689.485948
3593.215298,-9252.574275,0.000000,612.876398
3593.215627,-8660.409521,222.061783,0.000000
3593.215957,-8882.471304,740.205942,-995.924147
3593.216287,-9326.594869,1406.391290,-2757.943793
3593.216617,-9844.739029,1332.370696,-2834.553343
3593.216947,-10288.862594,1036.288319,-2681.334243
3593.217277,-10214.842000,518.144159,-1838.629195
3593.217606,-9696.697840,0.000000,-229.828649
3593.217936,-9178.553681,-740.205942,1149.143247
3593.218266,-8660.409521,-592.164754,1685.410096
3593.218596,-8808.450710,-518.144159,1685.410096
3593.218926,-9474.636058,370.102971,2068.457845
3593.219256,-10510.924376,814.226536,1991.848295
3593.219586,-11103.089130,1110.308913,1915.238745
3593.219915,-11251.130318,666.185348,1685.410096
3593.220245,-10732.986159,296.082377,1378.971896
3593.220575,-9992.780217,444.123565,-459.657299
3593.220905,-9918.759623,592.164754,-1302.362347
3593.221235,-9992.780217,370.102971,-2604.724693
3593.221565,-9770.718434,444.123565,-3064.381992
3593.221894,-9474.636058,740.205942,-2451.505594
3593.222224,-9104.533087,0.000000,-1302.362347
3593.222554,-9030.512492,-296.082377,1149.143247
3593.222884,-9104.533087,-666.185348,2298.286494
3593.223214,-8808.450710,-814.226536,2757.943793
3593.223544,-9622.677246,-444.123565,2528.115143
3593.223874,-10066.800811,0.000000,1838.629195
3593.224203,-11029.068536,-222.061783,1225.752797
3593.224533,-11177.109724,0.000000,1149.143247
3593.224863,-10732.986159,-444.123565,842.705048
3593.225193,-10066.800811,-592.164754,536.266849
3593.225523,-9104.533087,-1110.308913,689.485948
3593.225853,-8734.430116,-444.123565,306.438199
3593.226182,-9030.512492,666.185348,-689.485948
3593.226512,-9400.615463,518.144159,-2451.505594
3593.226842,-9622.677246,518.144159,-2834.553343
3593.227172,-9844.739029,0.000000,-2604.724693
3593.227502,-10066.800811,-370.102971,-1455.581446
3593.227832,-9622.677246,-962.267725,383.047749
3593.228162,-9030.512492,-1406.391290,1838.629195
3593.228491,-8882.471304,-1036.288319,2068.457845
3593.228821,-9104.533087,-592.164754,2068.457845
3593.229151,-9548.656652,-148.041188,1532.190996
3593.229481,-10214.842000,74.020594,1455.581446
3593.229811,-10658.965565,296.082377,1838.629195
3593.230141,-10436.903782,444.123565,1378.971896
3593.230470,-10510.924376,814.226536,995.924147
3593.230800,-9844.739029,370.102971,-1072.533697
3593.231130,-10436.903782,444.123565,-2451.505594
3593.231460,-10140.821405,444.123565,-3064.381992
3593.231790,-9992.780217,444.123565,-2604.724693
3593.232120,-9844.739029,370.102971,-2145.067394
3593.232450,-9252.574275,-296.082377,-76.609550
3593.232779,-9030.512492,-518.144159,1378.971896
3593.233109,-8882.471304,-592.164754,2451.505594
3593.233439,-8882.471304,-222.061783,2834.553343
3593.233769,-9992.780217,0.000000,2451.505594
3593.234099,-10732.986159,518.144159,2298.286494
3593.234429,-11325.150913,518.144159,1302.362347
3593.234758,-11695.253884,814.226536,1225.752797
3593.235088,-10881.027347,0.000000,612.876398
3593.235418,-10066.800811,-148.041188,766.095498
3593.235748,-9030.512492,-296.082377,383.047749
3593.236078,-8438.347739,518.144159,-689.485948
3593.236408,-9252.574275,962.267725,-1149.143247
3593.236738,-9474.636058,1110.308913,-2298.286494
3593.237067,-9400.615463,1036.288319,-2451.505594
3593.237397,-9696.697840,592.164754,-1838.629195
