#time,accel_x,accel_y,accel_z
4148.393225,-10066.800811,148.041188,229.828649
4148.393555,-10066.800811,222.061783,153.219100
4148.393885,-9696.697840,74.020594,536.266849
4148.394214,-9326.594869,370.102971,229.828649
4148.394544,-9696.697840,222.061783,383.047749
4148.394874,-10066.800811,148.041188,76.609550
4148.395204,-10066.800811,0.000000,76.609550
4148.395533,-9844.739029,74.020594,-919.314598
4148.395863,-9548.656652,-444.123565,153.219100
4148.396193,-9770.718434,0.000000,842.705048
4148.396523,-9474.636058,-148.041188,612.876398
4148.396852,-9474.636058,-296.082377,459.657299
4148.397182,-9548.656652,0.000000,536.266849
4148.397512,-9844.739029,0.000000,306.438199
4148.397842,-9992.780217,296.082377,229.828649
4148.398171,-10066.800811,0.000000,536.266849
4148.398501,-9844.739029,370.102971,536.266849
4148.398831,-9770.718434,-444.123565,1072.533697
4148.399161,-9770.718434,-518.144159,1455.581446
4148.399490,-9622.677246,-666.185348,1685.410096
4148.399820,-9918.759623,0.000000,1838.629195
4148.400150,-10288.862594,-370.102971,766.095498
4148.400480,-9770.718434,-518.144159,0.000000
4148.400809,-9548.656652,-592.164754,0.000000
4148.401139,-9770.718434,-222.061783,536.266849
4148.401469,-9622.677246,-444.123565,1608.800546
4148.401799,-9918.759623,-148.041188,1608.800546
4148.402128,-9326.594869,-666.185348,1838.629195
4148.402458,-9252.574275,-740.205942,1762.019645
4148.402788,-9400.615463,-740.205942,2068.457845
4148.403118,-10140.821405,-1036.288319,1915.238745
4148.403447,-9770.718434,-666.185348,2451.505594
4148.403777,-9770.718434,-1184.329507,2528.115143
4148.404107,-9770.718434,-962.267725,3064.381992
4148.404437,-10436.903782,-888.247130,2834.553343
4148.404766,-10066.800811,-444.123565,2374.896044
4148.405096,-10288.862594,-666.185348,1991.848295
4148.405426,-10510.924376,-740.205942,1991.848295
4148.405756,-9770.718434,-1332.370696,1915.238745
4148.406085,-9844.739029,-1554.432478,2221.676944
4148.406415,-10066.800811,-1924.535449,2757.943793
4148.406745,-10214.842000,-2442.679609,2528.115143
4148.407075,-9770.718434,-2960.823768,2834.553343
4148.407404,-8734.430116,-3552.988522,2757.943793
4148.407734,-8512.368333,-3552.988522,3064.381992
4148.408064,-9030.512492,-3256.906145,3907.087040
4148.408394,-9696.697840,-2590.720797,3677.258390
4148.408723,-10140.821405,-2812.782580,3983.696590
4148.409053,-10732.986159,-2960.823768,3600.648841
4148.409383,-11399.171507,-2812.782580,2757.943793
4148.409713,-10732.986159,-2294.638420,1838.629195
4148.410042,-10140.821405,-3034.844362,919.314598
4148.410372,-8956.491898,-2738.761985,919.314598
4148.410702,-8808.450710,-2886.803174,1225.752797
4148.411032,-8660.409521,-3034.844362,2298.286494
4148.411361,-9400.615463,-3478.967927,2528.115143
4148.411691,-9326.594869,-3997.112087,3294.210641
4148.412021,-9252.574275,-4145.153275,3140.991542
4148.412351,-10066.800811,-4589.276840,2681.334243
4148.412680,-9474.636058,-4071.132681,3294.210641
4148.413010,-9770.718434,-4293.194464,3907.087040
4148.413340,-10214.842000,-3404.947333,4749.792088
4148.413670,-10362.883188,-3108.864956,3677.258390
4148.413999,-10881.027347,-2072.576638,2068.457845
4148.414329,-10362.883188,-2146.597232,1149.143247
4148.414659,-10584.944971,-2368.659014,1302.362347
4148.414989,-10510.924376,-2960.823768,2681.334243
4148.415318,-10140.821405,-3256.906145,2757.943793
4148.415648,-9548.656652,-3775.050304,1991.848295
4148.415978,-8956.491898,-3552.988522,1685.410096
4148.416308,-9104.533087,-3627.009116,1302.362347
4148.416637,-9622.677246,-3404.947333,2757.943793
4148.416967,-10436.903782,-2664.741391,4136.915689
4148.417297,-10732.986159,-1924.535449,4060.306139
4148.417627,-10362.883188,-2146.597232,2911.162892
4148.417956,-9252.574275,-2516.700203,1991.848295
4148.418286,-10140.821405,-2664.741391,2604.724693
4148.418616,-10732.986159,-2738.761985,2987.772442
4148.418946,-10214.842000,-2368.659014,3064.381992
4148.419275,-9104.533087,-2368.659014,3064.381992
4148.419605,-8660.409521,-2146.597232,2451.505594
4148.419935,-9400.615463,-1702.473667,1149.143247
4148.420265,-10140.821405,-1554.432478,689.485948
4148.420594,-10066.800811,-1110.308913,1149.143247
4148.420924,-9844.739029,-1184.329507,2451.505594
4148.421254,-9474.636058,-1554.432478,3830.477490
4148.421584,-9474.636058,-1480.411884,3600.648841
4148.421913,-9696.697840,-1184.329507,2987.772442
4148.422243,-10140.821405,-1110.308913,1838.629195
4148.422573,-9992.780217,-1110.308913,1072.533697
4148.422903,-10066.800811,-444.123565,2374.896044
4148.423232,-9770.718434,-1184.329507,2757.943793
4148.423562,-9326.594869,-296.082377,2834.553343
4148.423892,-9548.656652,-444.123565,1991.848295
4148.424222,-9770.718434,-148.041188,842.705048
4148.424551,-9622.677246,-1184.329507,612.876398
4148.424881,-9548.656652,-666.185348,1149.143247
4148.425211,-9622.677246,-666.185348,1838.629195
4148.425541,-9622.677246,-444.123565,2681.334243
4148.425870,-9770.718434,-888.247130,2757.943793
4148.426200,-10362.883188,-1110.308913,1762.019645
4148.426530,-10732.986159,-592.164754,1532.190996
4148.426860,-9548.656652,-1332.370696,1685.410096
4148.427189,-9992.780217,-1406.391290,2298.286494
4148.427519,-10140.821405,-666.185348,3600.648841
4148.427849,-10066.800811,-1184.329507,3447.429741
4148.428179,-9474.636058,-1184.329507,2374.896044
4148.428508,-9252.574275,-814.226536,229.828649
4148.428838,-9548.656652,-1554.432478,306.438199
4148.429168,-10140.821405,-1184.329507,2298.286494
4148.429498,-10584.944971,-1480.411884,3140.991542
4148.429827,-9844.739029,-2368.659014,2911.162892
4148.430157,-9474.636058,-2368.659014,1915.238745
4148.430487,-9252.574275,-2516.700203,2374.896044
4148.430817,-9770.718434,-2664.741391,2834.553343
4148.431146,-9770.718434,-2960.823768,3753.867940
4148.431476,-9474.636058,-2812.782580,3983.696590
4148.431806,-9696.697840,-2516.700203,3983.696590
4148.432136,-9770.718434,-2516.700203,3064.381992
4148.432465,-10807.006753,-2368.659014,2757.943793
4148.432795,-10955.047942,-2738.761985,2068.457845
4148.433125,-9844.739029,-3034.844362,2068.457845
4148.433455,-8956.491898,-2960.823768,1685.410096
4148.433784,-8660.409521,-3108.864956,1915.238745
4148.434114,-9918.759623,-2516.700203,2681.334243
4148.434444,-10362.883188,-2738.761985,2911.162892
4148.434774,-10288.862594,-3108.864956,1915.238745
4148.435103,-9030.512492,-3478.967927,2528.115143
4148.435433,-9474.636058,-3478.967927,3753.867940
4148.435763,-10955.047942,-3627.009116,4596.572988
4148.436093,-10881.027347,-3330.926739,4596.572988
4148.436422,-9918.759623,-3627.009116,3140.991542
4148.436752,-9474.636058,-2886.803174,2374.896044
4148.437082,-10066.800811,-2146.597232,2221.676944
4148.437412,-11029.068536,-2368.659014,2987.772442
4148.437741,-10732.986159,-2368.659014,2834.553343
4148.438071,-9474.636058,-3182.885551,2068.457845
4148.438401,-9548.656652,-3404.947333,1225.752797
4148.438731,-8956.491898,-3997.112087,1685.410096
4148.439060,-9474.636058,-3701.029710,2145.067394
4148.439390,-9178.553681,-3034.844362,2451.505594
4148.439720,-8808.450710,-2886.803174,3064.381992
4148.440050,-9548.656652,-2368.659014,2911.162892
4148.440379,-10214.842000,-2442.679609,2757.943793
4148.440709,-10807.006753,-1998.556043,3600.648841
4148.441039,-10214.842000,-2442.679609,3370.820191
4148.441369,-9992.780217,-2146.597232,2604.724693
4148.441698,-9474.636058,-2368.659014,2298.286494
4148.442028,-9400.615463,-2294.638420,2145.067394
4148.442358,-9474.636058,-1628.453072,2834.553343
4148.442688,-9770.718434,-1110.308913,1378.971896
4148.443017,-9696.697840,-1776.494261,766.095498
4148.443347,-9992.780217,-1628.453072,1608.800546
4148.443677,-9400.615463,-1406.391290,2757.943793
4148.444007,-9326.594869,-1406.391290,2834.553343
4148.444336,-9178.553681,-1480.411884,2451.505594
4148.444666,-9696.697840,-1258.350101,3140.991542
4148.444996,-11029.068536,-1258.350101,2604.724693
4148.445326,-11029.068536,-1036.288319,2451.505594
4148.445655,-10807.006753,-1110.308913,1455.581446
4148.445985,-9770.718434,-1406.391290,1302.362347
4148.446315,-8882.471304,-1184.329507,1455.581446
4148.446645,-8808.450710,-888.247130,1762.019645
4148.446974,-9548.656652,-518.144159,1685.410096
4148.447304,-10140.821405,-518.144159,842.705048
4148.447634,-9696.697840,-666.185348,612.876398
4148.447964,-10214.842000,-814.226536,153.219100
4148.448293,-9548.656652,-1184.329507,306.438199
4148.448623,-9030.512492,-1406.391290,1685.410096
4148.448953,-9030.512492,-1406.391290,1838.629195
4148.449283,-9178.553681,-666.185348,1378.971896
4148.449612,-9770.718434,0.000000,306.438199
4148.449942,-9918.759623,518.144159,-383.047749
4148.450272,-10584.944971,962.267725,-76.609550
4148.450602,-11251.130318,888.247130,76.609550
4148.450931,-9326.594869,-296.082377,1072.533697
4148.451261,-9622.677246,-222.061783,1685.410096
4148.451591,-9474.636058,0.000000,2298.286494
4148.451921,-9918.759623,-296.082377,995.924147
4148.452250,-9918.759623,0.000000,-459.657299
4148.452580,-9696.697840,0.000000,-1072.533697
4148.452910,-10732.986159,444.123565,-76.609550
4148.453239,-10732.986159,888.247130,536.266849
4148.453569,-10510.924376,518.144159,995.924147
4148.453899,-9844.739029,296.082377,153.219100
4148.454229,-9696.697840,222.061783,-995.924147
4148.454558,-9844.739029,222.061783,-919.314598
4148.454888,-9474.636058,222.061783,0.000000
4148.455218,-9548.656652,370.102971,1149.143247
4148.455548,-9844.739029,370.102971,1072.533697
4148.455877,-9770.718434,444.123565,229.828649
4148.456207,-9844.739029,148.041188,-1302.362347
4148.456537,-10214.842000,888.247130,-766.095498
4148.456867,-10510.924376,-296.082377,229.828649
4148.457196,-9474.636058,-370.102971,1838.629195
4148.457526,-8364.327145,-444.123565,2911.162892
4148.457856,-8586.388927,0.000000,2298.286494
4148.458186,-9474.636058,-222.061783,306.438199
4148.458515,-9474.636058,518.144159,-459.657299
4148.458845,-10362.883188,0.000000,-919.314598
4148.459175,-10584.944971,962.267725,76.609550
4148.459505,-10658.965565,814.226536,689.485948
4148.459834,-10807.006753,370.102971,306.438199
4148.460164,-9252.574275,-296.082377,-995.924147
4148.460494,-9178.553681,-296.082377,-1685.410096
4148.460823,-8586.388927,-740.205942,-689.485948
4148.461153,-8734.430116,-222.061783,76.609550
4148.461483,-8216.285956,-222.061783,1455.581446
4148.461813,-9252.574275,0.000000,1225.752797
4148.462142,-10436.903782,962.267725,-459.657299
4148.462472,-11325.150913,666.185348,383.047749
4148.462802,-11991.336260,296.082377,536.266849
4148.463132,-10955.047942,0.000000,1072.533697
4148.463461,-9696.697840,-518.144159,612.876398
4148.463791,-8882.471304,-888.247130,76.609550
4148.464121,-8660.409521,-814.226536,-229.828649
4148.464451,-9252.574275,-74.020594,-229.828649
4148.464780,-9548.656652,-592.164754,-229.828649
4148.465110,-9474.636058,74.020594,306.438199
4148.465440,-9844.739029,-222.061783,1149.143247
4148.465770,-10881.027347,222.061783,1225.752797
4148.466099,-10436.903782,-444.123565,1149.143247
4148.466429,-11029.068536,-296.082377,766.095498
4148.466759,-10510.924376,-296.082377,383.047749
4148.467089,-9104.533087,148.041188,842.705048
4148.467418,-9474.636058,-148.041188,689.485948
4148.467748,-9918.759623,74.020594,153.219100
4148.468078,-9992.780217,148.041188,383.047749
4148.468407,-10214.842000,-444.123565,0.000000
4148.468737,-9326.594869,-592.164754,76.609550
4148.469067,-9400.615463,-222.061783,1149.143247
4148.469397,-9030.512492,-148.041188,383.047749
4148.469726,-9400.615463,-740.205942,-383.047749
4148.470056,-9104.533087,222.061783,-383.047749
4148.470386,-10658.965565,-444.123565,76.609550
4148.470716,-11325.150913,148.041188,536.266849
4148.471045,-9770.718434,-370.102971,1838.629195
4148.471375,-8808.450710,-444.123565,995.924147
4148.471705,-8956.491898,0.000000,383.047749
4148.472035,-9030.512492,370.102971,0.000000
4148.472364,-9918.759623,0.000000,153.219100
4148.472694,-10510.924376,518.144159,0.000000
4148.473024,-9844.739029,444.123565,689.485948
4148.473354,-9992.780217,296.082377,536.266849
4148.473683,-10288.862594,814.226536,-689.485948
4148.474013,-10584.944971,148.041188,-842.705048
4148.474343,-10288.862594,74.020594,-153.219100
4148.474673,-9104.533087,444.123565,689.485948
4148.475002,-9770.718434,370.102971,1455.581446
4148.475332,-10214.842000,1332.370696,1378.971896
4148.475662,-10510.924376,962.267725,842.705048
4148.475991,-10362.883188,518.144159,-536.266849
4148.476321,-10288.862594,0.000000,-689.485948
4148.476651,-10584.944971,518.144159,383.047749
4148.476981,-9696.697840,0.000000,306.438199
4148.477310,-9400.615463,444.123565,0.000000
4148.477640,-8956.491898,740.205942,-842.705048
4148.477970,-9622.677246,444.123565,-1608.800546
4148.478300,-10362.883188,814.226536,-919.314598
4148.478629,-9400.615463,592.164754,-383.047749
4148.478959,-9548.656652,888.247130,536.266849
4148.479289,-9918.759623,222.061783,229.828649
4148.479619,-9400.615463,444.123565,0.000000
4148.479948,-9400.615463,0.000000,-459.657299
4148.480278,-9474.636058,444.123565,-766.095498
4148.480608,-9178.553681,148.041188,0.000000
4148.480938,-9326.594869,518.144159,536.266849
4148.481267,-9548.656652,0.000000,76.609550
4148.481597,-9474.636058,518.144159,-229.828649
4148.481927,-10288.862594,148.041188,0.000000
4148.482257,-9918.759623,0.000000,536.266849
4148.482586,-9474.636058,148.041188,919.314598
4148.482916,-9622.677246,518.144159,919.314598
4148.483246,-10288.862594,740.205942,995.924147
4148.483575,-10510.924376,592.164754,306.438199
4148.483905,-10807.006753,148.041188,-306.438199
4148.484235,-10881.027347,666.185348,-612.876398
4148.484565,-10362.883188,148.041188,383.047749
4148.484894,-9548.656652,0.000000,536.266849
4148.485224,-9474.636058,518.144159,459.657299
4148.485554,-9770.718434,0.000000,0.000000
4148.485884,-10214.842000,0.000000,-459.657299
4148.486213,-10807.006753,296.082377,76.609550
4148.486543,-10140.821405,0.000000,612.876398
4148.486873,-10658.965565,-74.020594,536.266849
4148.487203,-10066.800811,148.041188,842.705048
4148.487532,-9696.697840,-592.164754,383.047749
4148.487862,-9474.636058,-296.082377,536.266849
4148.488192,-9548.656652,-444.123565,306.438199
4148.488522,-10362.883188,0.000000,459.657299
4148.488851,-9992.780217,-592.164754,-689.485948
4148.489181,-9252.574275,-1110.308913,-1378.971896
4148.489511,-7920.203579,-1258.350101,-306.438199
4148.489841,-9178.553681,-1258.350101,1149.143247
4148.490170,-9104.533087,-296.082377,766.095498
4148.490500,-8438.347739,-1110.308913,306.438199
4148.490830,-9622.677246,-444.123565,536.266849
4148.491159,-9548.656652,-222.061783,1149.143247
4148.491489,-11325.150913,-296.082377,1149.143247
4148.491819,-11473.192101,-370.102971,1608.800546
4148.492149,-9030.512492,-740.205942,1915.238745
4148.492478,-8068.244768,-666.185348,383.047749
4148.492808,-8956.491898,-518.144159,-689.485948
4148.493138,-10214.842000,-222.061783,76.609550
4148.493468,-10362.883188,74.020594,689.485948
4148.493797,-10362.883188,222.061783,842.705048
4148.494127,-9992.780217,0.000000,153.219100
4148.494457,-9770.718434,0.000000,0.000000
4148.494787,-10214.842000,444.123565,-306.438199
4148.495116,-10584.944971,518.144159,-919.314598
4148.495446,-10807.006753,74.020594,383.047749
4148.495776,-10288.862594,518.144159,1685.410096
4148.496106,-9770.718434,370.102971,2298.286494
4148.496435,-9548.656652,0.000000,995.924147
4148.496765,-9918.759623,148.041188,0.000000
4148.497095,-10066.800811,-592.164754,-995.924147
4148.497425,-9326.594869,-518.144159,-536.266849
4148.497754,-9030.512492,0.000000,0.000000
4148.498084,-8512.368333,74.020594,766.095498
4148.498414,-9400.615463,222.061783,-306.438199
4148.498743,-9696.697840,444.123565,-766.095498
4148.499073,-11029.068536,296.082377,-766.095498
4148.499403,-11177.109724,222.061783,-306.438199
4148.499733,-8660.409521,592.164754,306.438199
4148.500062,-7624.121203,148.041188,383.047749
4148.500392,-9474.636058,740.205942,76.609550
4148.500722,-10288.862594,148.041188,459.657299
4148.501052,-10214.842000,0.000000,-459.657299
4148.501381,-9474.636058,222.061783,-919.314598
4148.501711,-9326.594869,370.102971,536.266849
4148.502041,-10362.883188,666.185348,1302.362347
4148.502371,-9622.677246,592.164754,0.000000
4148.502700,-9622.677246,814.226536,-689.485948
4148.503030,-9992.780217,0.000000,-1302.362347
4148.503360,-10362.883188,962.267725,0.000000
4148.503690,-10362.883188,-148.041188,919.314598
4148.504019,-9770.718434,296.082377,1072.533697
4148.504349,-9104.533087,666.185348,689.485948
4148.504679,-10436.903782,444.123565,-612.876398
4148.505009,-11621.233289,-296.082377,-229.828649
4148.505338,-10288.862594,222.061783,383.047749
4148.505668,-9844.739029,148.041188,2145.067394
4148.505998,-9622.677246,296.082377,1225.752797
4148.506327,-9178.553681,74.020594,689.485948
4148.506657,-9474.636058,-666.185348,-842.705048
4148.506987,-10214.842000,0.000000,-842.705048
4148.507317,-10288.862594,0.000000,689.485948
4148.507646,-9844.739029,-296.082377,766.095498
4148.507976,-9326.594869,-296.082377,306.438199
4148.508306,-8364.327145,-370.102971,-153.219100
4148.508636,-9252.574275,-888.247130,-1072.533697
4148.508965,-10140.821405,-370.102971,-1225.752797
4148.509295,-9474.636058,-666.185348,689.485948
4148.509625,-8660.409521,-444.123565,1225.752797
4148.509955,-9326.594869,-222.061783,1838.629195
4148.510284,-10214.842000,-296.082377,995.924147
4148.510614,-10214.842000,-518.144159,0.000000
4148.510944,-10066.800811,0.000000,689.485948
4148.511274,-10362.883188,370.102971,919.314598
4148.511603,-10362.883188,0.000000,766.095498
4148.511933,-9178.553681,444.123565,459.657299
4148.512263,-9326.594869,74.020594,0.000000
4148.512593,-10510.924376,-296.082377,153.219100
4148.512922,-10066.800811,148.041188,229.828649
4148.513252,-9548.656652,-296.082377,229.828649
4148.513582,-10140.821405,0.000000,306.438199
4148.513911,-8734.430116,148.041188,842.705048
4148.514241,-9992.780217,-444.123565,612.876398
4148.514571,-9844.739029,-222.061783,1378.971896
4148.514901,-10807.006753,296.082377,1838.629195
4148.515230,-10955.047942,0.000000,1302.362347
4148.515560,-9918.759623,222.061783,153.219100
4148.515890,-8882.471304,370.102971,-306.438199
4148.516220,-9622.677246,148.041188,-536.266849
4148.516549,-10881.027347,592.164754,-383.047749
4148.516879,-9844.739029,370.102971,-536.266849
4148.517209,-9104.533087,-296.082377,-1378.971896
4148.517539,-9622.677246,814.226536,-1149.143247
4148.517868,-10066.800811,370.102971,-1072.533697
4148.518198,-9696.697840,0.000000,-1149.143247
4148.518528,-9474.636058,444.123565,-612.876398
4148.518858,-10140.821405,296.082377,383.047749
4148.519187,-9844.739029,0.000000,1149.143247
4148.519517,-8956.491898,0.000000,306.438199
4148.519847,-8882.471304,0.000000,76.609550
4148.520177,-9474.636058,-296.082377,383.047749
4148.520506,-9696.697840,370.102971,1149.143247
4148.520836,-9548.656652,-222.061783,2145.067394
4148.521166,-9474.636058,0.000000,995.924147
4148.521495,-10066.800811,444.123565,459.657299
4148.521825,-11177.109724,518.144159,-229.828649
4148.522155,-10214.842000,0.000000,-459.657299
4148.522485,-9104.533087,222.061783,459.657299
4148.522814,-9252.574275,0.000000,1302.362347
4148.523144,-10066.800811,592.164754,1072.533697
4148.523474,-9548.656652,518.144159,0.000000
4148.523804,-9474.636058,74.020594,-1149.143247
4148.524133,-9918.759623,0.000000,-153.219100
4148.524463,-10066.800811,370.102971,995.924147
4148.524793,-9622.677246,-444.123565,689.485948
4148.525123,-8956.491898,0.000000,229.828649
4148.525452,-8882.471304,222.061783,306.438199
4148.525782,-10510.924376,0.000000,-229.828649
4148.526112,-10436.903782,0.000000,-1378.971896
4148.526442,-9474.636058,0.000000,-229.828649
4148.526771,-8956.491898,222.061783,995.924147
4148.527101,-9992.780217,592.164754,1072.533697
4148.527431,-10288.862594,74.020594,536.266849
4148.527761,-10140.821405,0.000000,-919.314598
4148.528090,-9252.574275,222.061783,-1915.238745
4148.528420,-9918.759623,0.000000,-766.095498
4148.528750,-9918.759623,222.061783,76.609550
4148.529079,-9400.615463,74.020594,459.657299
4148.529409,-8438.347739,222.061783,0.000000
4148.529739,-9992.780217,296.082377,-459.657299
4148.530069,-11621.233289,666.185348,-229.828649
4148.530398,-11399.171507,370.102971,536.266849
4148.530728,-10140.821405,0.000000,766.095498
4148.531058,-8734.430116,0.000000,1225.752797
4148.531388,-9252.574275,0.000000,1532.190996
4148.531717,-10214.842000,296.082377,919.314598
4148.532047,-10288.862594,518.144159,536.266849
4148.532377,-10807.006753,518.144159,0.000000
4148.532707,-10807.006753,0.000000,306.438199
4148.533036,-10436.903782,148.041188,995.924147
4148.533366,-9252.574275,-592.164754,766.095498
4148.533696,-8438.347739,-592.164754,1149.143247
4148.534026,-8734.430116,-666.185348,689.485948
4148.534355,-9400.615463,-888.247130,383.047749
4148.534685,-9992.780217,-666.185348,306.438199
4148.535015,-9400.615463,0.000000,536.266849
4148.535345,-10436.903782,-222.061783,1455.581446
4148.535674,-10436.903782,0.000000,919.314598
4148.536004,-9252.574275,-518.144159,536.266849
4148.536334,-9030.512492,-296.082377,0.000000
4148.536663,-9400.615463,-74.020594,-612.876398
4148.536993,-9104.533087,-148.041188,-689.485948
4148.537323,-9252.574275,0.000000,-766.095498
4148.537653,-9400.615463,-148.041188,-153.219100
4148.537982,-8808.450710,-296.082377,229.828649
4148.538312,-9030.512492,-148.041188,459.657299
4148.538642,-9770.718434,0.000000,0.000000
4148.538972,-9548.656652,-370.102971,153.219100
4148.539301,-8956.491898,-296.082377,-306.438199
4148.539631,-9548.656652,0.000000,995.924147
4148.539961,-10732.986159,74.020594,1149.143247
4148.540291,-10658.965565,148.041188,995.924147
4148.540620,-10066.800811,74.020594,459.657299
4148.540950,-9548.656652,296.082377,0.000000
4148.541280,-9844.739029,74.020594,76.609550
4148.541610,-9992.780217,444.123565,612.876398
4148.541939,-10436.903782,444.123565,459.657299
4148.542269,-10732.986159,888.247130,153.219100
4148.542599,-10436.903782,740.205942,-612.876398
4148.542929,-9622.677246,592.164754,-1685.410096
4148.543258,-9696.697840,296.082377,-2298.286494
4148.543588,-9178.553681,1332.370696,-766.095498
4148.543918,-10066.800811,444.123565,689.485948
4148.544247,-10288.862594,592.164754,766.095498
4148.544577,-9622.677246,444.123565,306.438199
4148.544907,-9474.636058,-222.061783,-536.266849
4148.545237,-9400.615463,0.000000,-536.266849
4148.545566,-9548.656652,0.000000,76.609550
4148.545896,-9326.594869,0.000000,689.485948
4148.546226,-9548.656652,0.000000,229.828649
4148.546556,-9104.533087,740.205942,536.266849
4148.546885,-9770.718434,222.061783,0.000000
4148.547215,-9622.677246,296.082377,-1072.533697
4148.547545,-9030.512492,296.082377,153.219100
4148.547875,-9548.656652,0.000000,229.828649
4148.548204,-10510.924376,148.041188,536.266849
4148.548534,-9918.759623,296.082377,766.095498
4148.548864,-9104.533087,518.144159,0.000000
4148.549194,-9104.533087,666.185348,-1762.019645
4148.549524,-9696.697840,0.000000,-1072.533697
4148.549854,-9844.739029,222.061783,229.828649
4148.550183,-10362.883188,1184.329507,1072.533697
4148.550513,-9548.656652,0.000000,919.314598
4148.550843,-9696.697840,444.123565,689.485948
4148.551173,-9918.759623,592.164754,919.314598
4148.551503,-10140.821405,0.000000,459.657299
4148.551833,-10140.821405,222.061783,76.609550
4148.552163,-9622.677246,370.102971,1225.752797
4148.552493,-9400.615463,148.041188,1378.971896
4148.552823,-9178.553681,148.041188,229.828649
4148.553153,-9400.615463,888.247130,0.000000
4148.553483,-10288.862594,666.185348,-842.705048
4148.553812,-10584.944971,962.267725,-766.095498
4148.554142,-9400.615463,370.102971,-383.047749
4148.554472,-9104.533087,222.061783,-229.828649
4148.554802,-9844.739029,0.000000,-153.219100
4148.555132,-9326.594869,-148.041188,383.047749
4148.555462,-9548.656652,0.000000,229.828649
4148.555792,-10214.842000,-370.102971,-153.219100
4148.556122,-10362.883188,74.020594,612.876398
4148.556452,-10288.862594,-518.144159,1455.581446
4148.556782,-9844.739029,0.000000,766.095498
4148.557111,-9548.656652,-148.041188,383.047749
4148.557441,-9548.656652,-666.185348,-766.095498
4148.557771,-9030.512492,-370.102971,-536.266849
4148.558101,-9400.615463,-444.123565,612.876398
4148.558431,-10214.842000,-370.102971,766.095498
4148.558761,-10066.800811,-740.205942,459.657299
4148.559091,-9770.718434,-296.082377,383.047749
4148.559421,-9770.718434,-962.267725,383.047749
4148.559751,-10214.842000,-370.102971,76.609550
4148.560081,-9992.780217,-740.205942,306.438199
4148.560411,-10140.821405,-222.061783,0.000000
4148.560740,-9696.697840,0.000000,0.000000
4148.561070,-9400.615463,0.000000,-229.828649
4148.561400,-10436.903782,0.000000,-76.609550
4148.561730,-10066.800811,-518.144159,689.485948
4148.562060,-10066.800811,-962.267725,689.485948
4148.562390,-9770.718434,-592.164754,612.876398
4148.562720,-9622.677246,-888.247130,0.000000
4148.563050,-8808.450710,-1184.329507,-1225.752797
4148.563380,-7920.203579,-1036.288319,-1378.971896
4148.563710,-8290.306550,-222.061783,306.438199
4148.564040,-10658.965565,0.000000,1072.533697
4148.564369,-11399.171507,444.123565,612.876398
4148.564699,-9992.780217,-148.041188,76.609550
4148.565029,-9548.656652,74.020594,-919.314598
4148.565359,-9474.636058,222.061783,-919.314598
4148.565689,-9326.594869,-444.123565,536.266849
4148.566019,-8882.471304,-518.144159,536.266849
4148.566349,-9104.533087,0.000000,995.924147
4148.566679,-9548.656652,0.000000,306.438199
4148.567009,-10436.903782,444.123565,76.609550
4148.567339,-10066.800811,74.020594,-306.438199
4148.567668,-9252.574275,222.061783,689.485948
4148.567998,-10214.842000,1036.288319,1378.971896
4148.568328,-10140.821405,444.123565,995.924147
4148.568658,-10140.821405,148.041188,612.876398
4148.568988,-10436.903782,814.226536,153.219100
4148.569318,-11029.068536,814.226536,229.828649
4148.569648,-10510.924376,444.123565,0.000000
4148.569978,-9178.553681,222.061783,0.000000
4148.570308,-8956.491898,592.164754,766.095498
4148.570638,-9178.553681,74.020594,229.828649
4148.570968,-9918.759623,296.082377,-383.047749
4148.571297,-9400.615463,740.205942,0.000000
4148.571627,-9992.780217,666.185348,459.657299
4148.571957,-10140.821405,740.205942,383.047749
4148.572287,-9992.780217,222.061783,919.314598
4148.572617,-9770.718434,222.061783,0.000000
4148.572947,-9548.656652,-666.185348,76.609550
4148.573277,-10362.883188,296.082377,229.828649
4148.573607,-10288.862594,296.082377,1225.752797
4148.573937,-8808.450710,444.123565,612.876398
4148.574267,-8882.471304,370.102971,76.609550
4148.574597,-9770.718434,814.226536,-536.266849
4148.574926,-10140.821405,222.061783,-1302.362347
4148.575256,-9474.636058,740.205942,-1149.143247
4148.575586,-9548.656652,592.164754,-229.828649
4148.575916,-10066.800811,1110.308913,229.828649
4148.576246,-9844.739029,444.123565,0.000000
4148.576576,-9696.697840,518.144159,-229.828649
4148.576906,-9918.759623,888.247130,-612.876398
4148.577236,-10732.986159,666.185348,0.000000
4148.577566,-10658.965565,444.123565,536.266849
4148.577896,-10214.842000,592.164754,1072.533697
4148.578225,-9770.718434,592.164754,1225.752797
4148.578555,-10214.842000,518.144159,689.485948
4148.578885,-10214.842000,370.102971,-536.266849
4148.579215,-9474.636058,0.000000,-842.705048
4148.579545,-9844.739029,444.123565,-153.219100
4148.579875,-9992.780217,296.082377,459.657299
4148.580205,-10140.821405,370.102971,536.266849
4148.580535,-9622.677246,444.123565,0.000000
4148.580865,-9622.677246,370.102971,-536.266849
4148.581195,-10362.883188,74.020594,-919.314598
4148.581525,-10510.924376,-222.061783,-842.705048
4148.581854,-9400.615463,-518.144159,766.095498
4148.582184,-8956.491898,-370.102971,1608.800546
4148.582514,-9770.718434,-666.185348,1149.143247
4148.582844,-9696.697840,0.000000,612.876398
4148.583174,-9622.677246,-444.123565,-612.876398
4148.583504,-9992.780217,0.000000,-842.705048
4148.583834,-9844.739029,0.000000,536.266849
4148.584164,-8808.450710,-222.061783,612.876398
4148.584494,-8512.368333,-148.041188,153.219100
4148.584824,-8956.491898,-74.020594,-459.657299
4148.585153,-9622.677246,-1036.288319,-1072.533697
4148.585483,-9992.780217,-740.205942,-1378.971896
4148.585813,-9104.533087,-1480.411884,383.047749
4148.586143,-9030.512492,-962.267725,1378.971896
4148.586473,-8956.491898,-740.205942,2451.505594
4148.586803,-9844.739029,74.020594,2145.067394
4148.587133,-10955.047942,-74.020594,842.705048
4148.587463,-10658.965565,444.123565,229.828649
4148.587793,-10955.047942,-222.061783,766.095498
4148.588123,-11547.212695,-296.082377,1225.752797
4148.588453,-10288.862594,0.000000,1838.629195
4148.588782,-9474.636058,-814.226536,1149.143247
4148.589112,-9400.615463,-814.226536,0.000000
4148.589442,-9548.656652,-370.102971,-229.828649
4148.589772,-9918.759623,0.000000,-459.657299
4148.590102,-10140.821405,-370.102971,383.047749
4148.590432,-9696.697840,0.000000,612.876398
4148.590762,-9992.780217,74.020594,1915.238745
4148.591092,-10584.944971,-370.102971,919.314598
4148.591422,-10140.821405,-296.082377,536.266849
4148.591752,-9474.636058,-592.164754,-153.219100
4148.592082,-9696.697840,0.000000,153.219100
4148.592411,-9252.574275,0.000000,1302.362347
4148.592741,-9844.739029,-222.061783,766.095498
4148.593071,-9548.656652,0.000000,0.000000
4148.593401,-8808.450710,0.000000,0.000000
4148.593731,-9104.533087,0.000000,-766.095498
4148.594061,-9622.677246,-518.144159,-536.266849
4148.594391,-9326.594869,148.041188,842.705048
4148.594721,-8586.388927,0.000000,229.828649
4148.595051,-9548.656652,222.061783,-995.924147
4148.595381,-9622.677246,222.061783,-919.314598
4148.595710,-10214.842000,74.020594,-1072.533697
4148.596040,-9696.697840,592.164754,-306.438199
4148.596370,-9474.636058,740.205942,612.876398
4148.596700,-10362.883188,370.102971,229.828649
4148.597030,-9844.739029,962.267725,306.438199
4148.597360,-9770.718434,814.226536,76.609550
4148.597690,-9918.759623,518.144159,-766.095498
4148.598020,-10362.883188,888.247130,-919.314598
4148.598350,-10510.924376,444.123565,76.609550
4148.598680,-9548.656652,148.041188,689.485948
4148.599010,-9030.512492,740.205942,842.705048
4148.599339,-9844.739029,592.164754,459.657299
4148.599669,-10881.027347,962.267725,76.609550
4148.599999,-9918.759623,444.123565,-306.438199
4148.600329,-9918.759623,814.226536,0.000000
4148.600659,-10288.862594,518.144159,383.047749
4148.600989,-10140.821405,518.144159,1149.143247
4148.601319,-8956.491898,0.000000,-612.876398
4148.601649,-8438.347739,0.000000,-1149.143247
4148.601979,-8734.430116,518.144159,-536.266849
4148.602309,-10214.842000,222.061783,0.000000
4148.602639,-10658.965565,444.123565,229.828649
4148.602968,-9548.656652,296.082377,383.047749
4148.603298,-8216.285956,222.061783,-536.266849
4148.603628,-9178.553681,222.061783,76.609550
4148.603958,-9548.656652,296.082377,76.609550
4148.604288,-9474.636058,0.000000,-383.047749
4148.604618,-8956.491898,1110.308913,-689.485948
4148.604948,-9548.656652,148.041188,0.000000
4148.605278,-10066.800811,0.000000,689.485948
4148.605608,-9992.780217,0.000000,919.314598
4148.605938,-10288.862594,0.000000,612.876398
4148.606267,-9918.759623,0.000000,0.000000
4148.606597,-9622.677246,518.144159,0.000000
4148.606927,-9548.656652,74.020594,229.828649
4148.607257,-9918.759623,296.082377,612.876398
4148.607587,-10362.883188,1406.391290,76.609550
4148.607917,-11325.150913,222.061783,-229.828649
4148.608247,-10436.903782,0.000000,-229.828649
4148.608577,-9548.656652,-74.020594,842.705048
4148.608907,-9844.739029,74.020594,1378.971896
4148.609237,-10436.903782,-518.144159,995.924147
4148.609567,-9696.697840,-296.082377,1302.362347
4148.609896,-9844.739029,-518.144159,1149.143247
4148.610226,-10584.944971,-74.020594,919.314598
4148.610556,-10214.842000,-444.123565,689.485948
4148.610886,-10214.842000,-592.164754,0.000000
4148.611216,-9770.718434,0.000000,459.657299
4148.611546,-9178.553681,-1184.329507,1532.190996
4148.611876,-9844.739029,-1036.288319,1532.190996
4148.612206,-9474.636058,-1332.370696,689.485948
4148.612536,-9252.574275,-1406.391290,766.095498
4148.612866,-8882.471304,-1184.329507,-383.047749
4148.613196,-8808.450710,-888.247130,-919.314598
4148.613525,-9252.574275,-962.267725,0.000000
4148.613855,-9326.594869,-518.144159,-153.219100
4148.614185,-8808.450710,-666.185348,-536.266849
4148.614515,-9030.512492,0.000000,0.000000
4148.614845,-9770.718434,0.000000,76.609550
4148.615175,-10658.965565,444.123565,306.438199
4148.615505,-10955.047942,-370.102971,0.000000
4148.615835,-10436.903782,-370.102971,0.000000
4148.616165,-9400.615463,-518.144159,1149.143247
4148.616495,-10140.821405,-148.041188,1149.143247
4148.616824,-9992.780217,-148.041188,612.876398
4148.617154,-9474.636058,0.000000,76.609550
4148.617484,-8882.471304,0.000000,-842.705048
4148.617814,-10362.883188,0.000000,383.047749
4148.618144,-11103.089130,148.041188,1532.190996
4148.618474,-10658.965565,148.041188,1302.362347
4148.618804,-9918.759623,1184.329507,1149.143247
4148.619134,-9770.718434,0.000000,-383.047749
4148.619464,-9918.759623,-222.061783,-995.924147
4148.619794,-9770.718434,-222.061783,536.266849
4148.620124,-9770.718434,0.000000,1225.752797
4148.620453,-10584.944971,444.123565,1762.019645
4148.620783,-9770.718434,0.000000,459.657299
4148.621113,-9696.697840,592.164754,0.000000
4148.621443,-9252.574275,370.102971,-919.314598
4148.621773,-9548.656652,148.041188,-612.876398
4148.622103,-9696.697840,222.061783,153.219100
4148.622433,-9400.615463,1184.329507,536.266849
4148.622763,-9548.656652,444.123565,-153.219100
4148.623093,-9992.780217,296.082377,-919.314598
4148.623423,-9992.780217,148.041188,-689.485948
4148.623752,-9326.594869,74.020594,-459.657299
4148.624082,-9770.718434,0.000000,536.266849
4148.624412,-9030.512492,0.000000,306.438199
4148.624742,-8142.265362,592.164754,153.219100
4148.625072,-8586.388927,740.205942,-383.047749
4148.625402,-10436.903782,666.185348,-153.219100
4148.625732,-11399.171507,1110.308913,153.219100
4148.626062,-9844.739029,1184.329507,0.000000
4148.626392,-9474.636058,666.185348,-306.438199
4148.626722,-9844.739029,1184.329507,-459.657299
4148.627052,-10436.903782,740.205942,-766.095498
4148.627381,-9030.512492,740.205942,-459.657299
4148.627711,-9252.574275,888.247130,-689.485948
4148.628041,-9548.656652,814.226536,-766.095498
4148.628371,-10732.986159,370.102971,306.438199
4148.628701,-9992.780217,1110.308913,1225.752797
4148.629031,-9548.656652,0.000000,-229.828649
4148.629361,-9622.677246,888.247130,-383.047749
4148.629691,-10288.862594,444.123565,0.000000
4148.630021,-9992.780217,666.185348,306.438199
4148.630351,-9696.697840,370.102971,229.828649
4148.630681,-9696.697840,370.102971,153.219100
4148.631010,-9918.759623,74.020594,153.219100
4148.631340,-10436.903782,296.082377,-76.609550
4148.631670,-8882.471304,-296.082377,459.657299
4148.632000,-8882.471304,-370.102971,459.657299
4148.632330,-8808.450710,222.061783,536.266849
4148.632660,-8808.450710,518.144159,995.924147
4148.632990,-9918.759623,296.082377,995.924147
4148.633320,-10658.965565,666.185348,919.314598
4148.633650,-10881.027347,370.102971,1378.971896
4148.633980,-10584.944971,74.020594,153.219100
4148.634309,-9844.739029,0.000000,229.828649
4148.634639,-9400.615463,-296.082377,459.657299
4148.634969,-8956.491898,-444.123565,153.219100
4148.635299,-8808.450710,222.061783,306.438199
4148.635629,-9104.533087,814.226536,76.609550
4148.635959,-9770.718434,814.226536,-536.266849
4148.636289,-10362.883188,962.267725,153.219100
4148.636619,-10881.027347,444.123565,76.609550
4148.636949,-10362.883188,0.000000,-306.438199
4148.637279,-9326.594869,0.000000,0.000000
4148.637609,-9252.574275,222.061783,689.485948
4148.637938,-9770.718434,-148.041188,1072.533697
4148.638268,-9622.677246,0.000000,919.314598
4148.638598,-10510.924376,0.000000,689.485948
4148.638928,-10732.986159,-222.061783,612.876398
4148.639258,-9622.677246,-518.144159,153.219100
4148.639588,-9474.636058,-666.185348,612.876398
4148.639918,-9326.594869,-888.247130,842.705048
4148.640248,-9252.574275,-740.205942,1072.533697
4148.640578,-9474.636058,-518.144159,0.000000
4148.640908,-10510.924376,-888.247130,-383.047749
4148.641238,-10881.027347,-666.185348,306.438199
4148.641567,-9992.780217,-1406.391290,689.485948
4148.641897,-9474.636058,-666.185348,459.657299
4148.642227,-8660.409521,-1184.329507,76.609550
4148.642557,-8882.471304,-2072.576638,-383.047749
4148.642887,-8290.306550,-1184.329507,842.705048
4148.643217,-9104.533087,-962.267725,919.314598
4148.643547,-10584.944971,-888.247130,612.876398
4148.643877,-10584.944971,-1036.288319,1072.533697
4148.644207,-10214.842000,-740.205942,766.095498
4148.644537,-9548.656652,-1480.411884,689.485948
4148.644866,-9252.574275,-518.144159,689.485948
4148.645196,-9474.636058,-740.205942,229.828649
4148.645526,-9326.594869,0.000000,0.000000
4148.645856,-9326.594869,740.205942,306.438199
4148.646186,-10584.944971,-370.102971,0.000000
4148.646516,-11177.109724,-222.061783,612.876398
4148.646846,-10214.842000,-962.267725,1302.362347
4148.647176,-9400.615463,-518.144159,0.000000
4148.647506,-8734.430116,-1332.370696,0.000000
4148.647836,-8882.471304,-296.082377,842.705048
4148.648165,-9548.656652,-518.144159,1762.019645
4148.648495,-10214.842000,814.226536,1455.581446
4148.648825,-10732.986159,1036.288319,766.095498
4148.649155,-11029.068536,1258.350101,306.438199
4148.649485,-11621.233289,1184.329507,0.000000
4148.649814,-10732.986159,740.205942,383.047749
4148.650144,-10436.903782,518.144159,0.000000
4148.650474,-9252.574275,296.082377,-612.876398
4148.650804,-8734.430116,518.144159,-229.828649
4148.651133,-8660.409521,518.144159,-1225.752797
4148.651463,-9474.636058,1258.350101,-1378.971896
4148.651793,-9696.697840,1332.370696,-1532.190996
4148.652123,-10066.800811,740.205942,0.000000
4148.652453,-10288.862594,1554.432478,919.314598
4148.652782,-10510.924376,888.247130,1455.581446
4148.653112,-10362.883188,444.123565,689.485948
4148.653442,-9252.574275,740.205942,0.000000
4148.653772,-9844.739029,222.061783,0.000000
4148.654102,-9696.697840,518.144159,383.047749
4148.654431,-8882.471304,74.020594,1149.143247
4148.654761,-8142.265362,666.185348,612.876398
4148.655091,-8660.409521,666.185348,-459.657299
4148.655421,-9104.533087,1184.329507,-995.924147
4148.655751,-10288.862594,1554.432478,-612.876398
4148.656080,-11103.089130,1184.329507,-766.095498
4148.656410,-10140.821405,1258.350101,0.000000
4148.656740,-9474.636058,666.185348,0.000000
4148.657070,-9474.636058,592.164754,-842.705048
4148.657399,-9770.718434,962.267725,-766.095498
4148.657729,-10881.027347,1406.391290,-1072.533697
4148.658059,-10362.883188,1110.308913,-536.266849
4148.658389,-9400.615463,740.205942,0.000000
4148.658719,-9844.739029,888.247130,459.657299
4148.659048,-10510.924376,814.226536,153.219100
4148.659378,-9770.718434,370.102971,-689.485948
4148.659708,-9178.553681,296.082377,-1532.190996
4148.660038,-9474.636058,592.164754,-1072.533697
4148.660368,-9770.718434,518.144159,0.000000
4148.660697,-10362.883188,518.144159,536.266849
4148.661027,-10066.800811,1184.329507,76.609550
4148.661357,-9918.759623,1036.288319,-306.438199
4148.661687,-9622.677246,0.000000,-1225.752797
4148.662016,-9844.739029,0.000000,-459.657299
4148.662346,-9622.677246,-370.102971,1532.190996
4148.662676,-9104.533087,-222.061783,1225.752797
4148.663006,-9178.553681,-370.102971,842.705048
4148.663336,-9400.615463,-370.102971,153.219100
4148.663665,-10584.944971,-222.061783,0.000000
4148.663995,-10658.965565,74.020594,536.266849
4148.664325,-10140.821405,-222.061783,995.924147
4148.664655,-9770.718434,-222.061783,1378.971896
4148.664985,-9474.636058,-74.020594,1455.581446
4148.665314,-10066.800811,-296.082377,842.705048
4148.665644,-9918.759623,-444.123565,536.266849
4148.665974,-9844.739029,0.000000,229.828649
4148.666304,-9770.718434,-222.061783,-306.438199
4148.666633,-9548.656652,-740.205942,-153.219100
4148.666963,-8956.491898,0.000000,612.876398
4148.667293,-9918.759623,-444.123565,842.705048
4148.667623,-10288.862594,74.020594,459.657299
4148.667953,-10066.800811,-370.102971,612.876398
4148.668282,-9992.780217,-370.102971,306.438199
4148.668612,-10658.965565,-296.082377,536.266849
4148.668942,-10214.842000,-370.102971,1072.533697
4148.669272,-10584.944971,-962.267725,842.705048
4148.669602,-9918.759623,-666.185348,995.924147
4148.669931,-10362.883188,-888.247130,1072.533697
4148.670261,-9474.636058,-518.144159,0.000000
4148.670591,-8512.368333,-1628.453072,-766.095498
4148.670921,-8216.285956,-444.123565,0.000000
4148.671250,-10140.821405,-222.061783,1608.800546
4148.671580,-11325.150913,0.000000,1378.971896
4148.671910,-10732.986159,-1332.370696,536.266849
4148.672240,-10214.842000,-592.164754,-153.219100
4148.672570,-9252.574275,-1702.473667,229.828649
4148.672899,-9400.615463,-962.267725,536.266849
4148.673229,-8808.450710,-666.185348,1608.800546
4148.673559,-8882.471304,-296.082377,1302.362347
4148.673889,-9622.677246,-518.144159,612.876398
4148.674219,-10510.924376,-666.185348,153.219100
4148.674548,-10362.883188,-222.061783,306.438199
4148.674878,-10066.800811,-222.061783,459.657299
4148.675208,-9474.636058,-148.041188,689.485948
4148.675538,-9770.718434,-296.082377,536.266849
4148.675867,-8956.491898,592.164754,-536.266849
4148.676197,-9400.615463,0.000000,-766.095498
4148.676527,-10658.965565,1184.329507,-229.828649
4148.676857,-11325.150913,148.041188,306.438199
4148.677187,-10288.862594,444.123565,995.924147
4148.677516,-8808.450710,-222.061783,1225.752797
4148.677846,-9474.636058,-148.041188,536.266849
4148.678176,-9770.718434,-740.205942,-153.219100
4148.678506,-9400.615463,74.020594,-76.609550
4148.678836,-9474.636058,-296.082377,76.609550
4148.679165,-9622.677246,592.164754,612.876398
4148.679495,-9474.636058,296.082377,689.485948
4148.679825,-9844.739029,1258.350101,229.828649
4148.680155,-9992.780217,888.247130,-1378.971896
4148.680484,-10807.006753,740.205942,-1608.800546
4148.680814,-10288.862594,222.061783,-536.266849
4148.681144,-9326.594869,518.144159,766.095498
4148.681474,-8956.491898,666.185348,229.828649
4148.681804,-9104.533087,0.000000,-153.219100
4148.682133,-9844.739029,740.205942,-689.485948
4148.682463,-10288.862594,888.247130,-766.095498
4148.682793,-10436.903782,814.226536,-1302.362347
4148.683123,-10584.944971,814.226536,383.047749
4148.683453,-10066.800811,888.247130,1685.410096
4148.683782,-9918.759623,296.082377,1149.143247
4148.684112,-9548.656652,592.164754,229.828649
4148.684442,-9992.780217,444.123565,-229.828649
4148.684772,-10288.862594,222.061783,-689.485948
4148.685102,-9622.677246,666.185348,76.609550
4148.685431,-9696.697840,888.247130,1225.752797
4148.685761,-10510.924376,296.082377,612.876398
4148.686091,-9622.677246,296.082377,306.438199
4148.686421,-9252.574275,-148.041188,-306.438199
4148.686750,-8882.471304,-74.020594,0.000000
4148.687080,-9548.656652,148.041188,1072.533697
4148.687410,-9696.697840,370.102971,1378.971896
4148.687740,-9548.656652,-296.082377,-153.219100
4148.688070,-9696.697840,518.144159,-306.438199
4148.688399,-9770.718434,0.000000,-612.876398
4148.688729,-9918.759623,296.082377,-612.876398
4148.689059,-9104.533087,74.020594,0.000000
4148.689389,-9474.636058,370.102971,536.266849
4148.689719,-10140.821405,518.144159,536.266849
4148.690048,-9474.636058,444.123565,-229.828649
4148.690378,-9696.697840,-370.102971,-919.314598
4148.690708,-9474.636058,222.061783,-1072.533697
4148.691038,-9326.594869,296.082377,459.657299
4148.691367,-10066.800811,0.000000,0.000000
4148.691697,-9770.718434,370.102971,-383.047749
4148.692027,-9474.636058,0.000000,229.828649
4148.692357,-9844.739029,-222.061783,0.000000
4148.692687,-9622.677246,222.061783,459.657299
4148.693016,-10288.862594,148.041188,842.705048
4148.693346,-10066.800811,-370.102971,306.438199
4148.693676,-9326.594869,-444.123565,919.314598
4148.694006,-9696.697840,0.000000,995.924147
4148.694336,-9622.677246,0.000000,919.314598
4148.694665,-10066.800811,74.020594,1378.971896
4148.694995,-9622.677246,0.000000,612.876398
4148.695325,-9992.780217,518.144159,-306.438199
4148.695655,-9548.656652,888.247130,0.000000
4148.695984,-9992.780217,0.000000,-76.609550
4148.696314,-10362.883188,592.164754,229.828649
4148.696644,-10140.821405,-148.041188,995.924147
4148.696974,-9622.677246,-74.020594,76.609550
4148.697304,-9326.594869,0.000000,-76.609550
4148.697633,-9178.553681,0.000000,-689.485948
4148.697963,-9770.718434,0.000000,-153.219100
4148.698293,-9178.553681,0.000000,0.000000
4148.698623,-9918.759623,-444.123565,689.485948
4148.698953,-9844.739029,0.000000,919.314598
4148.699282,-10066.800811,666.185348,612.876398
4148.699612,-10436.903782,-666.185348,-306.438199
4148.699942,-9474.636058,-296.082377,-612.876398
4148.700272,-10066.800811,0.000000,536.266849
4148.700601,-10510.924376,0.000000,536.266849
4148.700931,-9844.739029,-888.247130,536.266849
4148.701261,-8882.471304,0.000000,536.266849
4148.701591,-8734.430116,-592.164754,383.047749
4148.701921,-9622.677246,-592.164754,306.438199
4148.702250,-9844.739029,0.000000,689.485948
4148.702580,-10066.800811,222.061783,0.000000
4148.702910,-10066.800811,-148.041188,0.000000
4148.703240,-9844.739029,444.123565,76.609550
4148.703570,-10066.800811,-296.082377,-306.438199
4148.703899,-9474.636058,296.082377,-76.609550
4148.704229,-9326.594869,-370.102971,153.219100
4148.704559,-9178.553681,-740.205942,383.047749
4148.704889,-9030.512492,-518.144159,459.657299
4148.705218,-9474.636058,-148.041188,1149.143247
4148.705548,-9696.697840,-518.144159,1302.362347
4148.705878,-9474.636058,444.123565,1225.752797
4148.706208,-10214.842000,74.020594,842.705048
4148.706538,-10214.842000,222.061783,0.000000
4148.706867,-9844.739029,444.123565,-612.876398
4148.707197,-9770.718434,444.123565,-459.657299
4148.707527,-10214.842000,518.144159,0.000000
4148.707857,-10140.821405,518.144159,459.657299
4148.708187,-9252.574275,74.020594,842.705048
4148.708516,-9474.636058,148.041188,306.438199
4148.708846,-10288.862594,148.041188,0.000000
4148.709176,-9992.780217,0.000000,459.657299
4148.709506,-9252.574275,0.000000,536.266849
4148.709836,-9104.533087,222.061783,689.485948
4148.710165,-10214.842000,222.061783,1072.533697
4148.710495,-10510.924376,-74.020594,459.657299
4148.710825,-9400.615463,296.082377,306.438199
4148.711155,-9326.594869,740.205942,383.047749
4148.711484,-10732.986159,518.144159,766.095498
4148.711814,-11029.068536,74.020594,842.705048
4148.712144,-10066.800811,518.144159,0.000000
4148.712474,-9474.636058,-148.041188,-1149.143247
4148.712804,-9178.553681,-370.102971,-536.266849
4148.713133,-9918.759623,-444.123565,76.609550
4148.713463,-9474.636058,-814.226536,689.485948
4148.713793,-8512.368333,-444.123565,1455.581446
4148.714123,-9178.553681,-296.082377,766.095498
4148.714453,-9992.780217,0.000000,383.047749
4148.714782,-10436.903782,814.226536,1302.362347
4148.715112,-10584.944971,0.000000,76.609550
4148.715442,-10732.986159,0.000000,76.609550
4148.715772,-9844.739029,74.020594,229.828649
4148.716101,-9992.780217,0.000000,383.047749
4148.716431,-9622.677246,0.000000,-612.876398
4148.716761,-8734.430116,-444.123565,-1072.533697
4148.717091,-9030.512492,-370.102971,-1302.362347
4148.717421,-8956.491898,518.144159,-919.314598
4148.717750,-10510.924376,-74.020594,-536.266849
4148.718080,-9918.759623,74.020594,536.266849
4148.718410,-9770.718434,148.041188,76.609550
4148.718740,-10510.924376,444.123565,153.219100
4148.719070,-10066.800811,-740.205942,0.000000
4148.719399,-9992.780217,370.102971,536.266849
4148.719729,-9474.636058,0.000000,1072.533697
4148.720059,-9474.636058,444.123565,689.485948
4148.720389,-9548.656652,0.000000,459.657299
4148.720718,-9548.656652,0.000000,-153.219100
4148.721048,-9474.636058,0.000000,-459.657299
4148.721378,-9918.759623,518.144159,0.000000
4148.721708,-9844.739029,296.082377,-383.047749
4148.722038,-9622.677246,-518.144159,-383.047749
4148.722367,-9104.533087,740.205942,919.314598
4148.722697,-10066.800811,888.247130,689.485948
4148.723027,-11621.233289,592.164754,-76.609550
4148.723357,-10658.965565,370.102971,612.876398
4148.723687,-9770.718434,444.123565,919.314598
4148.724016,-9770.718434,0.000000,1149.143247
4148.724346,-9474.636058,74.020594,1302.362347
4148.724676,-9770.718434,-296.082377,1455.581446
4148.725006,-9326.594869,148.041188,383.047749
4148.725335,-9622.677246,222.061783,-459.657299
4148.725665,-9326.594869,222.061783,-536.266849
4148.725995,-9474.636058,222.061783,-612.876398
4148.726325,-9548.656652,666.185348,0.000000
4148.726655,-9252.574275,-518.144159,0.000000
4148.726984,-9992.780217,666.185348,536.266849
4148.727314,-9844.739029,148.041188,1378.971896
4148.727644,-10658.965565,148.041188,919.314598
4148.727974,-9918.759623,0.000000,229.828649
4148.728304,-9252.574275,0.000000,153.219100
4148.728633,-9326.594869,0.000000,229.828649
4148.728963,-9622.677246,74.020594,0.000000
4148.729293,-9474.636058,296.082377,-153.219100
4148.729623,-9548.656652,-518.144159,-842.705048
4148.729952,-9104.533087,370.102971,-536.266849
4148.730282,-9548.656652,0.000000,0.000000
4148.730612,-10807.006753,296.082377,76.609550
4148.730942,-9696.697840,0.000000,1072.533697
4148.731272,-9400.615463,0.000000,919.314598
4148.731601,-10066.800811,-444.123565,306.438199
4148.731931,-9992.780217,-296.082377,612.876398
4148.732261,-10362.883188,0.000000,306.438199
4148.732591,-9326.594869,-370.102971,-306.438199
4148.732921,-9844.739029,0.000000,153.219100
4148.733250,-9474.636058,148.041188,229.828649
4148.733580,-9992.780217,222.061783,153.219100
4148.733910,-9696.697840,222.061783,-306.438199
4148.734240,-9844.739029,74.020594,0.000000
4148.734569,-9992.780217,0.000000,306.438199
4148.734899,-10510.924376,-148.041188,612.876398
4148.735229,-10140.821405,-74.020594,689.485948
4148.735559,-9326.594869,-592.164754,-383.047749
4148.735889,-9252.574275,74.020594,-306.438199
4148.736218,-9844.739029,-592.164754,536.266849
4148.736548,-9844.739029,0.000000,842.705048
4148.736878,-9030.512492,296.082377,1149.143247
4148.737208,-9548.656652,0.000000,229.828649
4148.737538,-9844.739029,148.041188,0.000000
4148.737867,-9844.739029,222.061783,-306.438199
4148.738197,-10214.842000,0.000000,0.000000
4148.738527,-9548.656652,592.164754,-306.438199
4148.738857,-9844.739029,148.041188,-306.438199
4148.739187,-9844.739029,-222.061783,-612.876398
4148.739516,-8586.388927,-370.102971,76.609550
4148.739846,-9770.718434,222.061783,459.657299
4148.740176,-9844.739029,0.000000,0.000000
4148.740506,-9770.718434,0.000000,76.609550
4148.740835,-9400.615463,0.000000,536.266849
4148.741165,-9400.615463,-370.102971,1302.362347
4148.741495,-10066.800811,666.185348,1685.410096
4148.741825,-11029.068536,74.020594,536.266849
4148.742155,-11029.068536,592.164754,-766.095498
4148.742484,-9696.697840,592.164754,-306.438199
4148.742814,-9918.759623,518.144159,0.000000
4148.743144,-10510.924376,0.000000,536.266849
4148.743474,-9326.594869,0.000000,153.219100
4148.743804,-8660.409521,-148.041188,306.438199
4148.744133,-9326.594869,148.041188,306.438199
4148.744463,-10288.862594,148.041188,536.266849
4148.744793,-10436.903782,-296.082377,0.000000
4148.745123,-9844.739029,0.000000,229.828649
4148.745452,-9252.574275,370.102971,995.924147
4148.745782,-9622.677246,148.041188,766.095498
4148.746112,-10362.883188,148.041188,306.438199
4148.746442,-10066.800811,0.000000,0.000000
4148.746772,-9548.656652,-814.226536,76.609550
4148.747101,-9474.636058,74.020594,229.828649
4148.747431,-9770.718434,-518.144159,919.314598
4148.747761,-9104.533087,-370.102971,766.095498
4148.748091,-7994.224174,-444.123565,-153.219100
4148.748421,-9252.574275,444.123565,-842.705048
4148.748750,-10584.944971,-518.144159,-383.047749
4148.749080,-11325.150913,148.041188,1225.752797
4148.749410,-9992.780217,-370.102971,2068.457845
4148.749740,-10510.924376,74.020594,1378.971896
4148.750069,-9918.759623,74.020594,995.924147
4148.750399,-9992.780217,-518.144159,459.657299
4148.750729,-9474.636058,-74.020594,-612.876398
4148.751059,-9104.533087,0.000000,536.266849
4148.751389,-10510.924376,592.164754,612.876398
4148.751719,-10732.986159,370.102971,459.657299
4148.752049,-9696.697840,518.144159,0.000000
4148.752379,-9548.656652,0.000000,153.219100
4148.752708,-9770.718434,0.000000,-1225.752797
4148.753038,-9548.656652,-148.041188,0.000000
4148.753368,-9474.636058,222.061783,995.924147
4148.753698,-9918.759623,814.226536,1072.533697
4148.754028,-10066.800811,-370.102971,-306.438199
4148.754358,-9918.759623,0.000000,-1225.752797
4148.754688,-9770.718434,0.000000,-1532.190996
4148.755018,-9992.780217,74.020594,-459.657299
4148.755347,-9474.636058,-296.082377,766.095498
4148.755677,-9252.574275,0.000000,1608.800546
4148.756007,-8956.491898,0.000000,1225.752797
4148.756337,-10140.821405,518.144159,-229.828649
4148.756667,-10214.842000,296.082377,-76.609550
4148.756997,-10214.842000,740.205942,-766.095498
4148.757327,-9400.615463,296.082377,0.000000
4148.757657,-9844.739029,740.205942,76.609550
4148.757986,-10140.821405,962.267725,-459.657299
4148.758316,-10658.965565,-148.041188,-1225.752797
4148.758646,-9770.718434,222.061783,-1302.362347
4148.758976,-9326.594869,370.102971,0.000000
4148.759306,-9844.739029,370.102971,76.609550
4148.759636,-9326.594869,148.041188,612.876398
4148.759966,-9770.718434,814.226536,76.609550
4148.760295,-10658.965565,592.164754,-76.609550
4148.760625,-10140.821405,444.123565,-153.219100
4148.760955,-10658.965565,-222.061783,153.219100
4148.761285,-9474.636058,518.144159,919.314598
4148.761615,-9326.594869,74.020594,612.876398
4148.761945,-8956.491898,-370.102971,0.000000
4148.762275,-9178.553681,0.000000,-306.438199
4148.762605,-9474.636058,74.020594,383.047749
4148.762934,-9548.656652,0.000000,919.314598
4148.763264,-9622.677246,0.000000,1455.581446
4148.763594,-9474.636058,370.102971,919.314598
4148.763924,-9622.677246,74.020594,-153.219100
4148.764254,-9548.656652,296.082377,-995.924147
4148.764584,-10140.821405,0.000000,-842.705048
4148.764914,-9622.677246,0.000000,536.266849
4148.765244,-8808.450710,-148.041188,1455.581446
4148.765573,-9104.533087,666.185348,1302.362347
4148.765903,-10807.006753,296.082377,459.657299
4148.766233,-10732.986159,-296.082377,-306.438199
4148.766563,-10288.862594,-444.123565,-76.609550
4148.766893,-10214.842000,-148.041188,766.095498
4148.767223,-10214.842000,-370.102971,1378.971896
4148.767553,-9400.615463,0.000000,612.876398
4148.767883,-9030.512492,0.000000,-995.924147
4148.768212,-9548.656652,370.102971,-766.095498
4148.768542,-11251.130318,444.123565,0.000000
4148.768872,-11177.109724,0.000000,0.000000
4148.769202,-9474.636058,-74.020594,612.876398
4148.769532,-8956.491898,-296.082377,919.314598
4148.769862,-9326.594869,-740.205942,612.876398
4148.770192,-9696.697840,-814.226536,1455.581446
4148.770522,-9770.718434,-740.205942,842.705048
4148.770851,-9918.759623,-370.102971,612.876398
4148.771181,-10658.965565,296.082377,612.876398
4148.771511,-10140.821405,148.041188,383.047749
4148.771841,-9548.656652,74.020594,153.219100
4148.772171,-9696.697840,296.082377,0.000000
4148.772501,-9918.759623,0.000000,-306.438199
4148.772831,-9918.759623,148.041188,0.000000
4148.773161,-9178.553681,0.000000,0.000000
4148.773490,-9622.677246,-444.123565,-229.828649
4148.773820,-10140.821405,-148.041188,-689.485948
4148.774150,-10288.862594,0.000000,-536.266849
4148.774480,-9992.780217,-222.061783,-766.095498
4148.774810,-8882.471304,-518.144159,-459.657299
4148.775140,-8364.327145,-222.061783,383.047749
4148.775470,-8660.409521,222.061783,459.657299
4148.775799,-9400.615463,296.082377,612.876398
4148.776129,-11029.068536,814.226536,1072.533697
4148.776459,-11177.109724,0.000000,306.438199
4148.776789,-10362.883188,-296.082377,0.000000
4148.777119,-9030.512492,-222.061783,-383.047749
4148.777449,-9474.636058,-888.247130,-842.705048
4148.777779,-8734.430116,-444.123565,-306.438199
4148.778109,-8660.409521,0.000000,459.657299
4148.778438,-9474.636058,740.205942,383.047749
4148.778768,-10288.862594,740.205942,842.705048
4148.779098,-11029.068536,740.205942,689.485948
4148.779428,-10510.924376,148.041188,459.657299
4148.779758,-10436.903782,370.102971,306.438199
4148.780088,-9400.615463,0.000000,229.828649
4148.780418,-8438.347739,-518.144159,0.000000
4148.780748,-9400.615463,1110.308913,536.266849
4148.781077,-9918.759623,888.247130,-536.266849
4148.781407,-11251.130318,222.061783,-689.485948
4148.781737,-10288.862594,740.205942,-306.438199
4148.782067,-9622.677246,-592.164754,76.609550
4148.782397,-9548.656652,0.000000,383.047749
4148.782727,-9104.533087,-222.061783,1072.533697
4148.783057,-9400.615463,-518.144159,842.705048
4148.783387,-9104.533087,0.000000,459.657299
4148.783716,-9770.718434,148.041188,229.828649
4148.784046,-11325.150913,370.102971,536.266849
4148.784376,-10140.821405,0.000000,842.705048
4148.784706,-9548.656652,370.102971,1762.019645
4148.785036,-9696.697840,-592.164754,383.047749
4148.785366,-9770.718434,0.000000,0.000000
4148.785696,-9622.677246,-74.020594,229.828649
4148.786026,-9622.677246,-74.020594,536.266849
4148.786355,-9770.718434,222.061783,842.705048
4148.786685,-10362.883188,518.144159,766.095498
4148.787015,-10510.924376,148.041188,153.219100
4148.787345,-10066.800811,444.123565,0.000000
4148.787675,-10066.800811,74.020594,-229.828649
4148.788005,-10214.842000,-296.082377,383.047749
4148.788335,-9400.615463,444.123565,995.924147
4148.788664,-8808.450710,148.041188,766.095498
4148.788994,-9474.636058,0.000000,-459.657299
4148.789324,-9548.656652,222.061783,-229.828649
4148.789654,-9992.780217,0.000000,383.047749
4148.789984,-10066.800811,0.000000,306.438199
4148.790314,-10066.800811,0.000000,842.705048
4148.790644,-9622.677246,-222.061783,612.876398
4148.790974,-9400.615463,444.123565,0.000000
4148.791303,-9844.739029,1480.411884,-229.828649
4148.791633,-11399.171507,888.247130,-842.705048
4148.791963,-10436.903782,1036.288319,-842.705048
4148.792293,-9400.615463,444.123565,-229.828649
4148.792623,-9844.739029,444.123565,306.438199
4148.792953,-9992.780217,74.020594,306.438199
4148.793283,-9770.718434,444.123565,153.219100
4148.793613,-9326.594869,-518.144159,-459.657299
4148.793942,-9474.636058,74.020594,0.000000
4148.794272,-9178.553681,222.061783,0.000000
4148.794602,-9770.718434,296.082377,1072.533697
4148.794932,-9030.512492,370.102971,1532.190996
4148.795262,-9548.656652,740.205942,689.485948
4148.795592,-10732.986159,518.144159,-842.705048
4148.795922,-10658.965565,0.000000,-1455.581446
4148.796252,-9400.615463,148.041188,-689.485948
4148.796581,-8660.409521,-370.102971,153.219100
4148.796911,-9178.553681,962.267725,1455.581446
4148.797241,-9844.739029,-444.123565,1685.410096
4148.797571,-9918.759623,0.000000,76.609550
4148.797901,-9474.636058,74.020594,-766.095498
4148.798231,-9696.697840,370.102971,-612.876398
4148.798561,-10955.047942,-74.020594,842.705048
4148.798891,-9622.677246,296.082377,2221.676944
4148.799220,-9474.636058,-740.205942,1838.629195
4148.799550,-8956.491898,-222.061783,689.485948
4148.799880,-9918.759623,-222.061783,-383.047749
4148.800210,-10584.944971,-740.205942,-1378.971896
4148.800540,-9992.780217,0.000000,-306.438199
4148.800870,-9474.636058,0.000000,1072.533697
4148.801200,-9252.574275,74.020594,1685.410096
4148.801529,-9696.697840,296.082377,766.095498
4148.801859,-10214.842000,0.000000,-766.095498
4148.802189,-10288.862594,-592.164754,-1302.362347
4148.802519,-9548.656652,0.000000,-229.828649
4148.802849,-10066.800811,-296.082377,1685.410096
4148.803179,-10140.821405,-296.082377,2298.286494
4148.803509,-9252.574275,-666.185348,1685.410096
4148.803839,-9104.533087,-814.226536,76.609550
4148.804168,-9252.574275,-740.205942,-689.485948
4148.804498,-9844.739029,0.000000,459.657299
4148.804828,-10510.924376,0.000000,1302.362347
4148.805158,-9918.759623,0.000000,1915.238745
4148.805488,-9918.759623,296.082377,1455.581446
4148.805818,-10140.821405,0.000000,0.000000
4148.806148,-10362.883188,-222.061783,-1685.410096
4148.806478,-9252.574275,-148.041188,-842.705048
4148.806807,-9474.636058,-74.020594,766.095498
4148.807137,-10140.821405,-148.041188,1915.238745
4148.807467,-10658.965565,-148.041188,1915.238745
4148.807797,-10288.862594,74.020594,612.876398
4148.808127,-9918.759623,148.041188,-689.485948
4148.808457,-9844.739029,0.000000,-306.438199
4148.808787,-9992.780217,-222.061783,0.000000
4148.809117,-9104.533087,0.000000,1378.971896
4148.809446,-8586.388927,74.020594,1072.533697
4148.809776,-10066.800811,222.061783,0.000000
4148.810106,-10140.821405,-370.102971,-1225.752797
4148.810436,-9326.594869,-518.144159,-766.095498
4148.810766,-8882.471304,-148.041188,153.219100
4148.811096,-9770.718434,0.000000,1608.800546
4148.811426,-9992.780217,0.000000,1302.362347
4148.811756,-9474.636058,0.000000,306.438199
4148.812085,-9992.780217,740.205942,-1072.533697
4148.812415,-10584.944971,666.185348,-1072.533697
4148.812745,-10436.903782,444.123565,-612.876398
4148.813075,-9252.574275,444.123565,0.000000
4148.813405,-9178.553681,888.247130,612.876398
4148.813735,-9622.677246,0.000000,0.000000
4148.814065,-9696.697840,0.000000,-1455.581446
4148.814394,-9104.533087,222.061783,-1378.971896
4148.814724,-9474.636058,-148.041188,-459.657299
4148.815054,-9696.697840,296.082377,689.485948
4148.815384,-9770.718434,74.020594,995.924147
4148.815714,-9844.739029,74.020594,1455.581446
4148.816044,-9918.759623,518.144159,536.266849
4148.816374,-11029.068536,370.102971,306.438199
4148.816704,-10362.883188,296.082377,306.438199
4148.817033,-9622.677246,666.185348,536.266849
4148.817363,-9474.636058,1036.288319,153.219100
4148.817693,-9622.677246,518.144159,-766.095498
4148.818023,-10066.800811,1110.308913,-995.924147
4148.818353,-9844.739029,444.123565,-919.314598
4148.818683,-9844.739029,444.123565,-842.705048
4148.819013,-9844.739029,-370.102971,-306.438199
4148.819343,-9178.553681,-222.061783,919.314598
4148.819672,-9400.615463,0.000000,1378.971896
4148.820002,-10214.842000,370.102971,1225.752797
4148.820332,-10807.006753,0.000000,1072.533697
4148.820662,-9770.718434,518.144159,919.314598
4148.820992,-9844.739029,370.102971,76.609550
4148.821322,-10510.924376,222.061783,-459.657299
4148.821652,-10362.883188,0.000000,0.000000
4148.821982,-9474.636058,-666.185348,-76.609550
4148.822311,-8586.388927,-888.247130,-153.219100
4148.822641,-8586.388927,-592.164754,-229.828649
4148.822971,-9030.512492,222.061783,0.000000
4148.823301,-9030.512492,-74.020594,-306.438199
4148.823631,-9178.553681,-592.164754,-612.876398
4148.823961,-10066.800811,0.000000,1149.143247
4148.824291,-11325.150913,148.041188,2298.286494
4148.824621,-11029.068536,0.000000,1225.752797
4148.824950,-9770.718434,74.020594,229.828649
4148.825280,-9696.697840,-296.082377,-76.609550
4148.825610,-9770.718434,-444.123565,229.828649
4148.825940,-10066.800811,0.000000,689.485948
4148.826270,-9400.615463,-296.082377,536.266849
4148.826600,-8808.450710,0.000000,383.047749
4148.826930,-9400.615463,222.061783,-842.705048
4148.827259,-10140.821405,-370.102971,-766.095498
4148.827589,-10288.862594,0.000000,-306.438199
4148.827919,-10510.924376,-518.144159,306.438199
4148.828249,-10510.924376,-296.082377,1302.362347
4148.828579,-9696.697840,-296.082377,1838.629195
4148.828909,-9400.615463,-666.185348,1608.800546
4148.829239,-9770.718434,-222.061783,919.314598
4148.829569,-10584.944971,-296.082377,766.095498
4148.829898,-9548.656652,-592.164754,689.485948
4148.830228,-8734.430116,-666.185348,1225.752797
4148.830558,-9548.656652,-962.267725,1608.800546
4148.830888,-10066.800811,-1110.308913,842.705048
4148.831218,-8734.430116,-592.164754,0.000000
4148.831548,-8956.491898,-148.041188,-842.705048
4148.831878,-9178.553681,74.020594,-536.266849
4148.832208,-10140.821405,888.247130,536.266849
4148.832537,-10807.006753,1110.308913,0.000000
4148.832867,-10362.883188,814.226536,-842.705048
4148.833197,-10214.842000,74.020594,-842.705048
4148.833527,-10584.944971,222.061783,-383.047749
4148.833857,-10140.821405,-740.205942,-229.828649
4148.834187,-7846.182985,-666.185348,-536.266849
4148.834517,-6957.935855,-518.144159,0.000000
4148.834847,-9030.512492,148.041188,153.219100
4148.835176,-9844.739029,444.123565,229.828649
4148.835506,-11029.068536,-148.041188,229.828649
4148.835836,-11399.171507,148.041188,306.438199
4148.836166,-10362.883188,0.000000,842.705048
4148.836496,-9992.780217,0.000000,536.266849
4148.836826,-9548.656652,74.020594,-153.219100
4148.837156,-9548.656652,0.000000,-459.657299
4148.837486,-8956.491898,0.000000,-306.438199
4148.837815,-9622.677246,444.123565,76.609550
4148.838145,-10362.883188,888.247130,459.657299
4148.838475,-10140.821405,0.000000,-306.438199
4148.838805,-9696.697840,0.000000,-1225.752797
4148.839135,-9474.636058,0.000000,-612.876398
4148.839465,-9622.677246,-518.144159,0.000000
4148.839795,-9918.759623,0.000000,1302.362347
4148.840124,-10214.842000,518.144159,1838.629195
4148.840454,-10807.006753,444.123565,536.266849
4148.840784,-10881.027347,296.082377,-536.266849
4148.841114,-10436.903782,444.123565,-153.219100
4148.841444,-10214.842000,74.020594,1072.533697
4148.841774,-8586.388927,444.123565,1225.752797
4148.842104,-8956.491898,148.041188,153.219100
4148.842434,-9622.677246,148.041188,-1302.362347
4148.842763,-9400.615463,296.082377,-995.924147
4148.843093,-10436.903782,296.082377,-1532.190996
4148.843423,-10436.903782,370.102971,-383.047749
4148.843753,-9326.594869,592.164754,536.266849
4148.844083,-8438.347739,444.123565,229.828649
4148.844413,-9030.512492,592.164754,306.438199
4148.844743,-10436.903782,1036.288319,0.000000
4148.845073,-11177.109724,74.020594,76.609550
4148.845402,-9844.739029,888.247130,153.219100
4148.845732,-9104.533087,222.061783,306.438199
4148.846062,-9400.615463,74.020594,459.657299
4148.846392,-8734.430116,74.020594,0.000000
4148.846722,-9030.512492,592.164754,-153.219100
4148.847052,-9474.636058,518.144159,-153.219100
4148.847382,-9992.780217,814.226536,536.266849
4148.847712,-11029.068536,1036.288319,1149.143247
4148.848041,-10584.944971,814.226536,383.047749
4148.848371,-10362.883188,814.226536,0.000000
4148.848701,-10288.862594,518.144159,-306.438199
4148.849031,-10140.821405,-148.041188,306.438199
4148.849361,-9474.636058,74.020594,536.266849
4148.849691,-8808.450710,222.061783,0.000000
4148.850021,-8882.471304,0.000000,383.047749
4148.850350,-9178.553681,74.020594,995.924147
4148.850680,-10140.821405,296.082377,1072.533697
4148.851010,-10436.903782,-370.102971,0.000000
4148.851340,-10140.821405,148.041188,0.000000
4148.851669,-10066.800811,-222.061783,459.657299
4148.851999,-9696.697840,-370.102971,306.438199
4148.852329,-8882.471304,0.000000,383.047749
4148.852658,-9474.636058,74.020594,229.828649
4148.852988,-10140.821405,-370.102971,76.609550
4148.853318,-10066.800811,0.000000,153.219100
4148.853647,-9474.636058,-888.247130,-536.266849
4148.853977,-8512.368333,-1258.350101,0.000000
4148.854307,-9252.574275,-666.185348,689.485948
4148.854637,-9548.656652,-1332.370696,842.705048
4148.854966,-9252.574275,-962.267725,689.485948
4148.855296,-9252.574275,-296.082377,1149.143247
4148.855626,-10214.842000,74.020594,0.000000
4148.855955,-11103.089130,74.020594,229.828649
4148.856285,-10140.821405,0.000000,0.000000
4148.856615,-10436.903782,0.000000,842.705048
4148.856944,-10436.903782,-148.041188,842.705048
4148.857274,-10510.924376,-888.247130,76.609550
4148.857604,-8734.430116,-1480.411884,-306.438199
4148.857934,-7920.203579,-740.205942,-306.438199
4148.858263,-9474.636058,-148.041188,76.609550
4148.858593,-10658.965565,-518.144159,536.266849
4148.858923,-10436.903782,0.000000,919.314598
4148.859252,-9548.656652,-296.082377,383.047749
4148.859582,-10288.862594,444.123565,76.609550
4148.859912,-10436.903782,-592.164754,383.047749
4148.860241,-10214.842000,-74.020594,689.485948
4148.860571,-9178.553681,-296.082377,766.095498
4148.860901,-9252.574275,0.000000,1302.362347
4148.861231,-9992.780217,-296.082377,766.095498
4148.861560,-9696.697840,-814.226536,0.000000
4148.861890,-8586.388927,0.000000,-383.047749
4148.862220,-9178.553681,-444.123565,-306.438199
4148.862549,-9844.739029,296.082377,536.266849
4148.862879,-9770.718434,814.226536,459.657299
4148.863209,-9696.697840,518.144159,-459.657299
4148.863539,-9474.636058,592.164754,-1302.362347
4148.863868,-9548.656652,1258.350101,-919.314598
4148.864198,-10584.944971,518.144159,0.000000
4148.864528,-10288.862594,370.102971,153.219100
4148.864857,-9992.780217,0.000000,536.266849
4148.865187,-8956.491898,74.020594,229.828649
4148.865517,-9252.574275,0.000000,306.438199
4148.865846,-9030.512492,148.041188,536.266849
4148.866176,-9622.677246,0.000000,153.219100
4148.866506,-9770.718434,1110.308913,1072.533697
4148.866836,-10658.965565,444.123565,842.705048
4148.867165,-10362.883188,666.185348,-612.876398
4148.867495,-9696.697840,592.164754,-842.705048
4148.867825,-9326.594869,1332.370696,-306.438199
4148.868154,-10066.800811,740.205942,0.000000
4148.868484,-10658.965565,1110.308913,-612.876398
4148.868814,-10362.883188,518.144159,-919.314598
4148.869143,-10214.842000,518.144159,-689.485948
4148.869473,-9326.594869,814.226536,0.000000
4148.869803,-9104.533087,444.123565,76.609550
4148.870133,-9326.594869,0.000000,536.266849
4148.870462,-8882.471304,740.205942,995.924147
4148.870792,-9844.739029,888.247130,76.609550
4148.871122,-10436.903782,296.082377,-919.314598
4148.871451,-10584.944971,1332.370696,-76.609550
4148.871781,-10510.924376,666.185348,76.609550
4148.872111,-10066.800811,444.123565,536.266849
4148.872441,-9326.594869,0.000000,689.485948
4148.872770,-9474.636058,222.061783,0.000000
4148.873100,-9696.697840,222.061783,-919.314598
4148.873430,-9474.636058,74.020594,-536.266849
4148.873759,-9252.574275,518.144159,-76.609550
4148.874089,-9548.656652,370.102971,229.828649
4148.874419,-10214.842000,666.185348,459.657299
4148.874748,-10362.883188,222.061783,-383.047749
4148.875078,-10510.924376,-74.020594,-689.485948
4148.875408,-9548.656652,74.020594,306.438199
4148.875738,-10066.800811,-222.061783,1072.533697
4148.876067,-9844.739029,148.041188,2604.724693
4148.876397,-9474.636058,370.102971,1762.019645
4148.876727,-10214.842000,-222.061783,689.485948
4148.877056,-10881.027347,0.000000,-383.047749
4148.877386,-10510.924376,0.000000,-383.047749
4148.877716,-9992.780217,-740.205942,536.266849
4148.878045,-9104.533087,370.102971,1685.410096
4148.878375,-9400.615463,0.000000,1302.362347
4148.878705,-9770.718434,-296.082377,-612.876398
4148.879035,-8660.409521,-444.123565,-995.924147
4148.879364,-9770.718434,0.000000,-306.438199
4148.879694,-10955.047942,-518.144159,383.047749
4148.880024,-10807.006753,0.000000,2221.676944
4148.880353,-9474.636058,-370.102971,2068.457845
4148.880683,-9326.594869,-814.226536,1149.143247
4148.881013,-9918.759623,0.000000,153.219100
4148.881343,-10658.965565,-1036.288319,-76.609550
4148.881672,-9844.739029,-296.082377,76.609550
4148.882002,-8586.388927,-74.020594,842.705048
4148.882332,-9178.553681,148.041188,536.266849
4148.882661,-9844.739029,-666.185348,-766.095498
4148.882991,-9474.636058,0.000000,-1149.143247
4148.883321,-9474.636058,-740.205942,-995.924147
4148.883650,-10140.821405,-740.205942,153.219100
4148.883980,-9918.759623,-296.082377,1455.581446
4148.884310,-9548.656652,-1036.288319,1532.190996
4148.884640,-9252.574275,-148.041188,766.095498
4148.884969,-9918.759623,-518.144159,689.485948
4148.885299,-10955.047942,-74.020594,0.000000
4148.885629,-9770.718434,0.000000,229.828649
4148.885958,-9696.697840,666.185348,306.438199
4148.886288,-10510.924376,222.061783,-612.876398
4148.886618,-9474.636058,-74.020594,-1072.533697
4148.886947,-9030.512492,-74.020594,-306.438199
4148.887277,-9844.739029,-74.020594,76.609550
4148.887607,-10288.862594,0.000000,995.924147
4148.887937,-8956.491898,-444.123565,1072.533697
4148.888266,-9178.553681,74.020594,459.657299
4148.888596,-9474.636058,370.102971,919.314598
4148.888926,-10881.027347,74.020594,1149.143247
4148.889255,-10732.986159,-592.164754,766.095498
4148.889585,-8956.491898,148.041188,689.485948
4148.889915,-9252.574275,0.000000,306.438199
4148.890245,-9844.739029,518.144159,0.000000
4148.890574,-9844.739029,814.226536,-153.219100
4148.890904,-9918.759623,148.041188,-1149.143247
4148.891234,-9474.636058,592.164754,-919.314598
4148.891563,-9918.759623,740.205942,0.000000
4148.891893,-10214.842000,0.000000,689.485948
4148.892223,-9770.718434,518.144159,536.266849
4148.892552,-9770.718434,0.000000,1225.752797
4148.892882,-10510.924376,370.102971,0.000000
4148.893212,-9548.656652,222.061783,-536.266849
4148.893542,-8364.327145,592.164754,76.609550
4148.893871,-9104.533087,444.123565,842.705048
4148.894201,-10288.862594,518.144159,612.876398
4148.894531,-10362.883188,148.041188,766.095498
4148.894860,-9548.656652,-296.082377,229.828649
4148.895190,-9030.512492,296.082377,383.047749
4148.895520,-9474.636058,148.041188,536.266849
4148.895849,-9474.636058,0.000000,153.219100
4148.896179,-9770.718434,296.082377,536.266849
4148.896509,-9992.780217,148.041188,306.438199
4148.896839,-10881.027347,0.000000,153.219100
4148.897168,-9992.780217,148.041188,76.609550
4148.897498,-8882.471304,74.020594,0.000000
4148.897828,-9030.512492,-148.041188,153.219100
4148.898157,-9548.656652,296.082377,0.000000
4148.898487,-10436.903782,0.000000,-383.047749
4148.898817,-10140.821405,0.000000,-766.095498
4148.899147,-9548.656652,0.000000,-612.876398
4148.899476,-9474.636058,-370.102971,-306.438199
4148.899806,-9104.533087,-666.185348,0.000000
4148.900136,-9326.594869,0.000000,383.047749
4148.900465,-9474.636058,-296.082377,-459.657299
4148.900795,-9918.759623,-740.205942,-459.657299
4148.901125,-10288.862594,-222.061783,383.047749
4148.901454,-9844.739029,-444.123565,612.876398
4148.901784,-9696.697840,-370.102971,383.047749
4148.902114,-9696.697840,0.000000,229.828649
4148.902444,-9992.780217,-740.205942,0.000000
4148.902773,-9474.636058,-518.144159,153.219100
4148.903103,-9548.656652,0.000000,1072.533697
4148.903433,-10288.862594,518.144159,842.705048
4148.903762,-9844.739029,74.020594,0.000000
4148.904092,-9474.636058,148.041188,-536.266849
4148.904422,-9844.739029,-222.061783,-383.047749
4148.904751,-10140.821405,222.061783,-153.219100
4148.905081,-9918.759623,148.041188,153.219100
4148.905411,-9326.594869,0.000000,383.047749
4148.905741,-8956.491898,148.041188,459.657299
4148.906070,-10362.883188,740.205942,383.047749
4148.906400,-11621.233289,518.144159,459.657299
4148.906730,-10362.883188,148.041188,842.705048
4148.907059,-9474.636058,370.102971,689.485948
4148.907389,-9844.739029,222.061783,919.314598
4148.907719,-9918.759623,-74.020594,842.705048
4148.908048,-9770.718434,370.102971,229.828649
4148.908378,-9696.697840,74.020594,-689.485948
4148.908708,-9696.697840,0.000000,0.000000
4148.909038,-9992.780217,222.061783,1302.362347
4148.909367,-9548.656652,0.000000,1072.533697
4148.909697,-8956.491898,0.000000,766.095498
4148.910027,-9178.553681,0.000000,689.485948
4148.910356,-9844.739029,-296.082377,536.266849
4148.910686,-9992.780217,148.041188,842.705048
4148.911016,-8808.450710,222.061783,153.219100
4148.911346,-9326.594869,222.061783,0.000000
4148.911675,-9918.759623,370.102971,306.438199
4148.912005,-10510.924376,222.061783,153.219100
4148.912335,-9474.636058,74.020594,0.000000
4148.912664,-8882.471304,518.144159,229.828649
4148.912994,-10362.883188,370.102971,0.000000
4148.913324,-9548.656652,444.123565,536.266849
4148.913653,-10214.842000,666.185348,153.219100
4148.913983,-10436.903782,296.082377,766.095498
4148.914313,-10214.842000,222.061783,459.657299
4148.914643,-10214.842000,444.123565,0.000000
4148.914972,-9474.636058,74.020594,-229.828649
4148.915302,-9474.636058,666.185348,306.438199
4148.915632,-10140.821405,148.041188,229.828649
4148.915961,-10881.027347,0.000000,0.000000
4148.916291,-10214.842000,-296.082377,229.828649
4148.916621,-9326.594869,-74.020594,459.657299
4148.916950,-9178.553681,-518.144159,306.438199
4148.917280,-9992.780217,296.082377,383.047749
4148.917610,-9474.636058,148.041188,76.609550
4148.917940,-9474.636058,-444.123565,0.000000
4148.918269,-9474.636058,148.041188,919.314598
4148.918599,-9918.759623,370.102971,1072.533697
4148.918929,-10140.821405,0.000000,153.219100
4148.919258,-9474.636058,0.000000,-995.924147
4148.919588,-9326.594869,-518.144159,-1302.362347
4148.919918,-9326.594869,-740.205942,-612.876398
4148.920248,-9474.636058,-74.020594,995.924147
4148.920577,-10140.821405,222.061783,1378.971896
4148.920907,-9622.677246,0.000000,459.657299
4148.921237,-9548.656652,222.061783,0.000000
4148.921566,-9252.574275,0.000000,-766.095498
4148.921896,-9844.739029,-148.041188,-689.485948
4148.922226,-10510.924376,0.000000,766.095498
4148.922555,-9992.780217,-370.102971,842.705048
4148.922885,-9326.594869,-592.164754,0.000000
4148.923215,-9178.553681,0.000000,-766.095498
4148.923545,-9770.718434,0.000000,-306.438199
4148.923874,-10955.047942,0.000000,306.438199
4148.924204,-9992.780217,666.185348,919.314598
4148.924534,-10066.800811,-222.061783,1302.362347
4148.924863,-9696.697840,296.082377,689.485948
4148.925193,-9770.718434,296.082377,229.828649
4148.925523,-10510.924376,0.000000,-766.095498
4148.925852,-10362.883188,518.144159,-766.095498
4148.926182,-9770.718434,-370.102971,-229.828649
4148.926512,-9770.718434,-592.164754,1608.800546
4148.926842,-9178.553681,0.000000,1455.581446
4148.927171,-9770.718434,0.000000,0.000000
4148.927501,-9992.780217,0.000000,-383.047749
4148.927831,-9770.718434,0.000000,-306.438199
4148.928160,-9474.636058,74.020594,612.876398
4148.928490,-9770.718434,-370.102971,1532.190996
4148.928820,-9770.718434,222.061783,1532.190996
4148.929150,-9474.636058,148.041188,536.266849
4148.929479,-9548.656652,-370.102971,-612.876398
4148.929809,-9696.697840,518.144159,-919.314598
4148.930139,-9770.718434,222.061783,-766.095498
4148.930468,-9622.677246,0.000000,-766.095498
4148.930798,-9252.574275,444.123565,153.219100
4148.931128,-8808.450710,-296.082377,229.828649
4148.931457,-9252.574275,0.000000,842.705048
4148.931787,-9844.739029,0.000000,383.047749
4148.932117,-10510.924376,-814.226536,383.047749
4148.932447,-9844.739029,0.000000,536.266849
4148.932776,-9844.739029,0.000000,1532.190996
4148.933106,-10362.883188,0.000000,1149.143247
4148.933436,-10362.883188,0.000000,383.047749
4148.933765,-9326.594869,0.000000,-1149.143247
4148.934095,-8882.471304,0.000000,-306.438199
4148.934425,-10214.842000,444.123565,536.266849
4148.934754,-10140.821405,0.000000,766.095498
4148.935084,-9326.594869,-370.102971,459.657299
4148.935414,-8586.388927,222.061783,306.438199
4148.935744,-9622.677246,-148.041188,-153.219100
4148.936073,-10955.047942,74.020594,-766.095498
4148.936403,-10066.800811,-222.061783,153.219100
4148.936733,-9104.533087,0.000000,383.047749
4148.937062,-9400.615463,0.000000,536.266849
4148.937392,-9696.697840,814.226536,612.876398
4148.937722,-10955.047942,222.061783,459.657299
4148.938052,-10140.821405,74.020594,-459.657299
4148.938381,-9326.594869,444.123565,-536.266849
4148.938711,-9992.780217,-296.082377,0.000000
4148.939041,-10881.027347,222.061783,459.657299
4148.939370,-9770.718434,0.000000,842.705048
4148.939700,-8512.368333,148.041188,-766.095498
4148.940030,-9252.574275,296.082377,-1838.629195
4148.940359,-10510.924376,814.226536,-612.876398
4148.940689,-10658.965565,222.061783,0.000000
4148.941019,-9696.697840,740.205942,383.047749
4148.941349,-9104.533087,518.144159,383.047749
4148.941678,-10510.924376,370.102971,0.000000
4148.942008,-10881.027347,148.041188,0.000000
4148.942338,-9992.780217,-148.041188,0.000000
4148.942667,-9104.533087,74.020594,76.609550
4148.942997,-9992.780217,0.000000,0.000000
4148.943327,-9918.759623,296.082377,306.438199
4148.943656,-9252.574275,-814.226536,-229.828649
4148.943986,-8586.388927,296.082377,0.000000
4148.944316,-9178.553681,296.082377,153.219100
4148.944646,-10584.944971,148.041188,0.000000
4148.944975,-10066.800811,444.123565,612.876398
4148.945305,-9104.533087,222.061783,459.657299
4148.945635,-9696.697840,-222.061783,383.047749
4148.945964,-10066.800811,0.000000,-229.828649
4148.946294,-9696.697840,-592.164754,229.828649
4148.946624,-8586.388927,-370.102971,842.705048
4148.946953,-8660.409521,222.061783,766.095498
4148.947283,-10807.006753,148.041188,153.219100
4148.947613,-9992.780217,518.144159,76.609550
4148.947943,-9178.553681,740.205942,0.000000
4148.948272,-10584.944971,814.226536,-383.047749
4148.948602,-11103.089130,518.144159,-306.438199
4148.948932,-10436.903782,222.061783,-229.828649
4148.949261,-9030.512492,0.000000,-383.047749
4148.949591,-8660.409521,0.000000,-383.047749
4148.949921,-9992.780217,-74.020594,383.047749
4148.950250,-9400.615463,-518.144159,919.314598
4148.950580,-9400.615463,148.041188,1149.143247
4148.950910,-9474.636058,0.000000,0.000000
4148.951239,-10362.883188,0.000000,0.000000
4148.951569,-10436.903782,296.082377,1378.971896
4148.951899,-9770.718434,370.102971,842.705048
4148.952228,-10288.862594,0.000000,229.828649
4148.952558,-9844.739029,148.041188,306.438199
4148.952888,-9770.718434,-296.082377,0.000000
4148.953217,-9622.677246,0.000000,0.000000
4148.953547,-9326.594869,-148.041188,-153.219100
4148.953877,-9844.739029,-296.082377,612.876398
4148.954206,-9622.677246,0.000000,1378.971896
4148.954536,-9400.615463,-370.102971,1149.143247
4148.954866,-10140.821405,-444.123565,383.047749
4148.955195,-10214.842000,0.000000,306.438199
4148.955525,-10362.883188,296.082377,459.657299
4148.955855,-10288.862594,518.144159,229.828649
4148.956184,-10140.821405,0.000000,229.828649
4148.956514,-9918.759623,518.144159,612.876398
4148.956844,-9178.553681,0.000000,229.828649
4148.957173,-10066.800811,0.000000,-1072.533697
4148.957503,-9992.780217,0.000000,-383.047749
4148.957833,-9400.615463,0.000000,0.000000
4148.958162,-8734.430116,0.000000,0.000000
4148.958492,-8882.471304,148.041188,0.000000
4148.958822,-9696.697840,370.102971,153.219100
4148.959151,-10732.986159,370.102971,229.828649
4148.959481,-10140.821405,296.082377,0.000000
4148.959811,-9770.718434,222.061783,536.266849
4148.960140,-10436.903782,444.123565,536.266849
4148.960470,-10436.903782,222.061783,459.657299
4148.960800,-9400.615463,-518.144159,-306.438199
4148.961129,-8290.306550,0.000000,0.000000
4148.961459,-9252.574275,0.000000,689.485948
4148.961789,-10066.800811,148.041188,1149.143247
4148.962118,-9696.697840,74.020594,612.876398
4148.962448,-9548.656652,444.123565,-76.609550
4148.962778,-9844.739029,0.000000,-306.438199
4148.963107,-10658.965565,148.041188,-229.828649
4148.963437,-9992.780217,0.000000,0.000000
4148.963767,-8660.409521,-296.082377,229.828649
4148.964096,-8882.471304,0.000000,689.485948
4148.964426,-10214.842000,518.144159,1149.143247
4148.964756,-9992.780217,-222.061783,76.609550
4148.965085,-9622.677246,148.041188,0.000000
4148.965415,-9992.780217,-148.041188,0.000000
4148.965745,-9918.759623,-740.205942,612.876398
4148.966074,-9104.533087,-888.247130,689.485948
4148.966404,-8660.409521,-962.267725,919.314598
4148.966734,-8882.471304,-370.102971,766.095498
4148.967063,-10066.800811,222.061783,842.705048
4148.967393,-10658.965565,370.102971,76.609550
4148.967723,-10436.903782,74.020594,0.000000
4148.968052,-10436.903782,148.041188,306.438199
4148.968382,-10214.842000,-592.164754,612.876398
4148.968712,-9400.615463,-444.123565,383.047749
4148.969041,-9104.533087,-444.123565,-306.438199
4148.969371,-9326.594869,-814.226536,-612.876398
4148.969701,-9844.739029,0.000000,383.047749
4148.970030,-9696.697840,592.164754,229.828649
4148.970360,-9474.636058,222.061783,-306.438199
4148.970690,-10214.842000,370.102971,0.000000
4148.971019,-10881.027347,444.123565,689.485948
4148.971349,-11029.068536,-74.020594,153.219100
4148.971679,-9770.718434,74.020594,229.828649
4148.972008,-9326.594869,0.000000,-459.657299
4148.972338,-9548.656652,-296.082377,0.000000
4148.972668,-9400.615463,-222.061783,612.876398
4148.972997,-9104.533087,0.000000,383.047749
4148.973327,-10288.862594,0.000000,919.314598
4148.973657,-10807.006753,444.123565,153.219100
4148.973986,-10214.842000,-74.020594,-306.438199
4148.974316,-8438.347739,0.000000,-1378.971896
4148.974646,-8734.430116,444.123565,306.438199
4148.974975,-10288.862594,666.185348,612.876398
4148.975305,-10214.842000,296.082377,536.266849
4148.975635,-9178.553681,1036.288319,306.438199
4148.975964,-9992.780217,148.041188,-229.828649
4148.976294,-10362.883188,0.000000,-306.438199
4148.976624,-9918.759623,444.123565,76.609550
4148.976953,-9252.574275,0.000000,459.657299
4148.977283,-9474.636058,444.123565,842.705048
4148.977613,-9770.718434,370.102971,766.095498
4148.977942,-10288.862594,0.000000,229.828649
4148.978272,-8956.491898,296.082377,-383.047749
4148.978602,-9104.533087,1036.288319,-306.438199
4148.978931,-10584.944971,814.226536,-229.828649
4148.979261,-11251.130318,1258.350101,306.438199
4148.979591,-9770.718434,370.102971,76.609550
4148.979920,-8216.285956,370.102971,-995.924147
4148.980250,-8882.471304,518.144159,-612.876398
4148.980580,-10140.821405,518.144159,0.000000
4148.980909,-9474.636058,-296.082377,-1072.533697
4148.981239,-8808.450710,296.082377,-2145.067394
4148.981569,-9548.656652,814.226536,-383.047749
4148.981898,-10807.006753,444.123565,153.219100
4148.982228,-9548.656652,296.082377,306.438199
4148.982558,-8734.430116,74.020594,919.314598
4148.982887,-9474.636058,592.164754,383.047749
4148.983217,-10658.965565,518.144159,766.095498
4148.983547,-10732.986159,370.102971,0.000000
4148.983876,-9474.636058,-74.020594,-383.047749
4148.984206,-8882.471304,444.123565,0.000000
4148.984536,-10214.842000,-148.041188,766.095498
4148.984865,-9992.780217,0.000000,76.609550
4148.985195,-8808.450710,-370.102971,-306.438199
4148.985525,-8512.368333,74.020594,-766.095498
4148.985854,-9770.718434,148.041188,-229.828649
4148.986184,-10288.862594,444.123565,919.314598
4148.986514,-10288.862594,148.041188,766.095498
4148.986843,-10140.821405,296.082377,612.876398
4148.987173,-11251.130318,814.226536,689.485948
4148.987503,-11325.150913,-370.102971,-153.219100
4148.987832,-9622.677246,-222.061783,-153.219100
4148.988162,-9030.512492,-370.102971,536.266849
4148.988492,-9252.574275,-592.164754,1225.752797
4148.988821,-9104.533087,-222.061783,995.924147
4148.989151,-9252.574275,222.061783,229.828649
4148.989481,-9992.780217,-888.247130,-229.828649
4148.989810,-10732.986159,296.082377,0.000000
4148.990140,-10732.986159,0.000000,842.705048
4148.990470,-10584.944971,-1036.288319,76.609550
4148.990799,-9326.594869,148.041188,919.314598
4148.991129,-8808.450710,-666.185348,1149.143247
4148.991459,-9474.636058,-740.205942,76.609550
4148.991788,-8956.491898,0.000000,229.828649
4148.992118,-9696.697840,148.041188,459.657299
4148.992448,-10066.800811,-592.164754,459.657299
4148.992777,-10066.800811,296.082377,1072.533697
4148.993107,-10436.903782,-666.185348,612.876398
4148.993437,-10362.883188,-962.267725,0.000000
4148.993766,-9252.574275,-592.164754,229.828649
4148.994096,-8586.388927,-518.144159,383.047749
4148.994426,-8808.450710,222.061783,229.828649
4148.994755,-9178.553681,222.061783,76.609550
4148.995085,-9918.759623,0.000000,-229.828649
4148.995415,-10510.924376,370.102971,0.000000
4148.995744,-10658.965565,148.041188,766.095498
4148.996074,-10362.883188,-888.247130,459.657299
4148.996404,-9178.553681,-666.185348,0.000000
4148.996733,-8882.471304,-962.267725,76.609550
4148.997063,-8882.471304,-740.205942,229.828649
4148.997393,-9326.594869,148.041188,306.438199
4148.997722,-10140.821405,148.041188,1149.143247
4148.998052,-9918.759623,370.102971,1072.533697
4148.998382,-10658.965565,888.247130,919.314598
4148.998711,-10955.047942,666.185348,0.000000
4148.999041,-10288.862594,-296.082377,-1455.581446
4148.999371,-9474.636058,0.000000,-536.266849
4148.999700,-9104.533087,444.123565,229.828649
4149.000030,-9474.636058,0.000000,-306.438199
4149.000360,-8882.471304,74.020594,229.828649
4149.000689,-9326.594869,74.020594,229.828649
4149.001019,-10214.842000,222.061783,-306.438199
4149.001349,-11029.068536,666.185348,0.000000
4149.001678,-11103.089130,0.000000,76.609550
4149.002008,-9548.656652,-444.123565,1072.533697
4149.002338,-8290.306550,0.000000,1532.190996
4149.002667,-9252.574275,740.205942,919.314598
4149.002997,-9992.780217,370.102971,-766.095498
4149.003327,-9992.780217,592.164754,-612.876398
4149.003656,-10140.821405,444.123565,-459.657299
4149.003986,-10436.903782,444.123565,1302.362347
4149.004316,-9474.636058,518.144159,1072.533697
4149.004645,-8808.450710,0.000000,306.438199
4149.004975,-8660.409521,444.123565,-612.876398
4149.005305,-9696.697840,740.205942,-1302.362347
4149.005634,-10510.924376,592.164754,-1302.362347
4149.005964,-9992.780217,296.082377,-919.314598
4149.006294,-8956.491898,1184.329507,229.828649
4149.006623,-9992.780217,666.185348,229.828649
4149.006953,-10955.047942,962.267725,459.657299
4149.007283,-10214.842000,0.000000,306.438199
4149.007612,-9770.718434,-814.226536,-383.047749
4149.007942,-9030.512492,-666.185348,306.438199
4149.008272,-9178.553681,-296.082377,1838.629195
4149.008601,-8956.491898,0.000000,1455.581446
4149.008931,-9696.697840,0.000000,1149.143247
4149.009261,-10288.862594,74.020594,0.000000
4149.009590,-10510.924376,74.020594,-612.876398
4149.009920,-10732.986159,0.000000,76.609550
4149.010250,-10140.821405,0.000000,459.657299
4149.010579,-9474.636058,74.020594,919.314598
4149.010909,-8808.450710,-518.144159,689.485948
4149.011239,-9326.594869,-740.205942,153.219100
4149.011568,-10140.821405,-1036.288319,306.438199
4149.011898,-10362.883188,-518.144159,1378.971896
4149.012228,-9918.759623,-592.164754,1225.752797
4149.012557,-10140.821405,-74.020594,1685.410096
4149.012887,-10658.965565,222.061783,1302.362347
4149.013217,-10362.883188,-592.164754,612.876398
4149.013546,-9548.656652,148.041188,-229.828649
4149.013876,-10066.800811,296.082377,0.000000
4149.014206,-9918.759623,444.123565,-383.047749
4149.014535,-9918.759623,74.020594,-383.047749
4149.014865,-10140.821405,296.082377,0.000000
4149.015195,-9770.718434,-1184.329507,-766.095498
4149.015524,-9474.636058,-518.144159,-1149.143247
4149.015854,-8882.471304,-370.102971,-536.266849
4149.016184,-9104.533087,-740.205942,229.828649
4149.016513,-9104.533087,-74.020594,842.705048
4149.016843,-9252.574275,444.123565,1225.752797
4149.017173,-10658.965565,444.123565,612.876398
4149.017502,-10436.903782,518.144159,0.000000
4149.017832,-10288.862594,592.164754,-766.095498
4149.018162,-10510.924376,74.020594,-612.876398
4149.018491,-9992.780217,0.000000,-612.876398
4149.018821,-9548.656652,-740.205942,-306.438199
4149.019151,-8290.306550,-962.267725,-689.485948
4149.019480,-8216.285956,-370.102971,306.438199
4149.019810,-9400.615463,74.020594,-306.438199
4149.020140,-9622.677246,148.041188,306.438199
4149.020469,-9992.780217,592.164754,995.924147
4149.020799,-10732.986159,592.164754,1225.752797
4149.021129,-11473.192101,0.000000,1072.533697
4149.021458,-10584.944971,444.123565,689.485948
4149.021788,-9326.594869,0.000000,-459.657299
4149.022118,-8734.430116,74.020594,-612.876398
4149.022447,-10214.842000,666.185348,536.266849
4149.022777,-10436.903782,592.164754,306.438199
4149.023107,-9030.512492,0.000000,0.000000
4149.023436,-9030.512492,148.041188,383.047749
4149.023766,-10140.821405,0.000000,459.657299
4149.024096,-11547.212695,74.020594,459.657299
4149.024425,-10362.883188,296.082377,0.000000
4149.024755,-8808.450710,0.000000,0.000000
4149.025085,-8586.388927,222.061783,153.219100
4149.025414,-9400.615463,740.205942,612.876398
4149.025744,-10436.903782,814.226536,306.438199
4149.026074,-9918.759623,1036.288319,-689.485948
4149.026403,-9548.656652,518.144159,-1225.752797
4149.026733,-10214.842000,-518.144159,-459.657299
4149.027063,-9622.677246,-592.164754,919.314598
4149.027392,-8734.430116,-740.205942,1225.752797
4149.027722,-8364.327145,-740.205942,612.876398
4149.028052,-9252.574275,0.000000,0.000000
4149.028381,-10288.862594,222.061783,-229.828649
4149.028711,-10362.883188,592.164754,612.876398
4149.029041,-11399.171507,592.164754,1608.800546
4149.029370,-10288.862594,296.082377,1225.752797
4149.029700,-9178.553681,-222.061783,459.657299
4149.030030,-9178.553681,0.000000,0.000000
4149.030359,-9548.656652,0.000000,-76.609550
4149.030689,-9844.739029,-370.102971,153.219100
4149.031019,-10066.800811,666.185348,153.219100
4149.031348,-10214.842000,0.000000,229.828649
4149.031678,-9918.759623,-444.123565,459.657299
4149.032008,-9104.533087,0.000000,842.705048
4149.032337,-9474.636058,-592.164754,1378.971896
4149.032667,-10362.883188,222.061783,995.924147
4149.032997,-10214.842000,74.020594,536.266849
4149.033326,-9326.594869,-370.102971,-612.876398
4149.033656,-8438.347739,0.000000,229.828649
4149.033986,-9992.780217,592.164754,842.705048
4149.034315,-11473.192101,-740.205942,459.657299
4149.034645,-10436.903782,-444.123565,229.828649
4149.034975,-8956.491898,-814.226536,0.000000
4149.035304,-8956.491898,-1776.494261,0.000000
4149.035634,-9252.574275,148.041188,76.609550
4149.035964,-9474.636058,222.061783,536.266849
4149.036293,-9474.636058,-222.061783,459.657299
4149.036623,-10214.842000,962.267725,-229.828649
4149.036953,-11621.233289,370.102971,-383.047749
4149.037282,-11473.192101,74.020594,-1532.190996
4149.037612,-10140.821405,222.061783,-995.924147
4149.037942,-8808.450710,0.000000,383.047749
4149.038271,-9252.574275,-222.061783,1072.533697
4149.038601,-9696.697840,74.020594,1225.752797
4149.038931,-9400.615463,-370.102971,0.000000
4149.039260,-9178.553681,0.000000,-1532.190996
4149.039590,-9918.759623,888.247130,-1072.533697
4149.039920,-10658.965565,74.020594,383.047749
4149.040249,-10140.821405,-444.123565,842.705048
4149.040579,-8586.388927,-148.041188,1378.971896
4149.040909,-8660.409521,-444.123565,612.876398
4149.041238,-9844.739029,518.144159,-536.266849
4149.041568,-10214.842000,814.226536,-459.657299
4149.041898,-10288.862594,0.000000,383.047749
4149.042227,-9918.759623,444.123565,1838.629195
4149.042557,-10436.903782,296.082377,1225.752797
4149.042887,-10288.862594,-74.020594,306.438199
4149.043216,-8586.388927,-444.123565,-766.095498
4149.043546,-8956.491898,222.061783,-536.266849
4149.043876,-9474.636058,0.000000,536.266849
4149.044205,-10436.903782,370.102971,1532.190996
4149.044535,-9844.739029,740.205942,1378.971896
4149.044865,-9326.594869,888.247130,0.000000
4149.045194,-10436.903782,888.247130,-919.314598
4149.045524,-10881.027347,0.000000,-842.705048
4149.045854,-10140.821405,74.020594,0.000000
4149.046183,-9326.594869,370.102971,919.314598
4149.046513,-9178.553681,592.164754,689.485948
4149.046843,-9770.718434,222.061783,383.047749
4149.047172,-9400.615463,0.000000,-1149.143247
4149.047502,-9326.594869,148.041188,-1072.533697
4149.047832,-10362.883188,814.226536,229.828649
4149.048161,-10584.944971,370.102971,995.924147
4149.048491,-9548.656652,0.000000,1225.752797
4149.048821,-8808.450710,0.000000,612.876398
4149.049150,-9770.718434,518.144159,76.609550
4149.049480,-10658.965565,222.061783,-536.266849
4149.049810,-10881.027347,444.123565,0.000000
4149.050139,-9622.677246,0.000000,229.828649
4149.050469,-8808.450710,-962.267725,229.828649
4149.050799,-8734.430116,-592.164754,76.609550
4149.051129,-9770.718434,0.000000,383.047749
4149.051458,-10584.944971,74.020594,536.266849
4149.051788,-9844.739029,-148.041188,689.485948
4149.052118,-9918.759623,444.123565,76.609550
4149.052448,-9770.718434,222.061783,612.876398
4149.052778,-9696.697840,222.061783,153.219100
4149.053107,-9696.697840,0.000000,-306.438199
4149.053437,-9992.780217,-370.102971,-1149.143247
4149.053767,-9474.636058,-370.102971,-766.095498
4149.054097,-9696.697840,-222.061783,0.000000
4149.054427,-9474.636058,-592.164754,536.266849
4149.054756,-9400.615463,-740.205942,766.095498
4149.055086,-8956.491898,-148.041188,536.266849
4149.055416,-9622.677246,-296.082377,459.657299
4149.055746,-10288.862594,222.061783,229.828649
4149.056075,-10066.800811,-148.041188,-306.438199
4149.056405,-9548.656652,-740.205942,459.657299
4149.056735,-8882.471304,-370.102971,0.000000
4149.057065,-9030.512492,-148.041188,306.438199
4149.057395,-9474.636058,0.000000,-153.219100
4149.057724,-9622.677246,0.000000,-229.828649
4149.058054,-10807.006753,0.000000,-153.219100
4149.058384,-10510.924376,-296.082377,-383.047749
4149.058714,-10140.821405,-444.123565,0.000000
4149.059044,-8956.491898,-666.185348,459.657299
4149.059373,-8586.388927,-814.226536,1225.752797
4149.059703,-9178.553681,0.000000,1455.581446
4149.060033,-10584.944971,444.123565,842.705048
4149.060363,-10658.965565,0.000000,0.000000
4149.060693,-10658.965565,592.164754,0.000000
4149.061022,-10658.965565,296.082377,383.047749
4149.061352,-10362.883188,74.020594,995.924147
4149.061682,-9844.739029,222.061783,1072.533697
4149.062012,-8956.491898,-370.102971,-153.219100
4149.062341,-8438.347739,-222.061783,-1149.143247
4149.062671,-8438.347739,222.061783,-995.924147
4149.063001,-9992.780217,148.041188,153.219100
4149.063331,-10362.883188,222.061783,842.705048
4149.063661,-10881.027347,592.164754,1072.533697
4149.063990,-10140.821405,-518.144159,0.000000
4149.064320,-9104.533087,-444.123565,-536.266849
4149.064650,-9252.574275,222.061783,0.000000
4149.064980,-9770.718434,0.000000,1302.362347
4149.065310,-10510.924376,888.247130,2068.457845
4149.065639,-9770.718434,518.144159,1072.533697
4149.065969,-8808.450710,74.020594,-306.438199
4149.066299,-9400.615463,888.247130,-766.095498
4149.066629,-10584.944971,0.000000,-919.314598
4149.066959,-10066.800811,-296.082377,383.047749
4149.067288,-8956.491898,0.000000,919.314598
4149.067618,-8734.430116,222.061783,383.047749
4149.067948,-10066.800811,-148.041188,0.000000
4149.068278,-9770.718434,814.226536,153.219100
4149.068608,-9696.697840,296.082377,306.438199
4149.068937,-10584.944971,296.082377,536.266849
4149.069267,-10807.006753,518.144159,536.266849
4149.069597,-9770.718434,518.144159,1072.533697
4149.069927,-9770.718434,74.020594,-306.438199
4149.070256,-9622.677246,148.041188,-919.314598
4149.070586,-9918.759623,-222.061783,-1149.143247
4149.070916,-8438.347739,296.082377,0.000000
4149.071246,-8882.471304,814.226536,229.828649
4149.071576,-9548.656652,592.164754,0.000000
4149.071905,-10362.883188,740.205942,-689.485948
4149.072235,-11177.109724,1702.473667,-689.485948
4149.072565,-10807.006753,592.164754,-1685.410096
4149.072895,-10362.883188,518.144159,-1608.800546
4149.073225,-9104.533087,296.082377,0.000000
4149.073554,-8882.471304,0.000000,536.266849
4149.073884,-8216.285956,370.102971,153.219100
4149.074214,-9696.697840,296.082377,-306.438199
4149.074544,-10584.944971,370.102971,-995.924147
4149.074874,-9770.718434,592.164754,-1225.752797
4149.075203,-9844.739029,1110.308913,-1302.362347
4149.075533,-9326.594869,0.000000,-766.095498
4149.075863,-8956.491898,962.267725,0.000000
4149.076193,-9252.574275,592.164754,536.266849
4149.076522,-10362.883188,1036.288319,-383.047749
4149.076852,-10436.903782,1628.453072,-1378.971896
4149.077182,-10288.862594,1258.350101,-2298.286494
4149.077512,-9696.697840,1258.350101,-2451.505594
4149.077842,-9548.656652,1110.308913,-1915.238745
4149.078171,-9622.677246,1702.473667,-1532.190996
4149.078501,-9918.759623,1406.391290,-1532.190996
4149.078831,-8734.430116,2442.679609,-1225.752797
4149.079161,-9992.780217,1998.556043,-1455.581446
4149.079491,-11547.212695,2590.720797,-2068.457845
4149.079820,-11103.089130,1998.556043,-919.314598
4149.080150,-10066.800811,1924.535449,-2221.676944
4149.080480,-9252.574275,1554.432478,-2451.505594
4149.080810,-9400.615463,2146.597232,-1991.848295
4149.081140,-9474.636058,1332.370696,-1608.800546
4149.081469,-9104.533087,1628.453072,-1608.800546
4149.081799,-9178.553681,2442.679609,-2068.457845
4149.082129,-9252.574275,2516.700203,-1915.238745
4149.082459,-9770.718434,2960.823768,-995.924147
4149.082788,-9844.739029,2812.782580,-1608.800546
4149.083118,-10066.800811,2960.823768,-2068.457845
4149.083448,-10881.027347,2960.823768,-2604.724693
4149.083778,-10436.903782,2738.761985,-4749.792088
4149.084108,-9474.636058,1776.494261,-3524.039291
4149.084437,-8216.285956,1702.473667,-2451.505594
4149.084767,-7846.182985,2146.597232,-383.047749
4149.085097,-8512.368333,2886.803174,306.438199
4149.085427,-9474.636058,3330.926739,-306.438199
4149.085757,-10807.006753,3256.906145,-1991.848295
4149.086086,-11843.295072,3256.906145,-2987.772442
4149.086416,-11473.192101,3108.864956,-3294.210641
4149.086746,-10955.047942,2368.659014,-2451.505594
4149.087076,-9696.697840,2368.659014,-1149.143247
4149.087406,-7994.224174,1332.370696,-1455.581446
4149.087735,-7179.997637,1110.308913,-1991.848295
4149.088065,-7994.224174,1406.391290,-1915.238745
4149.088395,-9400.615463,2590.720797,-1455.581446
4149.088725,-10066.800811,2960.823768,-1378.971896
4149.089054,-10214.842000,3034.844362,-1455.581446
4149.089384,-10658.965565,3701.029710,-1608.800546
4149.089714,-11399.171507,2960.823768,-2757.943793
4149.090044,-10955.047942,2738.761985,-3753.867940
4149.090374,-9622.677246,2590.720797,-4290.134789
4149.090703,-9030.512492,2368.659014,-2757.943793
4149.091033,-9178.553681,2590.720797,-1378.971896
4149.091363,-9770.718434,2294.638420,-995.924147
4149.091693,-9400.615463,2072.576638,-1838.629195
4149.092023,-9178.553681,1924.535449,-3064.381992
4149.092352,-9104.533087,1702.473667,-2068.457845
4149.092682,-10214.842000,1776.494261,-1378.971896
4149.093012,-10436.903782,1776.494261,-689.485948
4149.093342,-9326.594869,1184.329507,-612.876398
4149.093672,-9474.636058,2072.576638,-1225.752797
4149.094001,-10066.800811,1184.329507,-1302.362347
4149.094331,-10288.862594,1924.535449,-995.924147
4149.094661,-9400.615463,2146.597232,-1149.143247
4149.094991,-9178.553681,2442.679609,-1532.190996
4149.095320,-10510.924376,1998.556043,-1378.971896
4149.095650,-10658.965565,1702.473667,-1762.019645
4149.095980,-10362.883188,2368.659014,-2911.162892
4149.096310,-8586.388927,2590.720797,-5056.230287
4149.096640,-9474.636058,1554.432478,-3217.601092
4149.096969,-9548.656652,888.247130,-1072.533697
4149.097299,-8956.491898,1702.473667,-689.485948
4149.097629,-9030.512492,888.247130,-2298.286494
4149.097959,-10066.800811,2072.576638,-1685.410096
4149.098289,-9918.759623,1998.556043,-1302.362347
4149.098618,-9992.780217,1924.535449,0.000000
4149.098948,-10436.903782,2220.617826,383.047749
4149.099278,-11103.089130,2886.803174,-612.876398
4149.099608,-10066.800811,2146.597232,-3294.210641
4149.099938,-9178.553681,2146.597232,-3907.087040
4149.100267,-9178.553681,1998.556043,-3524.039291
4149.100597,-9770.718434,2072.576638,-2221.676944
4149.100927,-9770.718434,2220.617826,-2298.286494
4149.101257,-8660.409521,1554.432478,-2834.553343
4149.101586,-9252.574275,2294.638420,-3217.601092
4149.101916,-9844.739029,1850.514855,-2451.505594
4149.102246,-10881.027347,1850.514855,-459.657299
4149.102576,-10436.903782,1776.494261,-76.609550
4149.102906,-9474.636058,1406.391290,-1149.143247
4149.103235,-9178.553681,1702.473667,-229.828649
4149.103565,-9326.594869,1850.514855,-766.095498
4149.103895,-9474.636058,1924.535449,-1685.410096
4149.104225,-9104.533087,1776.494261,-2681.334243
4149.104555,-9622.677246,2590.720797,-2451.505594
4149.104884,-9918.759623,2516.700203,-2145.067394
4149.105214,-9844.739029,2960.823768,-1762.019645
4149.105544,-9696.697840,2812.782580,-2681.334243
4149.105874,-9992.780217,2516.700203,-3064.381992
4149.106204,-10436.903782,2812.782580,-3677.258390
4149.106533,-9252.574275,1924.535449,-3447.429741
4149.106863,-9178.553681,1850.514855,-1608.800546
4149.107193,-9178.553681,1850.514855,153.219100
4149.107523,-9178.553681,1480.411884,-383.047749
4149.107852,-9548.656652,1332.370696,-1762.019645
4149.108182,-9474.636058,1998.556043,-2145.067394
4149.108512,-9474.636058,2220.617826,-995.924147
4149.108842,-10510.924376,2442.679609,-229.828649
4149.109172,-10658.965565,2590.720797,-76.609550
4149.109501,-10436.903782,2960.823768,-1455.581446
4149.109831,-10214.842000,3330.926739,-2681.334243
4149.110161,-10140.821405,2590.720797,-3294.210641
4149.110491,-9844.739029,2294.638420,-3677.258390
4149.110821,-8734.430116,2294.638420,-2987.772442
4149.111150,-8586.388927,1702.473667,-1991.848295
4149.111480,-9400.615463,1998.556043,-1149.143247
4149.111810,-9400.615463,1998.556043,-1608.800546
4149.112140,-9622.677246,1628.453072,-2528.115143
4149.112470,-8956.491898,1628.453072,-2528.115143
4149.112799,-10214.842000,1998.556043,-842.705048
4149.113129,-11103.089130,2146.597232,1149.143247
4149.113459,-11177.109724,2220.617826,1608.800546
4149.113789,-10362.883188,2294.638420,-1608.800546
4149.114118,-9474.636058,2146.597232,-3600.648841
4149.114448,-9474.636058,2146.597232,-3983.696590
4149.114778,-9844.739029,2220.617826,-3294.210641
4149.115108,-9770.718434,2590.720797,-2145.067394
4149.115438,-9326.594869,2294.638420,-1378.971896
4149.115767,-8808.450710,2072.576638,-1991.848295
4149.116097,-9252.574275,2220.617826,-3064.381992
4149.116427,-9844.739029,1850.514855,-3447.429741
4149.116757,-10214.842000,1776.494261,-2068.457845
4149.117087,-9844.739029,1850.514855,-536.266849
4149.117416,-9252.574275,1258.350101,0.000000
4149.117746,-10066.800811,2368.659014,-383.047749
4149.118076,-10288.862594,2516.700203,-1608.800546
4149.118406,-10732.986159,2516.700203,-2681.334243
4149.118736,-10214.842000,2590.720797,-3524.039291
4149.119065,-10066.800811,2516.700203,-3140.991542
4149.119395,-9252.574275,2442.679609,-1762.019645
4149.119725,-9326.594869,1924.535449,-919.314598
4149.120055,-9030.512492,1850.514855,-1838.629195
4149.120385,-8882.471304,1480.411884,-3140.991542
4149.120714,-8734.430116,1184.329507,-3677.258390
4149.121044,-9400.615463,1702.473667,-2221.676944
4149.121374,-9696.697840,2072.576638,-1302.362347
4149.121704,-9844.739029,2220.617826,-459.657299
4149.122033,-9770.718434,2590.720797,0.000000
4149.122363,-11029.068536,2960.823768,-842.705048
4149.122693,-11177.109724,2442.679609,-1915.238745
4149.123023,-10807.006753,2294.638420,-1762.019645
4149.123353,-9548.656652,1628.453072,-1838.629195
4149.123682,-8438.347739,1332.370696,-1991.848295
4149.124012,-8734.430116,1332.370696,-1455.581446
4149.124342,-8734.430116,1406.391290,-2451.505594
4149.124672,-8882.471304,1628.453072,-2451.505594
4149.125002,-8660.409521,1480.411884,-2298.286494
4149.125331,-9622.677246,2072.576638,-1378.971896
4149.125661,-10658.965565,2146.597232,-689.485948
4149.125991,-10881.027347,2072.576638,-612.876398
4149.126321,-10732.986159,1702.473667,-995.924147
4149.126651,-10362.883188,1406.391290,-689.485948
4149.126980,-10288.862594,1184.329507,-306.438199
4149.127310,-9696.697840,962.267725,-383.047749
4149.127640,-9178.553681,666.185348,0.000000
4149.127970,-9252.574275,1332.370696,-995.924147
4149.128299,-9474.636058,962.267725,-995.924147
4149.128629,-10066.800811,1258.350101,-1532.190996
4149.128959,-9770.718434,1554.432478,-2298.286494
4149.129289,-9400.615463,1184.329507,-2451.505594
4149.129619,-9400.615463,1110.308913,-2604.724693
4149.129948,-9474.636058,814.226536,-1991.848295
4149.130278,-10066.800811,592.164754,-1149.143247
4149.130608,-10807.006753,1110.308913,-689.485948
4149.130938,-9918.759623,814.226536,-1608.800546
4149.131268,-9400.615463,740.205942,-2987.772442
4149.131597,-9178.553681,1110.308913,-3140.991542
4149.131927,-8956.491898,666.185348,-1608.800546
4149.132257,-9548.656652,962.267725,-1225.752797
4149.132587,-9178.553681,1258.350101,-1685.410096
4149.132917,-8956.491898,1110.308913,-2451.505594
4149.133246,-9252.574275,1776.494261,-2987.772442
4149.133576,-10066.800811,2072.576638,-3140.991542
4149.133906,-10881.027347,2146.597232,-2681.334243
4149.134236,-9770.718434,2072.576638,-2987.772442
4149.134565,-9548.656652,2368.659014,-2451.505594
4149.134895,-9918.759623,2294.638420,-1762.019645
4149.135225,-9474.636058,2220.617826,-1762.019645
4149.135555,-10140.821405,2220.617826,-1915.238745
4149.135885,-10140.821405,2294.638420,-2911.162892
4149.136214,-9548.656652,2516.700203,-2604.724693
4149.136544,-9844.739029,2590.720797,-1991.848295
4149.136874,-9844.739029,2960.823768,-2374.896044
4149.137204,-9474.636058,3182.885551,-2528.115143
4149.137534,-9844.739029,2960.823768,-2145.067394
4149.137863,-10362.883188,3108.864956,-2145.067394
4149.138193,-10732.986159,3552.988522,-1149.143247
4149.138523,-10140.821405,3404.947333,-1455.581446
4149.138853,-9326.594869,3182.885551,-2451.505594
4149.139183,-9104.533087,3404.947333,-2528.115143
4149.139512,-9474.636058,3330.926739,-2374.896044
4149.139842,-10214.842000,3701.029710,-1455.581446
4149.140172,-9770.718434,3627.009116,-2068.457845
4149.140502,-8586.388927,3552.988522,-3370.820191
4149.140831,-9030.512492,4145.153275,-4060.306139
4149.141161,-9696.697840,3923.091493,-3753.867940
4149.141491,-10584.944971,3627.009116,-2451.505594
4149.141821,-9918.759623,3256.906145,-1378.971896
4149.142151,-8882.471304,3552.988522,-766.095498
4149.142480,-8956.491898,3330.926739,-919.314598
4149.142810,-9770.718434,3478.967927,-995.924147
4149.143140,-10436.903782,3256.906145,-1991.848295
4149.143470,-9326.594869,2886.803174,-2681.334243
4149.143800,-8734.430116,2960.823768,-2834.553343
4149.144129,-8956.491898,3182.885551,-2145.067394
4149.144459,-9622.677246,3404.947333,-1378.971896
4149.144789,-9992.780217,3849.070898,-2221.676944
4149.145119,-9548.656652,3256.906145,-2911.162892
4149.145449,-9696.697840,3034.844362,-2451.505594
4149.145778,-10584.944971,3034.844362,-1149.143247
4149.146108,-10436.903782,2368.659014,-229.828649
4149.146438,-9770.718434,2220.617826,-1072.533697
4149.146768,-9030.512492,1406.391290,-2757.943793
4149.147097,-9104.533087,1258.350101,-2987.772442
4149.147427,-9696.697840,1628.453072,-1302.362347
4149.147757,-9992.780217,1702.473667,-612.876398
4149.148087,-9622.677246,1332.370696,536.266849
4149.148417,-10066.800811,1998.556043,-383.047749
4149.148746,-10732.986159,1924.535449,-1685.410096
4149.149076,-11251.130318,2072.576638,-2298.286494
4149.149406,-10807.006753,1628.453072,-2298.286494
4149.149736,-10140.821405,888.247130,-919.314598
4149.150066,-9918.759623,592.164754,-842.705048
4149.150395,-8512.368333,666.185348,-1225.752797
4149.150725,-8512.368333,0.000000,-2451.505594
4149.151055,-8734.430116,222.061783,-2757.943793
4149.151385,-9030.512492,0.000000,-2374.896044
4149.151715,-9548.656652,0.000000,-689.485948
4149.152044,-10066.800811,888.247130,0.000000
4149.152374,-10658.965565,1332.370696,383.047749
4149.152704,-10881.027347,888.247130,-1608.800546
4149.153034,-11177.109724,888.247130,-2528.115143
4149.153363,-10955.047942,1184.329507,-2528.115143
4149.153693,-10288.862594,888.247130,-1455.581446
4149.154023,-9918.759623,1036.288319,-1302.362347
4149.154352,-8438.347739,296.082377,-2451.505594
4149.154682,-7846.182985,0.000000,-3064.381992
4149.155012,-8660.409521,222.061783,-2221.676944
4149.155342,-10140.821405,740.205942,-1685.410096
4149.155671,-10066.800811,962.267725,-1072.533697
4149.156001,-9844.739029,1258.350101,-306.438199
4149.156331,-9844.739029,1406.391290,-766.095498
4149.156661,-11621.233289,1628.453072,-383.047749
4149.156990,-11695.253884,1850.514855,-689.485948
4149.157320,-10140.821405,1776.494261,-1838.629195
4149.157650,-9400.615463,1480.411884,-2068.457845
4149.157979,-8882.471304,1628.453072,-1685.410096
4149.158309,-9252.574275,1702.473667,-919.314598
4149.158639,-9104.533087,1702.473667,-2528.115143
4149.158969,-8364.327145,2368.659014,-3983.696590
4149.159298,-8290.306550,2220.617826,-3677.258390
4149.159628,-9548.656652,2886.803174,-2068.457845
4149.159958,-10436.903782,3108.864956,-1608.800546
4149.160288,-10214.842000,3182.885551,-1915.238745
4149.160617,-9918.759623,3034.844362,-2451.505594
4149.160947,-10066.800811,2442.679609,-2451.505594
4149.161277,-10584.944971,3108.864956,-1838.629195
4149.161606,-9992.780217,2812.782580,-1838.629195
4149.161936,-9104.533087,3108.864956,-2298.286494
4149.162266,-8290.306550,2812.782580,-2451.505594
4149.162596,-9104.533087,3182.885551,-2374.896044
4149.162925,-9622.677246,3182.885551,-2451.505594
4149.163255,-9696.697840,3552.988522,-2757.943793
4149.163585,-9400.615463,3404.947333,-2911.162892
4149.163915,-9696.697840,3108.864956,-3370.820191
4149.164244,-9992.780217,3478.967927,-3140.991542
4149.164574,-9844.739029,3034.844362,-2528.115143
4149.164904,-9400.615463,3108.864956,-2068.457845
4149.165233,-8882.471304,2738.761985,-2068.457845
4149.165563,-9104.533087,3256.906145,-1072.533697
4149.165893,-9770.718434,2146.597232,-1072.533697
4149.166223,-9474.636058,2812.782580,-1762.019645
4149.166552,-9178.553681,2886.803174,-2451.505594
4149.166882,-10140.821405,3330.926739,-2604.724693
4149.167212,-10658.965565,2886.803174,-2528.115143
4149.167542,-9770.718434,2960.823768,-1991.848295
4149.167871,-9548.656652,3256.906145,-1072.533697
4149.168201,-9548.656652,3108.864956,-1685.410096
4149.168531,-10362.883188,3330.926739,-2298.286494
4149.168860,-10732.986159,2516.700203,-2604.724693
4149.169190,-11769.274478,2886.803174,-1915.238745
4149.169520,-10362.883188,1776.494261,-1838.629195
4149.169850,-8586.388927,1332.370696,-1991.848295
4149.170179,-8438.347739,1110.308913,-1225.752797
4149.170509,-8586.388927,1184.329507,-383.047749
4149.170839,-9918.759623,1776.494261,0.000000
4149.171169,-10214.842000,1998.556043,-1225.752797
4149.171498,-10510.924376,1776.494261,-1302.362347
4149.171828,-10807.006753,2146.597232,0.000000
4149.172158,-10881.027347,1850.514855,0.000000
4149.172487,-11251.130318,1258.350101,-842.705048
4149.172817,-10066.800811,740.205942,-1838.629195
4149.173147,-8438.347739,444.123565,-2298.286494
4149.173477,-8808.450710,74.020594,-1532.190996
4149.173806,-8808.450710,370.102971,-229.828649
4149.174136,-9474.636058,592.164754,1225.752797
4149.174466,-9326.594869,148.041188,153.219100
4149.174796,-9918.759623,518.144159,-1149.143247
4149.175125,-10140.821405,814.226536,-1378.971896
4149.175455,-10510.924376,962.267725,-1302.362347
4149.175785,-10658.965565,888.247130,-1072.533697
4149.176114,-9918.759623,296.082377,229.828649
4149.176444,-9400.615463,666.185348,842.705048
4149.176774,-9548.656652,0.000000,76.609550
4149.177104,-9252.574275,0.000000,-1072.533697
4149.177433,-9252.574275,-666.185348,-1302.362347
4149.177763,-9252.574275,-666.185348,-612.876398
4149.178093,-9548.656652,-888.247130,995.924147
4149.178423,-9918.759623,-370.102971,1608.800546
4149.178752,-8808.450710,-518.144159,1072.533697
4149.179082,-8956.491898,-296.082377,0.000000
4149.179412,-10658.965565,296.082377,-306.438199
4149.179741,-11251.130318,-222.061783,919.314598
4149.180071,-10436.903782,0.000000,2451.505594
4149.180401,-10362.883188,0.000000,1608.800546
4149.180731,-10214.842000,-1332.370696,766.095498
4149.181060,-9548.656652,-1036.288319,306.438199
4149.181390,-8216.285956,-962.267725,-1149.143247
4149.181720,-7920.203579,-1110.308913,-1149.143247
4149.182050,-8660.409521,-148.041188,-383.047749
4149.182379,-10658.965565,1036.288319,1378.971896
4149.182709,-11399.171507,-74.020594,536.266849
4149.183039,-10584.944971,518.144159,-306.438199
4149.183368,-11251.130318,148.041188,-919.314598
4149.183698,-10140.821405,-1110.308913,-1378.971896
4149.184028,-8808.450710,-666.185348,0.000000
4149.184358,-7179.997637,-962.267725,1072.533697
4149.184687,-7920.203579,-444.123565,0.000000
4149.185017,-8660.409521,-222.061783,-1149.143247
4149.185347,-10214.842000,-740.205942,-766.095498
4149.185677,-11177.109724,-296.082377,76.609550
4149.186006,-10732.986159,0.000000,1378.971896
4149.186336,-9770.718434,-222.061783,1378.971896
4149.186666,-8808.450710,-740.205942,995.924147
4149.186995,-9252.574275,0.000000,-383.047749
4149.187325,-10658.965565,444.123565,-842.705048
4149.187655,-10732.986159,0.000000,-612.876398
4149.187985,-9252.574275,666.185348,-76.609550
4149.188314,-9326.594869,444.123565,-689.485948
4149.188644,-10140.821405,592.164754,-919.314598
4149.188974,-10436.903782,740.205942,-995.924147
4149.189304,-9252.574275,296.082377,-1608.800546
4149.189633,-9252.574275,-444.123565,-306.438199
4149.189963,-10510.924376,1110.308913,306.438199
4149.190293,-9770.718434,-296.082377,1378.971896
4149.190622,-9400.615463,0.000000,1302.362347
4149.190952,-9400.615463,296.082377,76.609550
4149.191282,-10140.821405,-148.041188,0.000000
4149.191612,-10510.924376,148.041188,842.705048
4149.191941,-10066.800811,740.205942,1532.190996
4149.192271,-9548.656652,148.041188,2068.457845
4149.192601,-9696.697840,444.123565,842.705048
4149.192931,-9770.718434,888.247130,-1608.800546
4149.193260,-9326.594869,-296.082377,-1225.752797
4149.193590,-9326.594869,518.144159,0.000000
4149.193920,-9474.636058,814.226536,1532.190996
4149.194249,-10214.842000,518.144159,1532.190996
4149.194579,-9992.780217,1628.453072,153.219100
4149.194909,-10288.862594,814.226536,-1378.971896
4149.195239,-10436.903782,222.061783,-766.095498
4149.195568,-10807.006753,740.205942,612.876398
4149.195898,-9844.739029,296.082377,2681.334243
4149.196228,-8512.368333,148.041188,2221.676944
4149.196558,-8734.430116,962.267725,536.266849
4149.196887,-10658.965565,444.123565,-1378.971896
4149.197217,-10658.965565,0.000000,-2068.457845
4149.197547,-9918.759623,148.041188,-153.219100
4149.197876,-8734.430116,0.000000,1302.362347
4149.198206,-8586.388927,74.020594,1532.190996
4149.198536,-9326.594869,518.144159,0.000000
4149.198866,-9918.759623,0.000000,-1532.190996
4149.199195,-10288.862594,296.082377,-1378.971896
4149.199525,-10066.800811,370.102971,0.000000
4149.199855,-9918.759623,74.020594,995.924147
4149.200185,-10214.842000,0.000000,2145.067394
4149.200514,-9030.512492,-148.041188,919.314598
4149.200844,-8586.388927,-1332.370696,-1225.752797
4149.201174,-9622.677246,-740.205942,-1991.848295
4149.201503,-10362.883188,74.020594,0.000000
4149.201833,-10140.821405,-592.164754,1685.410096
4149.202163,-9178.553681,148.041188,1302.362347
4149.202493,-9104.533087,-518.144159,153.219100
4149.202822,-9474.636058,-1036.288319,-1149.143247
4149.203152,-11325.150913,-592.164754,-459.657299
4149.203482,-11029.068536,-1036.288319,-153.219100
4149.203812,-8808.450710,-1480.411884,306.438199
4149.204141,-7846.182985,-444.123565,995.924147
4149.204471,-8956.491898,-740.205942,995.924147
4149.204801,-10658.965565,-518.144159,153.219100
4149.205130,-11177.109724,-296.082377,76.609550
4149.205460,-10955.047942,148.041188,76.609550
4149.205790,-11399.171507,74.020594,612.876398
4149.206120,-9696.697840,222.061783,612.876398
4149.206449,-9104.533087,-370.102971,76.609550
4149.206779,-9770.718434,-74.020594,-459.657299
4149.207109,-11029.068536,370.102971,-1225.752797
4149.207439,-10658.965565,-518.144159,-1225.752797
4149.207768,-9252.574275,-740.205942,0.000000
4149.208098,-9030.512492,0.000000,1378.971896
4149.208428,-9548.656652,-518.144159,1149.143247
4149.208757,-10436.903782,-592.164754,1378.971896
4149.209087,-10140.821405,0.000000,536.266849
4149.209417,-9252.574275,-370.102971,612.876398
4149.209747,-9992.780217,666.185348,842.705048
4149.210076,-10140.821405,592.164754,153.219100
4149.210406,-10066.800811,444.123565,612.876398
4149.210736,-9770.718434,814.226536,0.000000
4149.211066,-9770.718434,74.020594,-536.266849
4149.211395,-9918.759623,-148.041188,-766.095498
4149.211725,-8956.491898,0.000000,-459.657299
4149.212055,-8512.368333,74.020594,612.876398
4149.212384,-8956.491898,-148.041188,689.485948
4149.212714,-9548.656652,1110.308913,995.924147
4149.213044,-10436.903782,0.000000,1225.752797
4149.213374,-10436.903782,518.144159,612.876398
4149.213703,-9622.677246,1036.288319,153.219100
4149.214033,-9622.677246,444.123565,-842.705048
4149.214363,-9030.512492,148.041188,229.828649
4149.214693,-9548.656652,814.226536,0.000000
4149.215022,-10066.800811,370.102971,229.828649
4149.215352,-10140.821405,222.061783,766.095498
4149.215682,-9770.718434,1036.288319,995.924147
4149.216011,-9622.677246,222.061783,0.000000
4149.216341,-9844.739029,74.020594,-76.609550
4149.216671,-8956.491898,74.020594,-229.828649
4149.217001,-9326.594869,74.020594,-383.047749
4149.217330,-10288.862594,666.185348,536.266849
4149.217660,-10658.965565,1110.308913,689.485948
4149.217990,-9770.718434,148.041188,-842.705048
4149.218320,-9474.636058,814.226536,-1532.190996
4149.218649,-10436.903782,444.123565,153.219100
4149.218979,-11177.109724,-222.061783,1149.143247
