#time,accel_x,accel_y,accel_z
3948.036362,-11399.171507,1480.411884,766.095498
3948.036692,-11325.150913,888.247130,1072.533697
3948.037021,-11399.171507,518.144159,1149.143247
3948.037351,-10436.903782,-962.267725,1149.143247
3948.037681,-9474.636058,-1258.350101,76.609550
3948.038011,-7328.038826,-1554.432478,-766.095498
3948.038340,-6809.894666,-1554.432478,-766.095498
3948.038670,-8068.244768,-370.102971,76.609550
3948.039000,-8956.491898,0.000000,1225.752797
3948.039330,-9918.759623,888.247130,1991.848295
3948.039660,-10881.027347,1406.391290,3064.381992
3948.039989,-11621.233289,2072.576638,2068.457845
3948.040319,-11843.295072,1554.432478,995.924147
3948.040649,-11621.233289,1184.329507,0.000000
3948.040979,-10807.006753,1036.288319,-459.657299
3948.041308,-10140.821405,296.082377,-229.828649
3948.041638,-9548.656652,444.123565,-459.657299
3948.041968,-8734.430116,148.041188,-1455.581446
3948.042298,-8290.306550,444.123565,-1991.848295
3948.042628,-8956.491898,222.061783,-1302.362347
3948.042957,-9474.636058,962.267725,-383.047749
3948.043287,-9400.615463,666.185348,689.485948
3948.043617,-9696.697840,1036.288319,1455.581446
3948.043947,-10214.842000,444.123565,1608.800546
3948.044276,-11695.253884,444.123565,1149.143247
3948.044606,-11325.150913,222.061783,306.438199
3948.044936,-10732.986159,-148.041188,229.828649
3948.045266,-9992.780217,148.041188,1378.971896
3948.045596,-9844.739029,0.000000,1455.581446
3948.045925,-8956.491898,518.144159,919.314598
3948.046255,-7179.997637,592.164754,-612.876398
3948.046585,-8142.265362,222.061783,-1225.752797
3948.046915,-8808.450710,0.000000,-842.705048
3948.047244,-9474.636058,-444.123565,76.609550
3948.047574,-10510.924376,-518.144159,689.485948
3948.047904,-10066.800811,-962.267725,1225.752797
3948.048234,-10436.903782,-740.205942,766.095498
3948.048564,-10436.903782,-888.247130,1072.533697
3948.048893,-9918.759623,-666.185348,459.657299
3948.049223,-9696.697840,-592.164754,1455.581446
3948.049553,-9474.636058,-222.061783,2221.676944
3948.049883,-9474.636058,-592.164754,1762.019645
3948.050212,-9326.594869,-444.123565,153.219100
3948.050542,-9696.697840,-814.226536,-1072.533697
3948.050872,-10288.862594,-444.123565,-2145.067394
3948.051202,-10066.800811,-592.164754,-919.314598
3948.051532,-9992.780217,-666.185348,-229.828649
3948.051861,-9622.677246,-814.226536,612.876398
3948.052191,-10140.821405,-666.185348,536.266849
3948.052521,-10214.842000,-518.144159,0.000000
3948.052851,-9696.697840,-666.185348,383.047749
3948.053180,-9918.759623,-666.185348,1915.238745
3948.053510,-10066.800811,-444.123565,2374.896044
3948.053840,-9548.656652,-148.041188,1225.752797
3948.054170,-9400.615463,-666.185348,0.000000
3948.054500,-9696.697840,-296.082377,-306.438199
3948.054829,-10362.883188,-370.102971,153.219100
3948.055159,-10288.862594,-74.020594,-229.828649
3948.055489,-9696.697840,-296.082377,0.000000
3948.055819,-8808.450710,-518.144159,306.438199
3948.056148,-9252.574275,-592.164754,536.266849
3948.056478,-9770.718434,0.000000,612.876398
3948.056808,-9400.615463,0.000000,-153.219100
3948.057138,-9326.594869,148.041188,-153.219100
3948.057467,-9844.739029,444.123565,306.438199
3948.057797,-10510.924376,592.164754,536.266849
3948.058127,-9918.759623,444.123565,383.047749
3948.058457,-9918.759623,592.164754,-612.876398
3948.058787,-10214.842000,296.082377,-383.047749
3948.059116,-9844.739029,296.082377,0.000000
3948.059446,-9104.533087,296.082377,-153.219100
3948.059776,-9326.594869,666.185348,766.095498
3948.060106,-9326.594869,444.123565,536.266849
3948.060435,-9548.656652,370.102971,0.000000
3948.060765,-9844.739029,740.205942,-153.219100
3948.061095,-10140.821405,1258.350101,0.000000
3948.061425,-10510.924376,1406.391290,0.000000
3948.061755,-10288.862594,1110.308913,0.000000
3948.062084,-10066.800811,888.247130,0.000000
3948.062414,-9992.780217,814.226536,306.438199
3948.062744,-9770.718434,592.164754,153.219100
3948.063074,-9770.718434,370.102971,306.438199
3948.063403,-9474.636058,296.082377,383.047749
3948.063733,-9030.512492,666.185348,153.219100
3948.064063,-9474.636058,296.082377,689.485948
3948.064393,-9696.697840,222.061783,919.314598
3948.064723,-9696.697840,444.123565,459.657299
3948.065053,-9474.636058,296.082377,-612.876398
3948.065383,-9992.780217,296.082377,0.000000
3948.065713,-10066.800811,74.020594,229.828649
3948.066043,-9622.677246,0.000000,612.876398
3948.066372,-9178.553681,0.000000,306.438199
3948.066702,-9400.615463,-296.082377,153.219100
3948.067032,-9326.594869,-296.082377,153.219100
3948.067362,-9548.656652,-148.041188,76.609550
3948.067692,-9474.636058,0.000000,153.219100
3948.068022,-9474.636058,-518.144159,306.438199
3948.068352,-9992.780217,0.000000,229.828649
3948.068682,-9918.759623,-370.102971,0.000000
3948.069012,-10288.862594,-74.020594,0.000000
3948.069342,-9622.677246,-370.102971,383.047749
3948.069672,-9696.697840,-666.185348,612.876398
3948.070002,-9548.656652,-1036.288319,306.438199
3948.070332,-9548.656652,-592.164754,153.219100
3948.070662,-9622.677246,-518.144159,229.828649
3948.070992,-9844.739029,-518.144159,612.876398
3948.071322,-9622.677246,0.000000,0.000000
3948.071652,-9918.759623,74.020594,153.219100
3948.071982,-9992.780217,148.041188,76.609550
3948.072311,-9918.759623,-444.123565,383.047749
3948.072641,-10214.842000,0.000000,0.000000
3948.072971,-9770.718434,0.000000,0.000000
3948.073301,-9696.697840,0.000000,306.438199
3948.073631,-9696.697840,222.061783,383.047749
3948.073961,-9918.759623,0.000000,383.047749
3948.074291,-9548.656652,-296.082377,76.609550
3948.074621,-9992.780217,222.061783,76.609550
3948.074951,-9770.718434,444.123565,-229.828649
3948.075281,-10066.800811,444.123565,0.000000
3948.075611,-9622.677246,592.164754,229.828649
3948.075941,-9548.656652,222.061783,-383.047749
3948.076271,-9844.739029,148.041188,229.828649
3948.076601,-9696.697840,592.164754,0.000000
3948.076931,-9770.718434,148.041188,229.828649
3948.077261,-9622.677246,518.144159,0.000000
3948.077591,-9770.718434,444.123565,-76.609550
3948.077921,-9178.553681,444.123565,153.219100
3948.078251,-9696.697840,370.102971,383.047749
3948.078580,-10066.800811,666.185348,229.828649
3948.078910,-9770.718434,444.123565,306.438199
3948.079240,-9474.636058,740.205942,0.000000
3948.079570,-9474.636058,444.123565,0.000000
3948.079900,-9770.718434,518.144159,76.609550
3948.080230,-9622.677246,296.082377,76.609550
3948.080560,-9696.697840,444.123565,229.828649
3948.080890,-9474.636058,444.123565,-76.609550
3948.081220,-9844.739029,296.082377,0.000000
3948.081550,-9844.739029,222.061783,229.828649
3948.081880,-9696.697840,444.123565,76.609550
3948.082210,-9770.718434,518.144159,0.000000
3948.082540,-9770.718434,296.082377,229.828649
3948.082870,-9696.697840,222.061783,306.438199
3948.083200,-9548.656652,0.000000,536.266849
3948.083530,-9548.656652,-444.123565,229.828649
3948.083860,-9622.677246,-74.020594,459.657299
3948.084190,-9770.718434,74.020594,306.438199
3948.084519,-9696.697840,-74.020594,306.438199
3948.084849,-9918.759623,-296.082377,306.438199
3948.085179,-10140.821405,148.041188,0.000000
3948.085509,-9696.697840,-296.082377,229.828649
3948.085839,-9548.656652,0.000000,306.438199
3948.086169,-9844.739029,-222.061783,229.828649
3948.086499,-9548.656652,-666.185348,383.047749
3948.086829,-9844.739029,-222.061783,229.828649
3948.087159,-10140.821405,-296.082377,229.828649
3948.087489,-9918.759623,0.000000,306.438199
3948.087819,-9696.697840,-592.164754,842.705048
3948.088149,-9622.677246,-148.041188,383.047749
3948.088479,-9770.718434,-444.123565,306.438199
3948.088809,-9992.780217,-222.061783,229.828649
3948.089139,-10066.800811,0.000000,-153.219100
3948.089469,-9844.739029,-222.061783,229.828649
3948.089799,-10066.800811,0.000000,459.657299
3948.090129,-9696.697840,0.000000,459.657299
3948.090458,-9844.739029,0.000000,229.828649
3948.090788,-9844.739029,-296.082377,536.266849
3948.091118,-9992.780217,0.000000,76.609550
3948.091448,-9918.759623,-222.061783,153.219100
3948.091778,-9918.759623,74.020594,0.000000
3948.092108,-9548.656652,74.020594,0.000000
3948.092438,-9918.759623,0.000000,536.266849
3948.092768,-9918.759623,0.000000,459.657299
3948.093098,-9770.718434,74.020594,459.657299
3948.093428,-9918.759623,222.061783,0.000000
3948.093758,-9696.697840,0.000000,76.609550
3948.094088,-9696.697840,0.000000,153.219100
3948.094418,-9548.656652,74.020594,459.657299
3948.094748,-9622.677246,222.061783,0.000000
3948.095078,-9548.656652,74.020594,0.000000
3948.095408,-9770.718434,148.041188,-76.609550
3948.095738,-9548.656652,222.061783,0.000000
3948.096068,-9918.759623,222.061783,76.609550
3948.096397,-9622.677246,370.102971,229.828649
3948.096727,-9770.718434,296.082377,459.657299
3948.097057,-9696.697840,0.000000,306.438199
3948.097387,-9474.636058,222.061783,76.609550
3948.097717,-9474.636058,222.061783,459.657299
3948.098047,-9474.636058,0.000000,536.266849
3948.098377,-9770.718434,222.061783,536.266849
3948.098707,-9918.759623,222.061783,229.828649
3948.099037,-9474.636058,74.020594,0.000000
3948.099367,-9474.636058,0.000000,76.609550
3948.099697,-10140.821405,518.144159,0.000000
3948.100027,-9770.718434,296.082377,306.438199
3948.100357,-10066.800811,370.102971,153.219100
3948.100687,-9918.759623,222.061783,76.609550
3948.101017,-9844.739029,518.144159,306.438199
3948.101347,-9844.739029,0.000000,76.609550
3948.101677,-9992.780217,222.061783,383.047749
3948.102007,-9992.780217,0.000000,306.438199
3948.102336,-9696.697840,148.041188,842.705048
3948.102666,-9696.697840,74.020594,612.876398
3948.102996,-9770.718434,148.041188,689.485948
3948.103326,-9992.780217,0.000000,76.609550
3948.103656,-10214.842000,296.082377,76.609550
3948.103986,-10066.800811,0.000000,153.219100
3948.104316,-9548.656652,0.000000,153.219100
3948.104646,-9622.677246,0.000000,459.657299
3948.104976,-9548.656652,-444.123565,612.876398
3948.105306,-9474.636058,-74.020594,306.438199
3948.105636,-9696.697840,-444.123565,-459.657299
3948.105966,-9548.656652,-518.144159,0.000000
3948.106296,-9918.759623,-222.061783,306.438199
3948.106626,-9770.718434,-222.061783,612.876398
3948.106956,-9696.697840,0.000000,459.657299
3948.107286,-9474.636058,-444.123565,153.219100
3948.107616,-9696.697840,-222.061783,229.828649
3948.107946,-10066.800811,0.000000,229.828649
3948.108276,-9844.739029,-370.102971,76.609550
3948.108605,-9844.739029,0.000000,76.609550
3948.108935,-9548.656652,-296.082377,306.438199
3948.109265,-9622.677246,-222.061783,229.828649
3948.109595,-10066.800811,-74.020594,153.219100
3948.109925,-9918.759623,-74.020594,0.000000
3948.110255,-9844.739029,0.000000,153.219100
3948.110585,-9844.739029,0.000000,383.047749
3948.110915,-9992.780217,0.000000,612.876398
3948.111245,-9770.718434,0.000000,536.266849
3948.111575,-9844.739029,-74.020594,153.219100
3948.111905,-9696.697840,0.000000,76.609550
3948.112235,-9696.697840,148.041188,459.657299
3948.112565,-9918.759623,148.041188,153.219100
3948.112895,-9770.718434,148.041188,536.266849
3948.113225,-9622.677246,74.020594,0.000000
3948.113555,-9474.636058,74.020594,76.609550
3948.113885,-9770.718434,444.123565,0.000000
3948.114215,-9844.739029,518.144159,0.000000
3948.114544,-9770.718434,148.041188,306.438199
3948.114874,-9622.677246,518.144159,229.828649
3948.115204,-9696.697840,222.061783,842.705048
3948.115534,-9770.718434,296.082377,153.219100
3948.115864,-9548.656652,296.082377,0.000000
3948.116194,-9918.759623,296.082377,0.000000
3948.116524,-9696.697840,518.144159,1378.971896
3948.116854,-9474.636058,222.061783,689.485948
3948.117184,-9992.780217,518.144159,536.266849
3948.117514,-9770.718434,148.041188,306.438199
3948.117844,-9696.697840,0.000000,383.047749
3948.118174,-9844.739029,0.000000,306.438199
3948.118504,-9770.718434,444.123565,306.438199
3948.118834,-9548.656652,74.020594,76.609550
3948.119164,-9770.718434,148.041188,0.000000
3948.119494,-9844.739029,0.000000,536.266849
3948.119824,-9992.780217,222.061783,383.047749
3948.120154,-9918.759623,296.082377,0.000000
3948.120483,-9770.718434,370.102971,0.000000
3948.120813,-9918.759623,0.000000,995.924147
3948.121143,-9918.759623,0.000000,612.876398
3948.121473,-9918.759623,74.020594,536.266849
3948.121803,-9844.739029,0.000000,689.485948
3948.122133,-9918.759623,-370.102971,229.828649
3948.122463,-10066.800811,0.000000,383.047749
3948.122793,-9992.780217,148.041188,306.438199
3948.123123,-9844.739029,0.000000,76.609550
3948.123453,-9844.739029,0.000000,229.828649
3948.123783,-9622.677246,-148.041188,536.266849
3948.124113,-9844.739029,74.020594,153.219100
3948.124443,-9696.697840,0.000000,0.000000
3948.124773,-9770.718434,0.000000,0.000000
3948.125103,-9696.697840,-222.061783,536.266849
3948.125433,-9844.739029,0.000000,76.609550
3948.125763,-9770.718434,0.000000,536.266849
3948.126093,-9696.697840,-148.041188,459.657299
3948.126422,-9770.718434,-444.123565,842.705048
3948.126752,-9844.739029,0.000000,153.219100
3948.127082,-9696.697840,0.000000,229.828649
3948.127412,-9622.677246,-148.041188,229.828649
3948.127742,-9918.759623,0.000000,153.219100
3948.128072,-9696.697840,0.000000,536.266849
3948.128402,-9770.718434,222.061783,76.609550
3948.128732,-9622.677246,0.000000,229.828649
3948.129062,-9548.656652,0.000000,229.828649
3948.129392,-9844.739029,222.061783,153.219100
3948.129722,-9770.718434,0.000000,0.000000
3948.130052,-9844.739029,296.082377,76.609550
3948.130382,-9548.656652,0.000000,76.609550
3948.130712,-9622.677246,0.000000,153.219100
3948.131042,-9696.697840,74.020594,459.657299
3948.131372,-9622.677246,0.000000,229.828649
3948.131702,-9770.718434,0.000000,536.266849
3948.132032,-9548.656652,222.061783,459.657299
3948.132361,-9622.677246,370.102971,536.266849
3948.132691,-9770.718434,222.061783,76.609550
3948.133021,-9622.677246,370.102971,229.828649
3948.133351,-9844.739029,222.061783,0.000000
3948.133681,-9474.636058,148.041188,-153.219100
3948.134011,-9992.780217,74.020594,306.438199
3948.134341,-9844.739029,518.144159,0.000000
3948.134671,-9548.656652,222.061783,306.438199
3948.135001,-9474.636058,296.082377,306.438199
3948.135331,-10066.800811,444.123565,0.000000
3948.135661,-10066.800811,296.082377,153.219100
3948.135991,-9770.718434,74.020594,76.609550
3948.136321,-9622.677246,0.000000,689.485948
3948.136651,-9770.718434,0.000000,229.828649
3948.136981,-9548.656652,148.041188,229.828649
3948.137311,-9844.739029,0.000000,229.828649
3948.137641,-9918.759623,0.000000,229.828649
3948.137971,-9770.718434,296.082377,153.219100
3948.138301,-10066.800811,222.061783,0.000000
3948.138630,-9918.759623,74.020594,153.219100
3948.138960,-9548.656652,0.000000,153.219100
3948.139290,-9844.739029,0.000000,306.438199
3948.139620,-9770.718434,-296.082377,0.000000
3948.139950,-9696.697840,-370.102971,0.000000
3948.140280,-9844.739029,-370.102971,229.828649
3948.140610,-9696.697840,74.020594,1302.362347
3948.140940,-9622.677246,-74.020594,689.485948
3948.141270,-9696.697840,-444.123565,612.876398
3948.141600,-9696.697840,0.000000,306.438199
3948.141930,-9918.759623,-148.041188,536.266849
3948.142260,-9770.718434,0.000000,153.219100
3948.142590,-9770.718434,-370.102971,229.828649
3948.142920,-9770.718434,0.000000,76.609550
3948.143250,-9548.656652,-148.041188,76.609550
3948.143580,-10140.821405,148.041188,0.000000
3948.143910,-9844.739029,0.000000,229.828649
3948.144240,-9770.718434,-296.082377,0.000000
3948.144569,-9696.697840,0.000000,153.219100
3948.144899,-9548.656652,0.000000,229.828649
3948.145229,-9622.677246,74.020594,306.438199
3948.145559,-9622.677246,0.000000,459.657299
3948.145889,-9622.677246,0.000000,153.219100
3948.146219,-10066.800811,148.041188,1072.533697
3948.146549,-9844.739029,296.082377,459.657299
3948.146879,-10214.842000,0.000000,229.828649
3948.147209,-9770.718434,0.000000,306.438199
3948.147539,-9918.759623,74.020594,536.266849
3948.147869,-9770.718434,-444.123565,229.828649
3948.148199,-9548.656652,74.020594,153.219100
3948.148529,-9918.759623,222.061783,0.000000
3948.148859,-9992.780217,148.041188,229.828649
3948.149189,-10214.842000,370.102971,536.266849
3948.149519,-9622.677246,222.061783,306.438199
3948.149849,-9918.759623,370.102971,0.000000
3948.150179,-9696.697840,222.061783,536.266849
3948.150508,-9770.718434,0.000000,1149.143247
3948.150838,-9844.739029,148.041188,459.657299
3948.151168,-9622.677246,0.000000,306.438199
3948.151498,-9548.656652,0.000000,0.000000
3948.151828,-9918.759623,0.000000,383.047749
3948.152158,-9474.636058,0.000000,229.828649
3948.152488,-9770.718434,0.000000,459.657299
3948.152818,-9770.718434,74.020594,306.438199
3948.153148,-9770.718434,74.020594,153.219100
3948.153478,-10510.924376,444.123565,0.000000
3948.153808,-9770.718434,74.020594,0.000000
3948.154138,-9474.636058,74.020594,153.219100
3948.154468,-9400.615463,0.000000,229.828649
3948.154798,-9844.739029,-222.061783,0.000000
3948.155128,-9844.739029,0.000000,153.219100
3948.155458,-9918.759623,0.000000,459.657299
3948.155788,-9770.718434,74.020594,153.219100
3948.156118,-9622.677246,74.020594,459.657299
3948.156447,-9622.677246,0.000000,689.485948
3948.156777,-9696.697840,148.041188,306.438199
3948.157107,-9770.718434,0.000000,306.438199
3948.157437,-9844.739029,0.000000,153.219100
3948.157767,-9918.759623,0.000000,-306.438199
3948.158097,-9622.677246,0.000000,153.219100
3948.158427,-9696.697840,222.061783,229.828649
3948.158757,-9844.739029,148.041188,229.828649
3948.159087,-9918.759623,0.000000,229.828649
3948.159417,-9844.739029,0.000000,0.000000
3948.159747,-9770.718434,0.000000,536.266849
3948.160077,-9770.718434,0.000000,306.438199
3948.160407,-9918.759623,-222.061783,229.828649
3948.160737,-10066.800811,-74.020594,306.438199
3948.161067,-10066.800811,148.041188,153.219100
3948.161397,-9844.739029,0.000000,76.609550
3948.161727,-9844.739029,0.000000,459.657299
3948.162057,-9696.697840,-148.041188,76.609550
3948.162386,-9622.677246,0.000000,153.219100
3948.162716,-9770.718434,74.020594,153.219100
3948.163046,-9770.718434,74.020594,76.609550
3948.163376,-9474.636058,-222.061783,229.828649
3948.163706,-9770.718434,74.020594,0.000000
3948.164036,-9696.697840,0.000000,0.000000
3948.164366,-9770.718434,0.000000,153.219100
3948.164696,-9770.718434,-370.102971,612.876398
3948.165026,-9622.677246,0.000000,229.828649
3948.165356,-9696.697840,-296.082377,459.657299
3948.165686,-9844.739029,0.000000,459.657299
3948.166016,-9844.739029,74.020594,306.438199
3948.166346,-9622.677246,0.000000,229.828649
3948.166676,-9696.697840,148.041188,76.609550
3948.167006,-9548.656652,74.020594,459.657299
3948.167336,-9770.718434,370.102971,0.000000
3948.167665,-9992.780217,0.000000,153.219100
3948.167995,-9548.656652,222.061783,0.000000
3948.168325,-9770.718434,296.082377,153.219100
3948.168655,-9474.636058,0.000000,0.000000
3948.168985,-9474.636058,148.041188,0.000000
3948.169315,-9844.739029,444.123565,76.609550
3948.169645,-9844.739029,222.061783,0.000000
3948.169975,-9992.780217,296.082377,229.828649
3948.170305,-9770.718434,296.082377,383.047749
3948.170635,-9918.759623,148.041188,153.219100
3948.170964,-10066.800811,222.061783,383.047749
3948.171294,-9918.759623,74.020594,0.000000
3948.171624,-9918.759623,0.000000,229.828649
3948.171954,-9474.636058,296.082377,229.828649
3948.172284,-9770.718434,74.020594,306.438199
3948.172614,-9696.697840,0.000000,153.219100
3948.172944,-9770.718434,0.000000,153.219100
3948.173274,-10066.800811,74.020594,229.828649
3948.173604,-9844.739029,0.000000,-153.219100
3948.173934,-9696.697840,0.000000,459.657299
3948.174263,-9696.697840,222.061783,0.000000
3948.174593,-9400.615463,0.000000,-306.438199
3948.174923,-9622.677246,-74.020594,76.609550
3948.175253,-9622.677246,0.000000,229.828649
3948.175583,-9844.739029,0.000000,153.219100
3948.175913,-9770.718434,-148.041188,153.219100
3948.176243,-9770.718434,148.041188,229.828649
3948.176573,-9696.697840,0.000000,383.047749
3948.176903,-9622.677246,0.000000,383.047749
3948.177233,-9770.718434,0.000000,229.828649
3948.177562,-9622.677246,0.000000,-229.828649
3948.177892,-10066.800811,74.020594,153.219100
3948.178222,-9696.697840,-222.061783,76.609550
3948.178552,-9770.718434,0.000000,536.266849
3948.178882,-9770.718434,0.000000,383.047749
3948.179212,-10066.800811,-74.020594,0.000000
3948.179542,-10140.821405,74.020594,0.000000
3948.179872,-9918.759623,-370.102971,153.219100
3948.180202,-9844.739029,0.000000,306.438199
3948.180532,-9474.636058,0.000000,536.266849
3948.180861,-9770.718434,74.020594,383.047749
3948.181191,-10066.800811,0.000000,229.828649
3948.181521,-9770.718434,-148.041188,306.438199
3948.181851,-9622.677246,-296.082377,76.609550
3948.182181,-9622.677246,0.000000,306.438199
3948.182511,-9844.739029,74.020594,766.095498
3948.182841,-9992.780217,74.020594,766.095498
3948.183171,-9992.780217,222.061783,0.000000
3948.183501,-9770.718434,-74.020594,-689.485948
3948.183831,-9252.574275,0.000000,-383.047749
3948.184160,-9326.594869,0.000000,153.219100
3948.184490,-9696.697840,-370.102971,383.047749
3948.184820,-9770.718434,-518.144159,1532.190996
3948.185150,-9770.718434,0.000000,1225.752797
3948.185480,-9548.656652,0.000000,1532.190996
3948.185810,-9696.697840,0.000000,1302.362347
3948.186140,-9770.718434,0.000000,689.485948
3948.186470,-10288.862594,74.020594,1302.362347
3948.186800,-9992.780217,-74.020594,995.924147
3948.187130,-9770.718434,0.000000,1302.362347
3948.187459,-9548.656652,296.082377,536.266849
3948.187789,-10140.821405,148.041188,153.219100
3948.188119,-9992.780217,0.000000,-229.828649
3948.188449,-9548.656652,-740.205942,-229.828649
3948.188779,-9030.512492,-444.123565,306.438199
3948.189109,-9178.553681,-740.205942,2298.286494
3948.189439,-9918.759623,-888.247130,2834.553343
3948.189769,-9696.697840,-888.247130,2451.505594
3948.190099,-9400.615463,-888.247130,1378.971896
3948.190429,-9918.759623,-370.102971,995.924147
3948.190758,-10881.027347,74.020594,1149.143247
3948.191088,-10732.986159,0.000000,1532.190996
3948.191418,-10510.924376,-370.102971,2145.067394
3948.191748,-9770.718434,-888.247130,1991.848295
3948.192078,-9696.697840,-1036.288319,1608.800546
3948.192408,-9326.594869,-1036.288319,919.314598
3948.192738,-8956.491898,-1480.411884,229.828649
3948.193068,-8660.409521,-592.164754,459.657299
3948.193398,-9030.512492,-814.226536,2298.286494
3948.193727,-10140.821405,0.000000,2681.334243
3948.194057,-10658.965565,0.000000,2221.676944
3948.194387,-10436.903782,74.020594,1455.581446
3948.194717,-10436.903782,-74.020594,995.924147
3948.195047,-10658.965565,-444.123565,1149.143247
3948.195377,-10214.842000,-888.247130,1991.848295
3948.195707,-10214.842000,-1110.308913,2298.286494
3948.196037,-9474.636058,-888.247130,1838.629195
3948.196367,-8882.471304,-1406.391290,612.876398
3948.196697,-9178.553681,-740.205942,76.609550
3948.197026,-10066.800811,-518.144159,229.828649
3948.197356,-10658.965565,444.123565,76.609550
3948.197686,-10362.883188,518.144159,842.705048
3948.198016,-10214.842000,888.247130,383.047749
3948.198346,-9992.780217,518.144159,0.000000
3948.198676,-10362.883188,0.000000,-1149.143247
3948.199006,-10288.862594,-740.205942,-306.438199
3948.199336,-9474.636058,-1110.308913,0.000000
3948.199666,-9030.512492,-1628.453072,1149.143247
3948.199996,-8882.471304,-1628.453072,1915.238745
3948.200325,-8882.471304,-1406.391290,2145.067394
3948.200655,-9030.512492,-962.267725,842.705048
3948.200985,-9104.533087,-296.082377,-383.047749
3948.201315,-10436.903782,370.102971,0.000000
3948.201645,-11399.171507,444.123565,919.314598
3948.201975,-11547.212695,296.082377,1762.019645
3948.202305,-11029.068536,-148.041188,842.705048
3948.202635,-10214.842000,-666.185348,0.000000
3948.202965,-9622.677246,-1258.350101,-1072.533697
3948.203295,-8882.471304,-1628.453072,0.000000
3948.203624,-8290.306550,-1850.514855,612.876398
3948.203954,-8438.347739,-1850.514855,1608.800546
3948.204284,-8734.430116,-1924.535449,2221.676944
3948.204614,-9252.574275,-1850.514855,1532.190996
3948.204944,-9770.718434,-1258.350101,459.657299
3948.205274,-9992.780217,-888.247130,-383.047749
3948.205604,-10140.821405,-1184.329507,-459.657299
3948.205934,-9326.594869,-444.123565,-459.657299
3948.206264,-9548.656652,-888.247130,306.438199
3948.206594,-9548.656652,-962.267725,153.219100
3948.206923,-9548.656652,-1184.329507,-306.438199
3948.207253,-9474.636058,-1554.432478,-1149.143247
3948.207583,-9178.553681,-2294.638420,153.219100
3948.207913,-8956.491898,-2442.679609,306.438199
3948.208243,-8364.327145,-2368.659014,919.314598
3948.208573,-8956.491898,-1776.494261,536.266849
3948.208903,-9474.636058,-1036.288319,-383.047749
3948.209233,-10658.965565,0.000000,-1378.971896
3948.209563,-11695.253884,962.267725,-842.705048
3948.209893,-11843.295072,814.226536,153.219100
3948.210222,-11177.109724,296.082377,689.485948
3948.210552,-10510.924376,-518.144159,1225.752797
3948.210882,-9992.780217,-1184.329507,1149.143247
3948.211212,-9400.615463,-2072.576638,1302.362347
3948.211542,-9326.594869,-1850.514855,995.924147
3948.211872,-9252.574275,-1924.535449,1685.410096
3948.212202,-9622.677246,-666.185348,995.924147
3948.212532,-10288.862594,222.061783,766.095498
3948.212862,-10955.047942,1850.514855,0.000000
3948.213192,-11399.171507,2220.617826,-383.047749
3948.213521,-11399.171507,2146.597232,-383.047749
3948.213851,-11177.109724,1776.494261,76.609550
3948.214181,-10436.903782,962.267725,1149.143247
3948.214511,-9770.718434,592.164754,1608.800546
3948.214841,-8882.471304,-740.205942,995.924147
3948.215171,-8068.244768,-1110.308913,76.609550
3948.215501,-8216.285956,-740.205942,229.828649
3948.215831,-7994.224174,222.061783,306.438199
3948.216161,-8882.471304,962.267725,919.314598
3948.216491,-9474.636058,2294.638420,383.047749
3948.216820,-10066.800811,3182.885551,-229.828649
3948.217150,-10732.986159,3701.029710,-229.828649
3948.217480,-11251.130318,3404.947333,-536.266849
3948.217810,-11325.150913,2664.741391,153.219100
3948.218140,-10732.986159,2368.659014,306.438199
3948.218470,-9474.636058,1480.411884,-153.219100
3948.218800,-8586.388927,666.185348,-995.924147
3948.219130,-8142.265362,592.164754,-1991.848295
3948.219460,-8512.368333,962.267725,-2221.676944
3948.219790,-8660.409521,1258.350101,-2221.676944
3948.220119,-8512.368333,2294.638420,-1302.362347
3948.220449,-8956.491898,2516.700203,-842.705048
3948.220779,-10436.903782,2812.782580,0.000000
3948.221109,-11695.253884,2812.782580,229.828649
3948.221439,-12213.398043,1924.535449,1072.533697
3948.221769,-11473.192101,1110.308913,1072.533697
3948.222099,-10288.862594,148.041188,1302.362347
3948.222429,-9696.697840,0.000000,919.314598
3948.222759,-9104.533087,-518.144159,0.000000
3948.223089,-8734.430116,-518.144159,-919.314598
3948.223418,-8290.306550,-444.123565,-1915.238745
3948.223748,-7920.203579,222.061783,-2145.067394
3948.224078,-8660.409521,592.164754,-995.924147
3948.224408,-9844.739029,666.185348,0.000000
3948.224738,-10807.006753,814.226536,919.314598
3948.225068,-11103.089130,0.000000,1302.362347
3948.225398,-10732.986159,-814.226536,1455.581446
3948.225728,-10362.883188,-1184.329507,2068.457845
3948.226058,-10140.821405,-2368.659014,2757.943793
3948.226387,-9622.677246,-2294.638420,2145.067394
3948.226717,-9030.512492,-2220.617826,1072.533697
3948.227047,-8364.327145,-1702.473667,-383.047749
3948.227377,-8512.368333,-888.247130,-1608.800546
3948.227707,-9178.553681,-222.061783,-1378.971896
3948.228037,-9770.718434,-222.061783,-842.705048
3948.228367,-10510.924376,-148.041188,0.000000
3948.228697,-10807.006753,-814.226536,842.705048
3948.229027,-10584.944971,-1554.432478,612.876398
3948.229357,-10066.800811,-2368.659014,766.095498
3948.229686,-9992.780217,-2590.720797,1302.362347
3948.230016,-9770.718434,-2664.741391,2528.115143
3948.230346,-9992.780217,-2146.597232,2221.676944
3948.230676,-9326.594869,-1258.350101,1532.190996
3948.231006,-9918.759623,-148.041188,612.876398
3948.231336,-10807.006753,222.061783,-612.876398
3948.231666,-11399.171507,740.205942,-459.657299
3948.231996,-11251.130318,592.164754,153.219100
3948.232326,-10436.903782,-296.082377,0.000000
3948.232656,-9696.697840,-1110.308913,459.657299
3948.232985,-9844.739029,-1850.514855,766.095498
3948.233315,-9326.594869,-1998.556043,229.828649
3948.233645,-9178.553681,-1850.514855,-229.828649
3948.233975,-8734.430116,-1406.391290,0.000000
3948.234305,-8512.368333,-444.123565,0.000000
3948.234635,-9326.594869,296.082377,1302.362347
3948.234965,-10140.821405,592.164754,1378.971896
3948.235295,-10732.986159,1184.329507,1225.752797
3948.235625,-11473.192101,740.205942,1455.581446
3948.235955,-10510.924376,148.041188,0.000000
3948.236284,-9400.615463,-518.144159,-306.438199
3948.236614,-9178.553681,-814.226536,0.000000
3948.236944,-8882.471304,-666.185348,919.314598
3948.237274,-8734.430116,-222.061783,-536.266849
3948.237604,-8290.306550,0.000000,-1149.143247
3948.237934,-7994.224174,740.205942,-1532.190996
3948.238264,-9474.636058,1184.329507,-612.876398
3948.238594,-9918.759623,1554.432478,536.266849
3948.238924,-10362.883188,1332.370696,1225.752797
3948.239254,-10584.944971,1258.350101,1225.752797
3948.239583,-10288.862594,444.123565,612.876398
3948.239913,-9548.656652,74.020594,919.314598
3948.240243,-10436.903782,518.144159,459.657299
3948.240573,-9770.718434,962.267725,0.000000
3948.240903,-9400.615463,1110.308913,-536.266849
3948.241233,-9178.553681,1406.391290,-1302.362347
3948.241563,-9030.512492,1998.556043,-1838.629195
3948.241893,-9548.656652,1702.473667,-1838.629195
3948.242223,-9770.718434,1702.473667,-1302.362347
3948.242553,-9696.697840,1406.391290,-919.314598
3948.242882,-9844.739029,518.144159,0.000000
3948.243212,-10066.800811,296.082377,536.266849
3948.243542,-10214.842000,0.000000,689.485948
3948.243872,-10584.944971,222.061783,1149.143247
3948.244202,-10214.842000,518.144159,1302.362347
3948.244532,-10214.842000,518.144159,766.095498
3948.244862,-9474.636058,1406.391290,153.219100
3948.245192,-9622.677246,1480.411884,0.000000
3948.245522,-9918.759623,1332.370696,0.000000
3948.245852,-10362.883188,1406.391290,-612.876398
3948.246181,-10510.924376,1184.329507,-383.047749
3948.246511,-9992.780217,296.082377,153.219100
3948.246841,-9474.636058,-148.041188,229.828649
3948.247171,-9548.656652,-592.164754,689.485948
3948.247501,-9918.759623,-444.123565,842.705048
3948.247831,-9696.697840,-518.144159,229.828649
3948.248161,-9474.636058,-148.041188,0.000000
3948.248491,-9548.656652,444.123565,0.000000
3948.248821,-9622.677246,814.226536,383.047749
3948.249151,-10140.821405,592.164754,842.705048
3948.249480,-10362.883188,518.144159,842.705048
3948.249810,-10658.965565,296.082377,1225.752797
3948.250140,-10362.883188,-296.082377,689.485948
3948.250470,-9844.739029,-962.267725,383.047749
3948.250800,-9844.739029,-1036.288319,689.485948
3948.251130,-9992.780217,-444.123565,1378.971896
3948.251460,-9696.697840,-444.123565,0.000000
3948.251790,-9178.553681,0.000000,-1149.143247
3948.252120,-9178.553681,148.041188,-1072.533697
3948.252450,-9770.718434,222.061783,-383.047749
3948.252779,-9918.759623,296.082377,306.438199
3948.253109,-10214.842000,-296.082377,1302.362347
3948.253439,-9992.780217,-888.247130,1608.800546
3948.253769,-9770.718434,-1480.411884,1225.752797
3948.254099,-9474.636058,-1850.514855,1608.800546
3948.254429,-9992.780217,-1480.411884,1685.410096
3948.254759,-9844.739029,-1110.308913,919.314598
3948.255089,-9474.636058,-666.185348,0.000000
3948.255419,-9252.574275,74.020594,-459.657299
3948.255749,-9622.677246,370.102971,-766.095498
3948.256078,-10066.800811,370.102971,-612.876398
3948.256408,-9770.718434,222.061783,-612.876398
3948.256738,-9622.677246,-296.082377,153.219100
3948.257068,-9622.677246,-814.226536,459.657299
3948.257398,-9104.533087,-1776.494261,842.705048
3948.257728,-9178.553681,-2146.597232,919.314598
3948.258058,-9770.718434,-1776.494261,1762.019645
3948.258388,-9548.656652,-1554.432478,2068.457845
3948.258718,-9770.718434,-888.247130,1532.190996
3948.259048,-9844.739029,222.061783,536.266849
3948.259377,-10584.944971,1184.329507,459.657299
3948.259707,-10510.924376,1036.288319,383.047749
3948.260037,-10732.986159,666.185348,0.000000
3948.260367,-10584.944971,370.102971,76.609550
3948.260697,-9992.780217,-222.061783,383.047749
3948.261027,-9178.553681,-888.247130,306.438199
3948.261357,-9178.553681,-1036.288319,536.266849
3948.261687,-9400.615463,-1036.288319,0.000000
3948.262017,-9326.594869,-740.205942,-536.266849
3948.262346,-9400.615463,74.020594,-459.657299
3948.262676,-9474.636058,1036.288319,-76.609550
3948.263006,-9844.739029,1184.329507,383.047749
3948.263336,-10658.965565,1036.288319,919.314598
3948.263666,-11029.068536,1184.329507,842.705048
3948.263996,-10881.027347,0.000000,1072.533697
3948.264326,-10214.842000,0.000000,612.876398
3948.264656,-9400.615463,-740.205942,459.657299
3948.264986,-9400.615463,-296.082377,766.095498
3948.265316,-9178.553681,0.000000,-383.047749
3948.265645,-9400.615463,592.164754,-612.876398
3948.265975,-9178.553681,1110.308913,-2068.457845
3948.266305,-9326.594869,1702.473667,-1838.629195
3948.266635,-10214.842000,1776.494261,-689.485948
3948.266965,-10732.986159,1850.514855,76.609550
3948.267294,-10436.903782,1184.329507,842.705048
3948.267624,-10214.842000,518.144159,842.705048
3948.267954,-9548.656652,-222.061783,689.485948
3948.268284,-9696.697840,0.000000,1149.143247
3948.268614,-9992.780217,-296.082377,1532.190996
3948.268943,-9770.718434,222.061783,1149.143247
3948.269273,-9178.553681,222.061783,-153.219100
3948.269603,-9104.533087,1332.370696,-1149.143247
3948.269933,-9326.594869,1332.370696,-766.095498
3948.270263,-10066.800811,1480.411884,-1072.533697
3948.270592,-10140.821405,1406.391290,-766.095498
3948.270922,-10140.821405,592.164754,306.438199
3948.271252,-9918.759623,296.082377,842.705048
3948.271582,-9474.636058,-666.185348,689.485948
3948.271912,-9178.553681,-1258.350101,536.266849
3948.272241,-9622.677246,-666.185348,1149.143247
3948.272571,-9326.594869,-518.144159,995.924147
3948.272901,-9400.615463,222.061783,842.705048
3948.273231,-9474.636058,888.247130,0.000000
3948.273561,-9844.739029,1406.391290,-689.485948
3948.273890,-10510.924376,1850.514855,-995.924147
3948.274220,-10807.006753,1184.329507,-612.876398
3948.274550,-10436.903782,444.123565,76.609550
3948.274880,-10066.800811,0.000000,766.095498
3948.275210,-9178.553681,-1036.288319,689.485948
3948.275539,-9252.574275,-1332.370696,612.876398
3948.275869,-8882.471304,-1332.370696,383.047749
3948.276199,-9104.533087,-962.267725,-612.876398
3948.276529,-8956.491898,-370.102971,-1072.533697
3948.276859,-9104.533087,296.082377,-612.876398
3948.277188,-10140.821405,740.205942,383.047749
3948.277518,-10584.944971,814.226536,1072.533697
3948.277848,-11251.130318,814.226536,1149.143247
3948.278178,-10807.006753,222.061783,306.438199
3948.278508,-10140.821405,-814.226536,306.438199
3948.278837,-9770.718434,-1258.350101,0.000000
3948.279167,-9622.677246,-1406.391290,842.705048
3948.279497,-9474.636058,-888.247130,766.095498
3948.279827,-9326.594869,-888.247130,306.438199
3948.280157,-9030.512492,-444.123565,-1302.362347
3948.280486,-9326.594869,222.061783,-919.314598
3948.280816,-10066.800811,296.082377,-229.828649
3948.281146,-10362.883188,148.041188,766.095498
3948.281476,-10584.944971,0.000000,1685.410096
3948.281806,-10288.862594,-592.164754,1685.410096
3948.282135,-10140.821405,-1406.391290,1072.533697
3948.282465,-9696.697840,-1628.453072,1762.019645
3948.282795,-9918.759623,-1332.370696,1455.581446
3948.283125,-9474.636058,-1110.308913,766.095498
3948.283455,-9326.594869,-444.123565,-153.219100
3948.283784,-8734.430116,444.123565,-689.485948
3948.284114,-9474.636058,962.267725,-766.095498
3948.284444,-10066.800811,1036.288319,-766.095498
3948.284774,-10214.842000,1036.288319,-459.657299
3948.285104,-10066.800811,222.061783,383.047749
3948.285433,-9696.697840,-592.164754,919.314598
3948.285763,-9252.574275,-1406.391290,1072.533697
3948.286093,-9474.636058,-1332.370696,919.314598
3948.286423,-9474.636058,-1036.288319,1225.752797
3948.286753,-9474.636058,-222.061783,842.705048
3948.287082,-9622.677246,74.020594,766.095498
3948.287412,-9400.615463,1036.288319,76.609550
3948.287742,-9918.759623,1776.494261,-459.657299
3948.288072,-10510.924376,2072.576638,-1149.143247
3948.288402,-10584.944971,1480.411884,-153.219100
3948.288731,-10288.862594,1036.288319,0.000000
3948.289061,-9844.739029,74.020594,76.609550
3948.289391,-9030.512492,0.000000,0.000000
3948.289721,-9178.553681,-814.226536,536.266849
3948.290051,-9400.615463,-370.102971,76.609550
3948.290380,-9030.512492,-148.041188,-306.438199
3948.290710,-8882.471304,444.123565,-612.876398
3948.291040,-9178.553681,1406.391290,-536.266849
3948.291370,-10066.800811,1332.370696,153.219100
3948.291700,-10510.924376,1702.473667,229.828649
3948.292029,-10807.006753,1184.329507,842.705048
3948.292359,-10732.986159,666.185348,995.924147
3948.292689,-10510.924376,148.041188,459.657299
3948.293019,-9622.677246,-296.082377,229.828649
3948.293349,-9252.574275,-518.144159,306.438199
3948.293678,-9252.574275,-296.082377,76.609550
3948.294008,-9252.574275,148.041188,-383.047749
3948.294338,-8956.491898,444.123565,-1072.533697
3948.294668,-9326.594869,740.205942,-1149.143247
3948.294998,-9918.759623,814.226536,0.000000
3948.295327,-10362.883188,1110.308913,1072.533697
3948.295657,-10658.965565,370.102971,995.924147
3948.295987,-10288.862594,-370.102971,1072.533697
3948.296317,-9770.718434,-740.205942,1072.533697
3948.296647,-10362.883188,-518.144159,1991.848295
3948.296976,-10140.821405,-888.247130,1302.362347
3948.297306,-9548.656652,-444.123565,612.876398
3948.297636,-9252.574275,-222.061783,-766.095498
3948.297966,-8882.471304,444.123565,-1149.143247
3948.298296,-9326.594869,666.185348,-1149.143247
3948.298625,-9548.656652,740.205942,-1072.533697
3948.298955,-9696.697840,666.185348,-612.876398
3948.299285,-10066.800811,148.041188,229.828649
3948.299615,-9992.780217,-518.144159,612.876398
3948.299945,-9548.656652,-1184.329507,536.266849
3948.300274,-9474.636058,-1628.453072,766.095498
3948.300604,-9770.718434,-1184.329507,1302.362347
3948.300934,-9548.656652,-962.267725,1685.410096
3948.301264,-9770.718434,0.000000,919.314598
3948.301594,-9844.739029,814.226536,76.609550
3948.301923,-10214.842000,1184.329507,0.000000
3948.302253,-10881.027347,1776.494261,-229.828649
3948.302583,-11103.089130,962.267725,-306.438199
3948.302913,-10584.944971,296.082377,0.000000
3948.303243,-9844.739029,-518.144159,459.657299
3948.303572,-9400.615463,-1110.308913,1532.190996
3948.303902,-9474.636058,-1258.350101,1072.533697
3948.304232,-9474.636058,-1332.370696,536.266849
3948.304562,-9400.615463,-814.226536,306.438199
3948.304891,-9252.574275,0.000000,306.438199
3948.305221,-9696.697840,592.164754,766.095498
3948.305551,-10066.800811,888.247130,1149.143247
3948.305881,-10658.965565,1036.288319,1149.143247
3948.306211,-10807.006753,444.123565,1225.752797
3948.306540,-10881.027347,0.000000,919.314598
3948.306870,-9918.759623,-444.123565,459.657299
3948.307200,-9326.594869,-1036.288319,306.438199
3948.307530,-9252.574275,-888.247130,689.485948
3948.307860,-9178.553681,-666.185348,612.876398
3948.308189,-8956.491898,-222.061783,-229.828649
3948.308519,-8882.471304,666.185348,-1455.581446
3948.308849,-9104.533087,740.205942,-1225.752797
3948.309179,-9918.759623,888.247130,-306.438199
3948.309509,-10584.944971,592.164754,689.485948
3948.309838,-10436.903782,222.061783,1149.143247
3948.310168,-9770.718434,-740.205942,1225.752797
3948.310498,-9992.780217,-740.205942,842.705048
3948.310828,-9770.718434,-1258.350101,1608.800546
3948.311158,-10066.800811,-666.185348,1378.971896
3948.311487,-9844.739029,0.000000,306.438199
3948.311817,-9474.636058,296.082377,-689.485948
3948.312147,-9474.636058,1184.329507,-842.705048
3948.312477,-9770.718434,1258.350101,-1302.362347
3948.312807,-9844.739029,962.267725,-995.924147
3948.313136,-10140.821405,666.185348,-766.095498
3948.313466,-10066.800811,0.000000,0.000000
3948.313796,-9770.718434,-444.123565,612.876398
3948.314126,-9474.636058,-888.247130,1149.143247
3948.314456,-9696.697840,-1332.370696,1608.800546
3948.314785,-9770.718434,-1036.288319,1455.581446
3948.315115,-10214.842000,-518.144159,1455.581446
3948.315445,-9844.739029,666.185348,459.657299
3948.315775,-9770.718434,1332.370696,0.000000
3948.316105,-10362.883188,1480.411884,-612.876398
3948.316434,-10732.986159,1480.411884,-612.876398
3948.316764,-10066.800811,1036.288319,-459.657299
3948.317094,-9918.759623,222.061783,229.828649
3948.317424,-9400.615463,-370.102971,0.000000
3948.317754,-8956.491898,-888.247130,995.924147
3948.318083,-9104.533087,-1184.329507,919.314598
3948.318413,-9326.594869,-296.082377,0.000000
3948.318743,-9252.574275,-296.082377,0.000000
3948.319073,-9104.533087,518.144159,-459.657299
3948.319403,-9844.739029,1258.350101,229.828649
3948.319732,-10288.862594,1554.432478,383.047749
3948.320062,-10584.944971,1258.350101,919.314598
3948.320392,-11103.089130,1036.288319,612.876398
3948.320722,-10658.965565,296.082377,612.876398
3948.321052,-9548.656652,-592.164754,459.657299
3948.321381,-9326.594869,-444.123565,76.609550
3948.321711,-9252.574275,-296.082377,0.000000
3948.322041,-9326.594869,148.041188,0.000000
3948.322371,-9030.512492,296.082377,-1072.533697
3948.322701,-9104.533087,1036.288319,-1302.362347
3948.323030,-9474.636058,1258.350101,-1532.190996
3948.323360,-9992.780217,1702.473667,-536.266849
3948.323690,-10510.924376,1184.329507,383.047749
3948.324020,-10807.006753,592.164754,1225.752797
3948.324350,-9992.780217,-370.102971,1532.190996
3948.324679,-9696.697840,-592.164754,1149.143247
3948.325009,-9770.718434,-1036.288319,1378.971896
3948.325339,-9918.759623,74.020594,1302.362347
3948.325669,-9622.677246,-370.102971,0.000000
3948.325999,-9178.553681,444.123565,-919.314598
3948.326328,-9400.615463,1184.329507,-995.924147
3948.326658,-9696.697840,1628.453072,-766.095498
3948.326988,-10066.800811,1110.308913,-842.705048
3948.327318,-9992.780217,592.164754,-306.438199
3948.327648,-10214.842000,148.041188,229.828649
3948.327977,-9696.697840,-740.205942,919.314598
3948.328307,-9400.615463,-1184.329507,1225.752797
3948.328637,-9622.677246,-1628.453072,1608.800546
3948.328967,-9844.739029,-1480.411884,1991.848295
3948.329297,-9474.636058,-740.205942,1302.362347
3948.329626,-9548.656652,148.041188,459.657299
3948.329956,-9770.718434,740.205942,306.438199
3948.330286,-10140.821405,666.185348,76.609550
3948.330616,-10584.944971,740.205942,-612.876398
3948.330946,-10288.862594,148.041188,0.000000
3948.331275,-9992.780217,-74.020594,0.000000
3948.331605,-9252.574275,-888.247130,-76.609550
3948.331935,-9252.574275,-1332.370696,383.047749
3948.332265,-9326.594869,-1628.453072,229.828649
3948.332595,-9104.533087,-1480.411884,0.000000
3948.332924,-8956.491898,-1110.308913,76.609550
3948.333254,-8808.450710,-370.102971,0.000000
3948.333584,-9548.656652,370.102971,689.485948
3948.333914,-10732.986159,592.164754,689.485948
3948.334244,-10658.965565,962.267725,919.314598
3948.334573,-10732.986159,370.102971,1149.143247
3948.334903,-10881.027347,0.000000,536.266849
3948.335233,-10066.800811,-666.185348,612.876398
3948.335563,-9548.656652,-1258.350101,76.609550
3948.335893,-9400.615463,-740.205942,153.219100
3948.336222,-9252.574275,-370.102971,0.000000
3948.336552,-9252.574275,370.102971,-689.485948
3948.336882,-9326.594869,962.267725,-919.314598
3948.337212,-9696.697840,962.267725,-842.705048
3948.337542,-10214.842000,962.267725,0.000000
3948.337871,-10658.965565,888.247130,995.924147
3948.338201,-10510.924376,444.123565,1378.971896
3948.338531,-9844.739029,-370.102971,1225.752797
3948.338861,-9992.780217,-814.226536,1455.581446
3948.339191,-9992.780217,-888.247130,1149.143247
3948.339520,-9770.718434,0.000000,1302.362347
3948.339850,-9474.636058,0.000000,0.000000
3948.340180,-9400.615463,666.185348,-459.657299
3948.340510,-9326.594869,1258.350101,-1072.533697
3948.340840,-9770.718434,1628.453072,-536.266849
3948.341169,-9696.697840,1110.308913,-1072.533697
3948.341499,-10140.821405,1036.288319,-383.047749
3948.341829,-10214.842000,0.000000,229.828649
3948.342159,-9770.718434,-370.102971,689.485948
3948.342489,-9252.574275,-962.267725,842.705048
3948.342818,-9474.636058,-888.247130,1149.143247
3948.343148,-9474.636058,-666.185348,1455.581446
3948.343478,-9474.636058,-222.061783,1149.143247
3948.343808,-9548.656652,814.226536,383.047749
3948.344138,-9770.718434,1406.391290,0.000000
3948.344467,-10214.842000,1554.432478,-612.876398
3948.344797,-10436.903782,1554.432478,-842.705048
3948.345127,-10362.883188,370.102971,-229.828649
3948.345457,-10214.842000,518.144159,0.000000
3948.345786,-9326.594869,-444.123565,76.609550
3948.346116,-9104.533087,-1036.288319,0.000000
3948.346446,-9030.512492,-1036.288319,76.609550
3948.346776,-9178.553681,-370.102971,0.000000
3948.347106,-9030.512492,-222.061783,-306.438199
3948.347435,-9178.553681,592.164754,-229.828649
3948.347765,-9844.739029,888.247130,383.047749
3948.348095,-10436.903782,888.247130,306.438199
3948.348425,-10955.047942,1110.308913,612.876398
3948.348755,-11399.171507,1110.308913,766.095498
3948.349084,-10584.944971,296.082377,919.314598
3948.349414,-9770.718434,-814.226536,919.314598
3948.349744,-9400.615463,-888.247130,612.876398
3948.350074,-9770.718434,-518.144159,153.219100
3948.350404,-9400.615463,0.000000,-383.047749
3948.350733,-9252.574275,370.102971,-919.314598
3948.351063,-9178.553681,592.164754,-1378.971896
3948.351393,-10066.800811,1110.308913,-919.314598
3948.351723,-10436.903782,1110.308913,0.000000
3948.352053,-10584.944971,444.123565,1149.143247
3948.352382,-10362.883188,74.020594,1378.971896
3948.352712,-10214.842000,-666.185348,1685.410096
3948.353042,-9770.718434,-1184.329507,1838.629195
3948.353372,-10066.800811,-1036.288319,1455.581446
3948.353702,-9622.677246,-740.205942,1225.752797
3948.354031,-9474.636058,-666.185348,536.266849
3948.354361,-9326.594869,666.185348,-383.047749
3948.354691,-9474.636058,814.226536,-995.924147
3948.355021,-9992.780217,1332.370696,-383.047749
3948.355351,-9844.739029,814.226536,-919.314598
3948.355680,-9696.697840,444.123565,0.000000
3948.356010,-10140.821405,-370.102971,689.485948
3948.356340,-9622.677246,-888.247130,689.485948
3948.356670,-9474.636058,-1332.370696,766.095498
3948.357000,-9622.677246,-1332.370696,689.485948
3948.357329,-9474.636058,-1184.329507,1072.533697
3948.357659,-9622.677246,-444.123565,919.314598
3948.357989,-9770.718434,296.082377,612.876398
3948.358319,-9844.739029,814.226536,0.000000
3948.358649,-10584.944971,888.247130,-306.438199
3948.358978,-10362.883188,814.226536,-612.876398
3948.359308,-9992.780217,370.102971,-229.828649
3948.359638,-9918.759623,-74.020594,306.438199
3948.359968,-9474.636058,-666.185348,229.828649
3948.360298,-9326.594869,-1258.350101,383.047749
3948.360627,-9252.574275,-962.267725,0.000000
3948.360957,-9030.512492,-1184.329507,-229.828649
3948.361287,-9326.594869,-370.102971,-459.657299
3948.361617,-9178.553681,296.082377,-459.657299
3948.361947,-9696.697840,962.267725,612.876398
3948.362276,-10436.903782,1036.288319,766.095498
3948.362606,-10658.965565,888.247130,842.705048
3948.362936,-11103.089130,444.123565,919.314598
3948.363266,-10510.924376,-296.082377,842.705048
3948.363596,-9622.677246,-1036.288319,1072.533697
3948.363925,-9474.636058,-814.226536,766.095498
3948.364255,-9474.636058,-740.205942,229.828649
3948.364585,-9104.533087,-296.082377,0.000000
3948.364915,-8956.491898,222.061783,-766.095498
3948.365245,-9104.533087,1110.308913,-1455.581446
3948.365574,-10066.800811,1110.308913,-383.047749
3948.365904,-10584.944971,1110.308913,229.828649
3948.366234,-10510.924376,740.205942,919.314598
3948.366564,-10436.903782,0.000000,1455.581446
3948.366894,-10288.862594,-592.164754,1149.143247
3948.367223,-9918.759623,-1036.288319,1378.971896
3948.367553,-10066.800811,-962.267725,1378.971896
3948.367883,-9400.615463,-962.267725,919.314598
3948.368213,-9548.656652,370.102971,76.609550
3948.368543,-9474.636058,1036.288319,-1225.752797
3948.368872,-9844.739029,1628.453072,-1302.362347
3948.369202,-9918.759623,1628.453072,-1455.581446
3948.369532,-10362.883188,1332.370696,-919.314598
3948.369862,-9918.759623,888.247130,-306.438199
3948.370191,-9770.718434,0.000000,306.438199
3948.370521,-9548.656652,-592.164754,536.266849
3948.370851,-9326.594869,-1184.329507,919.314598
3948.371181,-9474.636058,-740.205942,766.095498
3948.371510,-9474.636058,-666.185348,612.876398
3948.371840,-9474.636058,148.041188,842.705048
3948.372170,-9622.677246,1036.288319,0.000000
3948.372500,-10066.800811,1628.453072,-306.438199
3948.372829,-10362.883188,1628.453072,-612.876398
3948.373159,-10584.944971,1480.411884,-536.266849
3948.373489,-10288.862594,1036.288319,536.266849
3948.373819,-10140.821405,296.082377,153.219100
3948.374148,-9474.636058,-370.102971,536.266849
3948.374478,-9104.533087,-1036.288319,76.609550
3948.374808,-8956.491898,-740.205942,76.609550
3948.375138,-8882.471304,-740.205942,-612.876398
3948.375467,-9178.553681,-148.041188,-459.657299
3948.375797,-9030.512492,370.102971,0.000000
3948.376127,-9844.739029,1332.370696,459.657299
3948.376457,-10288.862594,1110.308913,1149.143247
3948.376787,-10807.006753,1184.329507,842.705048
3948.377116,-10955.047942,518.144159,995.924147
3948.377446,-10658.965565,0.000000,689.485948
3948.377776,-9696.697840,-666.185348,612.876398
3948.378106,-9252.574275,-888.247130,842.705048
3948.378435,-9400.615463,-592.164754,459.657299
3948.378765,-9326.594869,-370.102971,-383.047749
3948.379095,-8882.471304,0.000000,-1838.629195
3948.379425,-8956.491898,592.164754,-1149.143247
3948.379754,-9622.677246,592.164754,-383.047749
3948.380084,-10288.862594,666.185348,459.657299
3948.380414,-10288.862594,370.102971,1149.143247
3948.380744,-10436.903782,0.000000,1762.019645
3948.381073,-9918.759623,-1110.308913,1378.971896
3948.381403,-10140.821405,-1184.329507,1762.019645
3948.381733,-9918.759623,-1110.308913,1762.019645
3948.382063,-9474.636058,-740.205942,1149.143247
3948.382392,-9622.677246,-296.082377,153.219100
3948.382722,-9326.594869,296.082377,-919.314598
3948.383052,-9252.574275,814.226536,-1072.533697
3948.383382,-9622.677246,1258.350101,-766.095498
3948.383711,-9918.759623,962.267725,-842.705048
3948.384041,-10066.800811,222.061783,0.000000
3948.384371,-9770.718434,-740.205942,536.266849
3948.384701,-9548.656652,-1332.370696,766.095498
3948.385030,-9400.615463,-1554.432478,1149.143247
3948.385360,-9696.697840,-1554.432478,1225.752797
3948.385690,-9400.615463,-1110.308913,1072.533697
3948.386020,-9622.677246,-518.144159,612.876398
3948.386350,-9474.636058,888.247130,76.609550
3948.386679,-10288.862594,1406.391290,-612.876398
3948.387009,-10584.944971,1480.411884,-919.314598
3948.387339,-10584.944971,1184.329507,-383.047749
3948.387669,-10362.883188,518.144159,306.438199
3948.387998,-10436.903782,0.000000,153.219100
3948.388328,-9622.677246,-814.226536,383.047749
3948.388658,-9474.636058,-1258.350101,842.705048
3948.388988,-9104.533087,-1184.329507,229.828649
3948.389317,-9326.594869,-740.205942,76.609550
3948.389647,-8956.491898,-370.102971,-383.047749
3948.389977,-9252.574275,666.185348,0.000000
3948.390307,-9992.780217,1184.329507,766.095498
3948.390636,-10658.965565,1110.308913,842.705048
3948.390966,-10807.006753,888.247130,306.438199
3948.391296,-10658.965565,518.144159,612.876398
3948.391626,-10140.821405,-222.061783,536.266849
3948.391955,-9030.512492,-1110.308913,383.047749
3948.392285,-9474.636058,-888.247130,306.438199
3948.392615,-8882.471304,-666.185348,536.266849
3948.392945,-9104.533087,148.041188,-306.438199
3948.393274,-8882.471304,74.020594,-1072.533697
3948.393604,-8956.491898,666.185348,-1225.752797
3948.393934,-9548.656652,888.247130,-612.876398
3948.394264,-10140.821405,1036.288319,0.000000
3948.394594,-10362.883188,814.226536,612.876398
3948.394923,-9770.718434,0.000000,919.314598
3948.395253,-9474.636058,-666.185348,995.924147
3948.395583,-9992.780217,-888.247130,1302.362347
3948.395913,-9918.759623,-888.247130,1225.752797
3948.396242,-9844.739029,-444.123565,612.876398
3948.396572,-9326.594869,0.000000,0.000000
3948.396902,-9326.594869,962.267725,-1225.752797
3948.397232,-9696.697840,1406.391290,-842.705048
3948.397561,-9992.780217,962.267725,-766.095498
3948.397891,-10362.883188,1332.370696,-612.876398
3948.398221,-10436.903782,814.226536,0.000000
3948.398551,-10436.903782,0.000000,459.657299
3948.398880,-9548.656652,-888.247130,612.876398
3948.399210,-9400.615463,-1184.329507,842.705048
3948.399540,-9844.739029,-740.205942,1149.143247
3948.399870,-9770.718434,-370.102971,1225.752797
3948.400199,-9622.677246,0.000000,766.095498
3948.400529,-9474.636058,444.123565,0.000000
3948.400859,-10214.842000,1110.308913,-383.047749
3948.401189,-10510.924376,1184.329507,-612.876398
3948.401518,-10732.986159,740.205942,0.000000
3948.401848,-10214.842000,0.000000,306.438199
3948.402178,-9844.739029,-370.102971,383.047749
3948.402508,-9474.636058,-962.267725,383.047749
3948.402838,-9178.553681,-1554.432478,0.000000
3948.403167,-9400.615463,-962.267725,76.609550
3948.403497,-9326.594869,-1110.308913,0.000000
3948.403827,-9252.574275,-148.041188,-229.828649
3948.404157,-9326.594869,666.185348,0.000000
3948.404486,-9548.656652,518.144159,612.876398
3948.404816,-10214.842000,1036.288319,383.047749
3948.405146,-10732.986159,666.185348,995.924147
3948.405476,-10436.903782,222.061783,306.438199
3948.405805,-10140.821405,-370.102971,306.438199
3948.406135,-9548.656652,-814.226536,153.219100
3948.406465,-9696.697840,-666.185348,459.657299
3948.406795,-9474.636058,-370.102971,0.000000
3948.407124,-9326.594869,148.041188,-612.876398
3948.407454,-9030.512492,666.185348,-1072.533697
3948.407784,-9326.594869,1036.288319,-1378.971896
3948.408114,-9844.739029,1110.308913,-383.047749
3948.408443,-10658.965565,1258.350101,689.485948
3948.408773,-10807.006753,666.185348,1302.362347
3948.409103,-10214.842000,0.000000,1378.971896
3948.409433,-9770.718434,-666.185348,1072.533697
3948.409762,-10140.821405,-814.226536,1455.581446
3948.410092,-10214.842000,-592.164754,1762.019645
3948.410422,-9696.697840,-740.205942,995.924147
3948.410752,-9622.677246,148.041188,-229.828649
3948.411082,-9474.636058,1036.288319,-995.924147
3948.411411,-9844.739029,1110.308913,-995.924147
3948.411741,-9844.739029,1554.432478,-1225.752797
3948.412071,-9844.739029,740.205942,-306.438199
3948.412401,-10066.800811,0.000000,459.657299
3948.412730,-9844.739029,-518.144159,842.705048
3948.413060,-9326.594869,-962.267725,766.095498
3948.413390,-9252.574275,-1406.391290,766.095498
3948.413720,-9474.636058,-1258.350101,1149.143247
3948.414049,-9474.636058,-740.205942,1072.533697
3948.414379,-9474.636058,0.000000,766.095498
3948.414709,-9400.615463,740.205942,76.609550
3948.415039,-9992.780217,814.226536,-229.828649
3948.415368,-10362.883188,1332.370696,-536.266849
3948.415698,-10658.965565,1110.308913,-306.438199
3948.416028,-10362.883188,0.000000,536.266849
3948.416358,-9918.759623,-518.144159,76.609550
3948.416687,-9104.533087,-1184.329507,306.438199
3948.417017,-9178.553681,-1554.432478,306.438199
3948.417347,-9326.594869,-1184.329507,0.000000
3948.417677,-9400.615463,-814.226536,0.000000
3948.418006,-9400.615463,0.000000,-76.609550
3948.418336,-9770.718434,1036.288319,383.047749
3948.418666,-10584.944971,1184.329507,383.047749
3948.418996,-10881.027347,1184.329507,76.609550
3948.419325,-11103.089130,740.205942,612.876398
3948.419655,-11177.109724,444.123565,1072.533697
3948.419985,-10140.821405,-740.205942,766.095498
3948.420315,-9696.697840,-1036.288319,0.000000
3948.420645,-9474.636058,-814.226536,229.828649
3948.420974,-9474.636058,-592.164754,383.047749
3948.421304,-9178.553681,-296.082377,-459.657299
3948.421634,-9326.594869,888.247130,-1532.190996
3948.421964,-9104.533087,814.226536,-919.314598
3948.422293,-9696.697840,962.267725,-153.219100
3948.422623,-10362.883188,814.226536,689.485948
3948.422953,-10362.883188,148.041188,919.314598
3948.423283,-10066.800811,-222.061783,919.314598
3948.423612,-9622.677246,-888.247130,1532.190996
3948.423942,-9548.656652,-1258.350101,1608.800546
3948.424272,-9622.677246,-666.185348,1225.752797
3948.424602,-9622.677246,0.000000,536.266849
3948.424931,-9178.553681,74.020594,-536.266849
3948.425261,-9104.533087,1184.329507,-1149.143247
3948.425591,-9844.739029,1406.391290,-1149.143247
3948.425921,-9770.718434,1628.453072,-1378.971896
3948.426250,-10066.800811,888.247130,-306.438199
3948.426580,-10288.862594,444.123565,459.657299
3948.426910,-9696.697840,-148.041188,536.266849
3948.427240,-9326.594869,-1110.308913,689.485948
3948.427569,-9548.656652,-1110.308913,1072.533697
3948.427899,-9992.780217,-444.123565,1378.971896
3948.428229,-9770.718434,-148.041188,1072.533697
3948.428559,-9770.718434,444.123565,0.000000
3948.428889,-9770.718434,1258.350101,-612.876398
3948.429218,-10436.903782,1406.391290,-229.828649
3948.429548,-10881.027347,1332.370696,-459.657299
3948.429878,-10658.965565,888.247130,-76.609550
3948.430208,-9770.718434,592.164754,689.485948
3948.430537,-9622.677246,-518.144159,536.266849
3948.430867,-9252.574275,-962.267725,459.657299
3948.431197,-9474.636058,-962.267725,536.266849
3948.431527,-9622.677246,-444.123565,229.828649
3948.431856,-9474.636058,-592.164754,383.047749
3948.432186,-9326.594869,0.000000,0.000000
3948.432516,-9400.615463,444.123565,229.828649
3948.432846,-10362.883188,592.164754,536.266849
3948.433175,-10140.821405,740.205942,229.828649
3948.433505,-10658.965565,592.164754,383.047749
3948.433835,-10510.924376,-222.061783,1149.143247
3948.434165,-9474.636058,-666.185348,459.657299
3948.434494,-8808.450710,-962.267725,383.047749
3948.434824,-9326.594869,-1036.288319,536.266849
3948.435154,-9474.636058,-592.164754,76.609550
3948.435484,-9252.574275,-296.082377,-842.705048
3948.435813,-8364.327145,444.123565,-842.705048
3948.436143,-9474.636058,814.226536,-842.705048
3948.436473,-9918.759623,740.205942,0.000000
3948.436803,-10436.903782,666.185348,612.876398
3948.437133,-10362.883188,74.020594,1302.362347
3948.437462,-10140.821405,-222.061783,919.314598
3948.437792,-9992.780217,-740.205942,995.924147
3948.438122,-9918.759623,-1184.329507,1225.752797
3948.438452,-10288.862594,-666.185348,1302.362347
3948.438781,-9696.697840,-296.082377,612.876398
3948.439111,-9326.594869,370.102971,-842.705048
3948.439441,-9622.677246,1184.329507,-1149.143247
3948.439771,-9918.759623,1406.391290,-1072.533697
3948.440100,-10140.821405,1776.494261,-919.314598
3948.440430,-10362.883188,1406.391290,-383.047749
3948.440760,-10214.842000,148.041188,383.047749
3948.441090,-9844.739029,-296.082377,689.485948
3948.441419,-9474.636058,-1036.288319,995.924147
3948.441749,-9474.636058,-1258.350101,842.705048
3948.442079,-9696.697840,-962.267725,919.314598
3948.442409,-9696.697840,-592.164754,1302.362347
3948.442738,-9474.636058,222.061783,919.314598
3948.443068,-9844.739029,1184.329507,612.876398
3948.443398,-10436.903782,1406.391290,-459.657299
3948.443728,-10214.842000,1406.391290,-842.705048
3948.444057,-10362.883188,888.247130,-383.047749
3948.444387,-10510.924376,666.185348,229.828649
3948.444717,-9474.636058,-518.144159,536.266849
3948.445047,-9400.615463,-814.226536,76.609550
3948.445377,-9104.533087,-1184.329507,383.047749
3948.445706,-9178.553681,-518.144159,0.000000
3948.446036,-9326.594869,-740.205942,-459.657299
3948.446366,-9030.512492,370.102971,-612.876398
3948.446696,-9400.615463,740.205942,76.609550
3948.447025,-10066.800811,1110.308913,689.485948
3948.447355,-10436.903782,1036.288319,919.314598
3948.447685,-11029.068536,666.185348,766.095498
3948.448015,-10658.965565,0.000000,229.828649
3948.448344,-9918.759623,-518.144159,0.000000
3948.448674,-9252.574275,-740.205942,0.000000
3948.449004,-9178.553681,-1036.288319,153.219100
3948.449334,-9178.553681,-740.205942,76.609550
3948.449663,-9326.594869,0.000000,-1149.143247
3948.449993,-8882.471304,1110.308913,-1378.971896
3948.450323,-9474.636058,1036.288319,-1149.143247
3948.450653,-10362.883188,1110.308913,-229.828649
3948.450982,-10732.986159,1110.308913,1072.533697
3948.451312,-10732.986159,444.123565,1455.581446
3948.451642,-9992.780217,-296.082377,1532.190996
3948.451972,-10140.821405,-888.247130,1225.752797
3948.452301,-10140.821405,-1332.370696,1455.581446
3948.452631,-10214.842000,-740.205942,1302.362347
3948.452961,-9548.656652,-592.164754,842.705048
3948.453291,-9252.574275,74.020594,-536.266849
3948.453620,-9178.553681,740.205942,-842.705048
3948.453950,-9548.656652,1036.288319,-919.314598
3948.454280,-9770.718434,1184.329507,-842.705048
3948.454610,-9918.759623,740.205942,-459.657299
3948.454940,-9918.759623,0.000000,383.047749
3948.455269,-9770.718434,-370.102971,1149.143247
3948.455599,-9474.636058,-1332.370696,1072.533697
3948.455929,-9474.636058,-1332.370696,1302.362347
3948.456259,-9474.636058,-1110.308913,919.314598
3948.456588,-9918.759623,-296.082377,842.705048
3948.456918,-9326.594869,296.082377,306.438199
3948.457248,-9844.739029,888.247130,153.219100
3948.457578,-10436.903782,1332.370696,-383.047749
3948.457907,-10510.924376,1258.350101,-689.485948
3948.458237,-10658.965565,1332.370696,-229.828649
3948.458567,-10140.821405,444.123565,0.000000
3948.458897,-9992.780217,-370.102971,153.219100
3948.459226,-9326.594869,-962.267725,153.219100
3948.459556,-9474.636058,-1036.288319,0.000000
3948.459886,-9770.718434,-296.082377,153.219100
3948.460216,-9252.574275,-666.185348,-383.047749
3948.460545,-9474.636058,666.185348,-306.438199
3948.460875,-9622.677246,888.247130,383.047749
3948.461205,-10140.821405,1036.288319,536.266849
3948.461535,-10658.965565,1258.350101,842.705048
3948.461864,-10881.027347,370.102971,1072.533697
3948.462194,-10658.965565,74.020594,306.438199
3948.462524,-9844.739029,-666.185348,153.219100
3948.462854,-9474.636058,-1110.308913,306.438199
3948.463184,-9326.594869,-666.185348,383.047749
3948.463513,-9104.533087,-592.164754,0.000000
3948.463843,-9178.553681,-74.020594,-612.876398
3948.464173,-9104.533087,740.205942,-842.705048
3948.464503,-9474.636058,814.226536,-919.314598
3948.464832,-9992.780217,740.205942,0.000000
3948.465162,-10510.924376,740.205942,995.924147
3948.465492,-10362.883188,222.061783,1455.581446
3948.465822,-9992.780217,-962.267725,1302.362347
3948.466151,-9622.677246,-1184.329507,1532.190996
3948.466481,-9992.780217,-1184.329507,919.314598
3948.466811,-9992.780217,-888.247130,919.314598
3948.467141,-9844.739029,-296.082377,153.219100
3948.467471,-9252.574275,370.102971,-842.705048
3948.467800,-9400.615463,1258.350101,-1072.533697
3948.468130,-9844.739029,1184.329507,-689.485948
3948.468460,-10066.800811,888.247130,-612.876398
3948.468790,-10140.821405,666.185348,-153.219100
3948.469120,-9918.759623,0.000000,306.438199
3948.469449,-9622.677246,-962.267725,689.485948
3948.469779,-9252.574275,-1850.514855,1149.143247
3948.470109,-9548.656652,-1554.432478,1149.143247
3948.470439,-9474.636058,-962.267725,1378.971896
3948.470769,-9770.718434,-666.185348,1149.143247
3948.471099,-9696.697840,666.185348,536.266849
3948.471428,-10288.862594,1628.453072,0.000000
3948.471758,-10584.944971,1702.473667,-459.657299
3948.472088,-10955.047942,1406.391290,-229.828649
3948.472418,-10510.924376,814.226536,0.000000
3948.472748,-9844.739029,148.041188,-229.828649
3948.473078,-9474.636058,-888.247130,229.828649
3948.473407,-9178.553681,-1258.350101,306.438199
3948.473737,-9104.533087,-1036.288319,459.657299
3948.474067,-9252.574275,-962.267725,153.219100
3948.474397,-8956.491898,-814.226536,-76.609550
3948.474727,-9252.574275,222.061783,0.000000
3948.475057,-9252.574275,666.185348,306.438199
3948.475386,-10214.842000,962.267725,612.876398
3948.475716,-10584.944971,962.267725,995.924147
3948.476046,-10955.047942,814.226536,689.485948
3948.476376,-10807.006753,0.000000,153.219100
3948.476706,-9548.656652,-740.205942,-306.438199
3948.477036,-9474.636058,-1184.329507,-383.047749
3948.477365,-9400.615463,-740.205942,0.000000
3948.477695,-9178.553681,-296.082377,-383.047749
3948.478025,-9104.533087,0.000000,-1378.971896
3948.478355,-8734.430116,444.123565,-1225.752797
3948.478685,-9622.677246,814.226536,-919.314598
3948.479014,-10288.862594,1406.391290,76.609550
3948.479344,-10658.965565,518.144159,1072.533697
3948.479674,-10140.821405,0.000000,2451.505594
3948.480004,-10214.842000,-370.102971,1302.362347
3948.480334,-10140.821405,-1110.308913,1532.190996
3948.480664,-10214.842000,-1332.370696,1608.800546
3948.480993,-9992.780217,-666.185348,1532.190996
3948.481323,-10066.800811,0.000000,153.219100
3948.481653,-9474.636058,592.164754,-766.095498
3948.481983,-9474.636058,1184.329507,-919.314598
3948.482313,-9622.677246,1184.329507,-1072.533697
3948.482643,-10140.821405,1184.329507,-766.095498
3948.482972,-9844.739029,444.123565,-383.047749
3948.483302,-9844.739029,0.000000,153.219100
3948.483632,-9252.574275,-888.247130,612.876398
3948.483962,-9252.574275,-1110.308913,1838.629195
3948.484292,-9622.677246,-1110.308913,1149.143247
3948.484622,-9474.636058,-814.226536,1302.362347
3948.484951,-9400.615463,-518.144159,1225.752797
3948.485281,-9474.636058,296.082377,459.657299
3948.485611,-9770.718434,814.226536,536.266849
3948.485941,-10510.924376,1406.391290,0.000000
3948.486271,-10436.903782,1258.350101,-536.266849
3948.486601,-10658.965565,814.226536,-229.828649
3948.486930,-10140.821405,0.000000,0.000000
3948.487260,-9844.739029,-666.185348,0.000000
3948.487590,-9474.636058,-1036.288319,76.609550
3948.487920,-9252.574275,-1036.288319,0.000000
3948.488250,-9326.594869,-814.226536,76.609550
3948.488579,-9030.512492,-222.061783,-306.438199
3948.488909,-9474.636058,370.102971,-306.438199
3948.489239,-10066.800811,1036.288319,689.485948
3948.489569,-10436.903782,666.185348,766.095498
3948.489899,-10584.944971,888.247130,1149.143247
3948.490229,-10807.006753,370.102971,1302.362347
3948.490558,-10732.986159,-74.020594,306.438199
3948.490888,-9844.739029,-814.226536,229.828649
3948.491218,-9474.636058,-1036.288319,612.876398
3948.491548,-9326.594869,-888.247130,76.609550
3948.491878,-9030.512492,-444.123565,-383.047749
3948.492208,-9104.533087,0.000000,-1072.533697
3948.492537,-8956.491898,444.123565,-1302.362347
3948.492867,-9548.656652,444.123565,-689.485948
3948.493197,-10214.842000,666.185348,0.000000
3948.493527,-10436.903782,518.144159,1149.143247
3948.493857,-9992.780217,-666.185348,1455.581446
3948.494187,-9770.718434,-666.185348,1762.019645
3948.494516,-9918.759623,-962.267725,1532.190996
3948.494846,-10436.903782,-740.205942,1455.581446
3948.495176,-9844.739029,-666.185348,919.314598
3948.495506,-9548.656652,0.000000,0.000000
3948.495836,-9326.594869,666.185348,-1302.362347
3948.496166,-9400.615463,1036.288319,-1072.533697
3948.496495,-9548.656652,1036.288319,-1225.752797
3948.496825,-10066.800811,1406.391290,-689.485948
3948.497155,-9918.759623,444.123565,-229.828649
3948.497485,-10066.800811,0.000000,153.219100
3948.497815,-9548.656652,-888.247130,919.314598
3948.498144,-9474.636058,-1184.329507,842.705048
3948.498474,-9548.656652,-1332.370696,1302.362347
3948.498804,-9548.656652,-740.205942,1378.971896
3948.499134,-9770.718434,0.000000,995.924147
3948.499464,-9622.677246,740.205942,536.266849
3948.499794,-10140.821405,1480.411884,153.219100
3948.500123,-10436.903782,1554.432478,-306.438199
3948.500453,-10955.047942,1776.494261,-76.609550
3948.500783,-10584.944971,740.205942,0.000000
3948.501113,-9844.739029,296.082377,0.000000
3948.501443,-9400.615463,-592.164754,459.657299
3948.501773,-9252.574275,-1184.329507,766.095498
3948.502102,-9252.574275,-1036.288319,76.609550
3948.502432,-9252.574275,-740.205942,-536.266849
3948.502762,-9326.594869,148.041188,-612.876398
3948.503092,-9326.594869,740.205942,0.000000
3948.503422,-9622.677246,666.185348,612.876398
3948.503752,-9918.759623,814.226536,842.705048
3948.504081,-10658.965565,888.247130,689.485948
3948.504411,-10732.986159,74.020594,1072.533697
3948.504741,-10584.944971,0.000000,842.705048
3948.505071,-9770.718434,-814.226536,689.485948
3948.505401,-9400.615463,-1036.288319,306.438199
3948.505730,-9326.594869,-814.226536,306.438199
3948.506060,-8956.491898,-444.123565,-306.438199
3948.506390,-9030.512492,222.061783,-1455.581446
3948.506720,-9474.636058,666.185348,-1302.362347
3948.507050,-10066.800811,814.226536,-995.924147
3948.507380,-10288.862594,962.267725,229.828649
3948.507709,-10436.903782,148.041188,919.314598
3948.508039,-10140.821405,-296.082377,1532.190996
3948.508369,-9844.739029,-962.267725,1225.752797
3948.508699,-9696.697840,-1332.370696,1838.629195
3948.509029,-9844.739029,-1332.370696,1685.410096
3948.509359,-9992.780217,-592.164754,842.705048
3948.509688,-9622.677246,-296.082377,153.219100
3948.510018,-9474.636058,740.205942,-766.095498
3948.510348,-9770.718434,1258.350101,-766.095498
3948.510678,-9992.780217,962.267725,-1225.752797
3948.511008,-9992.780217,740.205942,-612.876398
3948.511338,-10362.883188,296.082377,-383.047749
3948.511667,-10140.821405,-518.144159,229.828649
3948.511997,-9400.615463,-962.267725,306.438199
3948.512327,-9178.553681,-1406.391290,1608.800546
3948.512657,-9474.636058,-1554.432478,1225.752797
3948.512987,-9548.656652,-1258.350101,1532.190996
3948.513317,-9770.718434,-370.102971,1225.752797
3948.513646,-9622.677246,518.144159,536.266849
3948.513976,-10214.842000,1332.370696,536.266849
3948.514306,-10510.924376,1110.308913,0.000000
3948.514636,-10881.027347,1184.329507,-229.828649
3948.514966,-10732.986159,518.144159,229.828649
3948.515295,-9770.718434,-444.123565,0.000000
3948.515625,-9104.533087,-1110.308913,0.000000
3948.515955,-9030.512492,-1406.391290,0.000000
3948.516285,-8956.491898,-1184.329507,0.000000
3948.516615,-9030.512492,-888.247130,306.438199
3948.516945,-8956.491898,0.000000,-459.657299
3948.517274,-9326.594869,444.123565,-76.609550
3948.517604,-10066.800811,962.267725,612.876398
3948.517934,-10436.903782,814.226536,383.047749
3948.518264,-10658.965565,888.247130,1072.533697
3948.518594,-10584.944971,222.061783,1225.752797
3948.518924,-9992.780217,-444.123565,612.876398
3948.519253,-9770.718434,-740.205942,153.219100
3948.519583,-9474.636058,-518.144159,306.438199
3948.519913,-9474.636058,0.000000,76.609550
3948.520243,-9178.553681,0.000000,-612.876398
3948.520573,-9252.574275,962.267725,-1608.800546
3948.520903,-9252.574275,1184.329507,-1455.581446
3948.521232,-9918.759623,1480.411884,-766.095498
3948.521562,-10510.924376,1184.329507,229.828649
3948.521892,-10362.883188,370.102971,1149.143247
3948.522222,-10214.842000,148.041188,2145.067394
3948.522552,-9696.697840,-814.226536,1608.800546
3948.522882,-9844.739029,-962.267725,1685.410096
3948.523211,-9918.759623,-666.185348,1302.362347
3948.523541,-9992.780217,-74.020594,766.095498
3948.523871,-9326.594869,74.020594,-229.828649
3948.524201,-9474.636058,1184.329507,-842.705048
3948.524531,-9548.656652,1332.370696,-919.314598
3948.524860,-9844.739029,1258.350101,-1455.581446
3948.525190,-9474.636058,1258.350101,-919.314598
3948.525520,-9918.759623,518.144159,0.000000
3948.525850,-9622.677246,-148.041188,229.828649
3948.526180,-9326.594869,-888.247130,536.266849
3948.526510,-9252.574275,-1480.411884,1225.752797
3948.526839,-9400.615463,-1110.308913,842.705048
3948.527169,-9474.636058,-444.123565,995.924147
3948.527499,-9474.636058,0.000000,536.266849
3948.527829,-9474.636058,962.267725,536.266849
3948.528159,-9992.780217,1258.350101,0.000000
3948.528489,-10584.944971,1332.370696,-76.609550
3948.528818,-10732.986159,1184.329507,-153.219100
3948.529148,-10510.924376,740.205942,-459.657299
3948.529478,-9548.656652,-222.061783,-76.609550
3948.529808,-9474.636058,-592.164754,0.000000
3948.530138,-9474.636058,-962.267725,-153.219100
3948.530468,-9474.636058,-666.185348,-306.438199
3948.530797,-9252.574275,-814.226536,-306.438199
3948.531127,-9030.512492,0.000000,-766.095498
3948.531457,-9474.636058,518.144159,0.000000
3948.531787,-9992.780217,740.205942,459.657299
3948.532117,-10510.924376,592.164754,995.924147
3948.532446,-10807.006753,740.205942,1302.362347
3948.532776,-10807.006753,0.000000,919.314598
3948.533106,-10140.821405,-518.144159,919.314598
3948.533436,-9992.780217,-740.205942,536.266849
3948.533766,-9474.636058,-1110.308913,689.485948
3948.534096,-9178.553681,-888.247130,153.219100
3948.534425,-9178.553681,-370.102971,-383.047749
3948.534755,-8956.491898,296.082377,-1302.362347
3948.535085,-9252.574275,592.164754,-1302.362347
3948.535415,-10214.842000,888.247130,-306.438199
3948.535745,-10436.903782,740.205942,153.219100
3948.536075,-10362.883188,518.144159,1072.533697
3948.536404,-9844.739029,-518.144159,1762.019645
3948.536734,-9918.759623,-1110.308913,919.314598
3948.537064,-9918.759623,-1406.391290,1532.190996
3948.537394,-10066.800811,-1184.329507,1532.190996
3948.537724,-9548.656652,-888.247130,689.485948
3948.538054,-9178.553681,0.000000,76.609550
3948.538383,-9178.553681,740.205942,-1149.143247
3948.538713,-9770.718434,1110.308913,-536.266849
3948.539043,-9918.759623,1036.288319,-1149.143247
3948.539373,-9992.780217,814.226536,-689.485948
3948.539703,-10066.800811,518.144159,153.219100
3948.540033,-9844.739029,-296.082377,459.657299
3948.540362,-9400.615463,-962.267725,229.828649
3948.540692,-9252.574275,-2072.576638,1762.019645
3948.541022,-9474.636058,-1110.308913,995.924147
3948.541352,-9622.677246,-888.247130,1072.533697
3948.541682,-9548.656652,0.000000,919.314598
3948.542011,-9548.656652,1036.288319,612.876398
3948.542341,-10140.821405,1332.370696,383.047749
3948.542671,-10658.965565,1406.391290,0.000000
3948.543001,-10584.944971,1258.350101,0.000000
3948.543331,-10584.944971,740.205942,0.000000
3948.543661,-9474.636058,-296.082377,459.657299
3948.543990,-9252.574275,-1036.288319,229.828649
3948.544320,-9326.594869,-1184.329507,0.000000
3948.544650,-9252.574275,-370.102971,0.000000
3948.544980,-8660.409521,-370.102971,-536.266849
3948.545310,-9030.512492,444.123565,-459.657299
3948.545640,-9474.636058,592.164754,153.219100
3948.545969,-9696.697840,1036.288319,459.657299
3948.546299,-10362.883188,1406.391290,689.485948
3948.546629,-10732.986159,1036.288319,536.266849
3948.546959,-10807.006753,222.061783,689.485948
3948.547289,-10436.903782,-222.061783,306.438199
3948.547619,-9548.656652,-814.226536,0.000000
3948.547948,-9474.636058,-296.082377,306.438199
3948.548278,-9548.656652,-592.164754,459.657299
3948.548608,-9326.594869,0.000000,-76.609550
3948.548938,-8882.471304,592.164754,-1302.362347
3948.549268,-9030.512492,814.226536,-1072.533697
3948.549598,-10066.800811,1036.288319,-383.047749
3948.549927,-10362.883188,1110.308913,689.485948
3948.550257,-10510.924376,0.000000,1149.143247
3948.550587,-9844.739029,-296.082377,1685.410096
3948.550917,-10140.821405,-740.205942,1762.019645
3948.551247,-10140.821405,-1036.288319,1532.190996
3948.551576,-10214.842000,-666.185348,1072.533697
3948.551906,-10066.800811,-222.061783,383.047749
3948.552236,-9400.615463,148.041188,229.828649
3948.552566,-9400.615463,666.185348,-766.095498
3948.552896,-9770.718434,1036.288319,-842.705048
3948.553226,-9844.739029,1110.308913,-919.314598
3948.553555,-9474.636058,814.226536,-229.828649
3948.553885,-9844.739029,148.041188,76.609550
3948.554215,-9770.718434,-296.082377,306.438199
3948.554545,-9474.636058,-1036.288319,995.924147
3948.554875,-9400.615463,-1036.288319,1378.971896
3948.555205,-9474.636058,-1036.288319,919.314598
3948.555534,-9622.677246,-740.205942,1072.533697
3948.555864,-9474.636058,0.000000,383.047749
3948.556194,-9844.739029,1258.350101,383.047749
3948.556524,-10214.842000,1184.329507,76.609550
3948.556854,-10140.821405,1258.350101,-612.876398
3948.557184,-10214.842000,888.247130,0.000000
3948.557513,-10214.842000,370.102971,0.000000
3948.557843,-9548.656652,0.000000,0.000000
3948.558173,-9474.636058,-592.164754,229.828649
3948.558503,-9548.656652,-1036.288319,306.438199
3948.558833,-9474.636058,-666.185348,229.828649
3948.559163,-8956.491898,0.000000,-153.219100
3948.559492,-9326.594869,518.144159,-536.266849
3948.559822,-9474.636058,1110.308913,-229.828649
3948.560152,-10066.800811,1332.370696,383.047749
3948.560482,-10288.862594,1110.308913,1149.143247
3948.560812,-10881.027347,814.226536,1302.362347
3948.561141,-10584.944971,0.000000,842.705048
3948.561471,-10066.800811,-518.144159,612.876398
3948.561801,-9474.636058,-1036.288319,536.266849
3948.562131,-9474.636058,-1036.288319,383.047749
3948.562461,-9474.636058,-444.123565,76.609550
3948.562791,-9252.574275,-296.082377,-459.657299
3948.563120,-8882.471304,370.102971,-766.095498
3948.563450,-9030.512492,740.205942,-306.438199
3948.563780,-9918.759623,814.226536,0.000000
3948.564110,-10140.821405,666.185348,459.657299
3948.564440,-10288.862594,148.041188,1072.533697
3948.564770,-9770.718434,-592.164754,1685.410096
3948.565099,-10214.842000,-962.267725,919.314598
3948.565429,-9918.759623,-1332.370696,1608.800546
3948.565759,-10066.800811,-962.267725,1149.143247
3948.566089,-9548.656652,-592.164754,689.485948
3948.566419,-9178.553681,148.041188,-612.876398
3948.566749,-9252.574275,740.205942,-842.705048
3948.567078,-9474.636058,962.267725,-1072.533697
3948.567408,-9844.739029,740.205942,-1149.143247
3948.567738,-10214.842000,962.267725,-153.219100
3948.568068,-10214.842000,-74.020594,383.047749
3948.568398,-9622.677246,-740.205942,842.705048
3948.568727,-9474.636058,-1480.411884,383.047749
3948.569057,-9474.636058,-962.267725,842.705048
3948.569387,-9548.656652,-1036.288319,1225.752797
3948.569717,-9622.677246,-814.226536,1225.752797
3948.570047,-9696.697840,148.041188,689.485948
3948.570377,-9474.636058,1184.329507,0.000000
3948.570706,-10436.903782,1184.329507,-306.438199
3948.571036,-10807.006753,1332.370696,-842.705048
3948.571366,-10955.047942,962.267725,-306.438199
3948.571696,-10362.883188,148.041188,229.828649
3948.572026,-9770.718434,-370.102971,536.266849
3948.572356,-9326.594869,-1110.308913,536.266849
3948.572685,-9326.594869,-1110.308913,612.876398
3948.573015,-9400.615463,-518.144159,76.609550
3948.573345,-8734.430116,-592.164754,-306.438199
3948.573675,-9030.512492,518.144159,-612.876398
3948.574005,-9622.677246,1036.288319,0.000000
3948.574335,-10362.883188,1184.329507,842.705048
3948.574664,-10510.924376,1110.308913,536.266849
3948.574994,-10807.006753,814.226536,689.485948
3948.575324,-10584.944971,0.000000,306.438199
3948.575654,-9770.718434,-814.226536,383.047749
3948.575984,-9326.594869,-962.267725,689.485948
3948.576314,-9326.594869,-888.247130,1072.533697
3948.576643,-8956.491898,-296.082377,229.828649
3948.576973,-9030.512492,0.000000,-689.485948
3948.577303,-8808.450710,592.164754,-1532.190996
3948.577633,-8882.471304,666.185348,-1532.190996
3948.577963,-9622.677246,1110.308913,-306.438199
3948.578293,-10140.821405,888.247130,842.705048
3948.578622,-10658.965565,148.041188,1608.800546
3948.578952,-9622.677246,-444.123565,1225.752797
3948.579282,-9770.718434,-962.267725,995.924147
3948.579612,-9992.780217,-1110.308913,1302.362347
3948.579942,-10066.800811,-814.226536,1149.143247
3948.580271,-9252.574275,-518.144159,612.876398
3948.580601,-8882.471304,444.123565,-842.705048
3948.580931,-9400.615463,1110.308913,-919.314598
3948.581261,-9696.697840,1258.350101,-919.314598
3948.581591,-10214.842000,1480.411884,-1455.581446
3948.581921,-10140.821405,1036.288319,-536.266849
3948.582250,-9992.780217,148.041188,0.000000
3948.582580,-9548.656652,-666.185348,689.485948
3948.582910,-9178.553681,-1480.411884,766.095498
3948.583240,-9326.594869,-1184.329507,1378.971896
3948.583570,-9918.759623,-1036.288319,1455.581446
3948.583900,-9696.697840,-592.164754,1378.971896
3948.584229,-9918.759623,370.102971,612.876398
3948.584559,-9548.656652,888.247130,0.000000
3948.584889,-10288.862594,1406.391290,0.000000
3948.585219,-10658.965565,1184.329507,0.000000
3948.585549,-11029.068536,1036.288319,0.000000
3948.585879,-10362.883188,222.061783,0.000000
3948.586208,-9622.677246,-518.144159,-76.609550
3948.586538,-9474.636058,-962.267725,689.485948
3948.586868,-9474.636058,-1036.288319,229.828649
3948.587198,-9104.533087,-962.267725,76.609550
3948.587528,-8882.471304,-518.144159,-383.047749
3948.587858,-8956.491898,222.061783,-76.609550
3948.588187,-9400.615463,740.205942,229.828649
3948.588517,-10214.842000,1332.370696,459.657299
3948.588847,-10288.862594,1480.411884,842.705048
3948.589177,-11399.171507,666.185348,995.924147
3948.589507,-10732.986159,74.020594,766.095498
3948.589837,-9844.739029,-740.205942,0.000000
3948.590166,-9400.615463,-888.247130,76.609550
3948.590496,-9400.615463,-666.185348,459.657299
3948.590826,-9030.512492,-296.082377,0.000000
3948.591156,-9252.574275,444.123565,-766.095498
3948.591486,-8956.491898,814.226536,-1455.581446
3948.591815,-9474.636058,1480.411884,-1302.362347
3948.592145,-10288.862594,1480.411884,-459.657299
3948.592475,-10510.924376,740.205942,612.876398
3948.592805,-10436.903782,222.061783,1225.752797
3948.593135,-9918.759623,-444.123565,1455.581446
3948.593465,-9918.759623,-740.205942,1838.629195
3948.593794,-10066.800811,-962.267725,1685.410096
3948.594124,-9918.759623,-740.205942,1072.533697
3948.594454,-9400.615463,-370.102971,-306.438199
3948.594784,-9548.656652,888.247130,-995.924147
3948.595114,-9178.553681,1110.308913,-995.924147
3948.595444,-9548.656652,1184.329507,-766.095498
3948.595773,-10066.800811,1110.308913,-689.485948
3948.596103,-10066.800811,666.185348,-153.219100
3948.596433,-10066.800811,-222.061783,459.657299
3948.596763,-9474.636058,-962.267725,536.266849
3948.597093,-9474.636058,-1184.329507,1378.971896
3948.597423,-9178.553681,-1184.329507,995.924147
3948.597752,-9548.656652,-1406.391290,1685.410096
3948.598082,-9622.677246,-592.164754,1149.143247
3948.598412,-9696.697840,74.020594,536.266849
3948.598742,-9770.718434,1406.391290,229.828649
3948.599072,-10362.883188,1258.350101,-229.828649
3948.599402,-10510.924376,1184.329507,0.000000
3948.599731,-10658.965565,666.185348,76.609550
3948.600061,-10288.862594,296.082377,0.000000
3948.600391,-9400.615463,-666.185348,0.000000
3948.600721,-9326.594869,-1184.329507,306.438199
3948.601051,-9178.553681,-1332.370696,0.000000
3948.601381,-9178.553681,-888.247130,0.000000
3948.601710,-8808.450710,-370.102971,-536.266849
3948.602040,-8882.471304,148.041188,-229.828649
3948.602370,-9770.718434,814.226536,612.876398
3948.602700,-10436.903782,814.226536,766.095498
3948.603030,-11251.130318,1258.350101,1149.143247
3948.603359,-11177.109724,518.144159,383.047749
3948.603689,-10510.924376,-370.102971,229.828649
3948.604019,-9918.759623,-666.185348,153.219100
3948.604349,-9696.697840,-666.185348,383.047749
3948.604679,-9770.718434,-518.144159,383.047749
3948.605009,-9400.615463,0.000000,0.000000
3948.605338,-9474.636058,296.082377,-919.314598
3948.605668,-8956.491898,1258.350101,-1302.362347
3948.605998,-9770.718434,1332.370696,-919.314598
3948.606328,-10066.800811,1184.329507,153.219100
3948.606658,-10658.965565,518.144159,766.095498
3948.606988,-10362.883188,0.000000,1225.752797
3948.607317,-9992.780217,-296.082377,536.266849
3948.607647,-10066.800811,-740.205942,1302.362347
3948.607977,-10066.800811,-888.247130,1455.581446
3948.608307,-9918.759623,-222.061783,995.924147
3948.608637,-9400.615463,518.144159,76.609550
3948.608967,-9104.533087,740.205942,-459.657299
3948.609296,-9400.615463,1406.391290,-689.485948
3948.609626,-9622.677246,1406.391290,-689.485948
3948.609956,-10140.821405,1258.350101,-842.705048
3948.610286,-10066.800811,666.185348,-459.657299
3948.610616,-9696.697840,0.000000,0.000000
3948.610946,-9548.656652,-888.247130,459.657299
3948.611275,-9178.553681,-1184.329507,536.266849
3948.611605,-9474.636058,-1110.308913,1378.971896
3948.611935,-9770.718434,-666.185348,995.924147
3948.612265,-9474.636058,-370.102971,766.095498
3948.612595,-9548.656652,666.185348,229.828649
3948.612924,-9696.697840,1110.308913,689.485948
3948.613254,-10584.944971,1702.473667,153.219100
3948.613584,-10881.027347,1406.391290,0.000000
3948.613914,-10658.965565,740.205942,0.000000
3948.614244,-9992.780217,-148.041188,-306.438199
3948.614574,-9252.574275,-814.226536,153.219100
3948.614903,-8956.491898,-1184.329507,612.876398
3948.615233,-9178.553681,-1036.288319,536.266849
3948.615563,-9104.533087,-814.226536,-383.047749
3948.615893,-8956.491898,-222.061783,-306.438199
3948.616223,-9178.553681,518.144159,-536.266849
3948.616553,-9844.739029,888.247130,0.000000
3948.616882,-10732.986159,888.247130,612.876398
3948.617212,-11177.109724,1110.308913,1225.752797
3948.617542,-10881.027347,222.061783,1532.190996
3948.617872,-10214.842000,-296.082377,459.657299
3948.618202,-9770.718434,-962.267725,306.438199
3948.618532,-9548.656652,-1110.308913,1072.533697
3948.618861,-9400.615463,-888.247130,76.609550
3948.619191,-9400.615463,-518.144159,0.000000
3948.619521,-8956.491898,74.020594,-995.924147
3948.619851,-9030.512492,740.205942,-995.924147
3948.620181,-9770.718434,814.226536,-766.095498
3948.620511,-10510.924376,666.185348,229.828649
3948.620840,-10732.986159,148.041188,995.924147
3948.621170,-10362.883188,0.000000,1225.752797
3948.621500,-10732.986159,-666.185348,2068.457845
3948.621830,-10140.821405,-1258.350101,1532.190996
3948.622160,-10362.883188,-1258.350101,1608.800546
3948.622490,-10214.842000,-518.144159,919.314598
3948.622819,-9622.677246,0.000000,612.876398
3948.623149,-9400.615463,370.102971,-766.095498
3948.623479,-9548.656652,1184.329507,-842.705048
3948.623809,-9992.780217,1184.329507,-689.485948
3948.624139,-10214.842000,740.205942,-689.485948
3948.624468,-10214.842000,0.000000,-306.438199
3948.624798,-9918.759623,-666.185348,689.485948
3948.625128,-9474.636058,-1036.288319,919.314598
3948.625458,-9326.594869,-1406.391290,842.705048
3948.625788,-9770.718434,-1480.411884,1225.752797
3948.626118,-9252.574275,-962.267725,1302.362347
3948.626447,-9844.739029,-222.061783,995.924147
3948.626777,-9770.718434,592.164754,0.000000
3948.627107,-10214.842000,1258.350101,612.876398
3948.627437,-10436.903782,1628.453072,-229.828649
3948.627767,-10510.924376,1332.370696,0.000000
3948.628097,-10436.903782,740.205942,76.609550
3948.628426,-9992.780217,0.000000,0.000000
3948.628756,-9326.594869,-740.205942,-306.438199
3948.629086,-9030.512492,-1184.329507,76.609550
3948.629416,-9474.636058,-666.185348,0.000000
3948.629746,-9178.553681,-592.164754,0.000000
3948.630076,-9030.512492,74.020594,-919.314598
3948.630405,-9474.636058,888.247130,-459.657299
3948.630735,-9770.718434,1184.329507,229.828649
3948.631065,-10362.883188,962.267725,689.485948
3948.631395,-10436.903782,740.205942,1378.971896
3948.631725,-11029.068536,296.082377,1302.362347
3948.632055,-10362.883188,0.000000,689.485948
3948.632384,-9474.636058,-666.185348,306.438199
3948.632714,-9622.677246,-814.226536,766.095498
3948.633044,-9474.636058,-370.102971,0.000000
3948.633374,-9400.615463,0.000000,-383.047749
3948.633704,-9178.553681,592.164754,-1302.362347
3948.634034,-8956.491898,740.205942,-1225.752797
3948.634363,-9622.677246,1110.308913,-995.924147
3948.634693,-10584.944971,888.247130,0.000000
3948.635023,-10584.944971,518.144159,1072.533697
3948.635353,-10362.883188,74.020594,1532.190996
3948.635683,-9474.636058,-962.267725,1149.143247
3948.636012,-9622.677246,-1184.329507,1838.629195
3948.636342,-9992.780217,-1110.308913,1455.581446
3948.636672,-9696.697840,-444.123565,689.485948
3948.637002,-9104.533087,-148.041188,-153.219100
3948.637332,-9252.574275,666.185348,-919.314598
3948.637662,-9770.718434,1332.370696,-1149.143247
3948.637991,-10214.842000,1406.391290,-995.924147
3948.638321,-9844.739029,962.267725,-1072.533697
3948.638651,-10066.800811,518.144159,0.000000
3948.638981,-10066.800811,-296.082377,0.000000
3948.639311,-9326.594869,-1036.288319,383.047749
3948.639641,-9326.594869,-1480.411884,612.876398
3948.639970,-9326.594869,-1628.453072,1378.971896
3948.640300,-9622.677246,-740.205942,1302.362347
3948.640630,-9918.759623,0.000000,766.095498
3948.640960,-9548.656652,296.082377,383.047749
3948.641290,-10066.800811,1406.391290,-306.438199
3948.641620,-10584.944971,1332.370696,-383.047749
3948.641949,-10955.047942,1332.370696,-459.657299
3948.642279,-10732.986159,666.185348,229.828649
3948.642609,-10140.821405,0.000000,-536.266849
3948.642939,-9400.615463,-962.267725,0.000000
3948.643269,-9178.553681,-1184.329507,229.828649
3948.643599,-9326.594869,-962.267725,-76.609550
3948.643928,-9252.574275,-666.185348,-612.876398
3948.644258,-8956.491898,0.000000,-383.047749
3948.644588,-9326.594869,592.164754,76.609550
3948.644918,-9992.780217,1036.288319,842.705048
3948.645248,-10584.944971,1036.288319,1072.533697
3948.645578,-11029.068536,1110.308913,766.095498
3948.645907,-11029.068536,296.082377,1225.752797
3948.646237,-10288.862594,-148.041188,612.876398
3948.646567,-9844.739029,-444.123565,459.657299
3948.646897,-9474.636058,-444.123565,459.657299
3948.647227,-9178.553681,-518.144159,153.219100
3948.647556,-9104.533087,0.000000,-536.266849
3948.647886,-8586.388927,518.144159,-1532.190996
3948.648216,-9030.512492,1036.288319,-1608.800546
3948.648546,-9548.656652,1406.391290,-306.438199
3948.648876,-10288.862594,962.267725,459.657299
3948.649206,-10584.944971,592.164754,1072.533697
3948.649535,-10288.862594,-148.041188,995.924147
3948.649865,-9770.718434,-666.185348,1225.752797
3948.650195,-9918.759623,-1258.350101,1455.581446
3948.650525,-10214.842000,-666.185348,1302.362347
3948.650855,-9992.780217,-222.061783,995.924147
3948.651185,-9104.533087,148.041188,153.219100
3948.651514,-9178.553681,444.123565,-919.314598
3948.651844,-9400.615463,666.185348,-842.705048
3948.652174,-9992.780217,1036.288319,-1149.143247
3948.652504,-10066.800811,888.247130,-766.095498
3948.652834,-9918.759623,518.144159,-229.828649
3948.653164,-9696.697840,-222.061783,229.828649
3948.653493,-9474.636058,-888.247130,842.705048
3948.653823,-9474.636058,-1332.370696,536.266849
3948.654153,-9400.615463,-888.247130,995.924147
3948.654483,-9548.656652,-962.267725,1225.752797
3948.654813,-9622.677246,-296.082377,919.314598
3948.655143,-9844.739029,888.247130,383.047749
3948.655472,-10214.842000,1480.411884,-459.657299
3948.655802,-10510.924376,1480.411884,-76.609550
3948.656132,-11029.068536,1036.288319,0.000000
3948.656462,-10584.944971,444.123565,0.000000
3948.656792,-10140.821405,444.123565,76.609550
3948.657121,-9252.574275,-1110.308913,306.438199
3948.657451,-9104.533087,-1036.288319,153.219100
3948.657781,-9474.636058,-888.247130,-306.438199
3948.658111,-9178.553681,-814.226536,-612.876398
3948.658441,-8956.491898,0.000000,-383.047749
3948.658771,-9400.615463,666.185348,0.000000
3948.659100,-10066.800811,1036.288319,1149.143247
3948.659430,-10510.924376,666.185348,1149.143247
3948.659760,-10881.027347,740.205942,1378.971896
3948.660090,-10732.986159,148.041188,995.924147
3948.660420,-10214.842000,-518.144159,612.876398
3948.660750,-9622.677246,-962.267725,459.657299
3948.661079,-9400.615463,-888.247130,612.876398
3948.661409,-9326.594869,-666.185348,153.219100
3948.661739,-9104.533087,0.000000,-689.485948
3948.662069,-8882.471304,814.226536,-1455.581446
3948.662399,-9400.615463,1184.329507,-1455.581446
3948.662729,-9992.780217,888.247130,-536.266849
3948.663058,-10214.842000,1258.350101,0.000000
3948.663388,-10362.883188,592.164754,766.095498
3948.663718,-9992.780217,0.000000,842.705048
3948.664048,-9844.739029,-296.082377,1225.752797
3948.664378,-10214.842000,-888.247130,1608.800546
3948.664708,-9918.759623,-962.267725,1532.190996
3948.665037,-9622.677246,-222.061783,612.876398
3948.665367,-9178.553681,148.041188,0.000000
3948.665697,-9548.656652,1036.288319,-612.876398
3948.666027,-9770.718434,1332.370696,-689.485948
3948.666357,-9992.780217,1332.370696,-1302.362347
3948.666687,-10140.821405,1110.308913,-766.095498
3948.667016,-9992.780217,370.102971,76.609550
3948.667346,-9696.697840,-444.123565,76.609550
3948.667676,-9474.636058,-962.267725,229.828649
3948.668006,-9104.533087,-1406.391290,459.657299
3948.668335,-9474.636058,-888.247130,1225.752797
3948.668665,-9622.677246,-962.267725,1225.752797
3948.668994,-9548.656652,0.000000,612.876398
3948.669324,-9918.759623,962.267725,383.047749
3948.669654,-10510.924376,1110.308913,306.438199
3948.669984,-10436.903782,1184.329507,0.000000
3948.670314,-10881.027347,1036.288319,229.828649
3948.670644,-10584.944971,370.102971,229.828649
3948.670974,-9622.677246,-444.123565,0.000000
3948.671304,-9252.574275,-1184.329507,0.000000
3948.671633,-9104.533087,-888.247130,153.219100
3948.671963,-9030.512492,-962.267725,-306.438199
3948.672293,-9178.553681,-444.123565,-536.266849
3948.672623,-9030.512492,0.000000,-766.095498
3948.672953,-9548.656652,666.185348,0.000000
3948.673283,-10214.842000,888.247130,383.047749
3948.673613,-10658.965565,740.205942,919.314598
3948.673943,-10881.027347,814.226536,1072.533697
3948.674272,-10510.924376,0.000000,1149.143247
3948.674602,-9992.780217,-814.226536,842.705048
3948.674932,-9548.656652,-1036.288319,536.266849
3948.675262,-9696.697840,-740.205942,1072.533697
3948.675592,-9474.636058,-518.144159,76.609550
3948.675922,-9474.636058,0.000000,-459.657299
3948.676252,-9104.533087,518.144159,-1302.362347
3948.676582,-9104.533087,814.226536,-1149.143247
3948.676911,-9770.718434,1258.350101,-536.266849
3948.677241,-10584.944971,814.226536,0.000000
3948.677571,-10436.903782,222.061783,536.266849
3948.677901,-9992.780217,-222.061783,919.314598
3948.678231,-9622.677246,-814.226536,1378.971896
3948.678561,-9844.739029,-1258.350101,1838.629195
3948.678891,-9622.677246,-888.247130,1532.190996
3948.679221,-9622.677246,-518.144159,612.876398
3948.679550,-8956.491898,74.020594,-76.609550
3948.679880,-9474.636058,666.185348,-842.705048
3948.680210,-9844.739029,1036.288319,-766.095498
3948.680540,-9918.759623,1036.288319,-766.095498
3948.680870,-9770.718434,666.185348,0.000000
3948.681200,-9474.636058,0.000000,306.438199
3948.681530,-9548.656652,-444.123565,306.438199
3948.681859,-8882.471304,-1036.288319,306.438199
3948.682189,-9104.533087,-1406.391290,612.876398
3948.682519,-9252.574275,-814.226536,1685.410096
3948.682849,-9548.656652,-444.123565,1302.362347
3948.683179,-9622.677246,444.123565,689.485948
3948.683509,-9548.656652,1036.288319,0.000000
3948.683839,-10288.862594,1332.370696,0.000000
3948.684169,-10584.944971,1480.411884,-153.219100
3948.684498,-10732.986159,1184.329507,153.219100
3948.684828,-10288.862594,296.082377,995.924147
3948.685158,-9770.718434,0.000000,1072.533697
3948.685488,-8956.491898,-1110.308913,76.609550
3948.685818,-9400.615463,-1036.288319,-153.219100
3948.686148,-9474.636058,-518.144159,-229.828649
3948.686478,-8956.491898,-592.164754,-689.485948
3948.686808,-9104.533087,148.041188,-383.047749
3948.687137,-9474.636058,814.226536,383.047749
3948.687467,-10066.800811,1184.329507,842.705048
3948.687797,-10510.924376,1036.288319,919.314598
3948.688127,-10807.006753,888.247130,842.705048
3948.688457,-10881.027347,148.041188,995.924147
3948.688787,-9918.759623,-814.226536,995.924147
3948.689117,-9548.656652,-592.164754,766.095498
3948.689447,-9400.615463,-518.144159,1072.533697
3948.689776,-9400.615463,-518.144159,0.000000
3948.690106,-9178.553681,0.000000,-1072.533697
3948.690436,-8882.471304,518.144159,-1608.800546
3948.690766,-9252.574275,888.247130,-1072.533697
3948.691096,-10066.800811,1036.288319,-383.047749
3948.691426,-10214.842000,740.205942,383.047749
3948.691756,-10288.862594,222.061783,842.705048
3948.692086,-9918.759623,-444.123565,689.485948
3948.692415,-9844.739029,-814.226536,842.705048
3948.692745,-9770.718434,-1110.308913,1532.190996
3948.693075,-9770.718434,-1036.288319,1225.752797
3948.693405,-9548.656652,-444.123565,842.705048
3948.693735,-9474.636058,444.123565,0.000000
3948.694065,-9474.636058,1110.308913,-919.314598
3948.694395,-9992.780217,1110.308913,-842.705048
3948.694725,-10288.862594,1110.308913,-1225.752797
3948.695054,-10214.842000,666.185348,-459.657299
3948.695384,-10214.842000,148.041188,153.219100
3948.695714,-9548.656652,-740.205942,383.047749
3948.696044,-9252.574275,-1258.350101,536.266849
3948.696374,-9474.636058,-1258.350101,689.485948
3948.696704,-9474.636058,-1184.329507,1072.533697
3948.697034,-9622.677246,-814.226536,1149.143247
3948.697364,-9548.656652,0.000000,766.095498
3948.697693,-9696.697840,888.247130,383.047749
3948.698023,-10732.986159,1702.473667,459.657299
3948.698353,-10584.944971,1184.329507,0.000000
3948.698683,-10510.924376,666.185348,229.828649
3948.699013,-10510.924376,148.041188,766.095498
3948.699343,-9696.697840,-444.123565,536.266849
3948.699673,-9326.594869,-1184.329507,536.266849
3948.700003,-9178.553681,-1036.288319,76.609550
3948.700332,-8956.491898,-888.247130,-306.438199
3948.700662,-9030.512492,-296.082377,-766.095498
3948.700992,-8882.471304,148.041188,-766.095498
3948.701322,-9474.636058,666.185348,0.000000
3948.701652,-10066.800811,1036.288319,766.095498
3948.701982,-10510.924376,888.247130,842.705048
3948.702312,-10881.027347,962.267725,1149.143247
3948.702642,-10732.986159,0.000000,459.657299
3948.702971,-9918.759623,-518.144159,0.000000
3948.703301,-9474.636058,-1258.350101,536.266849
3948.703631,-9844.739029,-666.185348,612.876398
3948.703961,-9326.594869,-444.123565,459.657299
3948.704291,-9030.512492,74.020594,-612.876398
3948.704621,-8882.471304,592.164754,-1302.362347
3948.704951,-9178.553681,1036.288319,-1225.752797
3948.705281,-10214.842000,888.247130,0.000000
3948.705610,-10584.944971,592.164754,766.095498
3948.705940,-10436.903782,74.020594,995.924147
3948.706270,-9918.759623,-518.144159,842.705048
3948.706600,-9696.697840,-1036.288319,919.314598
3948.706930,-9992.780217,-1184.329507,1072.533697
3948.707260,-9992.780217,-666.185348,1149.143247
3948.707590,-9548.656652,-370.102971,306.438199
3948.707920,-8956.491898,222.061783,-306.438199
3948.708249,-9548.656652,1036.288319,0.000000
3948.708579,-9918.759623,1258.350101,-689.485948
3948.708909,-10066.800811,1036.288319,-842.705048
3948.709239,-9992.780217,888.247130,-612.876398
3948.709569,-9992.780217,-148.041188,229.828649
3948.709899,-9548.656652,-592.164754,383.047749
3948.710229,-9252.574275,-1036.288319,766.095498
3948.710559,-9400.615463,-1332.370696,1072.533697
3948.710888,-9326.594869,-1036.288319,1378.971896
3948.711218,-9696.697840,-666.185348,766.095498
3948.711548,-9548.656652,296.082377,612.876398
3948.711878,-9548.656652,962.267725,459.657299
3948.712208,-9992.780217,1554.432478,0.000000
3948.712538,-10732.986159,1036.288319,76.609550
3948.712868,-10510.924376,518.144159,229.828649
3948.713198,-10214.842000,296.082377,306.438199
3948.713527,-9400.615463,-370.102971,612.876398
3948.713857,-9252.574275,-888.247130,229.828649
3948.714187,-9104.533087,-1184.329507,76.609550
3948.714517,-9178.553681,-740.205942,-459.657299
3948.714847,-9178.553681,-370.102971,-842.705048
3948.715177,-9252.574275,296.082377,-306.438199
3948.715507,-9622.677246,962.267725,76.609550
3948.715837,-10362.883188,962.267725,536.266849
3948.716166,-10881.027347,814.226536,536.266849
3948.716496,-11029.068536,592.164754,1149.143247
3948.716826,-10436.903782,0.000000,689.485948
3948.717156,-10066.800811,-444.123565,306.438199
3948.717486,-9548.656652,-1036.288319,459.657299
3948.717816,-9770.718434,-666.185348,612.876398
3948.718146,-9326.594869,-444.123565,0.000000
3948.718476,-9030.512492,0.000000,-459.657299
3948.718805,-9104.533087,814.226536,-1455.581446
3948.719135,-9696.697840,740.205942,-689.485948
3948.719465,-10510.924376,814.226536,-76.609550
3948.719795,-10288.862594,370.102971,766.095498
3948.720125,-10510.924376,0.000000,1378.971896
3948.720455,-9918.759623,-592.164754,1225.752797
3948.720785,-9696.697840,-888.247130,1302.362347
3948.721114,-9844.739029,-1406.391290,1762.019645
3948.721444,-9696.697840,-962.267725,1149.143247
3948.721774,-9400.615463,-370.102971,229.828649
3948.722104,-8956.491898,0.000000,-459.657299
3948.722434,-9326.594869,814.226536,-1072.533697
3948.722764,-9918.759623,1184.329507,-766.095498
3948.723094,-9918.759623,1036.288319,-1072.533697
3948.723424,-9844.739029,666.185348,229.828649
3948.723753,-9844.739029,74.020594,76.609550
3948.724083,-9474.636058,-370.102971,229.828649
3948.724413,-9474.636058,-888.247130,459.657299
3948.724743,-9474.636058,-1036.288319,995.924147
3948.725073,-9918.759623,-740.205942,1378.971896
3948.725403,-9622.677246,-222.061783,842.705048
3948.725733,-9696.697840,592.164754,229.828649
3948.726063,-9844.739029,1184.329507,0.000000
3948.726392,-10510.924376,1554.432478,0.000000
3948.726722,-11029.068536,1628.453072,0.000000
3948.727052,-10807.006753,1036.288319,76.609550
3948.727382,-10658.965565,592.164754,76.609550
3948.727712,-9622.677246,-148.041188,0.000000
3948.728042,-9400.615463,-666.185348,153.219100
3948.728372,-9252.574275,-666.185348,153.219100
3948.728702,-9252.574275,-370.102971,76.609550
3948.729031,-8956.491898,-148.041188,-689.485948
3948.729361,-9474.636058,814.226536,0.000000
3948.729691,-9696.697840,592.164754,612.876398
3948.730021,-10288.862594,1036.288319,919.314598
3948.730351,-10510.924376,962.267725,842.705048
3948.730681,-10584.944971,518.144159,1302.362347
3948.731011,-10362.883188,0.000000,766.095498
3948.731341,-9622.677246,-444.123565,536.266849
3948.731670,-9252.574275,-1036.288319,536.266849
3948.732000,-8660.409521,-444.123565,306.438199
3948.732330,-8882.471304,-518.144159,-306.438199
3948.732660,-8956.491898,148.041188,-1072.533697
3948.732990,-8660.409521,592.164754,-1149.143247
3948.733320,-9548.656652,740.205942,-1072.533697
3948.733650,-10214.842000,814.226536,0.000000
3948.733980,-10732.986159,518.144159,536.266849
3948.734309,-10362.883188,148.041188,919.314598
3948.734639,-9992.780217,-740.205942,1149.143247
3948.734969,-9696.697840,-1110.308913,1685.410096
3948.735299,-9992.780217,-1332.370696,1149.143247
3948.735629,-10214.842000,-444.123565,842.705048
3948.735959,-9548.656652,-296.082377,-153.219100
3948.736289,-9770.718434,592.164754,-766.095498
3948.736619,-9770.718434,1036.288319,-842.705048
3948.736948,-10214.842000,1184.329507,-766.095498
3948.737278,-10214.842000,1036.288319,-612.876398
3948.737608,-10214.842000,592.164754,-306.438199
3948.737938,-10288.862594,0.000000,306.438199
3948.738268,-9770.718434,-740.205942,766.095498
3948.738598,-9474.636058,-1480.411884,919.314598
3948.738928,-9696.697840,-1110.308913,842.705048
3948.739258,-9622.677246,-1184.329507,1608.800546
3948.739587,-9696.697840,-814.226536,1072.533697
3948.739917,-9474.636058,296.082377,153.219100
3948.740247,-9844.739029,740.205942,612.876398
3948.740577,-10214.842000,814.226536,306.438199
3948.740907,-10510.924376,1036.288319,459.657299
3948.741237,-10584.944971,518.144159,536.266849
3948.741567,-9992.780217,0.000000,306.438199
3948.741897,-9474.636058,-888.247130,383.047749
3948.742226,-9030.512492,-1258.350101,306.438199
3948.742556,-9178.553681,-740.205942,76.609550
3948.742886,-8882.471304,-888.247130,153.219100
3948.743216,-8808.450710,-444.123565,-383.047749
3948.743546,-9104.533087,370.102971,-153.219100
3948.743876,-9844.739029,814.226536,229.828649
3948.744206,-10362.883188,1110.308913,612.876398
3948.744536,-10658.965565,740.205942,842.705048
3948.744865,-10214.842000,0.000000,1072.533697
3948.745195,-9918.759623,-222.061783,306.438199
3948.745525,-9918.759623,-666.185348,229.828649
3948.745855,-9696.697840,-962.267725,0.000000
3948.746185,-9474.636058,-148.041188,0.000000
3948.746515,-9400.615463,-296.082377,-383.047749
3948.746845,-8956.491898,222.061783,-766.095498
3948.747175,-9326.594869,888.247130,-766.095498
3948.747504,-9548.656652,1110.308913,-919.314598
3948.747834,-10436.903782,1184.329507,-153.219100
3948.748164,-10658.965565,888.247130,919.314598
3948.748494,-10362.883188,370.102971,1225.752797
3948.748824,-10288.862594,-592.164754,1302.362347
3948.749154,-9918.759623,-518.144159,995.924147
3948.749484,-10140.821405,-888.247130,1532.190996
3948.749814,-9918.759623,-370.102971,689.485948
3948.750143,-9548.656652,148.041188,-76.609550
3948.750473,-9178.553681,666.185348,-766.095498
3948.750803,-9622.677246,1406.391290,-842.705048
3948.751133,-9844.739029,1258.350101,-766.095498
3948.751463,-9918.759623,1406.391290,-919.314598
3948.751793,-10066.800811,592.164754,-306.438199
3948.752123,-9844.739029,-222.061783,153.219100
3948.752453,-9400.615463,-666.185348,842.705048
3948.752782,-9252.574275,-1332.370696,689.485948
3948.753112,-9474.636058,-814.226536,1608.800546
3948.753442,-9474.636058,-444.123565,1455.581446
3948.753772,-9548.656652,0.000000,459.657299
3948.754102,-9474.636058,518.144159,0.000000
3948.754432,-10066.800811,1184.329507,0.000000
3948.754762,-10066.800811,1110.308913,153.219100
3948.755092,-10510.924376,1332.370696,76.609550
3948.755421,-10066.800811,592.164754,0.000000
3948.755751,-9622.677246,0.000000,76.609550
3948.756081,-9030.512492,-370.102971,153.219100
3948.756411,-9030.512492,-1036.288319,0.000000
3948.756741,-9252.574275,-592.164754,229.828649
3948.757071,-9178.553681,-222.061783,-383.047749
3948.757401,-9178.553681,222.061783,-383.047749
3948.757731,-9474.636058,740.205942,-229.828649
3948.758060,-10288.862594,1036.288319,689.485948
3948.758390,-10807.006753,962.267725,1072.533697
3948.758720,-10732.986159,888.247130,1608.800546
3948.759050,-10658.965565,370.102971,1149.143247
3948.759380,-9844.739029,0.000000,383.047749
3948.759710,-9548.656652,-592.164754,306.438199
3948.760040,-9696.697840,-814.226536,153.219100
3948.760369,-9400.615463,-592.164754,76.609550
3948.760699,-9104.533087,-148.041188,-229.828649
3948.761029,-8956.491898,148.041188,-1072.533697
3948.761359,-9252.574275,888.247130,-995.924147
3948.761689,-9696.697840,814.226536,-536.266849
3948.762019,-10214.842000,518.144159,229.828649
3948.762349,-10362.883188,0.000000,1149.143247
3948.762679,-9844.739029,-740.205942,1532.190996
3948.763008,-9548.656652,-1184.329507,1378.971896
3948.763338,-9622.677246,-1258.350101,1532.190996
3948.763668,-9844.739029,-1036.288319,1302.362347
3948.763998,-10066.800811,-666.185348,766.095498
3948.764328,-9400.615463,-370.102971,-229.828649
3948.764658,-9178.553681,296.082377,-306.438199
3948.764988,-9252.574275,740.205942,-612.876398
3948.765318,-9992.780217,1036.288319,-766.095498
3948.765647,-10066.800811,814.226536,-536.266849
3948.765977,-10288.862594,148.041188,842.705048
3948.766307,-9770.718434,-518.144159,306.438199
3948.766637,-9178.553681,-1258.350101,459.657299
3948.766967,-9030.512492,-1628.453072,919.314598
3948.767297,-9474.636058,-1036.288319,1302.362347
3948.767627,-9548.656652,-888.247130,919.314598
3948.767957,-9844.739029,-370.102971,766.095498
3948.768286,-9918.759623,666.185348,0.000000
3948.768616,-10288.862594,1110.308913,-229.828649
3948.768946,-10955.047942,1702.473667,-306.438199
3948.769276,-10732.986159,1110.308913,0.000000
3948.769606,-10807.006753,518.144159,76.609550
3948.769936,-9918.759623,-518.144159,153.219100
3948.770266,-9030.512492,-962.267725,0.000000
3948.770596,-9178.553681,-1036.288319,306.438199
3948.770925,-9252.574275,-666.185348,153.219100
3948.771255,-9326.594869,-592.164754,0.000000
3948.771585,-9326.594869,370.102971,-306.438199
3948.771915,-9474.636058,666.185348,153.219100
3948.772245,-9918.759623,740.205942,689.485948
3948.772575,-10436.903782,814.226536,383.047749
3948.772904,-10881.027347,592.164754,919.314598
3948.773234,-10584.944971,148.041188,1149.143247
3948.773564,-9992.780217,-370.102971,536.266849
3948.773894,-9326.594869,-1110.308913,153.219100
3948.774224,-9104.533087,-1036.288319,229.828649
3948.774554,-8882.471304,-444.123565,306.438199
3948.774884,-8808.450710,-222.061783,-383.047749
3948.775213,-8734.430116,370.102971,-1225.752797
3948.775543,-8956.491898,962.267725,-1532.190996
3948.775873,-9770.718434,1110.308913,-306.438199
3948.776203,-10214.842000,1036.288319,0.000000
3948.776533,-10658.965565,592.164754,1149.143247
3948.776863,-10066.800811,0.000000,1149.143247
3948.777192,-9918.759623,-518.144159,1302.362347
3948.777522,-9992.780217,-666.185348,1302.362347
3948.777852,-10140.821405,-592.164754,1302.362347
3948.778182,-9844.739029,-370.102971,153.219100
3948.778512,-9548.656652,296.082377,0.000000
3948.778842,-9400.615463,814.226536,-1225.752797
3948.779171,-9696.697840,1628.453072,-612.876398
3948.779501,-9992.780217,1184.329507,-766.095498
3948.779831,-10510.924376,1554.432478,-842.705048
3948.780161,-10066.800811,518.144159,383.047749
3948.780491,-10066.800811,0.000000,76.609550
3948.780821,-9474.636058,-592.164754,536.266849
3948.781151,-9548.656652,-1184.329507,995.924147
3948.781480,-9474.636058,-1184.329507,1149.143247
3948.781810,-9474.636058,-592.164754,842.705048
3948.782140,-9474.636058,0.000000,612.876398
3948.782470,-9622.677246,1036.288319,536.266849
3948.782800,-10066.800811,1406.391290,612.876398
3948.783130,-10362.883188,1554.432478,0.000000
3948.783459,-10584.944971,814.226536,0.000000
3948.783789,-10658.965565,444.123565,459.657299
3948.784119,-9548.656652,-518.144159,76.609550
3948.784449,-8882.471304,-592.164754,536.266849
3948.784779,-8882.471304,-1184.329507,459.657299
3948.785109,-9104.533087,-888.247130,0.000000
3948.785439,-8882.471304,-592.164754,0.000000
3948.785768,-9030.512492,222.061783,-383.047749
3948.786098,-9326.594869,518.144159,76.609550
3948.786428,-9548.656652,888.247130,612.876398
3948.786758,-10362.883188,814.226536,919.314598
3948.787088,-10584.944971,592.164754,1072.533697
3948.787418,-10955.047942,222.061783,536.266849
3948.787747,-10214.842000,-148.041188,383.047749
3948.788077,-9622.677246,-518.144159,0.000000
3948.788407,-9548.656652,-592.164754,536.266849
3948.788737,-9548.656652,-444.123565,153.219100
3948.789067,-9474.636058,0.000000,-459.657299
3948.789397,-9030.512492,296.082377,-1378.971896
3948.789726,-9474.636058,814.226536,-1302.362347
3948.790056,-9918.759623,1184.329507,-1302.362347
3948.790386,-10362.883188,1036.288319,76.609550
3948.790716,-10658.965565,370.102971,919.314598
3948.791046,-10362.883188,0.000000,1455.581446
3948.791376,-9918.759623,-888.247130,1302.362347
3948.791706,-10436.903782,-962.267725,1149.143247
3948.792035,-10214.842000,-888.247130,1072.533697
3948.792365,-10214.842000,-592.164754,536.266849
3948.792695,-9326.594869,0.000000,76.609550
3948.793025,-8956.491898,814.226536,-536.266849
3948.793355,-9548.656652,888.247130,-536.266849
3948.793685,-9844.739029,888.247130,-919.314598
3948.794014,-9992.780217,666.185348,-766.095498
3948.794344,-9474.636058,0.000000,-229.828649
3948.794674,-9474.636058,-814.226536,842.705048
3948.795004,-9252.574275,-1406.391290,919.314598
3948.795334,-9104.533087,-1998.556043,1378.971896
3948.795664,-9474.636058,-1258.350101,1608.800546
3948.795993,-9474.636058,-1110.308913,1302.362347
3948.796323,-9622.677246,-296.082377,689.485948
3948.796653,-9696.697840,888.247130,459.657299
3948.796983,-10066.800811,814.226536,0.000000
3948.797313,-10140.821405,1036.288319,0.000000
3948.797643,-10510.924376,592.164754,0.000000
3948.797973,-10288.862594,444.123565,153.219100
3948.798302,-9696.697840,-518.144159,76.609550
3948.798632,-9400.615463,-814.226536,-306.438199
3948.798962,-9104.533087,-1184.329507,153.219100
3948.799292,-9400.615463,-666.185348,306.438199
3948.799622,-9178.553681,-740.205942,-76.609550
3948.799952,-9030.512492,296.082377,-919.314598
3948.800281,-9474.636058,740.205942,0.000000
3948.800611,-10362.883188,962.267725,689.485948
3948.800941,-10732.986159,962.267725,1225.752797
3948.801271,-11103.089130,814.226536,1072.533697
3948.801601,-10732.986159,370.102971,612.876398
3948.801931,-10066.800811,-148.041188,229.828649
3948.802261,-9622.677246,-592.164754,0.000000
3948.802590,-9696.697840,-444.123565,0.000000
3948.802920,-9400.615463,0.000000,-459.657299
3948.803250,-9326.594869,222.061783,-459.657299
3948.803580,-9178.553681,666.185348,-995.924147
3948.803910,-9400.615463,1036.288319,-689.485948
3948.804240,-9548.656652,1258.350101,-995.924147
3948.804569,-10214.842000,814.226536,459.657299
3948.804899,-10436.903782,296.082377,1072.533697
3948.805229,-10140.821405,-370.102971,1302.362347
3948.805559,-9918.759623,-592.164754,1608.800546
3948.805889,-10288.862594,-740.205942,1838.629195
3948.806219,-10288.862594,-444.123565,1532.190996
3948.806548,-9622.677246,-370.102971,306.438199
3948.806878,-8956.491898,296.082377,-459.657299
3948.807208,-8808.450710,1184.329507,-995.924147
3948.807538,-9622.677246,1184.329507,-919.314598
3948.807868,-9844.739029,1480.411884,-1072.533697
3948.808198,-10140.821405,814.226536,-689.485948
3948.808528,-9696.697840,370.102971,-689.485948
3948.808857,-9252.574275,-444.123565,76.609550
3948.809187,-9178.553681,-814.226536,536.266849
3948.809517,-9474.636058,-962.267725,536.266849
3948.809847,-9326.594869,-1036.288319,1225.752797
3948.810177,-9252.574275,-444.123565,995.924147
3948.810507,-9770.718434,370.102971,76.609550
3948.810836,-9918.759623,1110.308913,-153.219100
3948.811166,-10436.903782,1406.391290,-459.657299
3948.811496,-10658.965565,1554.432478,0.000000
3948.811826,-10584.944971,962.267725,76.609550
3948.812156,-10066.800811,370.102971,229.828649
3948.812486,-9548.656652,-444.123565,0.000000
3948.812815,-8808.450710,-1258.350101,-766.095498
3948.813145,-9178.553681,-1258.350101,-229.828649
3948.813475,-9252.574275,-814.226536,-153.219100
3948.813805,-8956.491898,-592.164754,-383.047749
3948.814135,-8956.491898,296.082377,-306.438199
3948.814465,-9622.677246,444.123565,383.047749
3948.814795,-10214.842000,740.205942,689.485948
3948.815124,-10658.965565,666.185348,995.924147
3948.815454,-10881.027347,148.041188,995.924147
3948.815784,-10881.027347,-148.041188,1225.752797
3948.816114,-9622.677246,-1036.288319,919.314598
3948.816444,-9474.636058,-1480.411884,383.047749
3948.816774,-9178.553681,-962.267725,536.266849
3948.817103,-8956.491898,-666.185348,153.219100
3948.817433,-9104.533087,-370.102971,-842.705048
3948.817763,-9178.553681,592.164754,-1302.362347
3948.818093,-9548.656652,666.185348,-459.657299
3948.818423,-10066.800811,888.247130,459.657299
3948.818753,-10658.965565,888.247130,919.314598
3948.819083,-10362.883188,0.000000,842.705048
3948.819412,-10066.800811,-740.205942,1072.533697
3948.819742,-10066.800811,-888.247130,1532.190996
3948.820072,-10288.862594,-1036.288319,1685.410096
3948.820402,-9918.759623,-518.144159,1072.533697
3948.820732,-9474.636058,-518.144159,383.047749
3948.821062,-9252.574275,592.164754,-306.438199
3948.821391,-9770.718434,1406.391290,-842.705048
3948.821721,-9992.780217,1036.288319,-919.314598
3948.822051,-10140.821405,1332.370696,-1072.533697
3948.822381,-10288.862594,814.226536,-766.095498
3948.822711,-9622.677246,370.102971,76.609550
3948.823041,-9696.697840,-444.123565,76.609550
3948.823370,-9326.594869,-1406.391290,842.705048
3948.823700,-9400.615463,-1258.350101,766.095498
3948.824030,-9474.636058,-888.247130,1072.533697
3948.824360,-9474.636058,-296.082377,1225.752797
3948.824690,-9548.656652,592.164754,459.657299
3948.825020,-9770.718434,740.205942,612.876398
3948.825350,-10362.883188,1406.391290,0.000000
3948.825679,-10732.986159,1332.370696,-306.438199
3948.826009,-10288.862594,592.164754,306.438199
3948.826339,-10140.821405,444.123565,306.438199
3948.826669,-9770.718434,0.000000,459.657299
3948.826999,-9104.533087,-740.205942,612.876398
3948.827329,-9178.553681,-814.226536,383.047749
3948.827658,-9400.615463,-666.185348,0.000000
3948.827988,-8808.450710,-370.102971,-459.657299
3948.828318,-8808.450710,592.164754,-306.438199
3948.828648,-9548.656652,888.247130,0.000000
3948.828978,-10140.821405,1110.308913,689.485948
3948.829308,-10807.006753,1110.308913,919.314598
3948.829638,-10732.986159,370.102971,1072.533697
3948.829967,-10288.862594,0.000000,612.876398
3948.830297,-9622.677246,-666.185348,459.657299
3948.830627,-9474.636058,-1036.288319,383.047749
3948.830957,-9474.636058,-666.185348,536.266849
3948.831287,-9252.574275,-74.020594,0.000000
3948.831617,-9474.636058,296.082377,-1149.143247
3948.831946,-9400.615463,962.267725,-1455.581446
3948.832276,-9548.656652,962.267725,-1072.533697
3948.832606,-9770.718434,1480.411884,-383.047749
3948.832936,-10288.862594,814.226536,383.047749
3948.833266,-10436.903782,74.020594,1072.533697
3948.833596,-10362.883188,-222.061783,919.314598
3948.833925,-10362.883188,-814.226536,995.924147
3948.834255,-9918.759623,-888.247130,1225.752797
3948.834585,-9992.780217,-518.144159,919.314598
3948.834915,-9548.656652,-518.144159,0.000000
3948.835245,-9474.636058,222.061783,-612.876398
3948.835575,-9178.553681,1036.288319,-919.314598
3948.835905,-9992.780217,1406.391290,-612.876398
3948.836234,-10214.842000,1480.411884,-1072.533697
3948.836564,-10066.800811,888.247130,-689.485948
3948.836894,-9918.759623,444.123565,0.000000
3948.837224,-9622.677246,-592.164754,612.876398
3948.837554,-9178.553681,-1406.391290,919.314598
3948.837884,-9326.594869,-1406.391290,1225.752797
3948.838213,-9474.636058,-1036.288319,1378.971896
3948.838543,-9400.615463,-814.226536,1225.752797
3948.838873,-9622.677246,370.102971,612.876398
3948.839203,-10066.800811,1184.329507,0.000000
3948.839533,-10510.924376,1184.329507,0.000000
3948.839863,-10807.006753,1036.288319,383.047749
3948.840192,-10732.986159,962.267725,383.047749
3948.840522,-10362.883188,222.061783,76.609550
3948.840852,-9548.656652,-666.185348,306.438199
3948.841182,-9474.636058,-814.226536,536.266849
3948.841512,-9474.636058,-592.164754,383.047749
3948.841842,-9326.594869,-518.144159,-383.047749
3948.842172,-9178.553681,-222.061783,-536.266849
3948.842501,-8956.491898,518.144159,76.609550
3948.842831,-9252.574275,666.185348,229.828649
3948.843161,-9696.697840,814.226536,536.266849
3948.843491,-10436.903782,1036.288319,1149.143247
3948.843821,-10807.006753,592.164754,1455.581446
3948.844151,-10362.883188,-222.061783,766.095498
3948.844480,-9992.780217,-740.205942,306.438199
3948.844810,-9252.574275,-814.226536,229.828649
3948.845140,-9252.574275,-740.205942,459.657299
3948.845470,-9474.636058,-148.041188,76.609550
3948.845800,-9104.533087,222.061783,-995.924147
3948.846130,-9326.594869,888.247130,-1455.581446
3948.846460,-9400.615463,740.205942,-919.314598
3948.846789,-10288.862594,1258.350101,0.000000
3948.847119,-10140.821405,666.185348,536.266849
3948.847449,-10066.800811,148.041188,919.314598
3948.847779,-9918.759623,-592.164754,842.705048
3948.848109,-10140.821405,-1036.288319,1455.581446
3948.848439,-10436.903782,-814.226536,1378.971896
3948.848768,-10140.821405,-666.185348,1302.362347
3948.849098,-9844.739029,-222.061783,612.876398
3948.849428,-9474.636058,444.123565,-306.438199
3948.849758,-9622.677246,1184.329507,-842.705048
3948.850088,-9844.739029,1110.308913,-842.705048
3948.850418,-10140.821405,1184.329507,-995.924147
3948.850747,-10140.821405,370.102971,-153.219100
3948.851077,-9696.697840,-296.082377,0.000000
3948.851407,-9400.615463,-814.226536,459.657299
3948.851737,-9474.636058,-1332.370696,536.266849
3948.852067,-9622.677246,-1258.350101,1225.752797
3948.852397,-9474.636058,-1554.432478,1225.752797
3948.852727,-9474.636058,-592.164754,995.924147
3948.853056,-9326.594869,0.000000,766.095498
3948.853386,-9844.739029,740.205942,842.705048
3948.853716,-10288.862594,888.247130,306.438199
3948.854046,-10732.986159,1110.308913,153.219100
3948.854376,-10881.027347,518.144159,383.047749
3948.854706,-10362.883188,-148.041188,229.828649
3948.855035,-9474.636058,-592.164754,0.000000
3948.855365,-8956.491898,-1332.370696,0.000000
3948.855695,-9178.553681,-740.205942,0.000000
3948.856025,-9326.594869,-518.144159,-612.876398
3948.856355,-8882.471304,-148.041188,-459.657299
3948.856685,-9252.574275,222.061783,-766.095498
3948.857014,-9770.718434,666.185348,0.000000
3948.857344,-10510.924376,1184.329507,383.047749
3948.857674,-10955.047942,962.267725,919.314598
3948.858004,-10510.924376,222.061783,1149.143247
3948.858334,-9918.759623,-370.102971,612.876398
3948.858664,-9474.636058,-740.205942,612.876398
3948.858994,-9474.636058,-888.247130,766.095498
3948.859323,-9548.656652,-592.164754,689.485948
3948.859653,-9474.636058,148.041188,-306.438199
3948.859983,-9252.574275,444.123565,-766.095498
3948.860313,-9326.594869,962.267725,-1225.752797
3948.860643,-9844.739029,1110.308913,-995.924147
3948.860973,-9992.780217,1258.350101,-995.924147
3948.861302,-10436.903782,814.226536,689.485948
3948.861632,-10436.903782,296.082377,1149.143247
3948.861962,-9622.677246,-518.144159,766.095498
