#time,accel_x,accel_y,accel_z
4051.106534,-10807.006753,222.061783,766.095498
4051.106864,-11029.068536,-370.102971,229.828649
4051.107194,-9770.718434,-1184.329507,1225.752797
4051.107524,-8586.388927,-1924.535449,2604.724693
4051.107853,-7772.162391,-1702.473667,3294.210641
4051.108183,-8068.244768,-1628.453072,2834.553343
4051.108513,-8586.388927,-1628.453072,1455.581446
4051.108843,-9252.574275,-370.102971,459.657299
4051.109173,-10436.903782,296.082377,995.924147
4051.109502,-11103.089130,666.185348,1455.581446
4051.109832,-10362.883188,1184.329507,1685.410096
4051.110162,-9992.780217,814.226536,766.095498
4051.110492,-9548.656652,-296.082377,842.705048
4051.110822,-11473.192101,-74.020594,1149.143247
4051.111151,-11029.068536,-592.164754,2374.896044
4051.111481,-9548.656652,-740.205942,2298.286494
4051.111811,-8512.368333,-740.205942,1455.581446
4051.112141,-8438.347739,-518.144159,689.485948
4051.112471,-9548.656652,0.000000,689.485948
4051.112800,-10288.862594,0.000000,1225.752797
4051.113130,-10288.862594,296.082377,1838.629195
4051.113460,-10066.800811,74.020594,2528.115143
4051.113790,-10658.965565,-592.164754,2911.162892
4051.114120,-10955.047942,-1406.391290,3370.820191
4051.114449,-10732.986159,-2220.617826,3370.820191
4051.114779,-9918.759623,-2590.720797,3217.601092
4051.115109,-10066.800811,-2664.741391,4136.915689
4051.115439,-9770.718434,-2368.659014,4443.353888
4051.115769,-9548.656652,-2220.617826,4060.306139
4051.116098,-9696.697840,-1258.350101,2604.724693
4051.116428,-9844.739029,-1406.391290,153.219100
4051.116758,-10066.800811,-1258.350101,-306.438199
4051.117088,-8586.388927,-1776.494261,2298.286494
4051.117418,-9844.739029,-2220.617826,3064.381992
4051.117747,-9326.594869,-2812.782580,4290.134789
4051.118077,-7920.203579,-4737.318029,3983.696590
4051.118407,-9400.615463,-5625.565159,3217.601092
4051.118737,-9030.512492,-5551.544565,3753.867940
4051.119067,-9030.512492,-5329.482782,3907.087040
4051.119396,-8882.471304,-3997.112087,4596.572988
4051.119726,-8956.491898,-3034.844362,3907.087040
4051.120056,-9696.697840,-2516.700203,2757.943793
4051.120386,-10807.006753,-1998.556043,995.924147
4051.120716,-11473.192101,-2220.617826,306.438199
4051.121045,-11621.233289,-2442.679609,766.095498
4051.121375,-9992.780217,-3330.926739,1378.971896
4051.121705,-9548.656652,-4737.318029,2681.334243
4051.122035,-9104.533087,-5255.462188,3677.258390
4051.122365,-9474.636058,-5995.668130,4596.572988
4051.122694,-9400.615463,-5329.482782,4519.963438
4051.123024,-9030.512492,-4959.379811,3753.867940
4051.123354,-9696.697840,-4515.256246,4903.011187
4051.123684,-11029.068536,-3330.926739,4979.620737
4051.124014,-11843.295072,-2442.679609,4749.792088
4051.124343,-11399.171507,-2368.659014,3217.601092
4051.124673,-10140.821405,-2960.823768,229.828649
4051.125003,-9622.677246,-3108.864956,-766.095498
4051.125333,-9548.656652,-3701.029710,0.000000
4051.125663,-9326.594869,-4145.153275,1762.019645
4051.125992,-8808.450710,-4663.297435,2604.724693
4051.126322,-8142.265362,-4811.338623,3983.696590
4051.126652,-8734.430116,-4885.359217,3524.039291
4051.126982,-9474.636058,-4145.153275,3753.867940
4051.127312,-9770.718434,-3775.050304,3294.210641
4051.127641,-9474.636058,-2664.741391,3370.820191
4051.127971,-9844.739029,-1776.494261,3140.991542
4051.128301,-10510.924376,-666.185348,3294.210641
4051.128631,-10658.965565,-592.164754,2987.772442
4051.128961,-10288.862594,-1184.329507,1378.971896
4051.129290,-10214.842000,-1406.391290,459.657299
4051.129620,-9622.677246,-1924.535449,-229.828649
4051.129950,-8882.471304,-2442.679609,153.219100
4051.130280,-8290.306550,-2072.576638,1302.362347
4051.130610,-7698.141797,-2146.597232,1685.410096
4051.130940,-8882.471304,-1480.411884,2221.676944
4051.131269,-9770.718434,-740.205942,2221.676944
4051.131599,-10955.047942,370.102971,2298.286494
4051.131929,-11177.109724,1036.288319,1991.848295
4051.132259,-11843.295072,1184.329507,1915.238745
4051.132589,-11843.295072,1406.391290,1225.752797
4051.132918,-11177.109724,1036.288319,1149.143247
4051.133248,-10732.986159,222.061783,1915.238745
4051.133578,-9918.759623,0.000000,1455.581446
4051.133908,-8438.347739,-148.041188,0.000000
4051.134238,-7846.182985,-518.144159,-1455.581446
4051.134567,-8660.409521,74.020594,-1915.238745
4051.134897,-8956.491898,592.164754,0.000000
4051.135227,-8808.450710,74.020594,1302.362347
4051.135557,-8808.450710,740.205942,2145.067394
4051.135887,-9844.739029,1628.453072,1762.019645
4051.136217,-11103.089130,1776.494261,1532.190996
4051.136546,-11843.295072,1628.453072,919.314598
4051.136876,-11843.295072,1480.411884,536.266849
4051.137206,-11843.295072,814.226536,1455.581446
4051.137536,-10881.027347,444.123565,1149.143247
4051.137866,-9400.615463,0.000000,76.609550
4051.138195,-7328.038826,74.020594,-2221.676944
4051.138525,-6439.791695,74.020594,-3600.648841
4051.138855,-7846.182985,888.247130,-2911.162892
4051.139185,-8586.388927,1110.308913,-1149.143247
4051.139515,-10510.924376,1924.535449,383.047749
4051.139845,-10807.006753,1628.453072,229.828649
4051.140174,-10955.047942,962.267725,-153.219100
4051.140504,-11473.192101,296.082377,-766.095498
4051.140834,-10510.924376,0.000000,842.705048
4051.141164,-10510.924376,-518.144159,2757.943793
4051.141494,-9770.718434,-74.020594,2987.772442
4051.141823,-8882.471304,-296.082377,2068.457845
4051.142153,-8068.244768,296.082377,0.000000
4051.142483,-8586.388927,148.041188,-1685.410096
4051.142813,-9844.739029,666.185348,-1532.190996
4051.143143,-10658.965565,1036.288319,-536.266849
4051.143472,-9770.718434,666.185348,0.000000
4051.143802,-9252.574275,370.102971,-536.266849
4051.144132,-9992.780217,-148.041188,-536.266849
4051.144462,-10807.006753,0.000000,-766.095498
4051.144792,-11547.212695,-666.185348,0.000000
4051.145122,-10066.800811,-740.205942,1302.362347
4051.145451,-8734.430116,-814.226536,1608.800546
4051.145781,-8216.285956,-814.226536,1608.800546
4051.146111,-9178.553681,-296.082377,842.705048
4051.146441,-9844.739029,0.000000,0.000000
4051.146771,-10362.883188,-222.061783,-766.095498
4051.147100,-10584.944971,-148.041188,0.000000
4051.147430,-9326.594869,-518.144159,-306.438199
4051.147760,-9474.636058,-518.144159,76.609550
4051.148090,-10140.821405,-1184.329507,536.266849
4051.148420,-9696.697840,-1480.411884,383.047749
4051.148750,-9400.615463,-1480.411884,0.000000
4051.149079,-8660.409521,-1406.391290,995.924147
4051.149409,-8734.430116,-1480.411884,1608.800546
4051.149739,-9844.739029,-592.164754,1838.629195
4051.150069,-10214.842000,0.000000,842.705048
4051.150399,-10362.883188,74.020594,0.000000
4051.150728,-10955.047942,74.020594,-76.609550
4051.151058,-9992.780217,0.000000,153.219100
4051.151388,-9992.780217,-148.041188,689.485948
4051.151718,-10140.821405,-592.164754,995.924147
4051.152048,-10288.862594,-592.164754,842.705048
4051.152377,-9918.759623,-888.247130,766.095498
4051.152707,-9178.553681,-888.247130,-229.828649
4051.153037,-8882.471304,-814.226536,153.219100
4051.153367,-9622.677246,-74.020594,1072.533697
4051.153697,-10288.862594,370.102971,536.266849
4051.154027,-10288.862594,814.226536,689.485948
4051.154356,-10214.842000,1036.288319,766.095498
4051.154686,-10214.842000,592.164754,306.438199
4051.155016,-10214.842000,148.041188,612.876398
4051.155346,-10288.862594,0.000000,1072.533697
4051.155676,-9548.656652,-740.205942,1378.971896
4051.156005,-9104.533087,-444.123565,919.314598
4051.156335,-8808.450710,-666.185348,0.000000
4051.156665,-8290.306550,-148.041188,-153.219100
4051.156995,-8586.388927,222.061783,0.000000
4051.157325,-9474.636058,888.247130,-229.828649
4051.157655,-10510.924376,1036.288319,229.828649
4051.157984,-10732.986159,1554.432478,689.485948
4051.158314,-10140.821405,1110.308913,153.219100
4051.158644,-9696.697840,592.164754,306.438199
4051.158974,-10658.965565,370.102971,76.609550
4051.159304,-10066.800811,148.041188,0.000000
4051.159633,-8586.388927,296.082377,76.609550
4051.159963,-8438.347739,0.000000,-383.047749
4051.160293,-8734.430116,444.123565,-383.047749
4051.160623,-9400.615463,1036.288319,-766.095498
4051.160953,-10288.862594,1184.329507,-1302.362347
4051.161282,-9844.739029,1184.329507,-919.314598
4051.161612,-9992.780217,1184.329507,0.000000
4051.161942,-9992.780217,962.267725,153.219100
4051.162272,-10140.821405,592.164754,766.095498
4051.162602,-10658.965565,814.226536,766.095498
4051.162932,-10288.862594,592.164754,689.485948
4051.163261,-9622.677246,444.123565,229.828649
4051.163591,-9474.636058,370.102971,-536.266849
4051.163921,-9326.594869,0.000000,-766.095498
4051.164251,-9844.739029,444.123565,0.000000
4051.164581,-9622.677246,888.247130,-1072.533697
4051.164910,-9178.553681,518.144159,-1378.971896
4051.165240,-8734.430116,592.164754,-1532.190996
4051.165570,-9252.574275,370.102971,-1225.752797
4051.165900,-10214.842000,444.123565,0.000000
4051.166230,-10807.006753,222.061783,1072.533697
4051.166560,-10732.986159,0.000000,1455.581446
4051.166889,-10140.821405,0.000000,1685.410096
4051.167219,-9178.553681,-296.082377,612.876398
4051.167549,-8808.450710,-296.082377,153.219100
4051.167879,-8808.450710,0.000000,-229.828649
4051.168209,-9696.697840,592.164754,-383.047749
4051.168538,-10288.862594,740.205942,229.828649
4051.168868,-10214.842000,1110.308913,-383.047749
4051.169198,-10066.800811,814.226536,-919.314598
4051.169528,-10066.800811,148.041188,0.000000
4051.169858,-10658.965565,74.020594,689.485948
4051.170188,-10288.862594,-148.041188,689.485948
4051.170517,-9844.739029,-148.041188,842.705048
4051.170847,-9918.759623,0.000000,1149.143247
4051.171177,-9696.697840,-148.041188,689.485948
4051.171507,-9992.780217,-74.020594,383.047749
4051.171837,-9770.718434,0.000000,-76.609550
4051.172166,-9326.594869,0.000000,76.609550
4051.172496,-9918.759623,74.020594,919.314598
4051.172826,-9844.739029,444.123565,1302.362347
4051.173156,-9844.739029,0.000000,919.314598
4051.173486,-10658.965565,0.000000,919.314598
4051.173815,-10658.965565,0.000000,536.266849
4051.174145,-10436.903782,-222.061783,536.266849
4051.174475,-9696.697840,0.000000,0.000000
4051.174805,-9252.574275,-444.123565,459.657299
4051.175135,-9770.718434,-370.102971,1072.533697
4051.175465,-9918.759623,0.000000,0.000000
4051.175794,-9622.677246,-740.205942,0.000000
4051.176124,-9326.594869,-444.123565,0.000000
4051.176454,-9104.533087,-148.041188,0.000000
4051.176784,-9548.656652,-370.102971,766.095498
4051.177114,-9622.677246,-74.020594,1072.533697
4051.177443,-9992.780217,-74.020594,995.924147
4051.177773,-10140.821405,-592.164754,1378.971896
4051.178103,-10214.842000,-370.102971,766.095498
4051.178433,-9770.718434,-518.144159,0.000000
4051.178763,-9622.677246,-444.123565,0.000000
4051.179093,-8734.430116,-592.164754,-536.266849
4051.179422,-8956.491898,-296.082377,0.000000
4051.179752,-9400.615463,74.020594,0.000000
4051.180082,-9104.533087,-222.061783,-842.705048
4051.180412,-9474.636058,0.000000,-919.314598
4051.180742,-10658.965565,148.041188,-153.219100
4051.181071,-10881.027347,-444.123565,536.266849
4051.181401,-10658.965565,-222.061783,1149.143247
4051.181731,-9918.759623,-592.164754,1149.143247
4051.182061,-9104.533087,-444.123565,995.924147
4051.182391,-8882.471304,-518.144159,306.438199
4051.182720,-9548.656652,-296.082377,0.000000
4051.183050,-9696.697840,-518.144159,-76.609550
4051.183380,-10140.821405,148.041188,612.876398
4051.183710,-10140.821405,0.000000,689.485948
4051.184040,-9844.739029,-296.082377,842.705048
4051.184370,-10214.842000,0.000000,76.609550
4051.184699,-9696.697840,-296.082377,-306.438199
4051.185029,-10066.800811,0.000000,0.000000
4051.185359,-10214.842000,296.082377,0.000000
4051.185689,-9992.780217,296.082377,306.438199
4051.186019,-10436.903782,518.144159,1149.143247
4051.186348,-10214.842000,518.144159,306.438199
4051.186678,-9844.739029,-296.082377,-153.219100
4051.187008,-9400.615463,0.000000,383.047749
4051.187338,-9326.594869,0.000000,-153.219100
4051.187668,-9474.636058,148.041188,689.485948
4051.187998,-9622.677246,0.000000,612.876398
4051.188327,-9474.636058,444.123565,766.095498
4051.188657,-9918.759623,444.123565,0.000000
4051.188987,-10807.006753,740.205942,-459.657299
4051.189317,-10510.924376,518.144159,76.609550
4051.189647,-10140.821405,444.123565,536.266849
4051.189976,-9252.574275,74.020594,-306.438199
4051.190306,-9104.533087,0.000000,383.047749
4051.190636,-9030.512492,296.082377,306.438199
4051.190966,-8734.430116,222.061783,-383.047749
4051.191296,-8808.450710,1036.288319,-536.266849
4051.191625,-9992.780217,888.247130,-76.609550
4051.191955,-10436.903782,592.164754,-153.219100
4051.192285,-10436.903782,814.226536,612.876398
4051.192615,-9178.553681,518.144159,153.219100
4051.192945,-9326.594869,444.123565,-383.047749
4051.193275,-9474.636058,592.164754,0.000000
4051.193604,-9622.677246,592.164754,-689.485948
4051.193934,-10214.842000,666.185348,0.000000
4051.194264,-10362.883188,740.205942,306.438199
4051.194594,-10214.842000,814.226536,0.000000
4051.194924,-10066.800811,222.061783,0.000000
4051.195253,-10288.862594,296.082377,-229.828649
4051.195583,-9844.739029,148.041188,0.000000
4051.195913,-9178.553681,148.041188,536.266849
4051.196243,-9474.636058,370.102971,842.705048
4051.196573,-9770.718434,0.000000,919.314598
4051.196903,-10584.944971,740.205942,919.314598
4051.197232,-10658.965565,-370.102971,229.828649
4051.197562,-10140.821405,-296.082377,383.047749
4051.197892,-9696.697840,-592.164754,995.924147
4051.198222,-9104.533087,-592.164754,1072.533697
4051.198552,-9104.533087,-666.185348,1302.362347
4051.198881,-9548.656652,0.000000,1072.533697
4051.199211,-10140.821405,-370.102971,76.609550
4051.199541,-10436.903782,0.000000,0.000000
4051.199871,-10214.842000,-148.041188,0.000000
4051.200201,-9548.656652,-444.123565,306.438199
4051.200530,-9474.636058,-518.144159,612.876398
4051.200860,-9622.677246,-740.205942,76.609550
4051.201190,-9622.677246,-148.041188,306.438199
4051.201520,-9548.656652,-518.144159,383.047749
4051.201850,-9918.759623,-444.123565,153.219100
4051.202180,-10140.821405,-518.144159,689.485948
4051.202509,-10436.903782,-444.123565,842.705048
4051.202839,-9696.697840,-814.226536,612.876398
4051.203169,-9104.533087,-740.205942,612.876398
4051.203499,-9326.594869,-592.164754,0.000000
4051.203829,-9474.636058,-148.041188,0.000000
4051.204158,-9622.677246,-74.020594,76.609550
4051.204488,-9992.780217,296.082377,153.219100
4051.204818,-10732.986159,222.061783,536.266849
4051.205148,-11325.150913,370.102971,383.047749
4051.205478,-9696.697840,74.020594,-229.828649
4051.205808,-9474.636058,-370.102971,-306.438199
4051.206137,-9696.697840,74.020594,383.047749
4051.206467,-10362.883188,518.144159,689.485948
4051.206797,-10140.821405,444.123565,1149.143247
4051.207127,-10214.842000,592.164754,459.657299
4051.207457,-9918.759623,222.061783,459.657299
4051.207786,-10510.924376,222.061783,383.047749
4051.208116,-10214.842000,74.020594,306.438199
4051.208446,-9918.759623,-148.041188,536.266849
4051.208776,-9400.615463,74.020594,995.924147
4051.209106,-9326.594869,-148.041188,459.657299
4051.209436,-9400.615463,74.020594,306.438199
4051.209765,-10066.800811,518.144159,0.000000
4051.210095,-10362.883188,518.144159,459.657299
4051.210425,-9622.677246,222.061783,612.876398
4051.210755,-9326.594869,296.082377,459.657299
4051.211085,-8586.388927,222.061783,153.219100
4051.211414,-8956.491898,222.061783,76.609550
4051.211744,-9474.636058,222.061783,-306.438199
4051.212074,-9770.718434,0.000000,229.828649
4051.212404,-9770.718434,444.123565,919.314598
4051.212734,-9326.594869,148.041188,383.047749
4051.213063,-9104.533087,0.000000,536.266849
4051.213393,-8882.471304,74.020594,-612.876398
4051.213723,-9252.574275,74.020594,-995.924147
4051.214053,-9474.636058,148.041188,0.000000
4051.214383,-9696.697840,592.164754,383.047749
4051.214713,-9696.697840,592.164754,536.266849
4051.215042,-9770.718434,666.185348,383.047749
4051.215372,-10510.924376,740.205942,-459.657299
4051.215702,-10066.800811,0.000000,-306.438199
4051.216032,-10584.944971,74.020594,-306.438199
4051.216362,-9770.718434,74.020594,153.219100
4051.216691,-9548.656652,-518.144159,766.095498
4051.217021,-9770.718434,74.020594,76.609550
4051.217351,-9918.759623,296.082377,536.266849
4051.217681,-10288.862594,518.144159,612.876398
4051.218011,-10288.862594,296.082377,0.000000
4051.218341,-9844.739029,222.061783,306.438199
4051.218670,-10214.842000,370.102971,842.705048
4051.219000,-10658.965565,296.082377,919.314598
4051.219330,-10436.903782,-222.061783,229.828649
4051.219660,-10362.883188,0.000000,-76.609550
4051.219990,-8956.491898,-518.144159,-689.485948
4051.220319,-8808.450710,-518.144159,76.609550
4051.220649,-9992.780217,-518.144159,229.828649
4051.220979,-9326.594869,0.000000,1838.629195
4051.221309,-9548.656652,444.123565,1455.581446
4051.221639,-10288.862594,0.000000,306.438199
4051.221968,-9770.718434,-370.102971,229.828649
4051.222298,-9844.739029,-444.123565,229.828649
4051.222628,-9992.780217,-592.164754,0.000000
4051.222958,-9696.697840,-518.144159,1072.533697
4051.223288,-9770.718434,0.000000,995.924147
4051.223618,-8882.471304,0.000000,-306.438199
4051.223947,-9104.533087,222.061783,-842.705048
4051.224277,-9770.718434,962.267725,-919.314598
4051.224607,-10510.924376,296.082377,-689.485948
4051.224937,-10658.965565,740.205942,0.000000
4051.225267,-9474.636058,148.041188,-536.266849
4051.225596,-9696.697840,222.061783,76.609550
4051.225926,-9770.718434,370.102971,76.609550
4051.226256,-9844.739029,0.000000,-612.876398
4051.226586,-9844.739029,296.082377,0.000000
4051.226916,-9844.739029,0.000000,995.924147
4051.227246,-9622.677246,222.061783,766.095498
4051.227575,-9844.739029,148.041188,919.314598
4051.227905,-10288.862594,370.102971,459.657299
4051.228235,-10066.800811,0.000000,0.000000
4051.228565,-9844.739029,222.061783,536.266849
4051.228895,-9474.636058,222.061783,612.876398
4051.229225,-8882.471304,0.000000,153.219100
4051.229555,-9622.677246,148.041188,766.095498
4051.229885,-9696.697840,370.102971,0.000000
4051.230214,-9770.718434,74.020594,0.000000
4051.230544,-9844.739029,148.041188,0.000000
4051.230874,-9474.636058,-148.041188,919.314598
4051.231204,-9326.594869,-222.061783,766.095498
4051.231534,-9548.656652,0.000000,919.314598
4051.231864,-9474.636058,-222.061783,766.095498
4051.232194,-9622.677246,-444.123565,459.657299
4051.232524,-9548.656652,-370.102971,76.609550
4051.232853,-9548.656652,148.041188,306.438199
4051.233183,-9770.718434,444.123565,766.095498
4051.233513,-9992.780217,148.041188,536.266849
4051.233843,-10214.842000,0.000000,0.000000
4051.234173,-9844.739029,444.123565,229.828649
4051.234503,-9548.656652,148.041188,-612.876398
4051.234833,-9622.677246,-370.102971,-306.438199
4051.235163,-10288.862594,-74.020594,-383.047749
4051.235492,-9918.759623,296.082377,-306.438199
4051.235822,-9844.739029,222.061783,383.047749
4051.236152,-10288.862594,666.185348,-383.047749
4051.236482,-10658.965565,444.123565,-689.485948
4051.236812,-10881.027347,518.144159,0.000000
4051.237142,-10584.944971,592.164754,0.000000
4051.237472,-10214.842000,148.041188,306.438199
4051.237802,-9548.656652,0.000000,76.609550
4051.238131,-9030.512492,148.041188,459.657299
4051.238461,-9030.512492,0.000000,153.219100
4051.238791,-10214.842000,0.000000,0.000000
4051.239121,-10510.924376,0.000000,306.438199
4051.239451,-10140.821405,74.020594,459.657299
4051.239781,-9696.697840,148.041188,229.828649
4051.240111,-9770.718434,0.000000,689.485948
4051.240441,-10214.842000,0.000000,1072.533697
4051.240770,-9992.780217,-222.061783,153.219100
4051.241100,-9844.739029,0.000000,612.876398
4051.241430,-9696.697840,-296.082377,536.266849
4051.241760,-9474.636058,-74.020594,536.266849
4051.242090,-9400.615463,-296.082377,536.266849
4051.242420,-9548.656652,-592.164754,-306.438199
4051.242750,-9992.780217,296.082377,306.438199
4051.243080,-10066.800811,222.061783,383.047749
4051.243409,-9548.656652,444.123565,0.000000
4051.243739,-9474.636058,148.041188,-306.438199
4051.244069,-9992.780217,148.041188,0.000000
4051.244399,-10658.965565,296.082377,76.609550
4051.244729,-10066.800811,-222.061783,306.438199
4051.245059,-9178.553681,-518.144159,612.876398
4051.245389,-8586.388927,-296.082377,229.828649
4051.245719,-8808.450710,-444.123565,0.000000
4051.246048,-9918.759623,0.000000,0.000000
4051.246378,-9770.718434,296.082377,0.000000
4051.246708,-9474.636058,0.000000,689.485948
4051.247038,-9696.697840,666.185348,76.609550
4051.247368,-9696.697840,74.020594,612.876398
4051.247698,-9992.780217,0.000000,612.876398
4051.248028,-10436.903782,370.102971,383.047749
4051.248358,-10288.862594,0.000000,383.047749
4051.248687,-9696.697840,0.000000,383.047749
4051.249017,-8882.471304,-370.102971,0.000000
4051.249347,-8956.491898,-370.102971,383.047749
4051.249677,-9474.636058,0.000000,0.000000
4051.250007,-9992.780217,444.123565,-76.609550
4051.250337,-9696.697840,518.144159,-766.095498
4051.250667,-9918.759623,740.205942,-536.266849
4051.250996,-9844.739029,148.041188,306.438199
4051.251326,-10584.944971,0.000000,1149.143247
4051.251656,-10436.903782,-148.041188,153.219100
4051.251986,-9696.697840,-592.164754,459.657299
4051.252316,-8956.491898,-888.247130,229.828649
4051.252646,-9474.636058,-370.102971,766.095498
4051.252976,-9474.636058,-666.185348,919.314598
4051.253306,-9696.697840,-370.102971,459.657299
4051.253635,-10066.800811,-74.020594,0.000000
4051.253965,-10288.862594,370.102971,-153.219100
4051.254295,-10436.903782,222.061783,0.000000
4051.254625,-10066.800811,74.020594,229.828649
4051.254955,-9844.739029,0.000000,229.828649
4051.255285,-10066.800811,148.041188,459.657299
4051.255615,-9918.759623,148.041188,229.828649
4051.255945,-9992.780217,0.000000,0.000000
4051.256274,-9844.739029,74.020594,612.876398
4051.256604,-9474.636058,-74.020594,766.095498
4051.256934,-9992.780217,296.082377,153.219100
4051.257264,-9474.636058,0.000000,306.438199
4051.257594,-9474.636058,0.000000,-229.828649
4051.257924,-9770.718434,518.144159,-842.705048
4051.258254,-9622.677246,296.082377,0.000000
4051.258584,-10362.883188,518.144159,0.000000
4051.258913,-10214.842000,740.205942,383.047749
4051.259243,-10362.883188,370.102971,995.924147
4051.259573,-9622.677246,222.061783,919.314598
4051.259903,-9252.574275,0.000000,-153.219100
4051.260233,-9474.636058,-148.041188,-229.828649
4051.260563,-9548.656652,-296.082377,0.000000
4051.260893,-9178.553681,0.000000,306.438199
4051.261223,-9252.574275,370.102971,-306.438199
4051.261552,-8882.471304,814.226536,-766.095498
4051.261882,-9474.636058,888.247130,-383.047749
4051.262212,-9992.780217,1406.391290,0.000000
4051.262542,-11029.068536,1184.329507,0.000000
4051.262872,-10881.027347,592.164754,0.000000
4051.263202,-10214.842000,74.020594,612.876398
4051.263532,-9548.656652,0.000000,229.828649
4051.263862,-9252.574275,-444.123565,0.000000
4051.264191,-9104.533087,-444.123565,-612.876398
4051.264521,-8808.450710,-296.082377,-612.876398
4051.264851,-9104.533087,222.061783,-153.219100
4051.265181,-9844.739029,444.123565,1072.533697
4051.265511,-10214.842000,962.267725,1532.190996
4051.265841,-10955.047942,814.226536,995.924147
4051.266171,-10584.944971,148.041188,383.047749
4051.266501,-10436.903782,-148.041188,-153.219100
4051.266830,-9770.718434,-148.041188,536.266849
4051.267160,-9474.636058,-666.185348,1149.143247
4051.267490,-9400.615463,-444.123565,1225.752797
4051.267820,-9992.780217,0.000000,842.705048
4051.268150,-9400.615463,148.041188,-383.047749
4051.268480,-9622.677246,74.020594,-1072.533697
4051.268810,-9474.636058,222.061783,-919.314598
4051.269140,-9696.697840,0.000000,153.219100
4051.269469,-9844.739029,0.000000,1455.581446
4051.269799,-9992.780217,-74.020594,612.876398
4051.270129,-9992.780217,-444.123565,842.705048
4051.270459,-9548.656652,-592.164754,1072.533697
4051.270789,-9252.574275,-592.164754,919.314598
4051.271119,-9622.677246,-740.205942,306.438199
4051.271449,-9622.677246,-296.082377,995.924147
4051.271779,-9400.615463,-370.102971,459.657299
4051.272108,-9030.512492,-370.102971,459.657299
4051.272438,-9770.718434,0.000000,-689.485948
4051.272768,-9844.739029,0.000000,-689.485948
4051.273098,-9992.780217,0.000000,-383.047749
4051.273428,-10066.800811,370.102971,76.609550
4051.273758,-10510.924376,-74.020594,995.924147
4051.274088,-10288.862594,148.041188,1149.143247
4051.274418,-9622.677246,-592.164754,0.000000
4051.274747,-9844.739029,-444.123565,306.438199
4051.275077,-10288.862594,0.000000,0.000000
4051.275407,-10214.842000,-222.061783,383.047749
4051.275737,-9548.656652,-296.082377,766.095498
4051.276067,-9548.656652,0.000000,459.657299
4051.276397,-9548.656652,814.226536,-383.047749
4051.276727,-10140.821405,444.123565,0.000000
4051.277057,-10510.924376,444.123565,-842.705048
4051.277386,-10288.862594,74.020594,0.000000
4051.277716,-10214.842000,296.082377,842.705048
4051.278046,-9918.759623,0.000000,766.095498
4051.278376,-9474.636058,-296.082377,766.095498
4051.278706,-9252.574275,-518.144159,229.828649
4051.279036,-9104.533087,-444.123565,0.000000
4051.279366,-8438.347739,148.041188,-153.219100
4051.279696,-9622.677246,518.144159,-536.266849
4051.280025,-9844.739029,444.123565,306.438199
4051.280355,-9918.759623,666.185348,612.876398
4051.280685,-9474.636058,74.020594,76.609550
4051.281015,-9844.739029,0.000000,153.219100
4051.281345,-9770.718434,148.041188,612.876398
4051.281675,-9252.574275,-148.041188,459.657299
4051.282005,-9178.553681,-222.061783,536.266849
4051.282335,-9548.656652,0.000000,383.047749
4051.282664,-9622.677246,0.000000,229.828649
4051.282994,-9548.656652,370.102971,0.000000
4051.283324,-9474.636058,666.185348,0.000000
4051.283654,-9400.615463,592.164754,-919.314598
4051.283984,-9696.697840,740.205942,0.000000
4051.284314,-9844.739029,370.102971,-153.219100
4051.284644,-10362.883188,370.102971,76.609550
4051.284974,-10214.842000,592.164754,612.876398
4051.285303,-10214.842000,370.102971,153.219100
4051.285633,-9770.718434,-74.020594,383.047749
4051.285963,-9770.718434,74.020594,153.219100
4051.286293,-9474.636058,0.000000,153.219100
4051.286623,-9622.677246,222.061783,383.047749
4051.286953,-9992.780217,888.247130,76.609550
4051.287283,-10214.842000,814.226536,153.219100
4051.287613,-10436.903782,592.164754,306.438199
4051.287942,-10288.862594,518.144159,-229.828649
4051.288272,-10362.883188,0.000000,0.000000
4051.288602,-10436.903782,148.041188,1072.533697
4051.288932,-9622.677246,-444.123565,612.876398
4051.289262,-8808.450710,74.020594,0.000000
4051.289592,-9844.739029,0.000000,0.000000
4051.289922,-9918.759623,-296.082377,-383.047749
4051.290252,-9770.718434,0.000000,153.219100
4051.290581,-9474.636058,148.041188,-459.657299
4051.290911,-9104.533087,-666.185348,842.705048
4051.291241,-9400.615463,-518.144159,919.314598
4051.291571,-9844.739029,-370.102971,459.657299
4051.291901,-10362.883188,-444.123565,383.047749
4051.292231,-10066.800811,-148.041188,689.485948
4051.292561,-9326.594869,0.000000,306.438199
4051.292891,-9474.636058,-148.041188,383.047749
4051.293220,-9844.739029,0.000000,689.485948
4051.293550,-9104.533087,-592.164754,-153.219100
4051.293880,-9104.533087,-222.061783,-459.657299
4051.294210,-8956.491898,0.000000,-919.314598
4051.294540,-9400.615463,0.000000,-383.047749
4051.294870,-10214.842000,814.226536,-306.438199
4051.295200,-10510.924376,518.144159,-612.876398
4051.295530,-10658.965565,222.061783,536.266849
4051.295859,-10510.924376,444.123565,459.657299
4051.296189,-10140.821405,296.082377,689.485948
4051.296519,-9548.656652,0.000000,842.705048
4051.296849,-9696.697840,0.000000,612.876398
4051.297179,-9918.759623,148.041188,689.485948
4051.297509,-9696.697840,222.061783,0.000000
4051.297839,-9918.759623,296.082377,-995.924147
4051.298169,-9844.739029,148.041188,-229.828649
4051.298498,-9844.739029,148.041188,306.438199
4051.298828,-9548.656652,370.102971,306.438199
4051.299158,-9548.656652,444.123565,76.609550
4051.299488,-10066.800811,148.041188,689.485948
4051.299818,-9992.780217,0.000000,306.438199
4051.300148,-9770.718434,0.000000,1072.533697
4051.300478,-10140.821405,370.102971,995.924147
4051.300808,-9770.718434,0.000000,1072.533697
4051.301137,-9474.636058,0.000000,612.876398
4051.301467,-9178.553681,74.020594,-459.657299
4051.301797,-8956.491898,74.020594,-689.485948
4051.302127,-9326.594869,74.020594,0.000000
4051.302457,-9622.677246,296.082377,383.047749
4051.302787,-9770.718434,-74.020594,842.705048
4051.303117,-9770.718434,0.000000,1455.581446
4051.303447,-9252.574275,-444.123565,1225.752797
4051.303776,-9622.677246,-592.164754,612.876398
4051.304106,-10066.800811,-296.082377,459.657299
4051.304436,-9918.759623,0.000000,919.314598
4051.304766,-9252.574275,74.020594,919.314598
4051.305096,-9696.697840,444.123565,76.609550
4051.305426,-9844.739029,370.102971,-153.219100
4051.305756,-9844.739029,370.102971,-229.828649
4051.306086,-10066.800811,222.061783,-689.485948
4051.306415,-10658.965565,-74.020594,0.000000
4051.306745,-10436.903782,222.061783,306.438199
4051.307075,-9326.594869,0.000000,76.609550
4051.307405,-8882.471304,-370.102971,306.438199
4051.307735,-9992.780217,0.000000,306.438199
4051.308065,-10584.944971,-444.123565,229.828649
4051.308395,-10214.842000,0.000000,612.876398
4051.308725,-9844.739029,370.102971,306.438199
4051.309054,-9252.574275,0.000000,612.876398
4051.309384,-9992.780217,0.000000,459.657299
4051.309714,-9992.780217,0.000000,-229.828649
4051.310044,-9844.739029,74.020594,-229.828649
4051.310374,-9844.739029,74.020594,-229.828649
4051.310704,-9474.636058,-296.082377,153.219100
4051.311034,-9474.636058,-518.144159,383.047749
4051.311364,-9918.759623,0.000000,536.266849
4051.311693,-10214.842000,-370.102971,383.047749
4051.312023,-9622.677246,0.000000,0.000000
4051.312353,-9104.533087,0.000000,-536.266849
4051.312683,-8882.471304,0.000000,229.828649
4051.313013,-9770.718434,222.061783,689.485948
4051.313343,-10658.965565,666.185348,0.000000
4051.313673,-10436.903782,296.082377,612.876398
4051.314003,-10288.862594,148.041188,306.438199
4051.314332,-9178.553681,0.000000,153.219100
4051.314662,-8956.491898,0.000000,-459.657299
4051.314992,-9326.594869,0.000000,229.828649
4051.315322,-9696.697840,0.000000,0.000000
4051.315652,-9992.780217,370.102971,-306.438199
4051.315982,-9696.697840,444.123565,-766.095498
4051.316312,-9622.677246,222.061783,-153.219100
4051.316642,-9696.697840,148.041188,766.095498
4051.316971,-9770.718434,296.082377,459.657299
4051.317301,-10140.821405,444.123565,1225.752797
4051.317631,-10066.800811,444.123565,1149.143247
4051.317961,-9696.697840,0.000000,0.000000
4051.318291,-9992.780217,0.000000,0.000000
4051.318621,-10436.903782,148.041188,229.828649
4051.318951,-10066.800811,74.020594,0.000000
4051.319281,-9104.533087,-74.020594,536.266849
4051.319610,-8586.388927,0.000000,0.000000
4051.319940,-9030.512492,-222.061783,76.609550
4051.320270,-9770.718434,74.020594,229.828649
4051.320600,-10436.903782,222.061783,459.657299
4051.320930,-10584.944971,0.000000,919.314598
4051.321260,-10436.903782,0.000000,1225.752797
4051.321590,-9326.594869,-518.144159,459.657299
4051.321920,-8586.388927,-740.205942,612.876398
4051.322249,-9844.739029,-222.061783,306.438199
4051.322579,-10214.842000,-370.102971,0.000000
4051.322909,-9844.739029,0.000000,153.219100
4051.323239,-8734.430116,222.061783,-229.828649
4051.323569,-9252.574275,0.000000,153.219100
4051.323899,-10140.821405,296.082377,459.657299
4051.324229,-10510.924376,148.041188,0.000000
4051.324559,-10066.800811,370.102971,76.609550
4051.324888,-9992.780217,-444.123565,-153.219100
4051.325218,-9030.512492,-592.164754,459.657299
4051.325548,-9918.759623,-296.082377,1608.800546
4051.325878,-10955.047942,222.061783,919.314598
4051.326208,-10436.903782,-444.123565,76.609550
4051.326538,-9622.677246,-444.123565,-459.657299
4051.326868,-9104.533087,0.000000,-536.266849
4051.327198,-9474.636058,222.061783,0.000000
4051.327527,-9548.656652,370.102971,459.657299
4051.327857,-9992.780217,222.061783,229.828649
4051.328187,-9992.780217,296.082377,612.876398
4051.328517,-10214.842000,0.000000,0.000000
4051.328847,-9400.615463,-222.061783,383.047749
4051.329177,-9548.656652,-296.082377,612.876398
4051.329507,-10140.821405,0.000000,459.657299
4051.329836,-9770.718434,-148.041188,919.314598
4051.330166,-9030.512492,148.041188,0.000000
4051.330496,-8882.471304,370.102971,-306.438199
4051.330826,-8956.491898,148.041188,-76.609550
4051.331156,-9770.718434,814.226536,76.609550
4051.331485,-9622.677246,592.164754,76.609550
4051.331815,-10066.800811,148.041188,229.828649
4051.332145,-10214.842000,592.164754,383.047749
4051.332475,-10066.800811,74.020594,0.000000
4051.332805,-9474.636058,-222.061783,229.828649
4051.333134,-9400.615463,0.000000,0.000000
4051.333464,-10140.821405,148.041188,766.095498
4051.333794,-10140.821405,296.082377,383.047749
4051.334124,-9474.636058,814.226536,-383.047749
4051.334453,-9400.615463,370.102971,-842.705048
4051.334783,-9770.718434,444.123565,153.219100
4051.335113,-10362.883188,296.082377,612.876398
4051.335443,-10288.862594,0.000000,1225.752797
4051.335773,-9178.553681,0.000000,229.828649
4051.336102,-8882.471304,-444.123565,-306.438199
4051.336432,-9400.615463,-296.082377,76.609550
4051.336762,-10288.862594,0.000000,536.266849
4051.337092,-10214.842000,222.061783,536.266849
4051.337422,-9622.677246,814.226536,689.485948
4051.337751,-9622.677246,888.247130,0.000000
4051.338081,-10066.800811,518.144159,0.000000
4051.338411,-10362.883188,148.041188,76.609550
4051.338741,-10214.842000,370.102971,-766.095498
4051.339070,-9696.697840,74.020594,0.000000
4051.339400,-9252.574275,0.000000,0.000000
4051.339730,-9104.533087,74.020594,0.000000
4051.340060,-9474.636058,-370.102971,229.828649
4051.340390,-10066.800811,74.020594,0.000000
4051.340719,-10140.821405,74.020594,-306.438199
4051.341049,-9326.594869,74.020594,-153.219100
4051.341379,-9178.553681,222.061783,76.609550
4051.341709,-9400.615463,0.000000,459.657299
4051.342039,-10510.924376,148.041188,536.266849
4051.342368,-10066.800811,222.061783,-153.219100
4051.342698,-10066.800811,-148.041188,76.609550
4051.343028,-9622.677246,0.000000,919.314598
4051.343358,-9400.615463,0.000000,689.485948
4051.343687,-9696.697840,-148.041188,689.485948
4051.344017,-10288.862594,-148.041188,766.095498
4051.344347,-10362.883188,0.000000,153.219100
4051.344677,-9770.718434,0.000000,76.609550
4051.345007,-9474.636058,0.000000,-229.828649
4051.345336,-9770.718434,0.000000,153.219100
4051.345666,-9770.718434,0.000000,689.485948
4051.345996,-9844.739029,74.020594,689.485948
4051.346326,-10140.821405,0.000000,766.095498
4051.346655,-10362.883188,0.000000,536.266849
4051.346985,-9992.780217,-370.102971,536.266849
4051.347315,-9622.677246,-740.205942,1149.143247
4051.347645,-9622.677246,-370.102971,689.485948
4051.347975,-9474.636058,0.000000,612.876398
4051.348304,-9104.533087,0.000000,306.438199
4051.348634,-9326.594869,74.020594,0.000000
4051.348964,-10140.821405,518.144159,76.609550
4051.349294,-10362.883188,592.164754,153.219100
4051.349624,-10288.862594,370.102971,0.000000
4051.349953,-10066.800811,296.082377,229.828649
4051.350283,-9474.636058,222.061783,0.000000
4051.350613,-9400.615463,0.000000,0.000000
4051.350943,-9844.739029,-296.082377,689.485948
4051.351272,-10510.924376,-222.061783,842.705048
4051.351602,-9992.780217,0.000000,306.438199
4051.351932,-9474.636058,0.000000,76.609550
4051.352262,-9622.677246,0.000000,153.219100
4051.352592,-9992.780217,296.082377,612.876398
4051.352921,-10362.883188,0.000000,229.828649
4051.353251,-9992.780217,370.102971,-306.438199
4051.353581,-9918.759623,0.000000,0.000000
4051.353911,-10066.800811,74.020594,536.266849
4051.354241,-9474.636058,-592.164754,459.657299
4051.354570,-9474.636058,-814.226536,612.876398
4051.354900,-9548.656652,-814.226536,689.485948
4051.355230,-9252.574275,-592.164754,612.876398
4051.355560,-8808.450710,-666.185348,459.657299
4051.355889,-9770.718434,222.061783,-153.219100
4051.356219,-10288.862594,148.041188,536.266849
4051.356549,-10732.986159,296.082377,536.266849
4051.356879,-9844.739029,296.082377,0.000000
4051.357209,-9992.780217,222.061783,-153.219100
4051.357538,-9622.677246,0.000000,0.000000
4051.357868,-9548.656652,-740.205942,229.828649
4051.358198,-9548.656652,-518.144159,612.876398
4051.358528,-9548.656652,-518.144159,306.438199
4051.358858,-9400.615463,-296.082377,-306.438199
4051.359187,-9178.553681,-74.020594,-306.438199
4051.359517,-9252.574275,222.061783,-153.219100
4051.359847,-9770.718434,296.082377,536.266849
4051.360177,-10732.986159,814.226536,842.705048
4051.360506,-11029.068536,592.164754,153.219100
4051.360836,-10362.883188,296.082377,459.657299
4051.361166,-10140.821405,0.000000,612.876398
4051.361496,-9474.636058,-666.185348,383.047749
4051.361826,-9474.636058,-666.185348,459.657299
4051.362155,-9548.656652,-444.123565,459.657299
4051.362485,-9474.636058,-370.102971,0.000000
4051.362815,-9178.553681,-148.041188,0.000000
4051.363145,-9622.677246,148.041188,-536.266849
4051.363475,-9696.697840,222.061783,-76.609550
4051.363804,-10066.800811,296.082377,76.609550
4051.364134,-10214.842000,518.144159,536.266849
4051.364464,-10140.821405,740.205942,1225.752797
4051.364794,-10584.944971,444.123565,1149.143247
4051.365123,-10214.842000,0.000000,689.485948
4051.365453,-10214.842000,-148.041188,229.828649
4051.365783,-9696.697840,-592.164754,0.000000
4051.366113,-9178.553681,-148.041188,-306.438199
4051.366443,-8882.471304,222.061783,306.438199
4051.366772,-9178.553681,592.164754,-536.266849
4051.367102,-9474.636058,1110.308913,-536.266849
4051.367432,-9992.780217,740.205942,-919.314598
4051.367762,-10288.862594,962.267725,-919.314598
4051.368091,-10288.862594,370.102971,0.000000
4051.368421,-10436.903782,370.102971,842.705048
4051.368751,-9474.636058,0.000000,766.095498
4051.369081,-9326.594869,-518.144159,612.876398
4051.369411,-9400.615463,74.020594,153.219100
4051.369740,-9844.739029,148.041188,76.609550
4051.370070,-9992.780217,518.144159,0.000000
4051.370400,-9548.656652,740.205942,0.000000
4051.370730,-9992.780217,740.205942,306.438199
4051.371060,-10214.842000,740.205942,0.000000
4051.371389,-9992.780217,592.164754,-306.438199
4051.371719,-9918.759623,222.061783,-76.609550
4051.372049,-9918.759623,74.020594,76.609550
4051.372379,-9844.739029,74.020594,153.219100
4051.372708,-10140.821405,-74.020594,1072.533697
4051.373038,-10584.944971,0.000000,1149.143247
4051.373368,-9770.718434,-296.082377,536.266849
4051.373698,-9400.615463,-74.020594,612.876398
4051.374028,-9178.553681,0.000000,536.266849
4051.374357,-8882.471304,-148.041188,1149.143247
4051.374687,-10214.842000,0.000000,919.314598
4051.375017,-10436.903782,74.020594,459.657299
4051.375347,-10807.006753,148.041188,919.314598
4051.375677,-10288.862594,-370.102971,842.705048
4051.376006,-9622.677246,-518.144159,383.047749
4051.376336,-9252.574275,-666.185348,459.657299
4051.376666,-9474.636058,-592.164754,229.828649
4051.376996,-8734.430116,-592.164754,536.266849
4051.377325,-8956.491898,-518.144159,153.219100
4051.377655,-9770.718434,-148.041188,76.609550
4051.377985,-10436.903782,-444.123565,0.000000
4051.378315,-10140.821405,-222.061783,383.047749
4051.378645,-9918.759623,-296.082377,536.266849
4051.378974,-10362.883188,-148.041188,1149.143247
4051.379304,-10140.821405,-666.185348,1149.143247
4051.379634,-9252.574275,-592.164754,919.314598
4051.379964,-9326.594869,-296.082377,1149.143247
4051.380294,-10288.862594,-296.082377,1072.533697
4051.380623,-10140.821405,-592.164754,612.876398
4051.380953,-9918.759623,-370.102971,0.000000
4051.381283,-9326.594869,0.000000,-689.485948
4051.381613,-9548.656652,-666.185348,-306.438199
4051.381942,-9992.780217,0.000000,-306.438199
4051.382272,-9918.759623,148.041188,-383.047749
4051.382602,-10288.862594,296.082377,383.047749
4051.382932,-10140.821405,296.082377,459.657299
4051.383262,-9992.780217,0.000000,842.705048
4051.383591,-10066.800811,0.000000,766.095498
4051.383921,-10214.842000,0.000000,383.047749
4051.384251,-9548.656652,-592.164754,153.219100
4051.384581,-9400.615463,-296.082377,229.828649
4051.384911,-9400.615463,0.000000,0.000000
4051.385240,-9252.574275,-148.041188,-383.047749
4051.385570,-9252.574275,740.205942,-459.657299
4051.385900,-9622.677246,888.247130,-459.657299
4051.386230,-10362.883188,666.185348,536.266849
4051.386559,-10584.944971,740.205942,689.485948
4051.386889,-9474.636058,370.102971,536.266849
4051.387219,-9770.718434,0.000000,459.657299
4051.387549,-9696.697840,-222.061783,612.876398
4051.387879,-9178.553681,-666.185348,0.000000
4051.388208,-8586.388927,-370.102971,229.828649
4051.388538,-8586.388927,148.041188,229.828649
4051.388868,-9030.512492,666.185348,536.266849
4051.389198,-9252.574275,888.247130,-229.828649
4051.389527,-9548.656652,1110.308913,-842.705048
4051.389857,-10288.862594,1702.473667,-536.266849
4051.390187,-10732.986159,1776.494261,153.219100
4051.390517,-9992.780217,1036.288319,-153.219100
4051.390847,-9696.697840,888.247130,0.000000
4051.391176,-10362.883188,814.226536,-919.314598
4051.391506,-10214.842000,518.144159,-536.266849
4051.391836,-9400.615463,0.000000,-766.095498
4051.392166,-9030.512492,666.185348,-459.657299
4051.392496,-9474.636058,296.082377,306.438199
4051.392825,-9474.636058,518.144159,612.876398
4051.393155,-9474.636058,814.226536,536.266849
4051.393485,-9844.739029,888.247130,306.438199
4051.393815,-10140.821405,592.164754,0.000000
4051.394144,-10436.903782,814.226536,-459.657299
4051.394474,-10362.883188,370.102971,153.219100
4051.394804,-10510.924376,370.102971,689.485948
4051.395134,-10066.800811,0.000000,459.657299
4051.395464,-9474.636058,222.061783,-842.705048
4051.395793,-9252.574275,74.020594,-689.485948
4051.396123,-9252.574275,444.123565,-612.876398
4051.396453,-9918.759623,592.164754,-229.828649
4051.396783,-10510.924376,592.164754,-459.657299
4051.397113,-10732.986159,444.123565,919.314598
4051.397442,-10436.903782,0.000000,1149.143247
4051.397772,-9844.739029,-518.144159,689.485948
4051.398102,-9770.718434,-740.205942,1072.533697
4051.398432,-9548.656652,-962.267725,919.314598
4051.398761,-9548.656652,-1258.350101,2068.457845
4051.399091,-9400.615463,-444.123565,1608.800546
4051.399421,-9474.636058,-370.102971,919.314598
4051.399751,-9474.636058,-222.061783,-153.219100
4051.400081,-9474.636058,-814.226536,-766.095498
4051.400410,-9474.636058,-296.082377,-306.438199
4051.400740,-9696.697840,-296.082377,383.047749
4051.401070,-9696.697840,-74.020594,383.047749
4051.401400,-8956.491898,-444.123565,536.266849
4051.401730,-9548.656652,-444.123565,153.219100
4051.402059,-10732.986159,0.000000,0.000000
4051.402389,-11103.089130,-370.102971,306.438199
4051.402719,-10140.821405,-370.102971,459.657299
4051.403049,-9400.615463,-666.185348,536.266849
4051.403378,-9178.553681,-666.185348,459.657299
4051.403708,-9474.636058,-370.102971,153.219100
4051.404038,-9400.615463,-592.164754,-229.828649
4051.404368,-10066.800811,296.082377,-229.828649
4051.404698,-10288.862594,370.102971,153.219100
4051.405027,-9918.759623,222.061783,76.609550
4051.405357,-10140.821405,222.061783,383.047749
4051.405687,-10510.924376,74.020594,536.266849
4051.406017,-10140.821405,-740.205942,153.219100
4051.406347,-9474.636058,-370.102971,229.828649
4051.406676,-8808.450710,0.000000,0.000000
4051.407006,-9178.553681,0.000000,383.047749
4051.407336,-10214.842000,370.102971,612.876398
4051.407666,-10955.047942,666.185348,76.609550
4051.407995,-10584.944971,370.102971,76.609550
4051.408325,-9770.718434,370.102971,76.609550
4051.408655,-9326.594869,74.020594,459.657299
4051.408985,-9696.697840,148.041188,1072.533697
4051.409315,-10288.862594,296.082377,919.314598
4051.409644,-10066.800811,-148.041188,0.000000
4051.409974,-9400.615463,0.000000,-153.219100
4051.410304,-9252.574275,0.000000,-383.047749
4051.410634,-9474.636058,74.020594,-536.266849
4051.410963,-9400.615463,222.061783,-76.609550
4051.411293,-9770.718434,518.144159,-306.438199
4051.411623,-9770.718434,222.061783,153.219100
4051.411953,-9918.759623,592.164754,153.219100
4051.412283,-8956.491898,148.041188,-153.219100
4051.412612,-9696.697840,0.000000,612.876398
4051.412942,-10436.903782,222.061783,842.705048
4051.413272,-10362.883188,-444.123565,459.657299
4051.413602,-9252.574275,-518.144159,229.828649
4051.413932,-8882.471304,-74.020594,-383.047749
4051.414261,-9400.615463,0.000000,-153.219100
4051.414591,-9474.636058,148.041188,-536.266849
4051.414921,-9696.697840,1036.288319,-536.266849
4051.415251,-10066.800811,1258.350101,-536.266849
4051.415580,-10140.821405,1036.288319,0.000000
4051.415910,-9844.739029,1036.288319,-383.047749
4051.416240,-10510.924376,444.123565,0.000000
4051.416570,-10732.986159,296.082377,229.828649
4051.416900,-10510.924376,0.000000,229.828649
4051.417229,-9622.677246,74.020594,76.609550
4051.417559,-8956.491898,148.041188,-153.219100
4051.417889,-9548.656652,0.000000,76.609550
4051.418219,-10214.842000,592.164754,153.219100
4051.418549,-10362.883188,740.205942,0.000000
4051.418878,-9770.718434,370.102971,919.314598
4051.419208,-10140.821405,444.123565,995.924147
4051.419538,-10066.800811,518.144159,0.000000
4051.419868,-10140.821405,0.000000,842.705048
4051.420197,-10362.883188,0.000000,153.219100
4051.420527,-9622.677246,-444.123565,76.609550
4051.420857,-9030.512492,-296.082377,-76.609550
4051.421187,-9252.574275,0.000000,-76.609550
4051.421517,-9252.574275,-370.102971,612.876398
4051.421846,-9548.656652,74.020594,689.485948
4051.422176,-9696.697840,444.123565,689.485948
4051.422506,-10066.800811,74.020594,153.219100
4051.422836,-9474.636058,0.000000,459.657299
4051.423166,-9252.574275,74.020594,459.657299
4051.423495,-10288.862594,0.000000,766.095498
4051.423825,-10362.883188,0.000000,919.314598
4051.424155,-10214.842000,-74.020594,153.219100
4051.424485,-9104.533087,-222.061783,-229.828649
4051.424814,-9326.594869,-74.020594,-612.876398
4051.425144,-9104.533087,-296.082377,0.000000
4051.425474,-9696.697840,0.000000,306.438199
4051.425804,-9400.615463,148.041188,76.609550
4051.426134,-9918.759623,296.082377,612.876398
4051.426463,-10066.800811,0.000000,383.047749
4051.426793,-9844.739029,-74.020594,536.266849
4051.427123,-10288.862594,-370.102971,1072.533697
4051.427453,-10510.924376,-518.144159,1608.800546
4051.427783,-9844.739029,-592.164754,1072.533697
4051.428112,-9326.594869,-518.144159,995.924147
4051.428442,-9326.594869,-370.102971,0.000000
4051.428772,-9622.677246,-222.061783,306.438199
4051.429102,-10362.883188,222.061783,76.609550
4051.429431,-9844.739029,148.041188,-306.438199
4051.429761,-10214.842000,0.000000,-459.657299
4051.430091,-9770.718434,0.000000,-306.438199
4051.430421,-9770.718434,-518.144159,153.219100
4051.430750,-10140.821405,-592.164754,1072.533697
4051.431080,-9918.759623,-518.144159,842.705048
4051.431410,-9622.677246,-888.247130,153.219100
4051.431740,-9030.512492,-370.102971,153.219100
4051.432069,-9326.594869,0.000000,0.000000
4051.432399,-9548.656652,444.123565,383.047749
4051.432729,-10362.883188,-148.041188,153.219100
4051.433059,-10732.986159,0.000000,383.047749
4051.433389,-9770.718434,0.000000,306.438199
4051.433718,-9252.574275,0.000000,76.609550
4051.434048,-9030.512492,-518.144159,-153.219100
4051.434378,-9696.697840,-444.123565,76.609550
4051.434708,-10066.800811,0.000000,612.876398
4051.435037,-10066.800811,-518.144159,306.438199
4051.435367,-9696.697840,0.000000,306.438199
4051.435697,-9474.636058,0.000000,383.047749
4051.436027,-10066.800811,296.082377,383.047749
4051.436356,-9844.739029,296.082377,153.219100
4051.436686,-9548.656652,296.082377,-383.047749
4051.437016,-9622.677246,222.061783,229.828649
4051.437346,-9770.718434,518.144159,306.438199
4051.437675,-9548.656652,518.144159,229.828649
4051.438005,-9622.677246,74.020594,383.047749
4051.438335,-10214.842000,592.164754,153.219100
4051.438665,-10140.821405,296.082377,0.000000
4051.438995,-9696.697840,222.061783,-76.609550
4051.439324,-9770.718434,222.061783,0.000000
4051.439654,-9696.697840,592.164754,689.485948
4051.439984,-9696.697840,592.164754,0.000000
4051.440314,-9178.553681,592.164754,-153.219100
4051.440643,-9104.533087,592.164754,-76.609550
4051.440973,-9992.780217,1036.288319,229.828649
4051.441303,-10140.821405,370.102971,306.438199
4051.441633,-9992.780217,-296.082377,1149.143247
4051.441962,-10214.842000,74.020594,459.657299
4051.442292,-9252.574275,148.041188,383.047749
4051.442622,-9104.533087,370.102971,153.219100
4051.442952,-8956.491898,888.247130,0.000000
4051.443281,-9918.759623,962.267725,229.828649
4051.443611,-10140.821405,962.267725,153.219100
4051.443941,-10510.924376,962.267725,-612.876398
4051.444271,-10066.800811,592.164754,-306.438199
4051.444601,-9992.780217,296.082377,0.000000
4051.444930,-9548.656652,-444.123565,-153.219100
4051.445260,-9474.636058,-444.123565,153.219100
4051.445590,-9548.656652,-222.061783,459.657299
4051.445920,-9252.574275,-370.102971,919.314598
4051.446249,-9178.553681,0.000000,995.924147
4051.446579,-9622.677246,148.041188,1072.533697
4051.446909,-10436.903782,0.000000,766.095498
4051.447239,-10510.924376,370.102971,306.438199
4051.447568,-10066.800811,296.082377,0.000000
4051.447898,-9030.512492,0.000000,459.657299
4051.448228,-9400.615463,0.000000,0.000000
4051.448558,-9844.739029,-222.061783,76.609550
4051.448887,-9992.780217,-444.123565,306.438199
4051.449217,-9992.780217,-444.123565,536.266849
4051.449547,-9400.615463,-592.164754,76.609550
4051.449877,-9178.553681,-518.144159,76.609550
4051.450207,-9252.574275,148.041188,383.047749
4051.450536,-9770.718434,0.000000,383.047749
4051.450866,-10288.862594,370.102971,383.047749
4051.451196,-10510.924376,518.144159,0.000000
4051.451526,-10510.924376,222.061783,306.438199
4051.451855,-10362.883188,148.041188,383.047749
4051.452185,-9548.656652,-444.123565,612.876398
4051.452515,-9548.656652,-1184.329507,689.485948
4051.452845,-9326.594869,-666.185348,153.219100
4051.453174,-8660.409521,-888.247130,536.266849
4051.453504,-8660.409521,-518.144159,612.876398
4051.453834,-9474.636058,0.000000,-306.438199
4051.454164,-10214.842000,-296.082377,0.000000
4051.454493,-9992.780217,-444.123565,76.609550
4051.454823,-9770.718434,-222.061783,153.219100
4051.455153,-9918.759623,0.000000,766.095498
4051.455483,-9918.759623,222.061783,459.657299
4051.455813,-9696.697840,0.000000,459.657299
4051.456142,-9992.780217,0.000000,612.876398
4051.456472,-10140.821405,-222.061783,383.047749
4051.456802,-10214.842000,-740.205942,76.609550
4051.457132,-9474.636058,-444.123565,229.828649
4051.457461,-9252.574275,-222.061783,306.438199
4051.457791,-9474.636058,74.020594,612.876398
4051.458121,-9696.697840,74.020594,229.828649
4051.458451,-9696.697840,592.164754,-459.657299
4051.458780,-10066.800811,888.247130,229.828649
4051.459110,-10214.842000,888.247130,766.095498
4051.459440,-9918.759623,592.164754,1072.533697
4051.459770,-10140.821405,0.000000,842.705048
4051.460099,-10362.883188,0.000000,306.438199
4051.460429,-9770.718434,-814.226536,76.609550
4051.460759,-9252.574275,-370.102971,229.828649
4051.461089,-9252.574275,74.020594,459.657299
4051.461419,-9252.574275,0.000000,612.876398
4051.461748,-9548.656652,740.205942,0.000000
4051.462078,-9696.697840,1184.329507,-153.219100
4051.462408,-10214.842000,1110.308913,0.000000
4051.462738,-10140.821405,888.247130,0.000000
4051.463067,-9622.677246,296.082377,0.000000
4051.463397,-9770.718434,296.082377,995.924147
4051.463727,-10066.800811,370.102971,76.609550
4051.464057,-9770.718434,-370.102971,153.219100
4051.464386,-9474.636058,-370.102971,0.000000
4051.464716,-9178.553681,-222.061783,229.828649
4051.465046,-9326.594869,444.123565,612.876398
4051.465376,-9326.594869,518.144159,0.000000
4051.465705,-9770.718434,814.226536,0.000000
4051.466035,-10362.883188,1110.308913,153.219100
4051.466365,-10807.006753,1184.329507,383.047749
4051.466695,-10288.862594,518.144159,306.438199
4051.467025,-10214.842000,0.000000,689.485948
4051.467354,-10066.800811,-444.123565,459.657299
4051.467684,-9178.553681,-814.226536,536.266849
4051.468014,-8882.471304,-740.205942,612.876398
4051.468344,-8882.471304,-518.144159,229.828649
4051.468673,-9474.636058,0.000000,0.000000
4051.469003,-9918.759623,814.226536,76.609550
4051.469333,-10140.821405,1036.288319,0.000000
4051.469663,-10288.862594,740.205942,0.000000
4051.469992,-10140.821405,592.164754,153.219100
4051.470322,-10066.800811,296.082377,76.609550
4051.470652,-9622.677246,148.041188,76.609550
4051.470982,-9992.780217,-74.020594,-612.876398
4051.471311,-9400.615463,-962.267725,-383.047749
4051.471641,-9178.553681,-592.164754,0.000000
4051.471971,-9400.615463,148.041188,459.657299
4051.472301,-9548.656652,-592.164754,842.705048
4051.472631,-9696.697840,0.000000,766.095498
4051.472960,-9696.697840,0.000000,0.000000
4051.473290,-10214.842000,148.041188,536.266849
4051.473620,-10362.883188,148.041188,306.438199
4051.473950,-9770.718434,0.000000,306.438199
4051.474279,-9474.636058,-222.061783,0.000000
4051.474609,-10066.800811,-74.020594,-306.438199
4051.474939,-9844.739029,-444.123565,0.000000
4051.475269,-9622.677246,-518.144159,0.000000
4051.475598,-9178.553681,0.000000,153.219100
4051.475928,-9474.636058,-296.082377,0.000000
4051.476258,-10140.821405,592.164754,0.000000
4051.476588,-10362.883188,222.061783,306.438199
4051.476917,-10140.821405,296.082377,1072.533697
4051.477247,-10510.924376,444.123565,766.095498
4051.477577,-9696.697840,0.000000,1072.533697
4051.477907,-9918.759623,0.000000,1149.143247
4051.478237,-10362.883188,74.020594,1072.533697
4051.478566,-10362.883188,-444.123565,459.657299
4051.478896,-9622.677246,-518.144159,0.000000
4051.479226,-8956.491898,-370.102971,-536.266849
4051.479556,-8956.491898,-666.185348,0.000000
4051.479885,-9474.636058,0.000000,153.219100
4051.480215,-9696.697840,0.000000,306.438199
4051.480545,-10140.821405,222.061783,842.705048
4051.480875,-10362.883188,296.082377,995.924147
4051.481204,-9992.780217,148.041188,1149.143247
4051.481534,-10362.883188,-148.041188,995.924147
4051.481864,-10510.924376,-74.020594,842.705048
4051.482194,-9918.759623,-592.164754,229.828649
4051.482523,-9326.594869,-518.144159,689.485948
4051.482853,-8956.491898,-74.020594,0.000000
4051.483183,-8808.450710,-444.123565,0.000000
4051.483513,-8956.491898,0.000000,-459.657299
4051.483843,-9400.615463,370.102971,-383.047749
4051.484172,-9918.759623,444.123565,459.657299
4051.484502,-10140.821405,370.102971,306.438199
4051.484832,-9622.677246,148.041188,0.000000
4051.485162,-9844.739029,-222.061783,76.609550
4051.485491,-9844.739029,-444.123565,306.438199
4051.485821,-9622.677246,-740.205942,612.876398
4051.486151,-9622.677246,-592.164754,842.705048
4051.486481,-8586.388927,-296.082377,383.047749
4051.486810,-9178.553681,-222.061783,0.000000
4051.487140,-10140.821405,370.102971,0.000000
4051.487470,-10807.006753,740.205942,0.000000
4051.487800,-10732.986159,592.164754,0.000000
4051.488129,-9770.718434,592.164754,0.000000
4051.488459,-9326.594869,74.020594,0.000000
4051.488789,-9844.739029,296.082377,0.000000
4051.489119,-10584.944971,0.000000,306.438199
4051.489449,-11029.068536,-222.061783,0.000000
4051.489778,-10214.842000,-296.082377,0.000000
4051.490108,-9696.697840,-74.020594,-536.266849
4051.490438,-9548.656652,-296.082377,766.095498
4051.490768,-9474.636058,0.000000,919.314598
4051.491097,-9918.759623,592.164754,536.266849
4051.491427,-10140.821405,518.144159,383.047749
4051.491757,-9992.780217,148.041188,536.266849
4051.492087,-10066.800811,74.020594,0.000000
4051.492416,-10288.862594,0.000000,459.657299
4051.492746,-10140.821405,0.000000,459.657299
4051.493076,-9326.594869,-740.205942,0.000000
4051.493406,-8808.450710,-370.102971,-383.047749
4051.493735,-8290.306550,-222.061783,-612.876398
4051.494065,-9178.553681,0.000000,-536.266849
4051.494395,-9696.697840,518.144159,0.000000
4051.494725,-9918.759623,888.247130,229.828649
4051.495055,-10140.821405,962.267725,842.705048
4051.495384,-10214.842000,888.247130,383.047749
4051.495714,-9622.677246,296.082377,0.000000
4051.496044,-9918.759623,666.185348,0.000000
4051.496374,-9918.759623,148.041188,0.000000
4051.496703,-9770.718434,0.000000,766.095498
4051.497033,-9622.677246,0.000000,459.657299
4051.497363,-8956.491898,74.020594,76.609550
4051.497693,-8660.409521,0.000000,-766.095498
4051.498022,-9474.636058,666.185348,-842.705048
4051.498352,-10066.800811,814.226536,-459.657299
4051.498682,-10584.944971,740.205942,153.219100
4051.499012,-10510.924376,1036.288319,0.000000
4051.499341,-10066.800811,518.144159,536.266849
4051.499671,-10362.883188,740.205942,612.876398
4051.500001,-9918.759623,0.000000,306.438199
4051.500331,-9548.656652,-222.061783,153.219100
4051.500661,-9770.718434,-222.061783,1149.143247
4051.500990,-9326.594869,222.061783,919.314598
4051.501320,-9326.594869,0.000000,536.266849
4051.501650,-9548.656652,888.247130,459.657299
4051.501980,-9844.739029,444.123565,0.000000
4051.502309,-9992.780217,740.205942,-536.266849
4051.502639,-9844.739029,740.205942,-459.657299
4051.502969,-9104.533087,0.000000,919.314598
4051.503299,-9844.739029,148.041188,1455.581446
4051.503628,-10955.047942,0.000000,1149.143247
4051.503958,-10436.903782,-962.267725,612.876398
4051.504288,-9104.533087,-814.226536,76.609550
4051.504618,-8438.347739,-592.164754,0.000000
4051.504947,-9252.574275,-592.164754,919.314598
4051.505277,-9474.636058,-148.041188,536.266849
4051.505607,-9622.677246,296.082377,-229.828649
4051.505937,-9622.677246,222.061783,0.000000
4051.506267,-10288.862594,740.205942,-612.876398
4051.506596,-9918.759623,370.102971,-459.657299
4051.506926,-9844.739029,0.000000,0.000000
4051.507256,-10510.924376,0.000000,229.828649
4051.507586,-10214.842000,-592.164754,536.266849
4051.507915,-9326.594869,-888.247130,153.219100
4051.508245,-8660.409521,-740.205942,0.000000
4051.508575,-9400.615463,-740.205942,383.047749
4051.508905,-10214.842000,0.000000,76.609550
4051.509234,-10066.800811,0.000000,0.000000
4051.509564,-9992.780217,370.102971,229.828649
4051.509894,-9918.759623,370.102971,0.000000
4051.510224,-9474.636058,518.144159,-919.314598
4051.510553,-10066.800811,0.000000,383.047749
4051.510883,-10288.862594,0.000000,459.657299
4051.511213,-10140.821405,-444.123565,766.095498
4051.511543,-10140.821405,-518.144159,689.485948
4051.511873,-9474.636058,-444.123565,153.219100
4051.512202,-8734.430116,-592.164754,0.000000
4051.512532,-9030.512492,0.000000,0.000000
4051.512862,-9548.656652,444.123565,0.000000
4051.513192,-10140.821405,888.247130,383.047749
4051.513521,-9696.697840,814.226536,-76.609550
4051.513851,-9474.636058,444.123565,-76.609550
4051.514181,-10436.903782,296.082377,766.095498
4051.514511,-10584.944971,296.082377,612.876398
4051.514840,-10066.800811,-74.020594,842.705048
4051.515170,-8956.491898,-370.102971,229.828649
4051.515500,-8364.327145,0.000000,0.000000
4051.515830,-8660.409521,0.000000,-306.438199
4051.516159,-9770.718434,518.144159,76.609550
4051.516489,-10140.821405,666.185348,229.828649
4051.516819,-10362.883188,962.267725,459.657299
4051.517149,-9918.759623,740.205942,459.657299
4051.517479,-9696.697840,222.061783,536.266849
4051.517808,-9770.718434,296.082377,842.705048
4051.518138,-9622.677246,0.000000,612.876398
4051.518468,-9622.677246,74.020594,459.657299
4051.518798,-9252.574275,296.082377,612.876398
4051.519127,-9622.677246,296.082377,-842.705048
4051.519457,-10066.800811,296.082377,-459.657299
4051.519787,-10362.883188,148.041188,153.219100
4051.520117,-9474.636058,518.144159,-459.657299
4051.520446,-9252.574275,148.041188,459.657299
4051.520776,-9474.636058,518.144159,459.657299
4051.521106,-9770.718434,370.102971,766.095498
4051.521436,-10584.944971,0.000000,766.095498
4051.521765,-10955.047942,222.061783,536.266849
4051.522095,-10362.883188,0.000000,383.047749
4051.522425,-9326.594869,-444.123565,0.000000
4051.522755,-8734.430116,0.000000,-383.047749
4051.523084,-8956.491898,-444.123565,-229.828649
4051.523414,-9474.636058,-74.020594,-919.314598
4051.523744,-9770.718434,74.020594,-612.876398
4051.524074,-10066.800811,296.082377,0.000000
4051.524404,-9326.594869,296.082377,76.609550
4051.524733,-9474.636058,-148.041188,0.000000
4051.525063,-9918.759623,0.000000,459.657299
4051.525393,-10214.842000,0.000000,459.657299
4051.525723,-9696.697840,-444.123565,766.095498
4051.526052,-9696.697840,-370.102971,383.047749
4051.526382,-9104.533087,-148.041188,76.609550
4051.526712,-9178.553681,-444.123565,229.828649
4051.527042,-9548.656652,0.000000,-153.219100
4051.527371,-9548.656652,148.041188,-1149.143247
4051.527701,-9622.677246,518.144159,-766.095498
4051.528031,-10214.842000,740.205942,153.219100
4051.528361,-9992.780217,148.041188,76.609550
4051.528690,-10140.821405,148.041188,919.314598
4051.529020,-10658.965565,148.041188,459.657299
4051.529350,-10362.883188,-148.041188,306.438199
4051.529680,-9696.697840,-444.123565,153.219100
4051.530010,-8734.430116,-444.123565,-153.219100
4051.530339,-9474.636058,-296.082377,1149.143247
4051.530669,-10510.924376,74.020594,1149.143247
4051.530999,-10436.903782,74.020594,536.266849
4051.531329,-9696.697840,296.082377,383.047749
4051.531659,-9030.512492,74.020594,0.000000
4051.531988,-9474.636058,444.123565,229.828649
4051.532318,-10288.862594,0.000000,919.314598
4051.532648,-10881.027347,74.020594,1072.533697
4051.532978,-9770.718434,-148.041188,306.438199
4051.533308,-9400.615463,-296.082377,306.438199
4051.533638,-9252.574275,-222.061783,0.000000
4051.533967,-9400.615463,-370.102971,229.828649
4051.534297,-9474.636058,148.041188,0.000000
4051.534627,-9548.656652,74.020594,612.876398
4051.534957,-9992.780217,74.020594,612.876398
4051.535287,-9918.759623,370.102971,689.485948
4051.535617,-9548.656652,-296.082377,-306.438199
4051.535946,-9992.780217,0.000000,766.095498
4051.536276,-10066.800811,-296.082377,995.924147
4051.536606,-9844.739029,-296.082377,766.095498
4051.536936,-9326.594869,-444.123565,689.485948
4051.537266,-9030.512492,-148.041188,0.000000
4051.537596,-9622.677246,-296.082377,306.438199
4051.537925,-10214.842000,148.041188,153.219100
4051.538255,-9844.739029,0.000000,-919.314598
4051.538585,-9696.697840,370.102971,-612.876398
4051.538915,-9622.677246,296.082377,0.000000
4051.539245,-9622.677246,-222.061783,689.485948
4051.539575,-10214.842000,222.061783,919.314598
4051.539904,-9992.780217,74.020594,612.876398
4051.540234,-10140.821405,-296.082377,-383.047749
4051.540564,-9474.636058,296.082377,-306.438199
4051.540894,-9696.697840,0.000000,-383.047749
4051.541224,-10140.821405,-296.082377,536.266849
4051.541554,-10288.862594,0.000000,153.219100
4051.541883,-9844.739029,0.000000,153.219100
4051.542213,-9548.656652,0.000000,459.657299
4051.542543,-9474.636058,0.000000,0.000000
4051.542873,-9326.594869,-814.226536,306.438199
4051.543203,-10288.862594,148.041188,689.485948
4051.543533,-10732.986159,74.020594,842.705048
4051.543862,-10066.800811,-444.123565,842.705048
4051.544192,-8660.409521,-740.205942,76.609550
4051.544522,-8882.471304,-222.061783,229.828649
4051.544852,-9178.553681,-296.082377,0.000000
4051.545182,-9474.636058,0.000000,-612.876398
4051.545512,-9770.718434,74.020594,-536.266849
4051.545841,-9770.718434,370.102971,76.609550
4051.546171,-10214.842000,592.164754,229.828649
4051.546501,-9844.739029,222.061783,153.219100
4051.546831,-10140.821405,222.061783,153.219100
4051.547161,-10140.821405,222.061783,612.876398
4051.547491,-9992.780217,0.000000,306.438199
4051.547820,-9474.636058,0.000000,536.266849
4051.548150,-9326.594869,444.123565,536.266849
4051.548480,-9178.553681,370.102971,612.876398
4051.548810,-10362.883188,518.144159,-459.657299
4051.549140,-9918.759623,444.123565,-1149.143247
4051.549470,-9770.718434,592.164754,-536.266849
4051.549800,-9252.574275,444.123565,-919.314598
4051.550129,-9178.553681,296.082377,153.219100
4051.550459,-9770.718434,740.205942,766.095498
4051.550789,-10214.842000,888.247130,306.438199
4051.551119,-10807.006753,814.226536,153.219100
4051.551449,-10658.965565,666.185348,0.000000
4051.551779,-10288.862594,370.102971,0.000000
4051.552108,-9844.739029,0.000000,689.485948
4051.552438,-9474.636058,0.000000,689.485948
4051.552768,-9178.553681,148.041188,0.000000
4051.553098,-9770.718434,222.061783,0.000000
4051.553428,-9696.697840,148.041188,-383.047749
4051.553758,-9474.636058,222.061783,-229.828649
4051.554087,-9696.697840,0.000000,76.609550
4051.554417,-9844.739029,148.041188,689.485948
4051.554747,-9770.718434,0.000000,1149.143247
4051.555077,-9326.594869,-222.061783,459.657299
4051.555407,-9252.574275,-370.102971,459.657299
4051.555737,-9992.780217,-296.082377,612.876398
4051.556066,-9770.718434,-222.061783,766.095498
4051.556396,-9696.697840,0.000000,612.876398
4051.556726,-9918.759623,-444.123565,919.314598
4051.557056,-9770.718434,0.000000,459.657299
4051.557386,-9474.636058,-148.041188,76.609550
4051.557716,-9548.656652,0.000000,76.609550
4051.558045,-9992.780217,370.102971,0.000000
4051.558375,-10288.862594,222.061783,-536.266849
4051.558705,-10140.821405,0.000000,0.000000
4051.559035,-9844.739029,0.000000,229.828649
4051.559365,-9548.656652,-518.144159,612.876398
4051.559695,-9548.656652,-592.164754,459.657299
4051.560024,-9400.615463,0.000000,0.000000
4051.560354,-9844.739029,-296.082377,612.876398
4051.560684,-10510.924376,0.000000,612.876398
4051.561014,-10288.862594,-370.102971,459.657299
4051.561344,-9770.718434,-592.164754,766.095498
4051.561674,-10066.800811,0.000000,689.485948
4051.562003,-9622.677246,0.000000,229.828649
4051.562333,-9918.759623,222.061783,0.000000
4051.562663,-9548.656652,0.000000,-995.924147
4051.562993,-10066.800811,0.000000,-229.828649
4051.563323,-10066.800811,-370.102971,-153.219100
4051.563653,-9622.677246,-444.123565,153.219100
4051.563982,-9548.656652,-370.102971,459.657299
4051.564312,-9252.574275,-444.123565,459.657299
4051.564642,-8808.450710,-888.247130,0.000000
4051.564972,-9400.615463,-222.061783,689.485948
4051.565302,-9918.759623,74.020594,766.095498
4051.565632,-10807.006753,222.061783,612.876398
4051.565961,-9844.739029,148.041188,306.438199
4051.566291,-9548.656652,444.123565,-229.828649
4051.566621,-9918.759623,-148.041188,-229.828649
4051.566951,-9844.739029,-666.185348,-536.266849
4051.567281,-9326.594869,-296.082377,-306.438199
4051.567611,-9326.594869,-74.020594,76.609550
4051.567940,-9474.636058,518.144159,459.657299
4051.568270,-9770.718434,518.144159,-76.609550
4051.568600,-10140.821405,444.123565,76.609550
4051.568930,-10214.842000,888.247130,-459.657299
4051.569260,-10362.883188,444.123565,-229.828649
4051.569590,-10140.821405,444.123565,536.266849
4051.569919,-9696.697840,370.102971,612.876398
4051.570249,-9474.636058,222.061783,536.266849
4051.570579,-9770.718434,0.000000,0.000000
4051.570909,-9992.780217,-148.041188,-229.828649
4051.571239,-9400.615463,0.000000,0.000000
4051.571569,-9252.574275,444.123565,306.438199
4051.571898,-8882.471304,296.082377,383.047749
4051.572228,-9474.636058,592.164754,306.438199
4051.572558,-9918.759623,962.267725,0.000000
4051.572888,-10658.965565,444.123565,383.047749
4051.573218,-10732.986159,518.144159,76.609550
4051.573548,-10436.903782,370.102971,229.828649
4051.573877,-9474.636058,0.000000,766.095498
4051.574207,-9252.574275,0.000000,459.657299
4051.574537,-9326.594869,-296.082377,76.609550
4051.574867,-9474.636058,148.041188,536.266849
4051.575197,-9548.656652,370.102971,76.609550
4051.575527,-9400.615463,148.041188,153.219100
4051.575856,-9770.718434,0.000000,459.657299
4051.576186,-10288.862594,444.123565,612.876398
4051.576516,-10214.842000,0.000000,383.047749
4051.576846,-9474.636058,370.102971,0.000000
4051.577176,-9178.553681,444.123565,-229.828649
4051.577506,-9992.780217,74.020594,229.828649
4051.577835,-10510.924376,74.020594,229.828649
4051.578165,-9992.780217,148.041188,383.047749
4051.578495,-10066.800811,0.000000,842.705048
4051.578825,-9696.697840,0.000000,459.657299
4051.579155,-9252.574275,-222.061783,229.828649
4051.579485,-9178.553681,0.000000,76.609550
4051.579814,-9992.780217,148.041188,306.438199
4051.580144,-10214.842000,0.000000,229.828649
4051.580474,-10214.842000,74.020594,153.219100
4051.580804,-10140.821405,444.123565,0.000000
4051.581134,-9474.636058,0.000000,0.000000
4051.581464,-9844.739029,-148.041188,76.609550
4051.581794,-9844.739029,-296.082377,459.657299
4051.582123,-9622.677246,-148.041188,995.924147
4051.582453,-9696.697840,-222.061783,612.876398
4051.582783,-9474.636058,-296.082377,153.219100
4051.583113,-9844.739029,-296.082377,76.609550
4051.583443,-10362.883188,0.000000,229.828649
4051.583773,-9918.759623,-148.041188,459.657299
4051.584102,-9178.553681,-74.020594,536.266849
4051.584432,-9326.594869,370.102971,0.000000
4051.584762,-9770.718434,0.000000,0.000000
4051.585092,-10510.924376,74.020594,-383.047749
4051.585422,-10436.903782,0.000000,76.609550
4051.585752,-10288.862594,0.000000,459.657299
4051.586081,-9474.636058,-148.041188,229.828649
4051.586411,-8808.450710,-592.164754,153.219100
4051.586741,-9400.615463,-222.061783,306.438199
4051.587071,-10288.862594,0.000000,306.438199
4051.587401,-10881.027347,370.102971,229.828649
4051.587731,-10066.800811,148.041188,0.000000
4051.588060,-9474.636058,518.144159,-842.705048
4051.588390,-9696.697840,0.000000,153.219100
4051.588720,-10140.821405,0.000000,229.828649
4051.589050,-9992.780217,0.000000,76.609550
4051.589380,-9622.677246,0.000000,306.438199
4051.589710,-8956.491898,0.000000,0.000000
4051.590039,-9770.718434,0.000000,766.095498
4051.590369,-10436.903782,222.061783,459.657299
4051.590699,-10288.862594,370.102971,306.438199
4051.591029,-10066.800811,74.020594,76.609550
4051.591359,-9178.553681,0.000000,0.000000
4051.591689,-8882.471304,0.000000,76.609550
4051.592018,-9326.594869,0.000000,383.047749
4051.592348,-10140.821405,592.164754,689.485948
4051.592678,-9992.780217,0.000000,383.047749
4051.593008,-9844.739029,0.000000,306.438199
4051.593338,-9474.636058,0.000000,459.657299
4051.593668,-9252.574275,-370.102971,383.047749
4051.593997,-9844.739029,0.000000,842.705048
4051.594327,-10214.842000,148.041188,612.876398
4051.594657,-9918.759623,0.000000,383.047749
4051.594987,-9252.574275,222.061783,-153.219100
4051.595317,-9400.615463,444.123565,-153.219100
4051.595647,-9400.615463,222.061783,306.438199
4051.595976,-9918.759623,444.123565,306.438199
4051.596306,-9918.759623,74.020594,76.609550
4051.596636,-9696.697840,0.000000,0.000000
4051.596966,-9622.677246,0.000000,76.609550
4051.597296,-9252.574275,-592.164754,0.000000
4051.597626,-9548.656652,-148.041188,612.876398
4051.597955,-10288.862594,518.144159,76.609550
4051.598285,-10288.862594,148.041188,383.047749
4051.598615,-9178.553681,148.041188,383.047749
4051.598945,-9252.574275,666.185348,-306.438199
4051.599275,-10214.842000,74.020594,306.438199
4051.599605,-10732.986159,296.082377,536.266849
4051.599934,-10510.924376,74.020594,-229.828649
4051.600264,-9844.739029,0.000000,0.000000
4051.600594,-9178.553681,0.000000,-229.828649
4051.600924,-8142.265362,-740.205942,-229.828649
4051.601254,-9104.533087,0.000000,76.609550
4051.601584,-10214.842000,444.123565,153.219100
4051.601913,-10658.965565,222.061783,229.828649
4051.602243,-9844.739029,518.144159,229.828649
4051.602573,-9474.636058,370.102971,-612.876398
4051.602903,-9844.739029,444.123565,842.705048
4051.603233,-10214.842000,148.041188,995.924147
4051.603563,-9992.780217,0.000000,76.609550
4051.603892,-8956.491898,0.000000,-536.266849
4051.604222,-9030.512492,0.000000,-766.095498
4051.604552,-9548.656652,-370.102971,153.219100
4051.604882,-10214.842000,0.000000,612.876398
4051.605212,-10066.800811,148.041188,689.485948
4051.605542,-9844.739029,0.000000,536.266849
4051.605871,-9548.656652,222.061783,0.000000
4051.606201,-9622.677246,296.082377,-459.657299
4051.606531,-9548.656652,370.102971,459.657299
4051.606861,-10510.924376,296.082377,536.266849
4051.607191,-10362.883188,-222.061783,689.485948
4051.607521,-9474.636058,0.000000,995.924147
4051.607850,-9030.512492,-296.082377,76.609550
4051.608180,-9030.512492,-592.164754,-689.485948
4051.608510,-9252.574275,0.000000,-306.438199
4051.608840,-9770.718434,296.082377,-153.219100
4051.609170,-9992.780217,222.061783,0.000000
4051.609500,-9252.574275,370.102971,76.609550
4051.609829,-9548.656652,222.061783,153.219100
4051.610159,-9992.780217,74.020594,383.047749
4051.610489,-10881.027347,0.000000,153.219100
4051.610819,-9400.615463,-592.164754,0.000000
4051.611149,-9400.615463,-444.123565,1225.752797
4051.611479,-9326.594869,-222.061783,1455.581446
4051.611808,-9474.636058,-592.164754,1608.800546
4051.612138,-9992.780217,-444.123565,842.705048
4051.612468,-10140.821405,-74.020594,-76.609550
4051.612798,-9992.780217,-296.082377,-536.266849
4051.613128,-9622.677246,0.000000,-306.438199
4051.613458,-9252.574275,148.041188,-306.438199
4051.613787,-9474.636058,0.000000,766.095498
4051.614117,-10140.821405,222.061783,612.876398
4051.614447,-10362.883188,0.000000,0.000000
4051.614777,-10288.862594,0.000000,76.609550
4051.615107,-9622.677246,-518.144159,306.438199
4051.615437,-9992.780217,-444.123565,1225.752797
4051.615767,-10362.883188,0.000000,1378.971896
4051.616096,-10807.006753,-148.041188,536.266849
4051.616426,-10288.862594,-296.082377,-306.438199
4051.616756,-9622.677246,-74.020594,-459.657299
4051.617086,-9400.615463,296.082377,153.219100
4051.617416,-9622.677246,-74.020594,1149.143247
4051.617746,-9918.759623,296.082377,995.924147
4051.618075,-10066.800811,222.061783,306.438199
4051.618405,-10214.842000,74.020594,0.000000
4051.618735,-9844.739029,-222.061783,-536.266849
4051.619065,-9474.636058,-296.082377,76.609550
4051.619395,-9252.574275,-518.144159,689.485948
4051.619725,-9548.656652,-296.082377,842.705048
4051.620054,-8882.471304,-296.082377,0.000000
4051.620384,-8956.491898,222.061783,-306.438199
4051.620714,-9844.739029,888.247130,76.609550
4051.621044,-10140.821405,518.144159,0.000000
4051.621374,-10362.883188,666.185348,383.047749
4051.621704,-9918.759623,814.226536,153.219100
4051.622033,-9474.636058,296.082377,306.438199
4051.622363,-9178.553681,0.000000,-306.438199
4051.622693,-9474.636058,74.020594,-536.266849
4051.623023,-9696.697840,0.000000,-459.657299
4051.623353,-9918.759623,0.000000,-612.876398
4051.623683,-9326.594869,222.061783,-306.438199
4051.624012,-9252.574275,148.041188,383.047749
4051.624342,-9548.656652,740.205942,689.485948
4051.624672,-10362.883188,592.164754,919.314598
4051.625002,-10436.903782,666.185348,306.438199
4051.625332,-10066.800811,592.164754,76.609550
4051.625662,-10140.821405,666.185348,383.047749
4051.625991,-9992.780217,296.082377,76.609550
4051.626321,-9474.636058,296.082377,229.828649
4051.626651,-9548.656652,-370.102971,0.000000
4051.626981,-9400.615463,0.000000,-153.219100
4051.627311,-8956.491898,0.000000,-383.047749
4051.627641,-9178.553681,222.061783,76.609550
4051.627970,-9252.574275,518.144159,919.314598
4051.628300,-10658.965565,814.226536,1378.971896
4051.628630,-11177.109724,888.247130,612.876398
4051.628960,-10732.986159,296.082377,-306.438199
4051.629290,-9770.718434,74.020594,-612.876398
4051.629620,-9770.718434,-370.102971,-153.219100
4051.629949,-9178.553681,-666.185348,229.828649
4051.630279,-8956.491898,-518.144159,919.314598
4051.630609,-8808.450710,148.041188,612.876398
4051.630939,-9252.574275,0.000000,-76.609550
4051.631269,-9548.656652,74.020594,-536.266849
4051.631599,-10066.800811,296.082377,459.657299
4051.631929,-10584.944971,222.061783,1302.362347
4051.632259,-10362.883188,148.041188,1225.752797
4051.632589,-9770.718434,0.000000,459.657299
4051.632919,-9696.697840,0.000000,76.609550
4051.633249,-9474.636058,0.000000,-612.876398
4051.633578,-9400.615463,0.000000,-153.219100
4051.633908,-9548.656652,296.082377,229.828649
4051.634238,-9622.677246,444.123565,153.219100
4051.634568,-9252.574275,0.000000,0.000000
4051.634898,-9474.636058,814.226536,-383.047749
4051.635228,-9918.759623,444.123565,-612.876398
4051.635558,-10807.006753,370.102971,-689.485948
4051.635888,-10288.862594,74.020594,153.219100
4051.636218,-9992.780217,-148.041188,459.657299
4051.636548,-9252.574275,0.000000,1302.362347
4051.636878,-9622.677246,0.000000,1149.143247
4051.637207,-9844.739029,0.000000,536.266849
4051.637537,-9918.759623,-296.082377,153.219100
4051.637867,-10584.944971,444.123565,383.047749
4051.638197,-10362.883188,0.000000,229.828649
4051.638527,-9992.780217,0.000000,383.047749
4051.638857,-9400.615463,-148.041188,459.657299
4051.639187,-9622.677246,74.020594,842.705048
4051.639517,-9992.780217,296.082377,76.609550
4051.639847,-10066.800811,0.000000,-153.219100
4051.640177,-9770.718434,0.000000,153.219100
4051.640506,-9622.677246,0.000000,1302.362347
4051.640836,-9622.677246,-444.123565,1149.143247
4051.641166,-9770.718434,-666.185348,1225.752797
4051.641496,-9474.636058,-814.226536,153.219100
4051.641826,-8882.471304,-814.226536,0.000000
4051.642156,-9104.533087,-666.185348,459.657299
4051.642486,-9326.594869,-296.082377,229.828649
4051.642816,-9548.656652,74.020594,842.705048
4051.643146,-9474.636058,444.123565,0.000000
4051.643476,-9992.780217,592.164754,-306.438199
4051.643806,-10288.862594,148.041188,76.609550
4051.644135,-9622.677246,74.020594,0.000000
4051.644465,-9474.636058,-370.102971,76.609550
4051.644795,-9696.697840,74.020594,689.485948
4051.645125,-9770.718434,-296.082377,0.000000
4051.645455,-9400.615463,-740.205942,-229.828649
4051.645785,-9104.533087,-222.061783,0.000000
4051.646115,-9844.739029,296.082377,459.657299
4051.646445,-10436.903782,0.000000,1532.190996
4051.646775,-10362.883188,74.020594,995.924147
4051.647105,-9844.739029,74.020594,612.876398
4051.647435,-10140.821405,296.082377,1225.752797
4051.647764,-10140.821405,592.164754,383.047749
4051.648094,-9844.739029,0.000000,-306.438199
4051.648424,-9622.677246,-222.061783,-919.314598
4051.648754,-9992.780217,0.000000,-229.828649
4051.649084,-10066.800811,-222.061783,306.438199
4051.649414,-9474.636058,-444.123565,0.000000
4051.649744,-9474.636058,222.061783,0.000000
4051.650074,-9548.656652,0.000000,459.657299
4051.650404,-10436.903782,518.144159,1072.533697
4051.650734,-10510.924376,444.123565,766.095498
4051.651063,-10140.821405,222.061783,1378.971896
4051.651393,-9844.739029,74.020594,1149.143247
4051.651723,-9622.677246,-370.102971,919.314598
4051.652053,-10066.800811,-740.205942,919.314598
4051.652383,-9622.677246,0.000000,76.609550
4051.652713,-9326.594869,-370.102971,-766.095498
4051.653043,-9474.636058,148.041188,-153.219100
4051.653373,-9104.533087,666.185348,76.609550
4051.653703,-9252.574275,370.102971,0.000000
4051.654033,-9622.677246,444.123565,0.000000
4051.654363,-10584.944971,592.164754,-306.438199
4051.654692,-10362.883188,1036.288319,459.657299
4051.655022,-9696.697840,222.061783,306.438199
4051.655352,-9326.594869,74.020594,306.438199
4051.655682,-9992.780217,370.102971,383.047749
4051.656012,-10362.883188,518.144159,229.828649
4051.656342,-9696.697840,-148.041188,-229.828649
4051.656672,-9178.553681,444.123565,-612.876398
4051.657002,-8956.491898,666.185348,76.609550
4051.657332,-9548.656652,666.185348,153.219100
4051.657662,-9770.718434,1110.308913,-306.438199
4051.657992,-9992.780217,814.226536,-842.705048
4051.658321,-10510.924376,814.226536,-536.266849
4051.658651,-9918.759623,518.144159,0.000000
4051.658981,-9844.739029,148.041188,153.219100
4051.659311,-9400.615463,0.000000,306.438199
4051.659641,-9770.718434,518.144159,383.047749
4051.659971,-10362.883188,74.020594,689.485948
4051.660301,-10140.821405,74.020594,689.485948
4051.660631,-9770.718434,296.082377,306.438199
4051.660961,-9770.718434,222.061783,842.705048
4051.661291,-10066.800811,296.082377,919.314598
4051.661621,-10066.800811,0.000000,536.266849
4051.661950,-10066.800811,0.000000,766.095498
4051.662280,-9548.656652,0.000000,306.438199
4051.662610,-9696.697840,-74.020594,459.657299
4051.662940,-10288.862594,-148.041188,306.438199
4051.663270,-10288.862594,148.041188,536.266849
4051.663600,-9252.574275,-518.144159,-76.609550
4051.663930,-9252.574275,0.000000,76.609550
4051.664260,-9178.553681,-370.102971,153.219100
4051.664590,-9252.574275,-296.082377,1225.752797
4051.664920,-9548.656652,0.000000,153.219100
4051.665249,-10214.842000,-444.123565,153.219100
4051.665579,-10436.903782,0.000000,459.657299
4051.665909,-10140.821405,-370.102971,0.000000
4051.666239,-9474.636058,-1110.308913,153.219100
4051.666569,-9326.594869,-888.247130,459.657299
4051.666899,-9696.697840,-444.123565,766.095498
4051.667229,-9474.636058,-814.226536,76.609550
4051.667559,-9400.615463,-370.102971,229.828649
4051.667889,-9474.636058,0.000000,-306.438199
4051.668219,-10510.924376,0.000000,229.828649
4051.668549,-10881.027347,296.082377,383.047749
4051.668878,-10807.006753,-444.123565,0.000000
4051.669208,-10066.800811,-518.144159,153.219100
4051.669538,-9252.574275,-888.247130,689.485948
4051.669868,-9252.574275,-888.247130,842.705048
4051.670198,-9400.615463,-888.247130,995.924147
4051.670528,-9548.656652,-518.144159,689.485948
4051.670858,-9770.718434,-518.144159,689.485948
4051.671188,-9770.718434,0.000000,766.095498
4051.671518,-9696.697840,74.020594,306.438199
4051.671848,-9770.718434,0.000000,306.438199
4051.672178,-10436.903782,592.164754,153.219100
4051.672507,-10658.965565,296.082377,229.828649
4051.672837,-10140.821405,0.000000,689.485948
4051.673167,-9252.574275,0.000000,-306.438199
4051.673497,-9104.533087,-370.102971,-612.876398
4051.673827,-9474.636058,-222.061783,76.609550
4051.674157,-9918.759623,0.000000,229.828649
4051.674487,-9548.656652,0.000000,153.219100
4051.674817,-9548.656652,592.164754,536.266849
4051.675147,-9992.780217,888.247130,153.219100
4051.675477,-10066.800811,370.102971,612.876398
4051.675806,-9992.780217,444.123565,0.000000
4051.676136,-10066.800811,296.082377,0.000000
4051.676466,-9918.759623,370.102971,306.438199
4051.676796,-9696.697840,222.061783,229.828649
4051.677126,-8956.491898,0.000000,306.438199
4051.677456,-9326.594869,148.041188,0.000000
4051.677786,-9474.636058,814.226536,229.828649
4051.678116,-9918.759623,296.082377,0.000000
4051.678446,-9696.697840,962.267725,-689.485948
4051.678776,-9474.636058,740.205942,-689.485948
4051.679106,-9474.636058,370.102971,-459.657299
4051.679435,-10362.883188,518.144159,229.828649
4051.679765,-9696.697840,0.000000,0.000000
4051.680095,-9474.636058,148.041188,153.219100
4051.680425,-9252.574275,148.041188,383.047749
4051.680755,-9474.636058,148.041188,229.828649
4051.681085,-10140.821405,444.123565,536.266849
4051.681415,-10436.903782,592.164754,459.657299
4051.681745,-10214.842000,444.123565,306.438199
4051.682075,-9548.656652,296.082377,459.657299
4051.682405,-9400.615463,666.185348,-383.047749
4051.682735,-9696.697840,296.082377,0.000000
4051.683064,-10436.903782,888.247130,-229.828649
4051.683394,-9992.780217,222.061783,-612.876398
4051.683724,-9844.739029,296.082377,383.047749
4051.684054,-10066.800811,518.144159,306.438199
4051.684384,-9992.780217,-222.061783,459.657299
4051.684714,-10510.924376,0.000000,1455.581446
4051.685044,-10214.842000,-740.205942,229.828649
4051.685374,-8660.409521,-296.082377,536.266849
4051.685704,-8956.491898,74.020594,919.314598
4051.686034,-9474.636058,0.000000,766.095498
4051.686363,-9622.677246,0.000000,459.657299
4051.686693,-10140.821405,518.144159,306.438199
4051.687023,-10140.821405,148.041188,-306.438199
4051.687353,-10140.821405,222.061783,0.000000
4051.687683,-9548.656652,74.020594,0.000000
4051.688013,-9104.533087,-444.123565,0.000000
4051.688343,-9548.656652,-666.185348,1072.533697
4051.688673,-10362.883188,-148.041188,383.047749
4051.689003,-9548.656652,-296.082377,229.828649
4051.689333,-9252.574275,0.000000,-153.219100
4051.689663,-9326.594869,74.020594,0.000000
4051.689992,-9992.780217,0.000000,459.657299
4051.690322,-10658.965565,370.102971,459.657299
4051.690652,-10066.800811,0.000000,459.657299
4051.690982,-9622.677246,0.000000,0.000000
4051.691312,-9622.677246,148.041188,-229.828649
4051.691642,-9326.594869,-370.102971,-612.876398
4051.691972,-9326.594869,-518.144159,536.266849
4051.692302,-9622.677246,0.000000,459.657299
4051.692632,-10140.821405,0.000000,383.047749
4051.692962,-10288.862594,148.041188,76.609550
4051.693292,-9400.615463,-296.082377,0.000000
4051.693621,-9918.759623,-296.082377,383.047749
4051.693951,-10066.800811,222.061783,1072.533697
4051.694281,-9770.718434,-296.082377,1149.143247
4051.694611,-9770.718434,0.000000,1072.533697
4051.694941,-9548.656652,-222.061783,612.876398
4051.695271,-10140.821405,-444.123565,229.828649
4051.695601,-10214.842000,-370.102971,153.219100
4051.695931,-9918.759623,-222.061783,153.219100
4051.696261,-8956.491898,-666.185348,229.828649
4051.696591,-8882.471304,-296.082377,153.219100
4051.696921,-9178.553681,148.041188,766.095498
4051.697250,-9622.677246,444.123565,842.705048
4051.697580,-10510.924376,444.123565,153.219100
4051.697910,-10214.842000,0.000000,229.828649
4051.698240,-9844.739029,222.061783,689.485948
4051.698570,-9696.697840,0.000000,459.657299
4051.698900,-9400.615463,-296.082377,-229.828649
4051.699230,-9844.739029,-222.061783,0.000000
4051.699560,-9252.574275,0.000000,0.000000
4051.699890,-8882.471304,-296.082377,-383.047749
4051.700220,-9104.533087,370.102971,-536.266849
4051.700549,-9474.636058,666.185348,229.828649
4051.700879,-9992.780217,222.061783,842.705048
4051.701209,-10584.944971,370.102971,0.000000
4051.701539,-9918.759623,0.000000,-536.266849
4051.701869,-9696.697840,0.000000,-1072.533697
4051.702199,-9178.553681,-592.164754,306.438199
4051.702529,-9474.636058,-740.205942,536.266849
4051.702859,-10140.821405,-592.164754,919.314598
4051.703189,-10140.821405,148.041188,1072.533697
4051.703519,-9622.677246,-296.082377,153.219100
4051.703849,-9474.636058,444.123565,0.000000
4051.704178,-9548.656652,592.164754,-536.266849
4051.704508,-10436.903782,592.164754,153.219100
4051.704838,-10732.986159,666.185348,0.000000
4051.705168,-10436.903782,0.000000,-459.657299
4051.705498,-9918.759623,0.000000,0.000000
4051.705828,-9622.677246,148.041188,0.000000
4051.706158,-9104.533087,-222.061783,0.000000
4051.706488,-9696.697840,0.000000,612.876398
4051.706818,-9400.615463,0.000000,612.876398
4051.707148,-9474.636058,0.000000,459.657299
4051.707478,-9770.718434,592.164754,842.705048
4051.707807,-9918.759623,148.041188,612.876398
4051.708137,-10658.965565,222.061783,689.485948
4051.708467,-10362.883188,518.144159,689.485948
4051.708797,-9696.697840,74.020594,153.219100
4051.709127,-9178.553681,74.020594,0.000000
4051.709457,-9104.533087,0.000000,0.000000
4051.709787,-9474.636058,222.061783,306.438199
4051.710117,-10214.842000,296.082377,306.438199
4051.710447,-10214.842000,592.164754,459.657299
4051.710777,-9622.677246,222.061783,0.000000
4051.711106,-9252.574275,296.082377,-229.828649
4051.711436,-9400.615463,814.226536,0.000000
4051.711766,-10066.800811,740.205942,612.876398
4051.712096,-10362.883188,1184.329507,153.219100
4051.712426,-9992.780217,814.226536,0.000000
4051.712756,-9918.759623,740.205942,76.609550
4051.713086,-10066.800811,592.164754,459.657299
4051.713416,-10288.862594,0.000000,459.657299
4051.713746,-9918.759623,0.000000,536.266849
4051.714076,-9474.636058,0.000000,536.266849
4051.714406,-8660.409521,-296.082377,-383.047749
4051.714735,-9252.574275,0.000000,0.000000
4051.715065,-9474.636058,740.205942,76.609550
4051.715395,-9770.718434,740.205942,383.047749
4051.715725,-10584.944971,962.267725,76.609550
4051.716055,-10436.903782,592.164754,0.000000
4051.716385,-10140.821405,370.102971,306.438199
4051.716715,-9992.780217,370.102971,383.047749
4051.717045,-9770.718434,-370.102971,536.266849
4051.717375,-10214.842000,-592.164754,459.657299
4051.717705,-9474.636058,-592.164754,229.828649
4051.718035,-8956.491898,-592.164754,229.828649
4051.718364,-9104.533087,0.000000,76.609550
4051.718694,-9696.697840,0.000000,459.657299
4051.719024,-10362.883188,74.020594,306.438199
4051.719354,-10288.862594,0.000000,76.609550
4051.719684,-10288.862594,-148.041188,0.000000
4051.720014,-9992.780217,-222.061783,383.047749
4051.720344,-9326.594869,-592.164754,0.000000
4051.720674,-9400.615463,-1036.288319,612.876398
4051.721004,-9918.759623,-1258.350101,995.924147
4051.721334,-10362.883188,-1184.329507,842.705048
4051.721663,-9622.677246,-1406.391290,1302.362347
4051.721993,-9030.512492,-1110.308913,229.828649
4051.722323,-9030.512492,-370.102971,459.657299
4051.722653,-9770.718434,-592.164754,1149.143247
4051.722983,-10436.903782,0.000000,536.266849
4051.723313,-9770.718434,-148.041188,-536.266849
4051.723643,-9992.780217,74.020594,76.609550
4051.723973,-10140.821405,0.000000,153.219100
4051.724303,-10214.842000,-740.205942,76.609550
4051.724633,-9696.697840,-814.226536,153.219100
4051.724963,-9326.594869,-666.185348,-612.876398
4051.725292,-8956.491898,-666.185348,-383.047749
4051.725622,-9474.636058,-148.041188,-229.828649
4051.725952,-9622.677246,74.020594,459.657299
4051.726282,-10288.862594,0.000000,383.047749
4051.726612,-10584.944971,518.144159,0.000000
4051.726942,-10288.862594,222.061783,0.000000
4051.727272,-9622.677246,-74.020594,689.485948
4051.727602,-9474.636058,296.082377,536.266849
4051.727932,-9696.697840,0.000000,689.485948
4051.728262,-10214.842000,148.041188,1225.752797
4051.728592,-10362.883188,296.082377,766.095498
4051.728921,-10140.821405,-148.041188,229.828649
4051.729251,-9918.759623,74.020594,229.828649
4051.729581,-9474.636058,444.123565,689.485948
4051.729911,-9326.594869,0.000000,766.095498
4051.730241,-9622.677246,1184.329507,383.047749
4051.730571,-10066.800811,740.205942,153.219100
4051.730901,-10584.944971,1258.350101,383.047749
4051.731231,-10658.965565,1184.329507,153.219100
4051.731561,-9918.759623,518.144159,689.485948
4051.731891,-10066.800811,370.102971,383.047749
4051.732220,-9474.636058,0.000000,383.047749
4051.732550,-8512.368333,-518.144159,-229.828649
4051.732880,-8438.347739,0.000000,0.000000
4051.733210,-9030.512492,814.226536,383.047749
4051.733540,-9696.697840,592.164754,919.314598
4051.733870,-10584.944971,1628.453072,0.000000
4051.734200,-10066.800811,814.226536,-536.266849
4051.734530,-10510.924376,592.164754,-383.047749
4051.734860,-9696.697840,518.144159,0.000000
4051.735189,-9844.739029,148.041188,383.047749
4051.735519,-9770.718434,518.144159,383.047749
4051.735849,-9474.636058,592.164754,842.705048
4051.736179,-9400.615463,222.061783,-689.485948
4051.736509,-9548.656652,296.082377,-612.876398
4051.736839,-9474.636058,518.144159,-306.438199
4051.737169,-9696.697840,222.061783,536.266849
4051.737499,-10436.903782,666.185348,536.266849
4051.737829,-10510.924376,370.102971,459.657299
4051.738158,-10362.883188,370.102971,153.219100
4051.738488,-9844.739029,0.000000,153.219100
4051.738818,-10140.821405,0.000000,0.000000
4051.739148,-10140.821405,-296.082377,536.266849
4051.739478,-9770.718434,-222.061783,0.000000
4051.739808,-9326.594869,-518.144159,0.000000
4051.740138,-9178.553681,-370.102971,-306.438199
4051.740468,-9770.718434,222.061783,-153.219100
4051.740798,-9918.759623,222.061783,459.657299
4051.741127,-9992.780217,518.144159,0.000000
4051.741457,-10288.862594,296.082377,689.485948
4051.741787,-10807.006753,296.082377,459.657299
4051.742117,-10436.903782,0.000000,153.219100
4051.742447,-10436.903782,-666.185348,0.000000
4051.742777,-10214.842000,-814.226536,306.438199
4051.743107,-9252.574275,-444.123565,766.095498
4051.743437,-8956.491898,-740.205942,383.047749
4051.743767,-8956.491898,-518.144159,0.000000
4051.744096,-9696.697840,74.020594,0.000000
4051.744426,-10140.821405,-370.102971,995.924147
4051.744756,-10881.027347,370.102971,153.219100
4051.745086,-10807.006753,296.082377,0.000000
4051.745416,-10066.800811,296.082377,153.219100
4051.745746,-9474.636058,222.061783,76.609550
4051.746076,-9474.636058,-296.082377,-612.876398
4051.746406,-9696.697840,-296.082377,-153.219100
4051.746735,-9696.697840,-222.061783,-153.219100
4051.747065,-9548.656652,-666.185348,0.000000
4051.747395,-9326.594869,-370.102971,306.438199
4051.747725,-8956.491898,-148.041188,383.047749
4051.748055,-8956.491898,-592.164754,689.485948
4051.748385,-9252.574275,222.061783,229.828649
4051.748715,-9622.677246,222.061783,536.266849
4051.749045,-10288.862594,0.000000,919.314598
4051.749375,-9622.677246,148.041188,842.705048
4051.749704,-9918.759623,-148.041188,1072.533697
4051.750034,-10066.800811,0.000000,766.095498
4051.750364,-9548.656652,-222.061783,612.876398
4051.750694,-9326.594869,-666.185348,76.609550
4051.751024,-8882.471304,-444.123565,-229.828649
4051.751354,-8882.471304,0.000000,306.438199
4051.751684,-9252.574275,74.020594,383.047749
4051.752014,-10288.862594,740.205942,383.047749
4051.752344,-11177.109724,666.185348,306.438199
4051.752673,-10658.965565,296.082377,536.266849
4051.753003,-10288.862594,74.020594,612.876398
4051.753333,-9696.697840,-370.102971,459.657299
4051.753663,-10362.883188,-296.082377,995.924147
4051.753993,-9918.759623,-74.020594,919.314598
4051.754323,-8956.491898,-370.102971,766.095498
4051.754653,-8882.471304,0.000000,76.609550
4051.754983,-9252.574275,74.020594,-153.219100
4051.755313,-10214.842000,222.061783,153.219100
4051.755642,-10807.006753,888.247130,-536.266849
4051.755972,-10881.027347,74.020594,-306.438199
4051.756302,-9992.780217,74.020594,0.000000
4051.756632,-9474.636058,518.144159,-306.438199
4051.756962,-9400.615463,148.041188,-153.219100
4051.757292,-9622.677246,296.082377,0.000000
4051.757622,-10658.965565,518.144159,229.828649
4051.757952,-10362.883188,0.000000,306.438199
4051.758282,-10214.842000,222.061783,0.000000
4051.758611,-9548.656652,74.020594,-383.047749
4051.758941,-9104.533087,0.000000,0.000000
4051.759271,-9844.739029,296.082377,-306.438199
4051.759601,-10140.821405,0.000000,153.219100
4051.759931,-9696.697840,1036.288319,-612.876398
4051.760261,-9474.636058,814.226536,0.000000
4051.760591,-9548.656652,444.123565,0.000000
4051.760921,-10214.842000,222.061783,0.000000
4051.761250,-9918.759623,148.041188,153.219100
4051.761580,-9622.677246,-148.041188,76.609550
4051.761910,-9548.656652,-222.061783,76.609550
4051.762240,-9252.574275,0.000000,383.047749
4051.762570,-9474.636058,-518.144159,229.828649
4051.762900,-9696.697840,518.144159,459.657299
4051.763230,-10066.800811,74.020594,459.657299
4051.763560,-10214.842000,592.164754,766.095498
4051.763890,-9030.512492,370.102971,383.047749
4051.764219,-9104.533087,370.102971,536.266849
4051.764549,-10066.800811,666.185348,612.876398
4051.764879,-10436.903782,148.041188,0.000000
4051.765209,-9992.780217,-222.061783,-612.876398
4051.765539,-8586.388927,-592.164754,-76.609550
4051.765869,-8956.491898,-222.061783,0.000000
4051.766199,-9326.594869,-518.144159,383.047749
4051.766529,-9474.636058,148.041188,76.609550
4051.766859,-9474.636058,296.082377,383.047749
4051.767188,-10362.883188,740.205942,766.095498
4051.767518,-10362.883188,666.185348,612.876398
4051.767848,-10214.842000,148.041188,842.705048
4051.768178,-10362.883188,0.000000,995.924147
4051.768508,-10214.842000,0.000000,0.000000
4051.768838,-9622.677246,-518.144159,0.000000
4051.769168,-8956.491898,-518.144159,-306.438199
4051.769498,-8956.491898,74.020594,0.000000
4051.769828,-9252.574275,74.020594,0.000000
4051.770157,-10658.965565,518.144159,306.438199
4051.770487,-10436.903782,74.020594,459.657299
4051.770817,-9992.780217,222.061783,536.266849
4051.771147,-9696.697840,444.123565,306.438199
4051.771477,-10214.842000,222.061783,689.485948
4051.771807,-10807.006753,-296.082377,1302.362347
4051.772137,-10066.800811,-518.144159,536.266849
4051.772467,-9622.677246,-518.144159,0.000000
4051.772797,-9622.677246,-222.061783,0.000000
4051.773126,-9474.636058,-592.164754,306.438199
4051.773456,-9474.636058,-296.082377,919.314598
4051.773786,-9474.636058,0.000000,383.047749
4051.774116,-9622.677246,148.041188,995.924147
4051.774446,-9992.780217,0.000000,383.047749
4051.774776,-9474.636058,74.020594,-76.609550
4051.775106,-9918.759623,-444.123565,306.438199
4051.775436,-11103.089130,-370.102971,1302.362347
4051.775765,-10510.924376,-148.041188,842.705048
4051.776095,-9252.574275,-740.205942,383.047749
4051.776425,-8808.450710,-592.164754,229.828649
4051.776755,-9030.512492,-444.123565,229.828649
4051.777085,-10066.800811,0.000000,612.876398
4051.777415,-10288.862594,296.082377,76.609550
4051.777745,-9844.739029,74.020594,-153.219100
4051.778075,-9622.677246,0.000000,229.828649
4051.778405,-9548.656652,370.102971,-536.266849
4051.778734,-9400.615463,-296.082377,-153.219100
4051.779064,-9770.718434,-296.082377,76.609550
4051.779394,-9844.739029,0.000000,0.000000
4051.779724,-9474.636058,222.061783,-1378.971896
4051.780054,-9474.636058,74.020594,-612.876398
4051.780384,-9622.677246,296.082377,0.000000
4051.780714,-9918.759623,222.061783,383.047749
4051.781044,-10066.800811,888.247130,229.828649
4051.781374,-9696.697840,666.185348,-383.047749
4051.781703,-9548.656652,370.102971,-306.438199
4051.782033,-9844.739029,888.247130,-689.485948
4051.782363,-10362.883188,296.082377,-536.266849
4051.782693,-10140.821405,0.000000,612.876398
4051.783023,-9844.739029,74.020594,-153.219100
4051.783353,-8808.450710,-370.102971,-306.438199
4051.783683,-8882.471304,222.061783,0.000000
4051.784013,-9104.533087,592.164754,842.705048
4051.784343,-9918.759623,296.082377,842.705048
4051.784672,-10510.924376,814.226536,1149.143247
4051.785002,-10140.821405,592.164754,1072.533697
4051.785332,-9918.759623,592.164754,689.485948
4051.785662,-9474.636058,666.185348,536.266849
4051.785992,-9992.780217,148.041188,153.219100
4051.786322,-10807.006753,0.000000,612.876398
4051.786652,-10584.944971,296.082377,459.657299
4051.786982,-9104.533087,-444.123565,76.609550
4051.787312,-9030.512492,0.000000,459.657299
4051.787641,-9178.553681,148.041188,306.438199
4051.787971,-9400.615463,222.061783,383.047749
4051.788301,-10066.800811,888.247130,-536.266849
4051.788631,-10066.800811,518.144159,-153.219100
4051.788961,-10214.842000,444.123565,383.047749
4051.789291,-9696.697840,370.102971,766.095498
4051.789621,-9992.780217,0.000000,1455.581446
4051.789951,-10510.924376,222.061783,842.705048
4051.790280,-9918.759623,0.000000,229.828649
4051.790610,-9474.636058,-148.041188,0.000000
4051.790940,-9400.615463,0.000000,-153.219100
4051.791270,-9400.615463,148.041188,536.266849
4051.791600,-10140.821405,444.123565,1149.143247
4051.791930,-10881.027347,740.205942,229.828649
4051.792260,-10584.944971,74.020594,-689.485948
4051.792590,-9918.759623,74.020594,-842.705048
4051.792920,-9622.677246,74.020594,-383.047749
4051.793249,-9548.656652,-592.164754,229.828649
4051.793579,-9770.718434,-518.144159,1378.971896
4051.793909,-9252.574275,0.000000,0.000000
4051.794239,-8956.491898,-740.205942,0.000000
4051.794569,-9474.636058,0.000000,-612.876398
4051.794899,-9770.718434,-370.102971,0.000000
4051.795229,-10066.800811,-148.041188,995.924147
4051.795559,-9696.697840,0.000000,842.705048
4051.795889,-9918.759623,-592.164754,766.095498
4051.796218,-9474.636058,-592.164754,0.000000
4051.796548,-9030.512492,-666.185348,-766.095498
4051.796878,-8660.409521,-962.267725,0.000000
4051.797208,-9400.615463,-740.205942,1072.533697
4051.797538,-9992.780217,-296.082377,1149.143247
4051.797868,-9252.574275,-666.185348,459.657299
4051.798198,-9474.636058,0.000000,383.047749
4051.798528,-10140.821405,-370.102971,0.000000
4051.798858,-10584.944971,-518.144159,229.828649
4051.799187,-10214.842000,148.041188,229.828649
4051.799517,-9252.574275,-222.061783,0.000000
4051.799847,-9548.656652,74.020594,383.047749
4051.800177,-9770.718434,518.144159,229.828649
4051.800507,-10140.821405,148.041188,153.219100
4051.800837,-10732.986159,370.102971,0.000000
4051.801167,-10140.821405,444.123565,-306.438199
4051.801497,-9400.615463,0.000000,-153.219100
4051.801827,-9696.697840,222.061783,76.609550
4051.802156,-9918.759623,74.020594,459.657299
4051.802486,-10140.821405,148.041188,0.000000
4051.802816,-10436.903782,740.205942,-306.438199
4051.803146,-9696.697840,222.061783,-383.047749
4051.803476,-9622.677246,592.164754,0.000000
4051.803806,-9770.718434,814.226536,1149.143247
4051.804136,-10288.862594,148.041188,995.924147
4051.804466,-10288.862594,222.061783,689.485948
4051.804795,-9992.780217,148.041188,0.000000
4051.805125,-9326.594869,-666.185348,-459.657299
4051.805455,-9252.574275,-148.041188,536.266849
4051.805785,-9104.533087,74.020594,1072.533697
4051.806115,-9474.636058,296.082377,1532.190996
4051.806445,-9770.718434,740.205942,766.095498
4051.806775,-9474.636058,814.226536,459.657299
4051.807105,-10066.800811,592.164754,0.000000
4051.807435,-10066.800811,592.164754,-306.438199
4051.807764,-9474.636058,0.000000,306.438199
4051.808094,-9696.697840,0.000000,1225.752797
4051.808424,-9400.615463,0.000000,0.000000
4051.808754,-8882.471304,-666.185348,-612.876398
4051.809084,-9178.553681,0.000000,-612.876398
4051.809414,-9548.656652,0.000000,0.000000
4051.809744,-10066.800811,0.000000,1225.752797
4051.810074,-9770.718434,444.123565,1149.143247
4051.810404,-9400.615463,444.123565,1225.752797
4051.810733,-9622.677246,666.185348,766.095498
4051.811063,-10066.800811,1036.288319,-383.047749
4051.811393,-10362.883188,370.102971,-306.438199
4051.811723,-10584.944971,444.123565,-153.219100
4051.812053,-9844.739029,296.082377,0.000000
4051.812383,-9400.615463,370.102971,306.438199
4051.812713,-9844.739029,222.061783,-536.266849
4051.813043,-10066.800811,148.041188,-536.266849
4051.813373,-10066.800811,222.061783,0.000000
4051.813702,-9844.739029,666.185348,-153.219100
4051.814032,-10214.842000,370.102971,306.438199
4051.814362,-10362.883188,370.102971,1302.362347
4051.814692,-10140.821405,296.082377,1532.190996
4051.815022,-10510.924376,-296.082377,995.924147
4051.815352,-10584.944971,-222.061783,306.438199
4051.815682,-9400.615463,-1036.288319,76.609550
4051.816012,-8512.368333,-1036.288319,153.219100
4051.816342,-9178.553681,-592.164754,1149.143247
4051.816671,-9770.718434,148.041188,1608.800546
4051.817001,-9696.697840,-444.123565,306.438199
4051.817331,-9326.594869,0.000000,-842.705048
4051.817661,-9770.718434,0.000000,-689.485948
4051.817991,-10362.883188,518.144159,1225.752797
4051.818321,-9992.780217,370.102971,459.657299
4051.818651,-9548.656652,-370.102971,536.266849
4051.818981,-9844.739029,-222.061783,153.219100
4051.819310,-9622.677246,-296.082377,-76.609550
4051.819640,-9474.636058,-666.185348,0.000000
4051.819970,-9104.533087,-296.082377,76.609550
4051.820300,-9252.574275,0.000000,76.609550
4051.820630,-9844.739029,222.061783,306.438199
4051.820960,-10732.986159,296.082377,229.828649
4051.821290,-9992.780217,74.020594,-153.219100
4051.821620,-9844.739029,222.061783,-383.047749
4051.821950,-9474.636058,148.041188,0.000000
4051.822279,-9770.718434,148.041188,995.924147
4051.822609,-9992.780217,-148.041188,612.876398
4051.822939,-10140.821405,-370.102971,0.000000
4051.823269,-9844.739029,-222.061783,0.000000
4051.823599,-9992.780217,-148.041188,229.828649
4051.823929,-9918.759623,444.123565,76.609550
4051.824259,-9326.594869,0.000000,0.000000
4051.824589,-9696.697840,518.144159,-76.609550
4051.824919,-10140.821405,370.102971,-153.219100
4051.825248,-10807.006753,518.144159,153.219100
4051.825578,-10066.800811,0.000000,76.609550
4051.825908,-9918.759623,-370.102971,536.266849
4051.826238,-9622.677246,-296.082377,1149.143247
4051.826568,-9622.677246,-370.102971,1378.971896
4051.826898,-8882.471304,-444.123565,229.828649
4051.827228,-9696.697840,-222.061783,0.000000
4051.827558,-9992.780217,148.041188,0.000000
4051.827888,-9622.677246,0.000000,919.314598
4051.828217,-9400.615463,518.144159,0.000000
4051.828547,-9548.656652,74.020594,76.609550
4051.828877,-9992.780217,74.020594,153.219100
4051.829207,-9474.636058,-296.082377,0.000000
4051.829537,-9326.594869,-222.061783,153.219100
4051.829867,-9474.636058,-370.102971,995.924147
4051.830197,-9918.759623,-222.061783,919.314598
4051.830527,-9548.656652,-666.185348,919.314598
4051.830857,-9696.697840,0.000000,383.047749
4051.831186,-9400.615463,0.000000,536.266849
4051.831516,-9992.780217,74.020594,0.000000
4051.831846,-10584.944971,962.267725,76.609550
4051.832176,-10362.883188,1036.288319,383.047749
4051.832506,-10362.883188,814.226536,306.438199
4051.832836,-10066.800811,592.164754,-306.438199
4051.833166,-9696.697840,0.000000,-689.485948
4051.833496,-9918.759623,0.000000,-306.438199
4051.833826,-9992.780217,0.000000,0.000000
4051.834156,-10066.800811,-148.041188,536.266849
4051.834486,-9622.677246,148.041188,689.485948
4051.834815,-9252.574275,222.061783,1072.533697
4051.835145,-9622.677246,370.102971,1378.971896
4051.835475,-10362.883188,962.267725,0.000000
4051.835805,-10732.986159,592.164754,-153.219100
4051.836135,-10510.924376,296.082377,229.828649
4051.836465,-9622.677246,814.226536,306.438199
4051.836795,-9548.656652,0.000000,306.438199
4051.837125,-10066.800811,0.000000,842.705048
4051.837455,-9474.636058,-296.082377,76.609550
4051.837785,-8808.450710,-518.144159,-306.438199
4051.838115,-8882.471304,-222.061783,-536.266849
4051.838445,-9400.615463,222.061783,153.219100
4051.838775,-9770.718434,296.082377,229.828649
4051.839104,-10214.842000,740.205942,0.000000
4051.839434,-10214.842000,444.123565,-153.219100
4051.839764,-10288.862594,148.041188,0.000000
4051.840094,-9548.656652,0.000000,0.000000
4051.840424,-9178.553681,-370.102971,306.438199
4051.840754,-9622.677246,148.041188,1302.362347
4051.841084,-9474.636058,-370.102971,919.314598
4051.841414,-9622.677246,-444.123565,766.095498
4051.841744,-9326.594869,-296.082377,0.000000
4051.842074,-9030.512492,-148.041188,0.000000
4051.842404,-9326.594869,222.061783,-689.485948
4051.842734,-9474.636058,296.082377,-612.876398
4051.843064,-9696.697840,370.102971,-689.485948
4051.843393,-9992.780217,592.164754,-229.828649
4051.843723,-9844.739029,444.123565,-229.828649
4051.844053,-9696.697840,148.041188,-689.485948
4051.844383,-10436.903782,74.020594,153.219100
4051.844713,-10436.903782,0.000000,306.438199
4051.845043,-10140.821405,-740.205942,1455.581446
4051.845373,-9548.656652,-666.185348,842.705048
4051.845703,-9104.533087,-222.061783,229.828649
4051.846033,-9178.553681,-444.123565,153.219100
4051.846363,-9622.677246,666.185348,536.266849
4051.846693,-10214.842000,370.102971,306.438199
4051.847023,-10288.862594,444.123565,766.095498
4051.847353,-9918.759623,592.164754,383.047749
4051.847682,-9770.718434,148.041188,229.828649
4051.848012,-10214.842000,-74.020594,995.924147
4051.848342,-10140.821405,-370.102971,459.657299
4051.848672,-9844.739029,-592.164754,842.705048
4051.849002,-9474.636058,-740.205942,459.657299
4051.849332,-9400.615463,-74.020594,842.705048
4051.849662,-9178.553681,-518.144159,1302.362347
4051.849992,-10288.862594,296.082377,919.314598
4051.850322,-10510.924376,518.144159,766.095498
4051.850652,-10732.986159,1036.288319,1685.410096
4051.850982,-10140.821405,888.247130,0.000000
4051.851312,-10066.800811,222.061783,0.000000
4051.851642,-10436.903782,0.000000,0.000000
4051.851971,-9770.718434,-222.061783,-76.609550
4051.852301,-9252.574275,-666.185348,0.000000
4051.852631,-8660.409521,-592.164754,0.000000
4051.852961,-8956.491898,-148.041188,0.000000
4051.853291,-9548.656652,-370.102971,76.609550
4051.853621,-10140.821405,444.123565,-229.828649
4051.853951,-10214.842000,370.102971,689.485948
4051.854281,-10658.965565,962.267725,153.219100
4051.854611,-9770.718434,1036.288319,459.657299
4051.854941,-9918.759623,74.020594,612.876398
4051.855271,-10510.924376,-74.020594,0.000000
4051.855601,-9992.780217,-148.041188,0.000000
4051.855931,-8956.491898,-592.164754,76.609550
4051.856261,-8586.388927,-444.123565,0.000000
4051.856590,-7846.182985,-666.185348,-383.047749
4051.856920,-8660.409521,-444.123565,-153.219100
4051.857250,-9918.759623,370.102971,0.000000
4051.857580,-10214.842000,0.000000,-306.438199
4051.857910,-9992.780217,518.144159,383.047749
4051.858240,-10140.821405,444.123565,229.828649
4051.858570,-10288.862594,148.041188,612.876398
4051.858900,-10658.965565,-222.061783,1149.143247
4051.859230,-10510.924376,148.041188,536.266849
4051.859560,-9992.780217,-740.205942,229.828649
4051.859890,-9326.594869,-592.164754,76.609550
4051.860220,-8734.430116,-296.082377,0.000000
4051.860550,-9326.594869,-370.102971,766.095498
4051.860879,-9548.656652,518.144159,536.266849
4051.861209,-10436.903782,666.185348,229.828649
4051.861539,-10288.862594,592.164754,0.000000
4051.861869,-10214.842000,814.226536,-459.657299
4051.862199,-10807.006753,222.061783,0.000000
4051.862529,-10881.027347,296.082377,1072.533697
4051.862859,-10658.965565,-222.061783,842.705048
4051.863189,-9474.636058,-666.185348,612.876398
4051.863519,-9252.574275,-518.144159,459.657299
4051.863849,-8808.450710,-592.164754,306.438199
4051.864179,-9252.574275,-592.164754,306.438199
4051.864509,-9992.780217,444.123565,383.047749
4051.864839,-10362.883188,296.082377,1072.533697
4051.865168,-9844.739029,666.185348,995.924147
4051.865498,-9474.636058,666.185348,383.047749
4051.865828,-9696.697840,296.082377,229.828649
4051.866158,-10436.903782,148.041188,1149.143247
4051.866488,-10436.903782,148.041188,612.876398
4051.866818,-9474.636058,-444.123565,383.047749
4051.867148,-9030.512492,-222.061783,0.000000
4051.867478,-8956.491898,-444.123565,229.828649
4051.867808,-9104.533087,-222.061783,919.314598
4051.868138,-9696.697840,666.185348,-76.609550
4051.868468,-9992.780217,592.164754,-306.438199
4051.868798,-10214.842000,1036.288319,-306.438199
4051.869128,-10436.903782,1332.370696,612.876398
4051.869457,-10288.862594,592.164754,459.657299
4051.869787,-11103.089130,296.082377,1455.581446
4051.870117,-10510.924376,148.041188,612.876398
4051.870447,-9696.697840,0.000000,459.657299
4051.870777,-9400.615463,-296.082377,0.000000
4051.871107,-9474.636058,-222.061783,536.266849
4051.871437,-9548.656652,0.000000,1072.533697
4051.871767,-9992.780217,518.144159,536.266849
4051.872097,-10214.842000,518.144159,-612.876398
4051.872427,-9696.697840,666.185348,-229.828649
4051.872757,-9622.677246,518.144159,-459.657299
4051.873087,-9992.780217,296.082377,306.438199
4051.873417,-10584.944971,74.020594,1072.533697
4051.873746,-10214.842000,0.000000,766.095498
4051.874076,-9474.636058,-370.102971,0.000000
4051.874406,-9252.574275,-592.164754,-536.266849
4051.874736,-8734.430116,-814.226536,306.438199
4051.875066,-9104.533087,-740.205942,919.314598
4051.875396,-9770.718434,74.020594,919.314598
4051.875726,-9844.739029,0.000000,76.609550
4051.876056,-9696.697840,0.000000,229.828649
4051.876386,-9104.533087,74.020594,-459.657299
4051.876716,-9326.594869,222.061783,-383.047749
4051.877046,-10288.862594,74.020594,612.876398
4051.877376,-10288.862594,0.000000,536.266849
4051.877706,-10362.883188,-74.020594,0.000000
4051.878035,-9474.636058,-74.020594,-536.266849
4051.878365,-9400.615463,-592.164754,-612.876398
4051.878695,-10066.800811,-444.123565,536.266849
4051.879025,-9918.759623,0.000000,919.314598
4051.879355,-9474.636058,148.041188,153.219100
4051.879685,-9252.574275,74.020594,383.047749
4051.880015,-9770.718434,518.144159,-459.657299
4051.880345,-10510.924376,518.144159,0.000000
4051.880675,-11325.150913,444.123565,0.000000
4051.881005,-10732.986159,444.123565,0.000000
4051.881335,-9918.759623,-444.123565,-306.438199
4051.881665,-9326.594869,-296.082377,229.828649
4051.881995,-9474.636058,-370.102971,536.266849
4051.882324,-9918.759623,-518.144159,459.657299
4051.882654,-10362.883188,74.020594,766.095498
4051.882984,-9918.759623,0.000000,-229.828649
4051.883314,-9474.636058,0.000000,459.657299
4051.883644,-9696.697840,518.144159,995.924147
4051.883974,-10436.903782,0.000000,1225.752797
4051.884304,-10955.047942,148.041188,766.095498
4051.884634,-10288.862594,0.000000,0.000000
4051.884964,-9474.636058,-444.123565,-459.657299
4051.885294,-9400.615463,-444.123565,306.438199
4051.885624,-9696.697840,-296.082377,689.485948
4051.885954,-9474.636058,-740.205942,536.266849
4051.886284,-9474.636058,-296.082377,76.609550
4051.886614,-9178.553681,0.000000,0.000000
4051.886943,-9104.533087,0.000000,306.438199
4051.887273,-9252.574275,444.123565,612.876398
4051.887603,-9548.656652,74.020594,1225.752797
4051.887933,-10881.027347,296.082377,1378.971896
4051.888263,-10214.842000,222.061783,383.047749
4051.888593,-9548.656652,-444.123565,-383.047749
4051.888923,-9030.512492,-444.123565,-1072.533697
4051.889253,-9770.718434,-74.020594,229.828649
4051.889583,-9474.636058,-222.061783,689.485948
4051.889913,-9474.636058,222.061783,0.000000
4051.890243,-9326.594869,518.144159,-383.047749
4051.890573,-9548.656652,666.185348,-76.609550
4051.890903,-9918.759623,1184.329507,-306.438199
4051.891232,-10066.800811,370.102971,0.000000
4051.891562,-10584.944971,370.102971,459.657299
4051.891892,-10584.944971,444.123565,536.266849
4051.892222,-10140.821405,74.020594,153.219100
4051.892552,-9474.636058,0.000000,229.828649
4051.892882,-9178.553681,0.000000,0.000000
4051.893212,-9474.636058,0.000000,536.266849
4051.893542,-9844.739029,592.164754,995.924147
4051.893872,-9548.656652,444.123565,459.657299
4051.894202,-9326.594869,444.123565,229.828649
4051.894532,-9696.697840,962.267725,-383.047749
4051.894862,-10214.842000,148.041188,306.438199
4051.895192,-10732.986159,444.123565,612.876398
4051.895521,-9918.759623,148.041188,0.000000
4051.895851,-9474.636058,-148.041188,0.000000
4051.896181,-9326.594869,148.041188,842.705048
4051.896511,-9770.718434,0.000000,536.266849
4051.896841,-9844.739029,-222.061783,612.876398
4051.897171,-9622.677246,222.061783,76.609550
4051.897501,-9474.636058,148.041188,0.000000
4051.897831,-9474.636058,148.041188,153.219100
4051.898161,-9770.718434,592.164754,-536.266849
4051.898491,-9918.759623,-148.041188,0.000000
4051.898821,-10214.842000,296.082377,0.000000
4051.899151,-9770.718434,0.000000,153.219100
4051.899481,-8956.491898,-666.185348,-229.828649
4051.899810,-9252.574275,-148.041188,76.609550
4051.900140,-9548.656652,-222.061783,612.876398
4051.900470,-9992.780217,-296.082377,1072.533697
4051.900800,-10140.821405,222.061783,383.047749
4051.901130,-9844.739029,0.000000,-153.219100
4051.901460,-9696.697840,0.000000,-229.828649
4051.901790,-9770.718434,592.164754,0.000000
4051.902120,-9918.759623,0.000000,0.000000
4051.902450,-10214.842000,0.000000,0.000000
4051.902780,-10066.800811,296.082377,-689.485948
4051.903110,-9622.677246,0.000000,-995.924147
4051.903440,-10362.883188,0.000000,76.609550
4051.903770,-9992.780217,-518.144159,612.876398
4051.904099,-9622.677246,-888.247130,1072.533697
4051.904429,-9548.656652,-296.082377,612.876398
4051.904759,-9548.656652,74.020594,766.095498
4051.905089,-9696.697840,0.000000,1072.533697
4051.905419,-10214.842000,444.123565,536.266849
4051.905749,-10066.800811,0.000000,612.876398
4051.906079,-10436.903782,74.020594,842.705048
4051.906409,-9696.697840,148.041188,76.609550
4051.906739,-9400.615463,-222.061783,0.000000
4051.907069,-9400.615463,0.000000,-383.047749
4051.907399,-9178.553681,148.041188,0.000000
4051.907729,-9474.636058,-370.102971,689.485948
4051.908059,-9918.759623,222.061783,536.266849
4051.908388,-9696.697840,0.000000,0.000000
4051.908718,-9548.656652,222.061783,306.438199
4051.909048,-9548.656652,296.082377,459.657299
4051.909378,-9844.739029,74.020594,229.828649
4051.909708,-10140.821405,740.205942,306.438199
4051.910038,-9918.759623,518.144159,0.000000
4051.910368,-9844.739029,296.082377,0.000000
4051.910698,-9918.759623,444.123565,0.000000
4051.911028,-9770.718434,148.041188,-459.657299
4051.911358,-9548.656652,-444.123565,459.657299
4051.911688,-9030.512492,0.000000,-459.657299
4051.912018,-9252.574275,0.000000,0.000000
4051.912348,-9030.512492,-148.041188,383.047749
4051.912677,-9622.677246,444.123565,0.000000
4051.913007,-9696.697840,74.020594,536.266849
4051.913337,-10288.862594,444.123565,612.876398
4051.913667,-10140.821405,518.144159,0.000000
4051.913997,-9844.739029,-74.020594,76.609550
4051.914327,-9696.697840,148.041188,0.000000
4051.914657,-10066.800811,-222.061783,689.485948
4051.914987,-9992.780217,-222.061783,1072.533697
4051.915317,-9696.697840,74.020594,0.000000
4051.915647,-9622.677246,0.000000,-306.438199
4051.915977,-9400.615463,74.020594,459.657299
4051.916307,-9548.656652,592.164754,-306.438199
4051.916637,-9696.697840,0.000000,-229.828649
4051.916967,-10140.821405,296.082377,612.876398
4051.917296,-10288.862594,296.082377,536.266849
4051.917626,-9918.759623,0.000000,0.000000
4051.917956,-9844.739029,-74.020594,-383.047749
4051.918286,-10066.800811,-74.020594,229.828649
4051.918616,-9770.718434,-666.185348,1149.143247
4051.918946,-10140.821405,148.041188,766.095498
4051.919276,-9696.697840,-222.061783,383.047749
4051.919606,-9400.615463,0.000000,766.095498
4051.919936,-9474.636058,444.123565,383.047749
4051.920266,-10288.862594,0.000000,0.000000
4051.920596,-10436.903782,296.082377,459.657299
4051.920926,-10140.821405,74.020594,0.000000
4051.921256,-9474.636058,-296.082377,-306.438199
4051.921585,-9178.553681,0.000000,0.000000
4051.921915,-8734.430116,222.061783,76.609550
4051.922245,-9622.677246,-222.061783,459.657299
4051.922575,-9918.759623,444.123565,76.609550
4051.922905,-9918.759623,0.000000,229.828649
4051.923235,-9918.759623,0.000000,1072.533697
4051.923565,-9770.718434,370.102971,612.876398
4051.923895,-9474.636058,-518.144159,536.266849
4051.924225,-10066.800811,0.000000,689.485948
4051.924555,-10214.842000,-74.020594,229.828649
4051.924885,-9992.780217,0.000000,0.000000
4051.925215,-9474.636058,148.041188,229.828649
4051.925545,-9474.636058,0.000000,306.438199
4051.925874,-9400.615463,-296.082377,229.828649
4051.926204,-9770.718434,222.061783,0.000000
4051.926534,-9474.636058,-296.082377,0.000000
4051.926864,-9326.594869,-296.082377,0.000000
4051.927194,-9474.636058,148.041188,0.000000
4051.927524,-9252.574275,-666.185348,1149.143247
4051.927854,-10362.883188,-148.041188,919.314598
4051.928184,-10288.862594,0.000000,1072.533697
4051.928514,-10140.821405,-444.123565,766.095498
4051.928844,-9844.739029,222.061783,842.705048
4051.929174,-9770.718434,0.000000,0.000000
4051.929504,-9918.759623,0.000000,306.438199
4051.929834,-10214.842000,814.226536,-306.438199
4051.930163,-9992.780217,296.082377,-536.266849
4051.930493,-9844.739029,0.000000,-689.485948
4051.930823,-9474.636058,296.082377,-383.047749
4051.931153,-9844.739029,-74.020594,153.219100
4051.931483,-10214.842000,0.000000,689.485948
4051.931813,-10807.006753,370.102971,459.657299
4051.932143,-10140.821405,-74.020594,842.705048
4051.932473,-9696.697840,74.020594,842.705048
4051.932803,-9770.718434,296.082377,689.485948
4051.933133,-9918.759623,74.020594,2298.286494
4051.933463,-10066.800811,296.082377,689.485948
4051.933792,-9474.636058,0.000000,306.438199
4051.934122,-9992.780217,0.000000,229.828649
4051.934452,-9770.718434,148.041188,-459.657299
4051.934782,-9474.636058,-296.082377,0.000000
4051.935112,-9844.739029,444.123565,306.438199
4051.935441,-9178.553681,148.041188,153.219100
4051.935771,-9474.636058,296.082377,76.609550
4051.936101,-10436.903782,962.267725,536.266849
4051.936431,-10140.821405,222.061783,536.266849
4051.936760,-9844.739029,0.000000,919.314598
4051.937090,-9918.759623,0.000000,919.314598
4051.937420,-9918.759623,0.000000,1378.971896
4051.937750,-9622.677246,148.041188,689.485948
4051.938080,-9252.574275,74.020594,-689.485948
4051.938409,-9400.615463,-148.041188,-383.047749
4051.938739,-10362.883188,370.102971,153.219100
4051.939069,-10066.800811,444.123565,689.485948
4051.939399,-9770.718434,222.061783,842.705048
4051.939729,-9548.656652,222.061783,383.047749
4051.940058,-9696.697840,74.020594,0.000000
4051.940388,-9770.718434,74.020594,0.000000
4051.940718,-10066.800811,0.000000,76.609550
4051.941048,-9770.718434,74.020594,459.657299
4051.941378,-9474.636058,0.000000,919.314598
4051.941707,-9400.615463,370.102971,612.876398
4051.942037,-9474.636058,-222.061783,76.609550
4051.942367,-10288.862594,-74.020594,229.828649
4051.942697,-10066.800811,0.000000,76.609550
4051.943026,-9400.615463,-296.082377,76.609550
4051.943356,-9400.615463,148.041188,306.438199
4051.943686,-9400.615463,0.000000,0.000000
4051.944016,-9992.780217,0.000000,689.485948
4051.944346,-10436.903782,0.000000,-153.219100
4051.944675,-10288.862594,-222.061783,0.000000
4051.945005,-9548.656652,-222.061783,76.609550
4051.945335,-9030.512492,0.000000,383.047749
4051.945665,-9474.636058,-370.102971,306.438199
4051.945995,-9770.718434,-148.041188,536.266849
