#time,accel_x,accel_y,accel_z
3842.110349,-9622.677246,148.041188,0.000000
3842.110679,-9770.718434,148.041188,153.219100
3842.111009,-10066.800811,148.041188,76.609550
3842.111338,-10214.842000,592.164754,689.485948
3842.111668,-9548.656652,74.020594,306.438199
3842.111998,-9696.697840,74.020594,536.266849
3842.112328,-9696.697840,0.000000,306.438199
3842.112658,-9844.739029,74.020594,689.485948
3842.112987,-9548.656652,0.000000,76.609550
3842.113317,-9770.718434,0.000000,229.828649
3842.113647,-9918.759623,222.061783,229.828649
3842.113977,-9622.677246,0.000000,766.095498
3842.114306,-10214.842000,0.000000,995.924147
3842.114636,-10140.821405,0.000000,459.657299
3842.114966,-9770.718434,0.000000,0.000000
3842.115296,-9992.780217,0.000000,-459.657299
3842.115626,-9770.718434,-296.082377,-459.657299
3842.115955,-9844.739029,-222.061783,-689.485948
3842.116285,-9918.759623,-296.082377,-306.438199
3842.116615,-9770.718434,-222.061783,0.000000
3842.116945,-9622.677246,-592.164754,306.438199
3842.117275,-9474.636058,-518.144159,0.000000
3842.117604,-9548.656652,-814.226536,-229.828649
3842.117934,-9548.656652,-814.226536,-612.876398
3842.118264,-9474.636058,-518.144159,-766.095498
3842.118594,-9844.739029,-592.164754,0.000000
3842.118923,-10066.800811,-296.082377,153.219100
3842.119253,-10362.883188,-296.082377,229.828649
3842.119583,-10362.883188,-296.082377,-229.828649
3842.119913,-10214.842000,0.000000,-1072.533697
3842.120243,-9622.677246,-518.144159,-2145.067394
3842.120572,-9548.656652,-740.205942,-1915.238745
3842.120902,-9326.594869,-888.247130,-1685.410096
3842.121232,-9252.574275,-1110.308913,-766.095498
3842.121562,-9030.512492,-1332.370696,-612.876398
3842.121892,-9474.636058,-1332.370696,0.000000
3842.122221,-9622.677246,-888.247130,-229.828649
3842.122551,-9918.759623,-962.267725,-612.876398
3842.122881,-10066.800811,-962.267725,-995.924147
3842.123211,-9844.739029,-592.164754,-1302.362347
3842.123540,-10732.986159,-518.144159,-1072.533697
3842.123870,-10658.965565,-666.185348,-1532.190996
3842.124200,-10288.862594,-518.144159,-2451.505594
3842.124530,-9918.759623,-1406.391290,-2681.334243
3842.124860,-9696.697840,-1702.473667,-2528.115143
3842.125189,-9622.677246,-1776.494261,-2528.115143
3842.125519,-8882.471304,-1776.494261,-2604.724693
3842.125849,-8290.306550,-1776.494261,-2298.286494
3842.126179,-8438.347739,-1776.494261,-1838.629195
3842.126509,-9030.512492,-1554.432478,-689.485948
3842.126838,-9770.718434,-1036.288319,-459.657299
3842.127168,-10732.986159,-888.247130,306.438199
3842.127498,-11325.150913,-1184.329507,-383.047749
3842.127828,-12287.418637,-1258.350101,-766.095498
3842.128157,-11843.295072,-2294.638420,-2451.505594
3842.128487,-11029.068536,-2590.720797,-4060.306139
3842.128817,-9400.615463,-3404.947333,-4826.401637
3842.129147,-7624.121203,-3552.988522,-4136.915689
3842.129477,-7179.997637,-3404.947333,-2221.676944
3842.129806,-7772.162391,-2220.617826,0.000000
3842.130136,-9252.574275,-1554.432478,-1302.362347
3842.130466,-10066.800811,-1332.370696,-2911.162892
3842.130796,-10955.047942,-1554.432478,-5056.230287
3842.131126,-11769.274478,-2812.782580,-4903.011187
3842.131455,-11621.233289,-4367.215058,-3370.820191
3842.131785,-9770.718434,-5403.503377,-2068.457845
3842.132115,-7698.141797,-5699.585753,-1532.190996
3842.132445,-7105.977043,-5329.482782,-2221.676944
3842.132774,-7476.080014,-4441.235652,-2604.724693
3842.133104,-8956.491898,-3404.947333,-1838.629195
3842.133434,-10140.821405,-2294.638420,-1149.143247
3842.133764,-10881.027347,-1554.432478,-995.924147
3842.134094,-11325.150913,-1924.535449,-2221.676944
3842.134423,-11177.109724,-2886.803174,-4136.915689
3842.134753,-10140.821405,-4145.153275,-5286.058936
3842.135083,-9548.656652,-5255.462188,-4749.792088
3842.135413,-8956.491898,-5329.482782,-3600.648841
3842.135743,-8438.347739,-4885.359217,-1455.581446
3842.136072,-7994.224174,-4145.153275,306.438199
3842.136402,-8438.347739,-3256.906145,1149.143247
3842.136732,-10288.862594,-2220.617826,536.266849
3842.137062,-12361.439231,-1628.453072,-1225.752797
3842.137391,-11917.315666,-1998.556043,-2604.724693
3842.137721,-10881.027347,-2886.803174,-2528.115143
3842.138051,-9844.739029,-3701.029710,-2221.676944
3842.138381,-9400.615463,-4515.256246,-2068.457845
3842.138711,-9326.594869,-4885.359217,-2298.286494
3842.139040,-8216.285956,-3775.050304,-1915.238745
3842.139370,-7624.121203,-2738.761985,-766.095498
3842.139700,-10510.924376,-1702.473667,0.000000
3842.140030,-11251.130318,-1258.350101,0.000000
3842.140360,-10955.047942,-1258.350101,459.657299
3842.140689,-11769.274478,-1036.288319,-536.266849
3842.141019,-11399.171507,-1702.473667,-2451.505594
3842.141349,-9844.739029,-2812.782580,-1915.238745
3842.141679,-9474.636058,-2220.617826,-1302.362347
3842.142008,-10214.842000,-2072.576638,-1608.800546
3842.142338,-10436.903782,-2146.597232,-2221.676944
3842.142668,-9104.533087,-2368.659014,-2834.553343
3842.142998,-9400.615463,-2146.597232,-1838.629195
3842.143328,-10066.800811,-1258.350101,229.828649
3842.143657,-10214.842000,-1406.391290,153.219100
3842.143987,-8586.388927,-1406.391290,-2451.505594
3842.144317,-8364.327145,-1258.350101,-3677.258390
3842.144647,-9474.636058,-1184.329507,-3294.210641
3842.144977,-10362.883188,-1258.350101,-1302.362347
3842.145306,-11029.068536,-666.185348,-689.485948
3842.145636,-10436.903782,-1036.288319,-612.876398
3842.145966,-10066.800811,-1110.308913,-3677.258390
3842.146296,-9992.780217,-1110.308913,-4749.792088
3842.146625,-9844.739029,-1702.473667,-4826.401637
3842.146955,-9252.574275,-1036.288319,-2604.724693
3842.147285,-9474.636058,-592.164754,-1915.238745
3842.147615,-9030.512492,-518.144159,-2528.115143
3842.147945,-7846.182985,-814.226536,-3600.648841
3842.148274,-7846.182985,-1184.329507,-4060.306139
3842.148604,-9400.615463,-962.267725,-2068.457845
3842.148934,-11695.253884,-296.082377,153.219100
3842.149264,-11029.068536,74.020594,-153.219100
3842.149594,-9770.718434,-740.205942,-1455.581446
3842.149923,-9844.739029,-1110.308913,-2451.505594
3842.150253,-10881.027347,-1258.350101,-2757.943793
3842.150583,-12065.356855,-1554.432478,-3064.381992
3842.150913,-10807.006753,-1702.473667,-2681.334243
3842.151242,-7402.059420,-2664.741391,-1838.629195
3842.151572,-7105.977043,-1702.473667,-1608.800546
3842.151902,-7698.141797,-1184.329507,-1532.190996
3842.152232,-10362.883188,-962.267725,-1072.533697
3842.152562,-10362.883188,-1406.391290,-1302.362347
3842.152891,-9178.553681,-1554.432478,-766.095498
3842.153221,-9770.718434,-1850.514855,229.828649
3842.153551,-12213.398043,-2146.597232,229.828649
3842.153881,-12435.459826,-2294.638420,-459.657299
3842.154211,-10436.903782,-3034.844362,-995.924147
3842.154540,-8290.306550,-2960.823768,-1532.190996
3842.154870,-9474.636058,-2516.700203,-1225.752797
3842.155200,-9844.739029,-2368.659014,-1225.752797
3842.155530,-9252.574275,-1554.432478,-459.657299
3842.155859,-9178.553681,-1702.473667,-2451.505594
3842.156189,-10214.842000,-1776.494261,-3677.258390
3842.156519,-11399.171507,-2590.720797,-3907.087040
3842.156849,-10066.800811,-3182.885551,-2221.676944
3842.157179,-8808.450710,-3404.947333,-1302.362347
3842.157508,-9030.512492,-3330.926739,-1302.362347
3842.157838,-10436.903782,-3701.029710,-1225.752797
3842.158168,-10955.047942,-3182.885551,-1455.581446
3842.158498,-10214.842000,-3775.050304,-2068.457845
3842.158828,-9474.636058,-3330.926739,-2221.676944
3842.159157,-9844.739029,-4071.132681,-1762.019645
3842.159487,-9474.636058,-3182.885551,-1762.019645
3842.159817,-9548.656652,-3034.844362,-2221.676944
3842.160147,-9030.512492,-2738.761985,-4903.011187
3842.160476,-8142.265362,-3330.926739,-5822.325785
3842.160806,-9400.615463,-2664.741391,-4596.572988
3842.161136,-10510.924376,-2738.761985,-2757.943793
3842.161466,-11325.150913,-3182.885551,-1838.629195
3842.161796,-9918.759623,-3330.926739,-1685.410096
3842.162125,-8734.430116,-3701.029710,-2681.334243
3842.162455,-9918.759623,-3404.947333,-1991.848295
3842.162785,-11325.150913,-2886.803174,-383.047749
3842.163115,-10881.027347,-2738.761985,-766.095498
3842.163445,-8734.430116,-2738.761985,-2604.724693
3842.163774,-7179.997637,-2516.700203,-3140.991542
3842.164104,-9474.636058,-2368.659014,-2528.115143
3842.164434,-10881.027347,-1776.494261,-1915.238745
3842.164764,-10436.903782,-2368.659014,-1838.629195
3842.165093,-9030.512492,-2146.597232,-1915.238745
3842.165423,-9400.615463,-2294.638420,-3064.381992
3842.165752,-10066.800811,-2738.761985,-1532.190996
3842.166082,-10140.821405,-3256.906145,-229.828649
3842.166412,-9178.553681,-2812.782580,76.609550
3842.166741,-9770.718434,-2590.720797,-229.828649
3842.167071,-8290.306550,-2442.679609,-612.876398
3842.167400,-8290.306550,-2146.597232,-689.485948
3842.167730,-9770.718434,-1036.288319,-153.219100
3842.168060,-11325.150913,0.000000,-536.266849
3842.168389,-11547.212695,-888.247130,-1762.019645
3842.168719,-10214.842000,-1258.350101,-2451.505594
3842.169049,-10140.821405,-1258.350101,-2987.772442
3842.169378,-10658.965565,-2072.576638,-3830.477490
3842.169708,-9918.759623,-1924.535449,-2451.505594
3842.170037,-9178.553681,-2072.576638,-2451.505594
3842.170367,-8290.306550,-2220.617826,-1991.848295
3842.170697,-8660.409521,-1628.453072,-1762.019645
3842.171026,-9252.574275,-1036.288319,-1915.238745
3842.171356,-9104.533087,-1554.432478,-2068.457845
3842.171686,-9474.636058,-1110.308913,-919.314598
3842.172015,-10140.821405,-666.185348,229.828649
3842.172345,-10214.842000,-740.205942,-612.876398
3842.172674,-10732.986159,-814.226536,-1608.800546
3842.173004,-10584.944971,-1184.329507,-2834.553343
3842.173334,-11029.068536,-1258.350101,-2681.334243
3842.173663,-10140.821405,-1110.308913,-3064.381992
3842.173993,-9548.656652,-1258.350101,-3370.820191
3842.174322,-9252.574275,-1258.350101,-2681.334243
3842.174652,-9696.697840,-222.061783,-2374.896044
3842.174982,-9474.636058,0.000000,-1455.581446
3842.175311,-9030.512492,296.082377,-2987.772442
3842.175641,-8216.285956,518.144159,-3677.258390
3842.175971,-10066.800811,0.000000,-1915.238745
3842.176300,-11547.212695,0.000000,0.000000
3842.176630,-11251.130318,-1110.308913,-76.609550
3842.176959,-11843.295072,-1406.391290,-612.876398
3842.177289,-11547.212695,-2146.597232,-1608.800546
3842.177619,-10881.027347,-2294.638420,-1302.362347
3842.177948,-8882.471304,-2886.803174,-1762.019645
3842.178278,-8290.306550,-2220.617826,-766.095498
3842.178608,-8660.409521,-1924.535449,536.266849
3842.178937,-8512.368333,-888.247130,76.609550
3842.179267,-8512.368333,0.000000,-1302.362347
3842.179596,-9548.656652,-666.185348,-1149.143247
3842.179926,-10214.842000,0.000000,-1149.143247
3842.180256,-10436.903782,-1332.370696,-1685.410096
3842.180585,-9992.780217,-1998.556043,-1685.410096
3842.180915,-9548.656652,-1998.556043,-459.657299
3842.181244,-10362.883188,-2590.720797,1072.533697
3842.181574,-9992.780217,-2368.659014,1149.143247
3842.181904,-8882.471304,-2368.659014,153.219100
3842.182233,-7328.038826,-1850.514855,0.000000
3842.182563,-8216.285956,-592.164754,459.657299
3842.182893,-10288.862594,-74.020594,383.047749
3842.183222,-9474.636058,444.123565,-306.438199
3842.183552,-10214.842000,370.102971,-2528.115143
3842.183881,-9844.739029,148.041188,-3600.648841
3842.184211,-10214.842000,-1480.411884,-2451.505594
3842.184541,-10658.965565,-1258.350101,-766.095498
3842.184870,-9918.759623,-1776.494261,76.609550
3842.185200,-10436.903782,-1702.473667,306.438199
3842.185530,-9918.759623,-1184.329507,1149.143247
3842.185859,-9770.718434,-1110.308913,1302.362347
3842.186189,-9400.615463,370.102971,229.828649
3842.186518,-9918.759623,-444.123565,-153.219100
3842.186848,-10436.903782,0.000000,689.485948
3842.187178,-10881.027347,0.000000,842.705048
3842.187507,-10658.965565,-1036.288319,0.000000
3842.187837,-9178.553681,-1850.514855,459.657299
3842.188166,-9252.574275,-1998.556043,0.000000
3842.188496,-8142.265362,-1998.556043,0.000000
3842.188826,-8734.430116,-1776.494261,1838.629195
3842.189155,-10732.986159,0.000000,3830.477490
3842.189485,-10066.800811,0.000000,2451.505594
3842.189815,-10658.965565,518.144159,153.219100
3842.190144,-10732.986159,370.102971,-1149.143247
3842.190474,-11029.068536,0.000000,-459.657299
3842.190803,-9918.759623,222.061783,153.219100
3842.191133,-9844.739029,-296.082377,-536.266849
3842.191463,-8882.471304,-666.185348,-1225.752797
3842.191792,-7772.162391,-888.247130,-1302.362347
3842.192122,-8586.388927,-814.226536,-1225.752797
3842.192451,-9326.594869,0.000000,459.657299
3842.192781,-10214.842000,148.041188,536.266849
3842.193111,-9548.656652,370.102971,919.314598
3842.193440,-9918.759623,222.061783,1302.362347
3842.193770,-10955.047942,222.061783,1302.362347
3842.194100,-11325.150913,0.000000,0.000000
3842.194429,-9770.718434,-666.185348,-1915.238745
3842.194759,-8068.244768,-222.061783,-459.657299
3842.195088,-8068.244768,-222.061783,842.705048
3842.195418,-9030.512492,296.082377,1378.971896
3842.195748,-8956.491898,444.123565,1225.752797
3842.196077,-9030.512492,740.205942,153.219100
3842.196407,-9548.656652,1332.370696,76.609550
3842.196737,-11843.295072,1332.370696,766.095498
3842.197066,-11843.295072,1924.535449,2145.067394
3842.197396,-10140.821405,666.185348,2068.457845
3842.197725,-9178.553681,888.247130,1455.581446
3842.198055,-10140.821405,1406.391290,842.705048
3842.198385,-10214.842000,1924.535449,306.438199
3842.198714,-9474.636058,2072.576638,-919.314598
3842.199044,-8808.450710,2442.679609,-1072.533697
3842.199373,-10066.800811,3182.885551,0.000000
3842.199703,-11769.274478,2590.720797,153.219100
3842.200033,-10732.986159,1702.473667,-689.485948
3842.200362,-8438.347739,666.185348,-1378.971896
3842.200692,-8438.347739,296.082377,153.219100
3842.201022,-10288.862594,740.205942,459.657299
3842.201351,-10658.965565,0.000000,2145.067394
3842.201681,-9918.759623,518.144159,1991.848295
3842.202010,-8068.244768,-74.020594,459.657299
3842.202340,-7550.100608,222.061783,0.000000
3842.202670,-9104.533087,0.000000,306.438199
3842.202999,-9474.636058,148.041188,1302.362347
3842.203329,-8808.450710,0.000000,1838.629195
3842.203659,-9326.594869,370.102971,1455.581446
3842.203988,-9696.697840,666.185348,0.000000
3842.204318,-10510.924376,222.061783,0.000000
3842.204647,-10658.965565,296.082377,0.000000
3842.204977,-10362.883188,-370.102971,-306.438199
3842.205307,-9622.677246,0.000000,-1072.533697
3842.205636,-9400.615463,-74.020594,76.609550
3842.205966,-9992.780217,444.123565,1455.581446
3842.206295,-8882.471304,814.226536,383.047749
3842.206625,-9844.739029,666.185348,-612.876398
3842.206955,-9696.697840,1554.432478,-2145.067394
3842.207284,-10732.986159,-370.102971,-1378.971896
3842.207614,-11103.089130,1110.308913,995.924147
3842.207944,-11177.109724,0.000000,995.924147
3842.208273,-11399.171507,74.020594,306.438199
3842.208603,-9548.656652,-888.247130,-919.314598
3842.208932,-9992.780217,-518.144159,-1532.190996
3842.209262,-10658.965565,-296.082377,-1072.533697
3842.209592,-10881.027347,-1628.453072,-612.876398
3842.209921,-8808.450710,-1850.514855,1608.800546
3842.210251,-8216.285956,-1406.391290,2681.334243
3842.210581,-8142.265362,-740.205942,2681.334243
3842.210910,-9548.656652,-2072.576638,612.876398
3842.211240,-9696.697840,-1184.329507,-306.438199
3842.211569,-9844.739029,-1628.453072,0.000000
3842.211899,-9770.718434,-1184.329507,995.924147
3842.212229,-10066.800811,-1184.329507,1915.238745
3842.212558,-10510.924376,-1406.391290,2374.896044
3842.212888,-8808.450710,-888.247130,1072.533697
3842.213217,-9178.553681,-1036.288319,-1149.143247
3842.213547,-9844.739029,-592.164754,-1302.362347
3842.213877,-9548.656652,-814.226536,76.609550
3842.214206,-9548.656652,370.102971,766.095498
3842.214536,-9104.533087,74.020594,306.438199
3842.214866,-9178.553681,0.000000,-842.705048
3842.215195,-10214.842000,0.000000,-842.705048
3842.215525,-11029.068536,-222.061783,-1302.362347
3842.215854,-9918.759623,-592.164754,-1378.971896
3842.216184,-9030.512492,-962.267725,-1378.971896
3842.216514,-9622.677246,-1184.329507,995.924147
3842.216843,-9548.656652,-888.247130,2528.115143
3842.217173,-9696.697840,-592.164754,2068.457845
3842.217503,-9104.533087,-518.144159,536.266849
3842.217832,-8956.491898,-666.185348,-995.924147
3842.218162,-8660.409521,-74.020594,229.828649
3842.218491,-9918.759623,74.020594,2145.067394
3842.218821,-10510.924376,148.041188,2145.067394
3842.219151,-8808.450710,444.123565,1378.971896
3842.219480,-9548.656652,0.000000,-306.438199
3842.219810,-10140.821405,666.185348,-459.657299
3842.220139,-10658.965565,592.164754,766.095498
3842.220469,-9918.759623,740.205942,1225.752797
3842.220799,-8808.450710,740.205942,229.828649
3842.221128,-8438.347739,1184.329507,229.828649
3842.221458,-10214.842000,1184.329507,76.609550
3842.221788,-11769.274478,1628.453072,-536.266849
3842.222117,-11251.130318,1776.494261,-1762.019645
3842.222447,-10362.883188,962.267725,-1838.629195
3842.222776,-8956.491898,666.185348,-383.047749
3842.223106,-8808.450710,74.020594,1072.533697
3842.223436,-9548.656652,370.102971,1225.752797
3842.223765,-9770.718434,1184.329507,306.438199
3842.224095,-9770.718434,222.061783,-2145.067394
3842.224425,-9030.512492,518.144159,-1991.848295
3842.224754,-10510.924376,370.102971,-229.828649
3842.225084,-10658.965565,666.185348,2298.286494
3842.225413,-9770.718434,0.000000,1685.410096
3842.225743,-8882.471304,74.020594,536.266849
3842.226073,-8290.306550,296.082377,76.609550
3842.226402,-10066.800811,444.123565,0.000000
3842.226732,-10066.800811,148.041188,459.657299
3842.227061,-9548.656652,0.000000,1149.143247
3842.227391,-8660.409521,148.041188,1915.238745
3842.227721,-9548.656652,444.123565,3140.991542
3842.228050,-9918.759623,666.185348,2068.457845
3842.228380,-10066.800811,1110.308913,0.000000
3842.228710,-9844.739029,1628.453072,-1455.581446
3842.229039,-10288.862594,1776.494261,-1072.533697
3842.229369,-11029.068536,1998.556043,-229.828649
3842.229698,-10436.903782,1332.370696,-153.219100
3842.230028,-10881.027347,592.164754,-919.314598
3842.230358,-9326.594869,0.000000,-1149.143247
3842.230687,-8808.450710,-740.205942,-76.609550
3842.231017,-9030.512492,-666.185348,1302.362347
3842.231346,-9252.574275,-740.205942,2145.067394
3842.231676,-9918.759623,222.061783,1532.190996
3842.232006,-9030.512492,74.020594,0.000000
3842.232335,-10140.821405,0.000000,0.000000
3842.232665,-10140.821405,-518.144159,919.314598
3842.232995,-11917.315666,-74.020594,2374.896044
3842.233324,-10955.047942,0.000000,1378.971896
3842.233654,-8808.450710,-518.144159,612.876398
3842.233983,-9400.615463,-370.102971,153.219100
3842.234313,-9474.636058,-296.082377,612.876398
3842.234643,-10214.842000,148.041188,76.609550
3842.234972,-9326.594869,296.082377,-153.219100
3842.235302,-8882.471304,444.123565,0.000000
3842.235632,-9474.636058,148.041188,383.047749
3842.235961,-10288.862594,444.123565,689.485948
3842.236291,-10362.883188,222.061783,0.000000
3842.236620,-9992.780217,0.000000,-383.047749
3842.236950,-10066.800811,370.102971,612.876398
3842.237280,-10362.883188,-444.123565,1762.019645
3842.237609,-9622.677246,-74.020594,1455.581446
3842.237939,-9030.512492,-518.144159,689.485948
3842.238268,-9844.739029,0.000000,0.000000
3842.238598,-10510.924376,-592.164754,-766.095498
3842.238928,-9918.759623,0.000000,-1149.143247
3842.239257,-8734.430116,-518.144159,-766.095498
3842.239587,-8808.450710,0.000000,229.828649
3842.239917,-9474.636058,-148.041188,0.000000
3842.240246,-9770.718434,296.082377,0.000000
3842.240576,-10584.944971,0.000000,-919.314598
3842.240905,-9696.697840,-740.205942,-995.924147
3842.241235,-9770.718434,-592.164754,0.000000
3842.241565,-9622.677246,-814.226536,1838.629195
3842.241894,-9474.636058,-1184.329507,2757.943793
3842.242224,-9622.677246,-666.185348,1532.190996
3842.242554,-9030.512492,-296.082377,76.609550
3842.242883,-9622.677246,-222.061783,-1072.533697
3842.243213,-9548.656652,0.000000,-76.609550
3842.243542,-10584.944971,592.164754,919.314598
3842.243872,-10881.027347,148.041188,229.828649
3842.244202,-9474.636058,222.061783,-1915.238745
3842.244531,-8734.430116,-296.082377,-2757.943793
3842.244861,-9622.677246,0.000000,-1225.752797
3842.245190,-11103.089130,-148.041188,0.000000
3842.245520,-10732.986159,296.082377,0.000000
3842.245850,-8512.368333,-296.082377,-1072.533697
3842.246179,-8068.244768,-888.247130,-1225.752797
3842.246509,-8660.409521,0.000000,0.000000
3842.246839,-10658.965565,0.000000,612.876398
3842.247168,-11325.150913,148.041188,1149.143247
3842.247498,-10436.903782,-370.102971,612.876398
3842.247827,-9474.636058,-444.123565,1072.533697
3842.248157,-10362.883188,-296.082377,1378.971896
3842.248487,-10584.944971,-592.164754,689.485948
3842.248816,-9696.697840,-296.082377,612.876398
3842.249146,-8364.327145,-962.267725,-766.095498
3842.249476,-7624.121203,-740.205942,0.000000
3842.249805,-8660.409521,-814.226536,1532.190996
3842.250135,-9030.512492,296.082377,2145.067394
3842.250464,-9252.574275,0.000000,689.485948
3842.250794,-9696.697840,518.144159,459.657299
3842.251124,-10881.027347,740.205942,766.095498
3842.251453,-11325.150913,518.144159,612.876398
3842.251783,-9770.718434,1036.288319,689.485948
3842.252112,-10140.821405,740.205942,306.438199
3842.252442,-9992.780217,814.226536,-612.876398
3842.252772,-10807.006753,296.082377,-153.219100
3842.253101,-10732.986159,1406.391290,-536.266849
3842.253431,-8956.491898,74.020594,-1378.971896
3842.253761,-7772.162391,370.102971,-842.705048
3842.254090,-8290.306550,518.144159,842.705048
3842.254420,-10066.800811,1110.308913,1915.238745
3842.254749,-10658.965565,1036.288319,383.047749
3842.255079,-11547.212695,814.226536,-1532.190996
3842.255409,-11103.089130,74.020594,-919.314598
3842.255738,-10066.800811,-740.205942,1225.752797
3842.256068,-9918.759623,-148.041188,2834.553343
3842.256398,-9252.574275,-592.164754,3064.381992
3842.256727,-8734.430116,-666.185348,766.095498
3842.257057,-7105.977043,-148.041188,-536.266849
3842.257386,-9400.615463,518.144159,0.000000
3842.257716,-10584.944971,1406.391290,1685.410096
3842.258046,-11029.068536,962.267725,1532.190996
3842.258375,-9474.636058,1036.288319,-76.609550
3842.258705,-8438.347739,814.226536,-459.657299
3842.259034,-10732.986159,592.164754,-306.438199
3842.259364,-11177.109724,370.102971,-459.657299
3842.259694,-10288.862594,740.205942,-1225.752797
3842.260023,-9178.553681,222.061783,-1378.971896
3842.260353,-8734.430116,0.000000,-153.219100
3842.260683,-9326.594869,518.144159,1302.362347
3842.261012,-9844.739029,814.226536,1072.533697
3842.261342,-10140.821405,814.226536,-766.095498
3842.261671,-9474.636058,666.185348,-1838.629195
3842.262001,-10066.800811,-222.061783,-1762.019645
3842.262331,-9622.677246,222.061783,0.000000
3842.262660,-10436.903782,148.041188,1608.800546
3842.262990,-9770.718434,148.041188,842.705048
3842.263319,-8364.327145,-592.164754,153.219100
3842.263649,-9548.656652,-1036.288319,766.095498
3842.263979,-9548.656652,-740.205942,1532.190996
3842.264309,-10807.006753,74.020594,2145.067394
3842.264638,-9918.759623,148.041188,1762.019645
3842.264968,-9104.533087,-814.226536,229.828649
3842.265298,-9474.636058,592.164754,-76.609550
3842.265627,-9770.718434,-666.185348,-153.219100
3842.265957,-10510.924376,-370.102971,-306.438199
3842.266287,-8438.347739,0.000000,383.047749
3842.266617,-9622.677246,222.061783,1608.800546
3842.266946,-10214.842000,296.082377,1455.581446
3842.267276,-10584.944971,1036.288319,229.828649
3842.267606,-10955.047942,888.247130,-1072.533697
3842.267935,-11029.068536,518.144159,-842.705048
3842.268265,-10955.047942,74.020594,0.000000
3842.268595,-9844.739029,518.144159,0.000000
3842.268925,-9622.677246,222.061783,153.219100
3842.269254,-8734.430116,0.000000,-766.095498
3842.269584,-9696.697840,-222.061783,-766.095498
3842.269914,-10288.862594,74.020594,229.828649
3842.270243,-10658.965565,-296.082377,383.047749
3842.270573,-9474.636058,-740.205942,459.657299
3842.270903,-8512.368333,-1406.391290,459.657299
3842.271233,-8956.491898,-1036.288319,536.266849
3842.271562,-9326.594869,-1184.329507,76.609550
3842.271892,-9696.697840,-740.205942,919.314598
3842.272222,-8808.450710,-148.041188,689.485948
3842.272551,-9252.574275,-148.041188,919.314598
3842.272881,-10214.842000,518.144159,1225.752797
3842.273211,-11029.068536,148.041188,1149.143247
3842.273541,-9918.759623,0.000000,306.438199
3842.273870,-8956.491898,296.082377,-842.705048
3842.274200,-9918.759623,0.000000,-383.047749
3842.274530,-9252.574275,888.247130,536.266849
3842.274859,-9918.759623,888.247130,-153.219100
3842.275189,-10214.842000,962.267725,-1378.971896
3842.275519,-10732.986159,222.061783,-1455.581446
3842.275849,-11177.109724,370.102971,-383.047749
3842.276178,-10436.903782,0.000000,-612.876398
3842.276508,-9770.718434,0.000000,-536.266849
3842.276838,-8660.409521,296.082377,-459.657299
3842.277167,-9770.718434,0.000000,-612.876398
3842.277497,-9696.697840,74.020594,536.266849
3842.277827,-9918.759623,74.020594,1149.143247
3842.278156,-10140.821405,-296.082377,229.828649
3842.278486,-9548.656652,-666.185348,612.876398
3842.278816,-9474.636058,-814.226536,766.095498
3842.279146,-9622.677246,-814.226536,1149.143247
3842.279475,-10140.821405,-1258.350101,1149.143247
3842.279805,-7920.203579,-1332.370696,383.047749
3842.280135,-8068.244768,-666.185348,612.876398
3842.280464,-9918.759623,222.061783,1455.581446
3842.280794,-10732.986159,0.000000,1762.019645
3842.281124,-10436.903782,0.000000,842.705048
3842.281454,-9030.512492,0.000000,-153.219100
3842.281783,-9326.594869,0.000000,-612.876398
3842.282113,-9474.636058,222.061783,76.609550
3842.282443,-10510.924376,296.082377,689.485948
3842.282772,-9400.615463,444.123565,689.485948
3842.283102,-9548.656652,666.185348,-1302.362347
3842.283432,-11473.192101,740.205942,-1225.752797
3842.283762,-11621.233289,1110.308913,-153.219100
3842.284091,-10732.986159,444.123565,-229.828649
3842.284421,-9622.677246,740.205942,-995.924147
3842.284751,-9548.656652,-222.061783,-1225.752797
3842.285080,-9548.656652,444.123565,-459.657299
3842.285410,-9548.656652,296.082377,306.438199
3842.285740,-9770.718434,370.102971,383.047749
3842.286070,-9696.697840,518.144159,0.000000
3842.286399,-9992.780217,0.000000,76.609550
3842.286729,-10066.800811,0.000000,536.266849
3842.287059,-10881.027347,444.123565,2528.115143
3842.287388,-10732.986159,74.020594,1608.800546
3842.287718,-10140.821405,-814.226536,306.438199
3842.288048,-8438.347739,-592.164754,-689.485948
3842.288378,-9104.533087,-296.082377,1225.752797
3842.288707,-10214.842000,0.000000,1685.410096
3842.289037,-8956.491898,592.164754,612.876398
3842.289367,-8808.450710,0.000000,0.000000
3842.289696,-8734.430116,518.144159,306.438199
3842.290026,-10584.944971,1258.350101,689.485948
3842.290356,-11177.109724,1110.308913,842.705048
3842.290685,-10807.006753,148.041188,383.047749
3842.291015,-9770.718434,0.000000,0.000000
3842.291345,-8734.430116,222.061783,229.828649
3842.291675,-10732.986159,444.123565,0.000000
3842.292004,-11177.109724,1110.308913,-153.219100
3842.292334,-9770.718434,296.082377,-1225.752797
3842.292664,-9178.553681,740.205942,-1072.533697
3842.292993,-9696.697840,666.185348,76.609550
3842.293323,-10807.006753,444.123565,1762.019645
3842.293653,-10066.800811,74.020594,689.485948
3842.293983,-9178.553681,-666.185348,-459.657299
3842.294312,-7254.018232,-814.226536,-842.705048
3842.294642,-9400.615463,-370.102971,689.485948
3842.294972,-11547.212695,222.061783,2451.505594
3842.295301,-10658.965565,-666.185348,1685.410096
3842.295631,-9252.574275,-444.123565,306.438199
3842.295961,-8142.265362,-1036.288319,612.876398
3842.296291,-9844.739029,-740.205942,2068.457845
3842.296620,-9844.739029,0.000000,2987.772442
3842.296950,-9104.533087,0.000000,1378.971896
3842.297280,-8734.430116,1110.308913,-766.095498
3842.297609,-10436.903782,370.102971,-1455.581446
3842.297939,-12731.542202,518.144159,-1149.143247
3842.298269,-10584.944971,-296.082377,-1532.190996
3842.298599,-8290.306550,-148.041188,-1302.362347
3842.298928,-7105.977043,74.020594,-536.266849
3842.299258,-9770.718434,74.020594,459.657299
3842.299588,-11251.130318,1110.308913,536.266849
3842.299917,-11473.192101,0.000000,-1302.362347
3842.300247,-10436.903782,444.123565,-2298.286494
3842.300577,-9474.636058,-814.226536,-459.657299
3842.300907,-9622.677246,-740.205942,1302.362347
3842.301236,-8956.491898,-1036.288319,2451.505594
3842.301566,-8734.430116,-592.164754,459.657299
3842.301896,-8882.471304,0.000000,-766.095498
3842.302225,-10807.006753,0.000000,-612.876398
3842.302555,-11177.109724,592.164754,0.000000
3842.302885,-10140.821405,-666.185348,612.876398
3842.303214,-9400.615463,-666.185348,766.095498
3842.303544,-7698.141797,-888.247130,766.095498
3842.303874,-9548.656652,-888.247130,689.485948
3842.304204,-9252.574275,-148.041188,459.657299
3842.304533,-9030.512492,-222.061783,76.609550
3842.304863,-8586.388927,444.123565,383.047749
3842.305193,-9696.697840,518.144159,1149.143247
3842.305522,-11325.150913,1258.350101,1838.629195
3842.305852,-11177.109724,1332.370696,1149.143247
3842.306182,-11251.130318,1406.391290,-1149.143247
3842.306512,-9770.718434,518.144159,-2451.505594
3842.306841,-10066.800811,0.000000,-1685.410096
3842.307171,-9400.615463,1258.350101,229.828649
3842.307501,-9400.615463,222.061783,612.876398
3842.307830,-9548.656652,1036.288319,306.438199
3842.308160,-9104.533087,-444.123565,-612.876398
3842.308490,-9696.697840,0.000000,153.219100
3842.308820,-9918.759623,740.205942,1532.190996
3842.309149,-10881.027347,74.020594,2145.067394
3842.309479,-9622.677246,74.020594,1991.848295
3842.309809,-8660.409521,-296.082377,1225.752797
3842.310138,-9770.718434,-148.041188,689.485948
3842.310468,-10140.821405,-592.164754,383.047749
3842.310798,-9992.780217,370.102971,-229.828649
3842.311128,-8438.347739,-370.102971,383.047749
3842.311457,-7846.182985,370.102971,2298.286494
3842.311787,-9918.759623,740.205942,2757.943793
3842.312117,-10140.821405,814.226536,766.095498
3842.312446,-9326.594869,1332.370696,-1455.581446
3842.312776,-10066.800811,592.164754,-1149.143247
3842.313106,-10807.006753,962.267725,306.438199
3842.313436,-11103.089130,1110.308913,1991.848295
3842.313765,-10510.924376,1110.308913,1532.190996
3842.314095,-9252.574275,1036.288319,-1149.143247
3842.314425,-9770.718434,1036.288319,-2604.724693
3842.314754,-10140.821405,740.205942,-2298.286494
3842.315084,-10732.986159,222.061783,-919.314598
3842.315414,-9696.697840,740.205942,689.485948
3842.315744,-8364.327145,74.020594,1532.190996
3842.316073,-9622.677246,74.020594,76.609550
3842.316403,-9326.594869,370.102971,-383.047749
3842.316733,-10362.883188,0.000000,-1225.752797
3842.317062,-9918.759623,592.164754,-1149.143247
3842.317392,-10066.800811,-962.267725,153.219100
3842.317722,-9844.739029,-148.041188,2145.067394
3842.318051,-9474.636058,-1110.308913,2145.067394
3842.318381,-9104.533087,-1332.370696,919.314598
3842.318711,-8068.244768,-1332.370696,-306.438199
3842.319041,-8808.450710,-962.267725,-842.705048
3842.319370,-9474.636058,370.102971,1149.143247
3842.319700,-10584.944971,-444.123565,1149.143247
3842.320030,-9474.636058,222.061783,689.485948
3842.320359,-9770.718434,-592.164754,-1072.533697
3842.320689,-10881.027347,-666.185348,-1378.971896
3842.321019,-10584.944971,-888.247130,-842.705048
3842.321349,-9548.656652,-1480.411884,306.438199
3842.321678,-7698.141797,-1184.329507,0.000000
3842.322008,-8660.409521,-444.123565,306.438199
3842.322338,-11399.171507,0.000000,842.705048
3842.322667,-12361.439231,-592.164754,0.000000
3842.322997,-11029.068536,-222.061783,-1072.533697
3842.323327,-8438.347739,-1480.411884,-2145.067394
3842.323657,-9622.677246,-740.205942,-689.485948
3842.323986,-9400.615463,-296.082377,1149.143247
3842.324316,-9992.780217,-1184.329507,766.095498
3842.324646,-8512.368333,-814.226536,-153.219100
3842.324975,-9030.512492,-888.247130,-383.047749
3842.325305,-9992.780217,-814.226536,536.266849
3842.325635,-10214.842000,0.000000,1838.629195
3842.325965,-11325.150913,-296.082377,2451.505594
3842.326294,-10436.903782,-222.061783,1378.971896
3842.326624,-9992.780217,-74.020594,-536.266849
3842.326954,-9030.512492,0.000000,0.000000
3842.327283,-9770.718434,444.123565,689.485948
3842.327613,-10436.903782,1702.473667,689.485948
3842.327943,-9400.615463,296.082377,-1225.752797
3842.328273,-8512.368333,444.123565,-1225.752797
3842.328602,-9104.533087,370.102971,153.219100
3842.328932,-11473.192101,74.020594,2145.067394
3842.329262,-11325.150913,1110.308913,1302.362347
3842.329591,-9918.759623,148.041188,0.000000
3842.329921,-9030.512492,962.267725,-76.609550
3842.330251,-9992.780217,888.247130,383.047749
3842.330580,-11547.212695,296.082377,766.095498
3842.330910,-9326.594869,222.061783,306.438199
3842.331240,-8216.285956,444.123565,383.047749
3842.331570,-8290.306550,1776.494261,1455.581446
3842.331899,-10510.924376,0.000000,1072.533697
3842.332229,-10658.965565,666.185348,0.000000
3842.332559,-9622.677246,-74.020594,-76.609550
3842.332888,-9918.759623,814.226536,153.219100
3842.333218,-9326.594869,-148.041188,536.266849
3842.333548,-9696.697840,888.247130,1838.629195
3842.333878,-9918.759623,666.185348,766.095498
3842.334207,-10288.862594,1036.288319,-306.438199
3842.334537,-10658.965565,1406.391290,76.609550
3842.334867,-9548.656652,370.102971,536.266849
3842.335196,-9178.553681,1406.391290,1072.533697
3842.335526,-9696.697840,740.205942,1225.752797
3842.335856,-10362.883188,888.247130,-919.314598
3842.336186,-10584.944971,592.164754,-995.924147
3842.336515,-10214.842000,518.144159,-229.828649
3842.336845,-9770.718434,370.102971,153.219100
3842.337175,-9178.553681,1184.329507,76.609550
3842.337504,-9474.636058,370.102971,-306.438199
3842.337834,-9474.636058,0.000000,-536.266849
3842.338164,-10510.924376,222.061783,0.000000
3842.338494,-10436.903782,222.061783,306.438199
3842.338823,-10510.924376,-296.082377,-383.047749
3842.339153,-8586.388927,-296.082377,0.000000
3842.339483,-8512.368333,-666.185348,1838.629195
3842.339812,-9030.512492,0.000000,1991.848295
3842.340142,-9918.759623,-370.102971,1149.143247
3842.340472,-10140.821405,-740.205942,-383.047749
3842.340802,-9474.636058,-296.082377,306.438199
3842.341131,-9992.780217,148.041188,1302.362347
3842.341461,-10510.924376,0.000000,1072.533697
3842.341791,-10436.903782,-1110.308913,-383.047749
3842.342120,-8586.388927,-666.185348,-459.657299
3842.342450,-8734.430116,-814.226536,229.828649
3842.342780,-10214.842000,0.000000,689.485948
3842.343109,-9992.780217,-518.144159,0.000000
3842.343439,-9400.615463,-74.020594,-536.266849
3842.343769,-9104.533087,0.000000,-766.095498
3842.344099,-9992.780217,-962.267725,-689.485948
3842.344428,-10658.965565,-296.082377,383.047749
3842.344758,-11103.089130,-740.205942,459.657299
3842.345088,-10288.862594,-1036.288319,689.485948
3842.345417,-9918.759623,-518.144159,766.095498
3842.345747,-10066.800811,-592.164754,76.609550
3842.346077,-9548.656652,-592.164754,-383.047749
3842.346407,-9474.636058,-296.082377,-536.266849
3842.346736,-9326.594869,-740.205942,-306.438199
3842.347066,-10362.883188,-444.123565,229.828649
3842.347396,-9622.677246,-370.102971,306.438199
3842.347725,-8882.471304,-1480.411884,0.000000
3842.348055,-8290.306550,-962.267725,-612.876398
3842.348385,-8660.409521,-666.185348,-229.828649
3842.348715,-10436.903782,-666.185348,306.438199
3842.349044,-9696.697840,0.000000,1149.143247
3842.349374,-9918.759623,-370.102971,1225.752797
3842.349704,-9622.677246,962.267725,1225.752797
3842.350033,-10288.862594,-370.102971,306.438199
3842.350363,-10807.006753,148.041188,689.485948
3842.350693,-9992.780217,592.164754,536.266849
3842.351023,-9992.780217,74.020594,0.000000
3842.351352,-9474.636058,370.102971,-536.266849
3842.351682,-10066.800811,592.164754,-229.828649
3842.352012,-9030.512492,740.205942,-76.609550
3842.352341,-9474.636058,740.205942,-1225.752797
3842.352671,-9548.656652,518.144159,-1455.581446
3842.353001,-10214.842000,370.102971,-1302.362347
3842.353331,-10140.821405,370.102971,-383.047749
3842.353660,-9252.574275,592.164754,1378.971896
3842.353990,-9844.739029,814.226536,1532.190996
3842.354320,-9474.636058,296.082377,919.314598
3842.354649,-9696.697840,-74.020594,689.485948
3842.354979,-9474.636058,814.226536,1455.581446
3842.355309,-9548.656652,0.000000,2298.286494
3842.355639,-9178.553681,148.041188,1915.238745
3842.355968,-8438.347739,518.144159,1302.362347
3842.356298,-10066.800811,0.000000,612.876398
3842.356628,-10584.944971,888.247130,76.609550
3842.356957,-10510.924376,740.205942,-766.095498
3842.357287,-9474.636058,1110.308913,-919.314598
3842.357617,-8882.471304,814.226536,-1225.752797
3842.357946,-9326.594869,814.226536,306.438199
3842.358276,-9178.553681,1332.370696,1225.752797
3842.358606,-10584.944971,1110.308913,1149.143247
3842.358936,-10362.883188,962.267725,306.438199
3842.359265,-10140.821405,888.247130,153.219100
3842.359595,-10214.842000,814.226536,842.705048
3842.359925,-10658.965565,592.164754,536.266849
3842.360254,-10955.047942,1036.288319,383.047749
3842.360584,-10807.006753,518.144159,-919.314598
3842.360914,-9918.759623,74.020594,-1762.019645
3842.361244,-9326.594869,666.185348,-995.924147
3842.361573,-10288.862594,0.000000,-306.438199
3842.361903,-9104.533087,370.102971,536.266849
3842.362233,-9104.533087,0.000000,0.000000
3842.362562,-9104.533087,222.061783,536.266849
3842.362892,-10066.800811,-148.041188,1149.143247
3842.363222,-10807.006753,-148.041188,1838.629195
3842.363552,-9548.656652,-592.164754,766.095498
3842.363881,-10510.924376,-518.144159,229.828649
3842.364211,-9474.636058,-370.102971,536.266849
3842.364541,-10214.842000,-1036.288319,919.314598
3842.364870,-9474.636058,-370.102971,919.314598
3842.365200,-8586.388927,-1036.288319,0.000000
3842.365530,-10140.821405,-222.061783,-383.047749
3842.365860,-9030.512492,-370.102971,-383.047749
3842.366189,-8290.306550,-740.205942,0.000000
3842.366519,-8216.285956,444.123565,383.047749
3842.366849,-9844.739029,0.000000,229.828649
3842.367179,-11177.109724,518.144159,0.000000
3842.367508,-10807.006753,296.082377,-536.266849
3842.367838,-11769.274478,-222.061783,-689.485948
3842.368168,-10362.883188,74.020594,229.828649
3842.368498,-9770.718434,-1480.411884,459.657299
3842.368827,-8660.409521,-592.164754,1685.410096
3842.369157,-8438.347739,-814.226536,1225.752797
3842.369487,-9622.677246,0.000000,766.095498
3842.369817,-10288.862594,-814.226536,-459.657299
3842.370146,-9252.574275,0.000000,-306.438199
3842.370476,-8512.368333,-370.102971,612.876398
3842.370806,-10066.800811,148.041188,1685.410096
3842.371136,-10658.965565,0.000000,2068.457845
3842.371465,-11103.089130,-518.144159,612.876398
3842.371795,-8660.409521,-370.102971,-459.657299
3842.372125,-9696.697840,-666.185348,-766.095498
3842.372455,-10955.047942,666.185348,1072.533697
3842.372784,-10288.862594,-296.082377,2298.286494
3842.373114,-9104.533087,0.000000,919.314598
3842.373444,-7846.182985,-148.041188,-689.485948
3842.373774,-10584.944971,222.061783,-612.876398
3842.374103,-10510.924376,74.020594,-306.438199
3842.374433,-10066.800811,518.144159,995.924147
3842.374763,-9548.656652,444.123565,1915.238745
3842.375093,-10214.842000,444.123565,1915.238745
3842.375423,-11769.274478,370.102971,612.876398
3842.375752,-10658.965565,222.061783,-1838.629195
3842.376082,-10362.883188,-370.102971,-3064.381992
3842.376412,-8956.491898,-148.041188,-1762.019645
3842.376742,-10140.821405,0.000000,-76.609550
3842.377071,-9770.718434,0.000000,153.219100
3842.377401,-7624.121203,-1110.308913,-919.314598
3842.377731,-7105.977043,-1036.288319,-842.705048
3842.378061,-8586.388927,74.020594,229.828649
3842.378390,-10288.862594,-740.205942,612.876398
3842.378720,-10140.821405,814.226536,1378.971896
3842.379050,-10362.883188,-444.123565,919.314598
3842.379380,-9548.656652,148.041188,0.000000
3842.379709,-9252.574275,-888.247130,0.000000
3842.380039,-10732.986159,-148.041188,995.924147
3842.380369,-10362.883188,-592.164754,229.828649
3842.380699,-10066.800811,0.000000,-612.876398
3842.381028,-8216.285956,74.020594,-1072.533697
3842.381358,-8956.491898,222.061783,0.000000
3842.381688,-10732.986159,444.123565,306.438199
3842.382018,-10214.842000,0.000000,-76.609550
3842.382347,-10066.800811,1924.535449,-459.657299
3842.382677,-9918.759623,1036.288319,-1302.362347
3842.383007,-11473.192101,296.082377,-459.657299
3842.383337,-12213.398043,518.144159,306.438199
3842.383666,-11695.253884,148.041188,-306.438199
3842.383996,-9548.656652,0.000000,-919.314598
3842.384326,-9548.656652,-888.247130,612.876398
3842.384656,-8438.347739,-740.205942,1608.800546
3842.384985,-8290.306550,-1184.329507,1378.971896
3842.385315,-8364.327145,74.020594,919.314598
3842.385645,-8586.388927,-962.267725,1225.752797
3842.385975,-10362.883188,0.000000,1455.581446
3842.386304,-9252.574275,-296.082377,2374.896044
3842.386634,-10066.800811,296.082377,1455.581446
3842.386964,-9918.759623,962.267725,-995.924147
3842.387294,-10288.862594,-296.082377,-919.314598
3842.387624,-9918.759623,-74.020594,459.657299
3842.387953,-8956.491898,222.061783,1532.190996
3842.388283,-10140.821405,222.061783,919.314598
3842.388613,-9844.739029,666.185348,76.609550
3842.388943,-9474.636058,444.123565,0.000000
3842.389272,-8216.285956,148.041188,153.219100
3842.389602,-10214.842000,1110.308913,536.266849
3842.389932,-10955.047942,1332.370696,842.705048
3842.390262,-9696.697840,1258.350101,0.000000
3842.390591,-9770.718434,888.247130,-1378.971896
3842.390921,-11177.109724,814.226536,-766.095498
3842.391251,-12287.418637,444.123565,459.657299
3842.391581,-10140.821405,222.061783,689.485948
3842.391910,-9104.533087,0.000000,153.219100
3842.392240,-8438.347739,518.144159,1685.410096
3842.392570,-9844.739029,0.000000,2145.067394
3842.392900,-10288.862594,444.123565,536.266849
3842.393229,-9030.512492,-370.102971,-383.047749
3842.393559,-8882.471304,370.102971,229.828649
3842.393889,-9252.574275,592.164754,1838.629195
3842.394219,-10288.862594,444.123565,2911.162892
3842.394548,-10584.944971,1036.288319,1762.019645
3842.394878,-10732.986159,592.164754,-536.266849
3842.395208,-10807.006753,222.061783,-1685.410096
3842.395538,-10140.821405,0.000000,-919.314598
3842.395867,-10436.903782,0.000000,1608.800546
3842.396197,-9326.594869,444.123565,1608.800546
3842.396527,-9400.615463,370.102971,459.657299
3842.396857,-8734.430116,962.267725,-1685.410096
3842.397186,-9770.718434,296.082377,-1915.238745
3842.397516,-11547.212695,444.123565,-459.657299
3842.397846,-9844.739029,0.000000,842.705048
3842.398176,-8660.409521,-1110.308913,459.657299
3842.398505,-8364.327145,-444.123565,842.705048
3842.398835,-10362.883188,-222.061783,995.924147
3842.399165,-11251.130318,0.000000,383.047749
3842.399495,-10881.027347,-222.061783,-689.485948
3842.399825,-9474.636058,-444.123565,-995.924147
3842.400154,-9030.512492,-814.226536,1225.752797
3842.400484,-10288.862594,-666.185348,2604.724693
3842.400814,-8512.368333,-1110.308913,1608.800546
3842.401144,-7772.162391,-1406.391290,-76.609550
3842.401473,-7476.080014,74.020594,-459.657299
3842.401803,-10584.944971,-444.123565,306.438199
3842.402133,-11177.109724,518.144159,1149.143247
3842.402463,-9770.718434,370.102971,383.047749
3842.402792,-9770.718434,0.000000,0.000000
3842.403122,-9992.780217,518.144159,0.000000
3842.403452,-11399.171507,-370.102971,229.828649
3842.403782,-9844.739029,148.041188,229.828649
3842.404111,-9326.594869,222.061783,0.000000
3842.404441,-9030.512492,0.000000,0.000000
3842.404771,-9548.656652,296.082377,229.828649
3842.405101,-10288.862594,962.267725,153.219100
3842.405430,-10066.800811,74.020594,-153.219100
3842.405760,-10066.800811,222.061783,-919.314598
3842.406090,-9178.553681,0.000000,-306.438199
3842.406420,-10214.842000,0.000000,2451.505594
3842.406749,-10807.006753,518.144159,1685.410096
3842.407079,-11103.089130,-666.185348,153.219100
3842.407409,-9992.780217,-296.082377,0.000000
3842.407739,-9400.615463,-592.164754,842.705048
3842.408068,-9622.677246,-518.144159,1378.971896
3842.408398,-8882.471304,0.000000,1915.238745
3842.408728,-8734.430116,148.041188,1072.533697
3842.409058,-8290.306550,444.123565,766.095498
3842.409387,-10362.883188,814.226536,995.924147
3842.409717,-11177.109724,1036.288319,1149.143247
3842.410047,-10881.027347,888.247130,383.047749
3842.410377,-9844.739029,148.041188,-919.314598
3842.410706,-9326.594869,888.247130,383.047749
3842.411036,-10881.027347,962.267725,1838.629195
3842.411366,-11621.233289,2072.576638,76.609550
3842.411696,-10066.800811,666.185348,-2298.286494
3842.412026,-10658.965565,2220.617826,-1685.410096
3842.412355,-9622.677246,148.041188,-612.876398
3842.412685,-9696.697840,1332.370696,689.485948
3842.413015,-8734.430116,222.061783,-76.609550
3842.413345,-8660.409521,-518.144159,-1532.190996
3842.413674,-8660.409521,518.144159,-1378.971896
3842.414004,-10510.924376,-74.020594,536.266849
3842.414334,-11103.089130,0.000000,689.485948
3842.414664,-9548.656652,-740.205942,842.705048
3842.414993,-8660.409521,-148.041188,995.924147
3842.415323,-9178.553681,-666.185348,1762.019645
3842.415653,-10436.903782,-518.144159,1302.362347
3842.415983,-9474.636058,-888.247130,1072.533697
3842.416312,-8364.327145,-296.082377,-306.438199
3842.416642,-7994.224174,148.041188,-153.219100
3842.416972,-9548.656652,-518.144159,459.657299
3842.417302,-10362.883188,444.123565,1915.238745
3842.417631,-8956.491898,0.000000,1149.143247
3842.417961,-9918.759623,0.000000,-1302.362347
3842.418291,-9844.739029,370.102971,-1608.800546
3842.418621,-11917.315666,0.000000,689.485948
3842.418950,-11103.089130,814.226536,2221.676944
3842.419280,-10584.944971,888.247130,1532.190996
3842.419610,-10140.821405,222.061783,-919.314598
3842.419940,-9178.553681,518.144159,-1991.848295
3842.420269,-10436.903782,148.041188,-766.095498
3842.420599,-10807.006753,1110.308913,306.438199
3842.420929,-10584.944971,0.000000,-1225.752797
3842.421259,-8290.306550,518.144159,-1532.190996
3842.421588,-9326.594869,-666.185348,-766.095498
3842.421918,-11103.089130,222.061783,0.000000
3842.422248,-10584.944971,-1036.288319,-612.876398
3842.422578,-9474.636058,-1554.432478,-689.485948
3842.422907,-8216.285956,-2368.659014,76.609550
3842.423237,-9474.636058,-1554.432478,2834.553343
3842.423567,-10140.821405,-1036.288319,4290.134789
3842.423897,-9622.677246,-888.247130,2068.457845
3842.424227,-8438.347739,-296.082377,229.828649
3842.424556,-9252.574275,-666.185348,-612.876398
3842.424886,-10362.883188,592.164754,76.609550
3842.425216,-10732.986159,-296.082377,919.314598
3842.425546,-9252.574275,0.000000,459.657299
3842.425875,-8068.244768,148.041188,-536.266849
3842.426205,-9474.636058,0.000000,-1915.238745
3842.426535,-10732.986159,444.123565,-919.314598
3842.426865,-11399.171507,592.164754,459.657299
3842.427194,-9696.697840,592.164754,383.047749
3842.427524,-9474.636058,518.144159,306.438199
3842.427854,-10807.006753,666.185348,459.657299
3842.428184,-10288.862594,222.061783,842.705048
3842.428513,-10807.006753,962.267725,306.438199
3842.428843,-10288.862594,1406.391290,-2068.457845
3842.429173,-10510.924376,-74.020594,-2757.943793
3842.429503,-9770.718434,74.020594,-1302.362347
3842.429832,-8216.285956,-814.226536,1225.752797
3842.430162,-9178.553681,-666.185348,2145.067394
3842.430492,-8216.285956,-444.123565,1149.143247
3842.430822,-9252.574275,-1110.308913,842.705048
3842.431151,-9696.697840,0.000000,1915.238745
3842.431481,-10140.821405,-222.061783,2068.457845
3842.431811,-9918.759623,0.000000,2221.676944
3842.432141,-9178.553681,-814.226536,2068.457845
3842.432470,-9474.636058,444.123565,2374.896044
3842.432800,-9770.718434,148.041188,1225.752797
3842.433130,-10436.903782,296.082377,-536.266849
3842.433460,-9622.677246,1184.329507,-1302.362347
3842.433789,-9696.697840,666.185348,-1149.143247
3842.434119,-9770.718434,1110.308913,612.876398
3842.434449,-10214.842000,296.082377,919.314598
3842.434779,-9178.553681,1184.329507,0.000000
3842.435108,-8956.491898,74.020594,-1838.629195
3842.435438,-10214.842000,444.123565,-2451.505594
3842.435768,-9548.656652,222.061783,-919.314598
3842.436098,-10214.842000,222.061783,919.314598
3842.436428,-9918.759623,222.061783,1225.752797
3842.436757,-10066.800811,0.000000,153.219100
3842.437087,-10510.924376,74.020594,-919.314598
3842.437417,-9918.759623,-592.164754,-1455.581446
3842.437747,-9474.636058,-962.267725,0.000000
3842.438076,-9178.553681,-222.061783,1915.238745
3842.438406,-9992.780217,-666.185348,2145.067394
3842.438736,-10214.842000,222.061783,1378.971896
3842.439066,-9104.533087,0.000000,-383.047749
3842.439395,-9400.615463,0.000000,-1302.362347
3842.439725,-8956.491898,-148.041188,-842.705048
3842.440055,-9992.780217,148.041188,1685.410096
3842.440385,-10288.862594,296.082377,3447.429741
3842.440714,-10732.986159,1258.350101,1455.581446
3842.441044,-10066.800811,888.247130,-1225.752797
3842.441374,-10436.903782,0.000000,-2911.162892
3842.441704,-9474.636058,740.205942,-2451.505594
3842.442033,-10140.821405,518.144159,306.438199
3842.442363,-9770.718434,370.102971,689.485948
3842.442693,-8364.327145,-222.061783,76.609550
3842.443023,-9030.512492,-888.247130,-612.876398
3842.443352,-9548.656652,0.000000,-689.485948
3842.443682,-10881.027347,-444.123565,-612.876398
3842.444012,-9770.718434,0.000000,-229.828649
3842.444342,-8512.368333,-962.267725,-76.609550
3842.444671,-8808.450710,0.000000,1762.019645
3842.445001,-9548.656652,-888.247130,1915.238745
3842.445331,-10732.986159,-1036.288319,1149.143247
3842.445661,-9030.512492,-888.247130,842.705048
3842.445990,-8216.285956,-1480.411884,1149.143247
3842.446320,-8956.491898,-592.164754,1608.800546
3842.446650,-9178.553681,0.000000,1991.848295
3842.446980,-9622.677246,-148.041188,1378.971896
3842.447309,-9622.677246,148.041188,689.485948
3842.447639,-10510.924376,444.123565,229.828649
3842.447969,-10658.965565,74.020594,229.828649
3842.448299,-10362.883188,0.000000,153.219100
3842.448628,-9918.759623,740.205942,612.876398
3842.448958,-9992.780217,222.061783,-536.266849
3842.449288,-9178.553681,962.267725,-1149.143247
3842.449618,-9252.574275,74.020594,-306.438199
3842.449948,-10658.965565,1258.350101,76.609550
3842.450277,-9918.759623,962.267725,689.485948
3842.450607,-11103.089130,962.267725,-76.609550
3842.450937,-10140.821405,518.144159,-689.485948
3842.451267,-10732.986159,814.226536,-229.828649
3842.451596,-9622.677246,0.000000,-842.705048
3842.451926,-8808.450710,-444.123565,-1762.019645
3842.452256,-9178.553681,-148.041188,-919.314598
3842.452586,-9252.574275,-296.082377,612.876398
3842.452915,-10066.800811,148.041188,1455.581446
3842.453245,-8290.306550,0.000000,919.314598
3842.453575,-9030.512492,-444.123565,383.047749
3842.453905,-10436.903782,148.041188,1225.752797
3842.454234,-9844.739029,-518.144159,1838.629195
3842.454564,-9030.512492,-148.041188,995.924147
3842.454894,-7920.203579,-148.041188,842.705048
3842.455224,-9252.574275,0.000000,383.047749
3842.455553,-10584.944971,1110.308913,383.047749
3842.455883,-11473.192101,148.041188,76.609550
3842.456213,-11325.150913,1036.288319,229.828649
3842.456543,-10214.842000,0.000000,0.000000
3842.456872,-9252.574275,74.020594,-459.657299
3842.457202,-9030.512492,74.020594,-536.266849
3842.457532,-9178.553681,222.061783,-306.438199
3842.457862,-9844.739029,962.267725,-689.485948
3842.458191,-9918.759623,1036.288319,-1149.143247
3842.458521,-10066.800811,1184.329507,-1685.410096
3842.458851,-11621.233289,888.247130,-1072.533697
3842.459181,-12213.398043,888.247130,-383.047749
3842.459510,-11843.295072,-518.144159,459.657299
3842.459840,-9992.780217,-1184.329507,383.047749
3842.460170,-8364.327145,-1998.556043,766.095498
3842.460500,-8512.368333,-1406.391290,1455.581446
3842.460829,-8438.347739,-740.205942,1378.971896
3842.461159,-7846.182985,-1628.453072,459.657299
3842.461489,-7772.162391,-592.164754,612.876398
3842.461819,-8660.409521,-370.102971,1378.971896
3842.462149,-11103.089130,-296.082377,1072.533697
3842.462478,-10955.047942,0.000000,995.924147
3842.462808,-10584.944971,-1480.411884,229.828649
3842.463138,-8438.347739,-592.164754,-383.047749
3842.463468,-8660.409521,-518.144159,766.095498
3842.463797,-9992.780217,0.000000,229.828649
3842.464127,-9622.677246,222.061783,0.000000
3842.464457,-9844.739029,1184.329507,-995.924147
3842.464787,-9622.677246,814.226536,-1455.581446
3842.465116,-10436.903782,1480.411884,-919.314598
3842.465446,-10584.944971,666.185348,-1302.362347
3842.465776,-10288.862594,296.082377,-1455.581446
3842.466106,-8882.471304,740.205942,-536.266849
3842.466435,-9030.512492,-296.082377,0.000000
3842.466765,-11177.109724,74.020594,76.609550
3842.467095,-11029.068536,-740.205942,153.219100
3842.467425,-10362.883188,-518.144159,0.000000
3842.467754,-9326.594869,-296.082377,383.047749
3842.468084,-9548.656652,-592.164754,1685.410096
3842.468414,-9992.780217,-370.102971,2451.505594
3842.468744,-9548.656652,-592.164754,1225.752797
3842.469073,-8364.327145,0.000000,0.000000
3842.469403,-9030.512492,-444.123565,-229.828649
3842.469733,-9770.718434,-592.164754,1532.190996
3842.470063,-9104.533087,-444.123565,2221.676944
3842.470393,-9030.512492,74.020594,1762.019645
3842.470722,-9548.656652,296.082377,1225.752797
3842.471052,-11251.130318,444.123565,306.438199
3842.471382,-11103.089130,1332.370696,383.047749
3842.471712,-10658.965565,962.267725,0.000000
3842.472041,-10362.883188,1480.411884,-536.266849
3842.472371,-9400.615463,296.082377,919.314598
3842.472701,-9992.780217,518.144159,1608.800546
3842.473031,-9104.533087,592.164754,306.438199
3842.473361,-8290.306550,-296.082377,-1378.971896
3842.473690,-8882.471304,370.102971,-842.705048
3842.474020,-10140.821405,222.061783,306.438199
3842.474350,-10732.986159,370.102971,766.095498
3842.474680,-10807.006753,592.164754,1685.410096
3842.475009,-10732.986159,74.020594,995.924147
3842.475339,-8882.471304,-444.123565,0.000000
3842.475669,-8660.409521,-370.102971,0.000000
3842.475999,-9696.697840,370.102971,1685.410096
3842.476329,-10362.883188,74.020594,919.314598
3842.476658,-8734.430116,740.205942,0.000000
3842.476988,-8142.265362,74.020594,306.438199
3842.477318,-9548.656652,370.102971,306.438199
3842.477648,-10658.965565,1184.329507,766.095498
3842.477977,-11325.150913,666.185348,536.266849
3842.478307,-9992.780217,962.267725,-459.657299
3842.478637,-9770.718434,888.247130,-459.657299
3842.478967,-11103.089130,1554.432478,995.924147
3842.479297,-11547.212695,370.102971,1455.581446
3842.479626,-9548.656652,666.185348,689.485948
3842.479956,-7031.956449,0.000000,-1225.752797
3842.480286,-9400.615463,1184.329507,-1532.190996
3842.480616,-11473.192101,1480.411884,-612.876398
3842.480945,-11547.212695,370.102971,-306.438199
3842.481275,-9622.677246,1110.308913,-1149.143247
3842.481605,-9030.512492,0.000000,-1149.143247
3842.481935,-10658.965565,148.041188,-1225.752797
3842.482265,-9770.718434,-592.164754,-689.485948
3842.482594,-9030.512492,-888.247130,-153.219100
3842.482924,-9474.636058,-740.205942,459.657299
3842.483254,-9474.636058,-1332.370696,766.095498
3842.483584,-9622.677246,-518.144159,1455.581446
3842.483913,-8364.327145,-814.226536,459.657299
3842.484243,-7846.182985,-296.082377,536.266849
3842.484573,-9104.533087,-1332.370696,229.828649
3842.484903,-9844.739029,-592.164754,383.047749
3842.485232,-10140.821405,-370.102971,919.314598
3842.485562,-10066.800811,-592.164754,306.438199
3842.485892,-8512.368333,-592.164754,-995.924147
3842.486222,-8956.491898,-1184.329507,-1149.143247
3842.486552,-10362.883188,148.041188,1149.143247
3842.486881,-10807.006753,-592.164754,612.876398
3842.487211,-9474.636058,-518.144159,-1072.533697
3842.487541,-8290.306550,-296.082377,-229.828649
3842.487871,-9548.656652,-74.020594,76.609550
3842.488200,-10584.944971,888.247130,1455.581446
3842.488530,-10881.027347,148.041188,919.314598
3842.488860,-10066.800811,814.226536,-383.047749
3842.489190,-9770.718434,74.020594,-1915.238745
3842.489520,-11177.109724,148.041188,-1302.362347
3842.489849,-10510.924376,-888.247130,383.047749
3842.490179,-10066.800811,-444.123565,459.657299
3842.490509,-9030.512492,-666.185348,-1378.971896
3842.490839,-9474.636058,-1924.535449,-766.095498
3842.491168,-8734.430116,-1184.329507,153.219100
3842.491498,-8808.450710,-1184.329507,919.314598
3842.491828,-8586.388927,-222.061783,1838.629195
3842.492158,-8660.409521,-592.164754,2451.505594
3842.492488,-9474.636058,-222.061783,2987.772442
3842.492817,-10436.903782,0.000000,2528.115143
3842.493147,-11843.295072,148.041188,1149.143247
3842.493477,-11399.171507,222.061783,306.438199
3842.493807,-10214.842000,-444.123565,0.000000
3842.494136,-8882.471304,370.102971,842.705048
3842.494466,-9030.512492,148.041188,919.314598
3842.494796,-9918.759623,444.123565,306.438199
3842.495126,-8882.471304,444.123565,-1225.752797
3842.495456,-9696.697840,1184.329507,-1225.752797
3842.495785,-9918.759623,1480.411884,-383.047749
3842.496115,-10140.821405,1110.308913,0.000000
3842.496445,-10436.903782,888.247130,306.438199
3842.496775,-9770.718434,888.247130,-153.219100
3842.497104,-10214.842000,0.000000,0.000000
3842.497434,-11325.150913,888.247130,0.000000
3842.497764,-11029.068536,518.144159,1072.533697
3842.498094,-8734.430116,0.000000,689.485948
3842.498424,-8438.347739,148.041188,-383.047749
3842.498753,-9030.512492,740.205942,459.657299
3842.499083,-9770.718434,370.102971,306.438199
3842.499413,-8882.471304,740.205942,-689.485948
3842.499743,-8660.409521,444.123565,-1302.362347
3842.500072,-10214.842000,962.267725,-229.828649
3842.500402,-10510.924376,666.185348,612.876398
3842.500732,-9548.656652,296.082377,919.314598
3842.501062,-7994.224174,148.041188,-76.609550
3842.501391,-8438.347739,74.020594,229.828649
3842.501721,-9992.780217,1332.370696,1838.629195
3842.502051,-10732.986159,1554.432478,1532.190996
3842.502381,-10288.862594,1628.453072,536.266849
3842.502711,-9326.594869,1258.350101,-1225.752797
3842.503040,-11547.212695,1036.288319,-2068.457845
3842.503370,-10955.047942,1110.308913,-1302.362347
3842.503700,-9918.759623,296.082377,-306.438199
3842.504030,-9030.512492,592.164754,-766.095498
3842.504359,-8216.285956,0.000000,-1838.629195
3842.504689,-10140.821405,0.000000,-1378.971896
3842.505019,-9548.656652,148.041188,0.000000
3842.505349,-11621.233289,-148.041188,1302.362347
3842.505679,-10510.924376,0.000000,2681.334243
3842.506008,-8734.430116,-1628.453072,1762.019645
3842.506338,-7328.038826,-370.102971,766.095498
3842.506668,-9918.759623,-740.205942,1608.800546
3842.506998,-11621.233289,-74.020594,1608.800546
3842.507327,-10510.924376,-1184.329507,1532.190996
3842.507657,-8956.491898,0.000000,612.876398
3842.507987,-9474.636058,-592.164754,842.705048
3842.508317,-10881.027347,-444.123565,766.095498
3842.508647,-9030.512492,0.000000,-229.828649
3842.508976,-9030.512492,-592.164754,-1149.143247
3842.509306,-9474.636058,-592.164754,-1455.581446
3842.509636,-10140.821405,74.020594,306.438199
3842.509966,-10584.944971,-222.061783,689.485948
3842.510295,-9474.636058,-814.226536,-306.438199
3842.510625,-9548.656652,-592.164754,0.000000
3842.510955,-10214.842000,-740.205942,306.438199
3842.511285,-9770.718434,-1258.350101,842.705048
3842.511615,-9622.677246,-222.061783,1378.971896
3842.511944,-9696.697840,-740.205942,766.095498
3842.512274,-11695.253884,-814.226536,-766.095498
3842.512604,-10066.800811,-518.144159,-1225.752797
3842.512934,-10288.862594,-1998.556043,-995.924147
3842.513263,-9548.656652,-666.185348,-536.266849
3842.513593,-7846.182985,-1924.535449,0.000000
3842.513923,-7402.059420,-1332.370696,0.000000
3842.514253,-7772.162391,-1036.288319,0.000000
3842.514583,-9548.656652,0.000000,995.924147
3842.514912,-11029.068536,0.000000,1762.019645
3842.515242,-11399.171507,74.020594,766.095498
3842.515572,-11029.068536,-296.082377,1455.581446
3842.515902,-10214.842000,-296.082377,1225.752797
3842.516231,-9030.512492,370.102971,1455.581446
3842.516561,-8956.491898,222.061783,459.657299
3842.516891,-9474.636058,1332.370696,-306.438199
3842.517221,-10362.883188,1702.473667,0.000000
3842.517551,-11029.068536,1332.370696,383.047749
3842.517880,-9474.636058,1258.350101,-919.314598
3842.518210,-9844.739029,518.144159,-1685.410096
3842.518540,-9918.759623,1184.329507,-1225.752797
3842.518870,-9474.636058,518.144159,-306.438199
3842.519199,-8290.306550,740.205942,306.438199
3842.519529,-9104.533087,518.144159,2068.457845
3842.519859,-11473.192101,1480.411884,2834.553343
3842.520189,-11547.212695,888.247130,2374.896044
3842.520518,-10807.006753,1258.350101,1072.533697
3842.520848,-11029.068536,1110.308913,1072.533697
3842.521178,-11621.233289,814.226536,1225.752797
3842.521508,-9918.759623,148.041188,1302.362347
3842.521838,-7105.977043,74.020594,689.485948
3842.522167,-7624.121203,1110.308913,689.485948
3842.522497,-9696.697840,1258.350101,306.438199
3842.522827,-10584.944971,1110.308913,-995.924147
3842.523157,-9474.636058,1258.350101,-1532.190996
3842.523486,-9400.615463,592.164754,-1608.800546
3842.523816,-10140.821405,148.041188,689.485948
3842.524146,-10140.821405,0.000000,2145.067394
3842.524476,-9326.594869,-296.082377,1072.533697
3842.524806,-8068.244768,296.082377,0.000000
3842.525135,-9696.697840,74.020594,-536.266849
3842.525465,-9992.780217,370.102971,-459.657299
3842.525795,-9548.656652,592.164754,-612.876398
3842.526125,-9400.615463,592.164754,-766.095498
3842.526454,-9474.636058,148.041188,-1149.143247
3842.526784,-9548.656652,-592.164754,-1225.752797
3842.527114,-8660.409521,-666.185348,-1608.800546
3842.527444,-9548.656652,-370.102971,-1762.019645
3842.527774,-9474.636058,0.000000,-1685.410096
3842.528103,-9030.512492,-888.247130,-1991.848295
3842.528433,-9030.512492,0.000000,-612.876398
3842.528763,-10732.986159,-370.102971,1455.581446
3842.529093,-12583.501014,74.020594,1302.362347
3842.529422,-11251.130318,-962.267725,229.828649
3842.529752,-8882.471304,-1998.556043,0.000000
3842.530082,-8216.285956,-1480.411884,1455.581446
3842.530412,-10214.842000,0.000000,2374.896044
3842.530742,-10955.047942,0.000000,1762.019645
3842.531071,-9326.594869,0.000000,-766.095498
3842.531401,-9622.677246,0.000000,-1532.190996
3842.531731,-11399.171507,-444.123565,-306.438199
3842.532061,-11843.295072,0.000000,459.657299
3842.532390,-10807.006753,-518.144159,1149.143247
3842.532720,-9474.636058,-814.226536,459.657299
3842.533050,-8734.430116,-1036.288319,459.657299
3842.533380,-9844.739029,-666.185348,1072.533697
3842.533710,-11325.150913,-666.185348,1149.143247
3842.534039,-9770.718434,-1036.288319,153.219100
3842.534369,-8956.491898,-888.247130,1302.362347
3842.534699,-9030.512492,-148.041188,1762.019645
3842.535029,-10066.800811,-1406.391290,2298.286494
3842.535358,-8512.368333,-518.144159,1072.533697
3842.535688,-8734.430116,-740.205942,76.609550
3842.536018,-9030.512492,-296.082377,-459.657299
3842.536348,-9474.636058,-666.185348,0.000000
3842.536677,-10658.965565,0.000000,1072.533697
3842.537007,-9844.739029,-370.102971,1532.190996
3842.537337,-10214.842000,-592.164754,919.314598
3842.537667,-8660.409521,-666.185348,-842.705048
3842.537997,-8882.471304,-370.102971,-766.095498
3842.538326,-8660.409521,592.164754,0.000000
3842.538656,-9104.533087,666.185348,76.609550
3842.538986,-9030.512492,1480.411884,-689.485948
3842.539316,-9030.512492,1480.411884,-612.876398
3842.539645,-10955.047942,1998.556043,76.609550
3842.539975,-12213.398043,1480.411884,459.657299
3842.540305,-11325.150913,814.226536,0.000000
3842.540635,-8882.471304,592.164754,-153.219100
3842.540965,-9548.656652,740.205942,1072.533697
3842.541294,-10658.965565,1406.391290,2068.457845
3842.541624,-10955.047942,1702.473667,1072.533697
3842.541954,-10140.821405,1776.494261,-2068.457845
3842.542284,-9474.636058,962.267725,-2757.943793
3842.542613,-10955.047942,2220.617826,-153.219100
3842.542943,-11251.130318,1628.453072,1915.238745
3842.543273,-10881.027347,1110.308913,1915.238745
3842.543603,-8364.327145,666.185348,0.000000
3842.543933,-8586.388927,0.000000,-306.438199
3842.544262,-9696.697840,740.205942,229.828649
3842.544592,-9992.780217,740.205942,995.924147
3842.544922,-10288.862594,370.102971,1915.238745
3842.545252,-9696.697840,74.020594,2068.457845
3842.545581,-9918.759623,-148.041188,1991.848295
3842.545911,-9474.636058,-222.061783,1455.581446
3842.546241,-10362.883188,-74.020594,689.485948
3842.546571,-10140.821405,0.000000,536.266849
3842.546901,-9104.533087,0.000000,229.828649
3842.547230,-9030.512492,222.061783,0.000000
3842.547560,-8808.450710,592.164754,0.000000
3842.547890,-10140.821405,0.000000,-995.924147
3842.548220,-8956.491898,0.000000,-1378.971896
3842.548549,-9400.615463,148.041188,-1608.800546
3842.548879,-10436.903782,222.061783,-1072.533697
3842.549209,-10732.986159,-370.102971,-306.438199
3842.549539,-10807.006753,-518.144159,842.705048
3842.549869,-9548.656652,-888.247130,-153.219100
3842.550198,-9030.512492,-1184.329507,-536.266849
3842.550528,-8808.450710,0.000000,-383.047749
3842.550858,-9844.739029,0.000000,-229.828649
3842.551188,-10510.924376,74.020594,-995.924147
3842.551517,-10214.842000,-1184.329507,-1378.971896
3842.551847,-9622.677246,-888.247130,536.266849
3842.552177,-9696.697840,-1036.288319,1532.190996
3842.552507,-9696.697840,-962.267725,1378.971896
3842.552837,-9104.533087,-1184.329507,76.609550
3842.553166,-9548.656652,-814.226536,-459.657299
3842.553496,-10140.821405,-148.041188,459.657299
3842.553826,-10658.965565,-296.082377,383.047749
3842.554156,-10955.047942,0.000000,612.876398
3842.554485,-10510.924376,-1184.329507,1455.581446
3842.554815,-9992.780217,-296.082377,1762.019645
3842.555145,-9104.533087,-296.082377,612.876398
3842.555475,-10881.027347,-370.102971,-383.047749
3842.555804,-9178.553681,74.020594,-995.924147
3842.556134,-8586.388927,-1110.308913,-612.876398
3842.556464,-9622.677246,74.020594,689.485948
3842.556794,-10658.965565,-592.164754,1991.848295
3842.557124,-10584.944971,-1036.288319,1991.848295
3842.557453,-8660.409521,-1850.514855,766.095498
3842.557783,-9992.780217,0.000000,1455.581446
3842.558113,-10658.965565,-740.205942,1685.410096
3842.558443,-10066.800811,-1332.370696,1455.581446
3842.558772,-8586.388927,-222.061783,1532.190996
3842.559102,-8586.388927,74.020594,0.000000
3842.559432,-10214.842000,592.164754,-76.609550
3842.559762,-9992.780217,-148.041188,0.000000
3842.560092,-9178.553681,0.000000,0.000000
3842.560421,-7402.059420,222.061783,306.438199
3842.560751,-9844.739029,962.267725,0.000000
3842.561081,-10881.027347,444.123565,-229.828649
3842.561411,-9844.739029,222.061783,-1762.019645
3842.561740,-9400.615463,814.226536,-1532.190996
3842.562070,-9770.718434,518.144159,-689.485948
3842.562400,-10955.047942,444.123565,536.266849
3842.562730,-8882.471304,1184.329507,1685.410096
3842.563060,-9252.574275,222.061783,1838.629195
3842.563389,-9474.636058,888.247130,76.609550
3842.563719,-10584.944971,666.185348,-76.609550
3842.564049,-10140.821405,888.247130,0.000000
3842.564379,-8956.491898,592.164754,612.876398
3842.564708,-10658.965565,1258.350101,1762.019645
3842.565038,-11251.130318,666.185348,76.609550
3842.565368,-10214.842000,740.205942,-2221.676944
3842.565698,-8734.430116,1036.288319,-2451.505594
3842.566028,-9622.677246,370.102971,-1072.533697
3842.566357,-10066.800811,1628.453072,766.095498
3842.566687,-9474.636058,740.205942,1072.533697
3842.567015,-9622.677246,814.226536,842.705048
3842.567345,-8882.471304,740.205942,459.657299
3842.567675,-10362.883188,148.041188,842.705048
3842.568005,-10066.800811,444.123565,766.095498
3842.568334,-9844.739029,592.164754,1455.581446
3842.568664,-9474.636058,444.123565,2374.896044
3842.568994,-9696.697840,592.164754,1915.238745
3842.569323,-10436.903782,814.226536,995.924147
3842.569653,-9400.615463,-296.082377,0.000000
3842.569983,-8956.491898,592.164754,0.000000
3842.570313,-9030.512492,1184.329507,0.000000
3842.570642,-10807.006753,814.226536,306.438199
3842.570972,-9770.718434,1184.329507,0.000000
3842.571302,-10066.800811,370.102971,-612.876398
3842.571632,-10288.862594,740.205942,-383.047749
3842.571961,-8660.409521,0.000000,-536.266849
3842.572291,-9252.574275,74.020594,536.266849
3842.572621,-9992.780217,444.123565,995.924147
3842.572950,-10881.027347,148.041188,383.047749
3842.573280,-10807.006753,-148.041188,-306.438199
3842.573610,-10140.821405,-740.205942,-1685.410096
3842.573940,-10436.903782,74.020594,-766.095498
3842.574269,-9844.739029,-1184.329507,383.047749
3842.574599,-9622.677246,-888.247130,229.828649
3842.574929,-7328.038826,-444.123565,229.828649
3842.575259,-8216.285956,-1036.288319,153.219100
3842.575588,-9252.574275,0.000000,766.095498
3842.575918,-9696.697840,-74.020594,1762.019645
3842.576248,-10436.903782,0.000000,2068.457845
3842.576577,-9770.718434,-666.185348,1225.752797
3842.576907,-11547.212695,-666.185348,1532.190996
3842.577237,-10362.883188,-1110.308913,1455.581446
3842.577567,-10436.903782,-1480.411884,-229.828649
3842.577896,-8512.368333,-518.144159,0.000000
3842.578226,-8438.347739,-1184.329507,153.219100
3842.578556,-9104.533087,518.144159,689.485948
3842.578885,-9326.594869,0.000000,76.609550
3842.579215,-9696.697840,0.000000,-1302.362347
3842.579545,-8882.471304,148.041188,-919.314598
3842.579875,-10881.027347,0.000000,-306.438199
3842.580204,-10881.027347,-296.082377,459.657299
3842.580534,-12139.377449,-148.041188,229.828649
3842.580864,-10066.800811,-1036.288319,0.000000
3842.581194,-8586.388927,-1850.514855,-459.657299
3842.581523,-9622.677246,-888.247130,459.657299
3842.581853,-9696.697840,-2146.597232,1532.190996
3842.582183,-9178.553681,-1406.391290,1838.629195
3842.582512,-7846.182985,-740.205942,1915.238745
3842.582842,-9844.739029,-1184.329507,536.266849
3842.583172,-10214.842000,370.102971,229.828649
3842.583502,-9474.636058,-296.082377,-766.095498
3842.583831,-9548.656652,74.020594,-995.924147
3842.584161,-9326.594869,296.082377,-536.266849
3842.584491,-10732.986159,74.020594,612.876398
3842.584821,-9770.718434,296.082377,459.657299
3842.585150,-10510.924376,592.164754,-612.876398
3842.585480,-9918.759623,1110.308913,-306.438199
3842.585810,-10658.965565,666.185348,-76.609550
3842.586139,-9844.739029,444.123565,306.438199
3842.586469,-8142.265362,444.123565,919.314598
3842.586799,-9622.677246,1036.288319,612.876398
3842.587129,-9474.636058,370.102971,-459.657299
3842.587458,-9844.739029,296.082377,-919.314598
3842.587788,-10362.883188,592.164754,153.219100
3842.588118,-11547.212695,740.205942,383.047749
3842.588447,-11103.089130,444.123565,-383.047749
3842.588777,-9326.594869,-370.102971,0.000000
3842.589107,-8438.347739,-814.226536,1225.752797
3842.589437,-9030.512492,-592.164754,1762.019645
3842.589766,-10140.821405,-296.082377,1991.848295
3842.590096,-8438.347739,592.164754,1455.581446
3842.590426,-8956.491898,0.000000,1072.533697
3842.590756,-8438.347739,666.185348,1072.533697
3842.591085,-9992.780217,666.185348,1072.533697
3842.591415,-10362.883188,1110.308913,1072.533697
3842.591745,-9178.553681,592.164754,0.000000
3842.592074,-10140.821405,888.247130,229.828649
3842.592404,-10436.903782,1554.432478,0.000000
3842.592734,-11843.295072,1258.350101,-306.438199
3842.593064,-10732.986159,1258.350101,-1378.971896
3842.593393,-9252.574275,444.123565,-1915.238745
3842.593723,-8216.285956,666.185348,-766.095498
3842.594053,-7328.038826,444.123565,689.485948
3842.594383,-9104.533087,1110.308913,612.876398
3842.594712,-9844.739029,1924.535449,536.266849
3842.595042,-10584.944971,1258.350101,-689.485948
3842.595372,-11251.130318,1332.370696,-995.924147
3842.595701,-12139.377449,1332.370696,689.485948
3842.596031,-11917.315666,1036.288319,842.705048
3842.596361,-9844.739029,-296.082377,842.705048
3842.596691,-8364.327145,-592.164754,229.828649
3842.597020,-8290.306550,-518.144159,536.266849
3842.597350,-9992.780217,-592.164754,1302.362347
3842.597680,-8808.450710,-592.164754,0.000000
3842.598009,-8438.347739,-592.164754,0.000000
3842.598339,-7920.203579,74.020594,1302.362347
3842.598669,-10436.903782,-888.247130,3064.381992
3842.598999,-11251.130318,0.000000,3524.039291
3842.599328,-9918.759623,-666.185348,1991.848295
3842.599658,-11103.089130,0.000000,306.438199
3842.599988,-11029.068536,148.041188,919.314598
3842.600318,-11769.274478,0.000000,1838.629195
3842.600647,-10436.903782,962.267725,995.924147
3842.600977,-9918.759623,296.082377,-1149.143247
3842.601307,-9992.780217,592.164754,-1762.019645
3842.601636,-8808.450710,0.000000,-1608.800546
3842.601966,-8660.409521,-370.102971,-1149.143247
3842.602296,-8734.430116,-666.185348,-612.876398
3842.602626,-10807.006753,-592.164754,153.219100
3842.602955,-10140.821405,-888.247130,689.485948
3842.603285,-9918.759623,-1702.473667,689.485948
3842.603615,-9548.656652,-2072.576638,76.609550
3842.603945,-9474.636058,-2294.638420,689.485948
3842.604274,-9622.677246,-2220.617826,842.705048
3842.604604,-7994.224174,-1850.514855,919.314598
3842.604934,-8512.368333,-1480.411884,1302.362347
3842.605263,-9400.615463,-370.102971,995.924147
3842.605593,-9696.697840,-296.082377,-306.438199
3842.605923,-9178.553681,-222.061783,-1991.848295
3842.606253,-8956.491898,-962.267725,-1685.410096
3842.606582,-9474.636058,-518.144159,-383.047749
3842.606912,-9918.759623,-666.185348,842.705048
3842.607242,-10658.965565,0.000000,306.438199
3842.607571,-8586.388927,-222.061783,-153.219100
3842.607901,-10658.965565,740.205942,-766.095498
3842.608231,-11695.253884,1258.350101,-842.705048
3842.608561,-11029.068536,666.185348,-536.266849
3842.608890,-10510.924376,296.082377,-76.609550
3842.609220,-9252.574275,296.082377,-229.828649
3842.609550,-10288.862594,518.144159,-153.219100
3842.609880,-9622.677246,592.164754,-1302.362347
3842.610209,-9252.574275,0.000000,-1762.019645
3842.610539,-9326.594869,222.061783,-1072.533697
3842.610869,-10214.842000,0.000000,612.876398
3842.611198,-10288.862594,444.123565,2221.676944
3842.611528,-9696.697840,0.000000,1302.362347
3842.611858,-9770.718434,-814.226536,0.000000
3842.612188,-8512.368333,-1110.308913,153.219100
3842.612517,-9474.636058,-740.205942,1532.190996
3842.612847,-9326.594869,518.144159,2221.676944
3842.613177,-9252.574275,0.000000,2221.676944
3842.613507,-8438.347739,-222.061783,229.828649
3842.613836,-8512.368333,370.102971,76.609550
3842.614166,-9696.697840,370.102971,689.485948
3842.614496,-11177.109724,1036.288319,1762.019645
3842.614825,-11251.130318,814.226536,1685.410096
3842.615155,-8956.491898,740.205942,536.266849
3842.615485,-9696.697840,1406.391290,0.000000
3842.615815,-10510.924376,1628.453072,306.438199
3842.616144,-10807.006753,814.226536,229.828649
3842.616474,-9548.656652,1036.288319,-766.095498
3842.616804,-8068.244768,888.247130,-1532.190996
3842.617133,-10510.924376,1110.308913,-612.876398
3842.617463,-10658.965565,740.205942,536.266849
3842.617793,-10066.800811,222.061783,459.657299
3842.618123,-9030.512492,592.164754,-995.924147
3842.618452,-9696.697840,592.164754,-536.266849
3842.618782,-10140.821405,444.123565,306.438199
3842.619112,-9548.656652,74.020594,689.485948
3842.619442,-10214.842000,148.041188,459.657299
3842.619771,-10214.842000,370.102971,-689.485948
3842.620101,-10658.965565,-666.185348,229.828649
3842.620431,-8808.450710,0.000000,919.314598
3842.620760,-7105.977043,-518.144159,689.485948
3842.621090,-8882.471304,740.205942,0.000000
3842.621420,-9844.739029,888.247130,-306.438199
3842.621750,-10510.924376,148.041188,-383.047749
3842.622079,-9104.533087,518.144159,306.438199
3842.622409,-9992.780217,-148.041188,459.657299
3842.622739,-10658.965565,814.226536,1225.752797
3842.623069,-10881.027347,0.000000,306.438199
3842.623398,-9696.697840,814.226536,-536.266849
3842.623728,-9548.656652,148.041188,-842.705048
3842.624058,-10510.924376,962.267725,-1072.533697
3842.624387,-10214.842000,444.123565,0.000000
3842.624717,-10584.944971,740.205942,536.266849
3842.625047,-9844.739029,888.247130,153.219100
3842.625377,-11103.089130,0.000000,0.000000
3842.625706,-10584.944971,-296.082377,-1991.848295
3842.626036,-8734.430116,-1406.391290,-1762.019645
3842.626366,-8734.430116,-666.185348,459.657299
3842.626696,-8808.450710,-370.102971,2681.334243
3842.627025,-10510.924376,-592.164754,2604.724693
3842.627355,-9770.718434,-518.144159,766.095498
3842.627685,-9400.615463,-1036.288319,-1149.143247
3842.628014,-10584.944971,-370.102971,536.266849
3842.628344,-11177.109724,-666.185348,459.657299
3842.628674,-9918.759623,-666.185348,1072.533697
3842.629004,-7105.977043,-2146.597232,306.438199
3842.629333,-7920.203579,-1258.350101,0.000000
3842.629663,-9030.512492,148.041188,536.266849
3842.629993,-10362.883188,-148.041188,-306.438199
3842.630322,-9474.636058,740.205942,-1378.971896
3842.630652,-9548.656652,0.000000,306.438199
3842.630982,-10955.047942,222.061783,459.657299
3842.631312,-10955.047942,-74.020594,689.485948
3842.631641,-11103.089130,222.061783,383.047749
3842.631971,-8660.409521,-592.164754,-612.876398
3842.632301,-9474.636058,-296.082377,-1225.752797
3842.632631,-9622.677246,666.185348,-229.828649
3842.632960,-10510.924376,222.061783,0.000000
3842.633290,-9770.718434,814.226536,612.876398
3842.633620,-9400.615463,0.000000,383.047749
3842.633949,-10807.006753,370.102971,-995.924147
3842.634279,-10066.800811,-666.185348,-842.705048
3842.634609,-10510.924376,-592.164754,-689.485948
3842.634939,-9030.512492,-1110.308913,-153.219100
3842.635268,-9326.594869,0.000000,1225.752797
3842.635598,-9918.759623,-370.102971,1685.410096
3842.635928,-9104.533087,-740.205942,1685.410096
3842.636258,-9474.636058,0.000000,1608.800546
3842.636587,-9326.594869,0.000000,0.000000
3842.636917,-11029.068536,-592.164754,-842.705048
3842.637247,-10066.800811,74.020594,689.485948
3842.637576,-9030.512492,-444.123565,1838.629195
3842.637906,-7772.162391,444.123565,1532.190996
3842.638236,-9178.553681,1110.308913,-536.266849
3842.638566,-11029.068536,740.205942,-1608.800546
3842.638895,-10140.821405,296.082377,-689.485948
3842.639225,-10881.027347,1110.308913,76.609550
3842.639555,-10066.800811,1110.308913,153.219100
3842.639884,-10362.883188,370.102971,76.609550
3842.640214,-9030.512492,296.082377,-306.438199
3842.640544,-8660.409521,0.000000,-229.828649
3842.640874,-9770.718434,962.267725,-842.705048
3842.641203,-9992.780217,518.144159,-76.609550
3842.641533,-10140.821405,518.144159,306.438199
3842.641863,-10066.800811,740.205942,1685.410096
3842.642193,-11769.274478,222.061783,1608.800546
3842.642522,-10436.903782,-1110.308913,-76.609550
3842.642852,-9030.512492,-1184.329507,-919.314598
3842.643182,-8068.244768,-592.164754,229.828649
3842.643511,-8808.450710,-666.185348,919.314598
3842.643841,-8956.491898,0.000000,1991.848295
3842.644171,-7920.203579,-222.061783,1072.533697
3842.644501,-8216.285956,74.020594,76.609550
3842.644830,-9622.677246,814.226536,0.000000
3842.645160,-12065.356855,666.185348,689.485948
3842.645490,-11251.130318,0.000000,1302.362347
3842.645820,-9030.512492,370.102971,1838.629195
3842.646149,-9474.636058,444.123565,612.876398
3842.646479,-10510.924376,222.061783,-383.047749
3842.646809,-11399.171507,888.247130,-842.705048
3842.647138,-9326.594869,518.144159,-766.095498
3842.647468,-9400.615463,518.144159,-536.266849
3842.647798,-9844.739029,814.226536,612.876398
3842.648128,-9918.759623,0.000000,995.924147
3842.648457,-10584.944971,740.205942,919.314598
3842.648787,-8660.409521,0.000000,0.000000
3842.649117,-9770.718434,0.000000,-229.828649
3842.649446,-10066.800811,0.000000,-306.438199
3842.649776,-10436.903782,-592.164754,0.000000
3842.650106,-9770.718434,0.000000,1225.752797
3842.650436,-10584.944971,-666.185348,1455.581446
3842.650765,-9622.677246,-296.082377,995.924147
3842.651095,-8956.491898,-1332.370696,919.314598
3842.651425,-9844.739029,-370.102971,689.485948
3842.651755,-7772.162391,-592.164754,919.314598
3842.652084,-8068.244768,-444.123565,842.705048
3842.652414,-8068.244768,0.000000,1762.019645
3842.652744,-9918.759623,592.164754,3064.381992
3842.653073,-11473.192101,1480.411884,1991.848295
3842.653403,-10807.006753,518.144159,0.000000
3842.653733,-10732.986159,1406.391290,-612.876398
3842.654063,-9400.615463,740.205942,-229.828649
3842.654392,-10140.821405,1258.350101,76.609550
3842.654722,-9696.697840,1406.391290,-536.266849
3842.655052,-8734.430116,740.205942,-1225.752797
3842.655382,-8142.265362,1628.453072,-459.657299
3842.655711,-8956.491898,666.185348,1149.143247
3842.656041,-10140.821405,1406.391290,2451.505594
3842.656371,-10510.924376,1184.329507,1838.629195
3842.656700,-11251.130318,1110.308913,153.219100
3842.657030,-10214.842000,1184.329507,-153.219100
3842.657360,-10510.924376,296.082377,459.657299
3842.657690,-10881.027347,962.267725,1685.410096
3842.658019,-9770.718434,444.123565,2987.772442
3842.658349,-9104.533087,1184.329507,2834.553343
3842.658679,-7772.162391,666.185348,1302.362347
3842.659008,-8660.409521,666.185348,229.828649
3842.659338,-9178.553681,1850.514855,919.314598
3842.659668,-10066.800811,740.205942,1302.362347
3842.659998,-9474.636058,1702.473667,3370.820191
3842.660327,-8364.327145,2072.576638,4290.134789
3842.660657,-10955.047942,2294.638420,3677.258390
3842.660987,-10807.006753,3478.967927,2451.505594
3842.661317,-11547.212695,3330.926739,383.047749
3842.661646,-11399.171507,3108.864956,919.314598
3842.661976,-11547.212695,3108.864956,3294.210641
3842.662306,-10732.986159,2664.741391,4596.572988
3842.662635,-8364.327145,1702.473667,3294.210641
3842.662965,-8512.368333,1776.494261,2221.676944
3842.663295,-8882.471304,1184.329507,1838.629195
3842.663625,-8956.491898,1258.350101,2681.334243
3842.663954,-8290.306550,1406.391290,3447.429741
3842.664284,-8956.491898,2294.638420,4136.915689
3842.664614,-10214.842000,1998.556043,2604.724693
3842.664944,-11325.150913,2072.576638,842.705048
3842.665273,-10288.862594,1924.535449,-383.047749
3842.665603,-9474.636058,1406.391290,0.000000
3842.665933,-9252.574275,1924.535449,1378.971896
3842.666262,-9326.594869,1480.411884,3983.696590
3842.666592,-9696.697840,2220.617826,4979.620737
3842.666922,-8586.388927,2368.659014,3447.429741
3842.667252,-9474.636058,1924.535449,2681.334243
3842.667581,-11547.212695,2960.823768,1991.848295
3842.667911,-10436.903782,3330.926739,1991.848295
3842.668241,-10140.821405,3552.988522,2374.896044
3842.668570,-10362.883188,4219.173869,1762.019645
3842.668900,-10881.027347,3923.091493,1072.533697
3842.669230,-11769.274478,3034.844362,383.047749
3842.669560,-9918.759623,2812.782580,383.047749
3842.669890,-9104.533087,1554.432478,3447.429741
3842.670219,-9252.574275,1480.411884,5515.887586
3842.670549,-7920.203579,1702.473667,5056.230287
3842.670879,-7179.997637,370.102971,4290.134789
3842.671209,-9030.512492,3108.864956,2681.334243
3842.671539,-10288.862594,2590.720797,2145.067394
3842.671869,-10807.006753,3034.844362,2451.505594
3842.672198,-10510.924376,4811.338623,1685.410096
3842.672528,-11325.150913,4441.235652,1378.971896
3842.672858,-11695.253884,3404.947333,2681.334243
3842.673188,-12139.377449,3256.906145,1532.190996
3842.673518,-9844.739029,1480.411884,2068.457845
3842.673847,-8142.265362,1628.453072,2451.505594
3842.674177,-8586.388927,2368.659014,2757.943793
3842.674507,-8216.285956,1702.473667,3677.258390
3842.674837,-8512.368333,2590.720797,1838.629195
3842.675167,-9400.615463,2664.741391,612.876398
3842.675496,-10066.800811,2146.597232,1149.143247
3842.675826,-10362.883188,2516.700203,2757.943793
3842.676156,-10510.924376,1998.556043,4519.963438
3842.676486,-10066.800811,1924.535449,4596.572988
3842.676816,-8882.471304,2146.597232,3294.210641
3842.677146,-10066.800811,1628.453072,1532.190996
3842.677475,-9474.636058,1628.453072,1685.410096
3842.677805,-10436.903782,2146.597232,1838.629195
3842.678135,-9178.553681,2146.597232,3064.381992
3842.678465,-9252.574275,3108.864956,2911.162892
3842.678795,-10214.842000,3775.050304,1838.629195
3842.679124,-10066.800811,3330.926739,536.266849
3842.679454,-9992.780217,3034.844362,-383.047749
3842.679784,-10362.883188,1998.556043,76.609550
3842.680114,-10140.821405,1924.535449,2068.457845
3842.680444,-9474.636058,888.247130,3140.991542
3842.680773,-8438.347739,962.267725,4136.915689
3842.681103,-7846.182985,1258.350101,3217.601092
3842.681433,-8808.450710,1480.411884,1225.752797
3842.681763,-9326.594869,1924.535449,919.314598
3842.682093,-9844.739029,2960.823768,3064.381992
3842.682423,-10362.883188,3404.947333,4519.963438
3842.682752,-10066.800811,3478.967927,3524.039291
3842.683082,-9770.718434,3034.844362,1838.629195
3842.683412,-9992.780217,3627.009116,459.657299
3842.683742,-11473.192101,3627.009116,76.609550
3842.684072,-12139.377449,3034.844362,766.095498
3842.684401,-10658.965565,2220.617826,1838.629195
3842.684731,-10140.821405,2368.659014,3217.601092
3842.685061,-9992.780217,1850.514855,2374.896044
3842.685391,-9178.553681,1184.329507,1685.410096
3842.685721,-7994.224174,1110.308913,2221.676944
3842.686050,-7772.162391,962.267725,3140.991542
3842.686380,-8142.265362,1554.432478,4366.744339
3842.686710,-9622.677246,2146.597232,4979.620737
3842.687040,-10140.821405,1924.535449,3753.867940
3842.687370,-10881.027347,1850.514855,3524.039291
3842.687700,-11917.315666,2146.597232,2911.162892
3842.688029,-12583.501014,1480.411884,2221.676944
3842.688359,-10510.924376,2072.576638,1762.019645
3842.688689,-8068.244768,1110.308913,842.705048
3842.689019,-8068.244768,1850.514855,1225.752797
3842.689349,-8808.450710,2516.700203,1838.629195
3842.689678,-9326.594869,2220.617826,612.876398
3842.690008,-8068.244768,2294.638420,612.876398
3842.690338,-8142.265362,1702.473667,1455.581446
3842.690668,-9844.739029,2146.597232,4060.306139
3842.690998,-10288.862594,1258.350101,5056.230287
3842.691327,-11621.233289,1480.411884,4596.572988
3842.691657,-10214.842000,1332.370696,2298.286494
3842.691987,-10214.842000,888.247130,1532.190996
3842.692317,-9326.594869,1702.473667,2298.286494
3842.692647,-8956.491898,1776.494261,3370.820191
3842.692977,-9918.759623,2738.761985,3370.820191
3842.693306,-9326.594869,3256.906145,1378.971896
3842.693636,-8660.409521,2368.659014,-153.219100
3842.693966,-10140.821405,2812.782580,229.828649
3842.694296,-11399.171507,2960.823768,766.095498
3842.694626,-11103.089130,2072.576638,2987.772442
3842.694955,-9918.759623,2664.741391,2451.505594
3842.695285,-8438.347739,1924.535449,2145.067394
3842.695615,-10066.800811,1850.514855,2911.162892
3842.695945,-11103.089130,2442.679609,3447.429741
3842.696275,-9400.615463,1924.535449,4213.525239
3842.696604,-9844.739029,3108.864956,5132.839837
3842.696934,-10214.842000,3552.988522,3907.087040
3842.697264,-10510.924376,2442.679609,3370.820191
3842.697594,-10140.821405,2516.700203,1608.800546
3842.697924,-9252.574275,1924.535449,-306.438199
3842.698254,-9400.615463,888.247130,536.266849
3842.698583,-9252.574275,2516.700203,2528.115143
3842.698913,-9474.636058,2442.679609,2757.943793
3842.699243,-8882.471304,2072.576638,2145.067394
3842.699573,-9326.594869,2960.823768,-76.609550
3842.699903,-9770.718434,2146.597232,306.438199
3842.700232,-9918.759623,2368.659014,2834.553343
3842.700562,-9918.759623,2368.659014,4596.572988
3842.700892,-9474.636058,2294.638420,6818.249932
3842.701222,-9474.636058,2812.782580,5822.325785
3842.701552,-10510.924376,2960.823768,2834.553343
3842.701881,-10732.986159,2368.659014,536.266849
3842.702211,-11473.192101,3034.844362,-153.219100
3842.702541,-10214.842000,2220.617826,536.266849
3842.702871,-8734.430116,2220.617826,1991.848295
3842.703201,-8882.471304,2294.638420,1532.190996
3842.703531,-8660.409521,1702.473667,1302.362347
3842.703860,-7994.224174,1776.494261,1302.362347
3842.704190,-8216.285956,2442.679609,153.219100
3842.704520,-9104.533087,2072.576638,1685.410096
3842.704850,-10881.027347,2812.782580,3830.477490
3842.705180,-11843.295072,3034.844362,4443.353888
3842.705509,-10955.047942,1998.556043,3907.087040
3842.705839,-10732.986159,2368.659014,2221.676944
3842.706169,-11769.274478,1554.432478,1608.800546
3842.706499,-10658.965565,2368.659014,2451.505594
3842.706829,-9326.594869,1850.514855,2834.553343
3842.707158,-8364.327145,2146.597232,2451.505594
3842.707488,-7994.224174,2368.659014,2451.505594
3842.707818,-9548.656652,2368.659014,2145.067394
3842.708148,-9992.780217,2664.741391,2145.067394
3842.708478,-10658.965565,2738.761985,1225.752797
3842.708808,-10955.047942,1776.494261,459.657299
3842.709137,-11029.068536,1332.370696,766.095498
3842.709467,-9770.718434,1480.411884,1455.581446
3842.709797,-9474.636058,1036.288319,2374.896044
3842.710127,-8216.285956,1110.308913,3140.991542
3842.710457,-7994.224174,1776.494261,3907.087040
3842.710786,-7698.141797,2072.576638,4213.525239
3842.711116,-9104.533087,2738.761985,2681.334243
3842.711446,-10140.821405,2442.679609,2145.067394
3842.711776,-11399.171507,3108.864956,2451.505594
3842.712106,-11695.253884,2886.803174,2987.772442
3842.712435,-11251.130318,1702.473667,2145.067394
3842.712765,-10362.883188,1924.535449,1685.410096
3842.713095,-9252.574275,1776.494261,1225.752797
3842.713425,-9326.594869,1850.514855,689.485948
3842.713755,-9104.533087,2590.720797,2221.676944
3842.714085,-9030.512492,2368.659014,3447.429741
3842.714414,-8660.409521,2442.679609,3830.477490
3842.714744,-9326.594869,2812.782580,2528.115143
3842.715074,-10510.924376,1924.535449,2298.286494
3842.715404,-10584.944971,1332.370696,1378.971896
3842.715734,-10584.944971,1850.514855,2681.334243
3842.716063,-10214.842000,1480.411884,3217.601092
3842.716393,-10140.821405,1998.556043,3753.867940
3842.716723,-9030.512492,1702.473667,2451.505594
3842.717053,-9474.636058,2368.659014,1685.410096
3842.717383,-9178.553681,2368.659014,1685.410096
3842.717712,-10066.800811,2590.720797,1608.800546
3842.718042,-10658.965565,2368.659014,1378.971896
3842.718372,-10436.903782,2590.720797,2451.505594
3842.718702,-10214.842000,1628.453072,2145.067394
3842.719032,-9696.697840,1480.411884,1378.971896
3842.719362,-9548.656652,1480.411884,536.266849
3842.719691,-9770.718434,962.267725,919.314598
3842.720021,-10214.842000,1184.329507,1685.410096
3842.720351,-10066.800811,1110.308913,2987.772442
3842.720681,-9178.553681,740.205942,3217.601092
3842.721011,-9178.553681,962.267725,2374.896044
3842.721340,-9548.656652,666.185348,1685.410096
3842.721670,-9992.780217,444.123565,1225.752797
3842.722000,-9400.615463,444.123565,1685.410096
3842.722330,-9622.677246,444.123565,1991.848295
3842.722660,-9548.656652,518.144159,1915.238745
3842.722989,-9400.615463,814.226536,1532.190996
3842.723319,-9622.677246,1184.329507,766.095498
3842.723649,-10140.821405,1110.308913,995.924147
3842.723979,-9918.759623,888.247130,1302.362347
3842.724309,-9622.677246,666.185348,1991.848295
3842.724639,-9474.636058,518.144159,2145.067394
3842.724968,-9548.656652,370.102971,2451.505594
3842.725298,-9696.697840,444.123565,1685.410096
3842.725628,-9474.636058,370.102971,1302.362347
3842.725958,-8882.471304,370.102971,1532.190996
3842.726288,-8882.471304,518.144159,2528.115143
3842.726617,-9474.636058,1332.370696,3217.601092
3842.726947,-9622.677246,1628.453072,3830.477490
3842.727277,-9770.718434,2072.576638,3447.429741
3842.727607,-10510.924376,2590.720797,2451.505594
3842.727937,-11621.233289,2516.700203,2221.676944
3842.728266,-11473.192101,2812.782580,1762.019645
3842.728596,-10510.924376,2516.700203,1915.238745
3842.728926,-10066.800811,2516.700203,2298.286494
3842.729256,-9474.636058,2368.659014,3064.381992
3842.729586,-8734.430116,2072.576638,3753.867940
3842.729916,-8660.409521,2886.803174,4366.744339
3842.730245,-9104.533087,3478.967927,4366.744339
3842.730575,-10436.903782,4071.132681,4366.744339
3842.730905,-10955.047942,4071.132681,3294.210641
3842.731235,-11251.130318,3849.070898,3217.601092
3842.731565,-11325.150913,3404.947333,4060.306139
3842.731894,-11251.130318,3256.906145,4366.744339
3842.732224,-10066.800811,3404.947333,3830.477490
3842.732554,-8660.409521,2812.782580,3217.601092
3842.732884,-7994.224174,3256.906145,2221.676944
3842.733214,-8808.450710,3701.029710,2681.334243
3842.733543,-8734.430116,3923.091493,3753.867940
3842.733873,-9400.615463,4589.276840,3677.258390
3842.734203,-9474.636058,4589.276840,4213.525239
3842.734533,-10140.821405,4737.318029,4136.915689
3842.734863,-10510.924376,4441.235652,4060.306139
3842.735193,-10881.027347,4663.297435,2911.162892
3842.735522,-10955.047942,4737.318029,1915.238745
3842.735852,-10362.883188,4293.194464,1915.238745
3842.736182,-9400.615463,3701.029710,1532.190996
3842.736512,-8734.430116,3923.091493,2834.553343
3842.736842,-9474.636058,3775.050304,2374.896044
3842.737171,-9474.636058,3627.009116,1762.019645
3842.737501,-8068.244768,3256.906145,1302.362347
3842.737831,-7846.182985,3478.967927,1838.629195
3842.738161,-8956.491898,4293.194464,3140.991542
3842.738491,-10584.944971,4737.318029,2757.943793
3842.738820,-10732.986159,5033.400406,1915.238745
3842.739150,-11177.109724,4441.235652,536.266849
3842.739480,-11547.212695,4145.153275,-383.047749
3842.739810,-11547.212695,3552.988522,919.314598
3842.740140,-11103.089130,3182.885551,2068.457845
3842.740470,-9252.574275,2960.823768,2221.676944
3842.740799,-7254.018232,2664.741391,1072.533697
3842.741129,-7698.141797,3182.885551,919.314598
3842.741459,-8438.347739,2590.720797,842.705048
3842.741789,-9696.697840,3330.926739,919.314598
3842.742119,-9918.759623,3182.885551,1532.190996
3842.742448,-10584.944971,2886.803174,2221.676944
3842.742778,-11177.109724,2960.823768,2681.334243
3842.743108,-11843.295072,2146.597232,1915.238745
3842.743438,-11251.130318,1258.350101,1302.362347
3842.743768,-9548.656652,962.267725,995.924147
3842.744097,-8660.409521,444.123565,2374.896044
3842.744427,-8956.491898,592.164754,3983.696590
3842.744757,-8586.388927,666.185348,3217.601092
3842.745087,-8142.265362,1406.391290,2604.724693
3842.745417,-9326.594869,1628.453072,995.924147
3842.745747,-10510.924376,1406.391290,536.266849
3842.746076,-10658.965565,1258.350101,2374.896044
3842.746406,-10955.047942,1480.411884,3370.820191
3842.746736,-10288.862594,222.061783,3140.991542
3842.747066,-10510.924376,0.000000,2068.457845
3842.747396,-9992.780217,-592.164754,2374.896044
3842.747725,-8882.471304,-1184.329507,2604.724693
3842.748055,-9474.636058,-888.247130,4136.915689
3842.748385,-8956.491898,0.000000,3370.820191
3842.748715,-9326.594869,-962.267725,2528.115143
3842.749045,-8512.368333,148.041188,1225.752797
3842.749374,-9178.553681,-592.164754,1225.752797
3842.749704,-11177.109724,-592.164754,1149.143247
3842.750034,-10362.883188,-888.247130,766.095498
3842.750364,-9622.677246,-1110.308913,1685.410096
3842.750694,-9548.656652,-1184.329507,2834.553343
3842.751024,-9770.718434,-1258.350101,2834.553343
3842.751353,-9474.636058,-1036.288319,2987.772442
3842.751683,-9030.512492,-740.205942,2145.067394
3842.752013,-8512.368333,222.061783,2681.334243
3842.752343,-9622.677246,592.164754,4366.744339
3842.752673,-10807.006753,1184.329507,3983.696590
3842.753002,-10807.006753,1332.370696,2451.505594
3842.753332,-10362.883188,1480.411884,0.000000
3842.753662,-11029.068536,1628.453072,-383.047749
3842.753992,-9992.780217,888.247130,689.485948
3842.754322,-9030.512492,1406.391290,2221.676944
3842.754651,-8808.450710,1850.514855,2604.724693
3842.754981,-8882.471304,1480.411884,2451.505594
3842.755311,-9178.553681,1998.556043,2145.067394
3842.755641,-10066.800811,2220.617826,1915.238745
3842.755971,-9252.574275,2442.679609,3447.429741
3842.756301,-9474.636058,2738.761985,4596.572988
3842.756630,-9104.533087,3108.864956,4826.401637
3842.756960,-9844.739029,3478.967927,4519.963438
3842.757290,-11251.130318,4145.153275,4366.744339
3842.757620,-11251.130318,4367.215058,3753.867940
3842.757950,-12213.398043,4367.215058,3064.381992
3842.758279,-10732.986159,4515.256246,2298.286494
3842.758609,-9622.677246,4663.297435,2987.772442
3842.758939,-8660.409521,4885.359217,3677.258390
3842.759269,-8586.388927,4515.256246,3524.039291
3842.759599,-9474.636058,4885.359217,2604.724693
3842.759928,-9326.594869,4811.338623,2681.334243
3842.760258,-10066.800811,5181.441594,2451.505594
3842.760588,-10658.965565,5329.482782,3217.601092
3842.760918,-10288.862594,4959.379811,2221.676944
3842.761248,-10584.944971,4515.256246,1915.238745
3842.761578,-10658.965565,4441.235652,1608.800546
3842.761907,-10732.986159,4293.194464,1991.848295
3842.762237,-9918.759623,3627.009116,1838.629195
3842.762567,-9104.533087,4071.132681,1455.581446
3842.762897,-7994.224174,3256.906145,459.657299
3842.763227,-7772.162391,3034.844362,766.095498
3842.763556,-8290.306550,3330.926739,459.657299
3842.763886,-8882.471304,2738.761985,1072.533697
3842.764216,-9252.574275,3182.885551,1838.629195
3842.764546,-8660.409521,3701.029710,1608.800546
3842.764876,-8808.450710,3034.844362,995.924147
3842.765205,-8808.450710,3478.967927,1225.752797
3842.765535,-9622.677246,3256.906145,2374.896044
3842.765865,-10584.944971,4145.153275,3140.991542
3842.766195,-11029.068536,4293.194464,2528.115143
3842.766525,-11547.212695,3775.050304,1455.581446
3842.766855,-10807.006753,3478.967927,842.705048
3842.767184,-10584.944971,3775.050304,842.705048
3842.767514,-10658.965565,3182.885551,1072.533697
3842.767844,-9030.512492,2886.803174,995.924147
3842.768174,-7402.059420,2442.679609,2145.067394
3842.768504,-8290.306550,2442.679609,2221.676944
3842.768834,-9474.636058,3182.885551,2451.505594
3842.769163,-11177.109724,1998.556043,1915.238745
3842.769493,-10584.944971,2072.576638,2604.724693
3842.769823,-10658.965565,1628.453072,4213.525239
3842.770153,-11103.089130,962.267725,4903.011187
3842.770483,-11399.171507,518.144159,4443.353888
3842.770813,-10881.027347,148.041188,2987.772442
3842.771143,-9770.718434,-592.164754,1838.629195
3842.771472,-9992.780217,0.000000,689.485948
3842.771802,-9844.739029,-370.102971,1762.019645
3842.772132,-9548.656652,-592.164754,2145.067394
3842.772462,-8512.368333,-592.164754,2298.286494
3842.772792,-7105.977043,-1480.411884,2451.505594
3842.773122,-8142.265362,-518.144159,2604.724693
3842.773451,-9178.553681,-370.102971,2681.334243
3842.773781,-10807.006753,-814.226536,3524.039291
3842.774111,-10807.006753,-296.082377,4060.306139
3842.774441,-10436.903782,-1184.329507,4903.011187
3842.774771,-11177.109724,-1258.350101,6588.421283
3842.775101,-10807.006753,-296.082377,6588.421283
3842.775431,-10066.800811,-666.185348,5209.449386
3842.775760,-9104.533087,814.226536,2834.553343
3842.776090,-7624.121203,1406.391290,76.609550
3842.776420,-8512.368333,1110.308913,-306.438199
3842.776750,-9474.636058,1850.514855,0.000000
3842.777080,-9992.780217,1628.453072,1455.581446
3842.777410,-10066.800811,1036.288319,2681.334243
3842.777740,-9178.553681,148.041188,2528.115143
3842.778069,-9696.697840,0.000000,3600.648841
3842.778399,-10510.924376,222.061783,3370.820191
3842.778729,-11399.171507,1332.370696,1762.019645
3842.779059,-10584.944971,1036.288319,1378.971896
3842.779389,-10140.821405,1406.391290,459.657299
3842.779719,-10658.965565,1628.453072,-689.485948
3842.780048,-10510.924376,1628.453072,-766.095498
3842.780378,-10584.944971,962.267725,-1378.971896
3842.780708,-9844.739029,1628.453072,-1838.629195
3842.781038,-8956.491898,1480.411884,-2374.896044
3842.781368,-8956.491898,1628.453072,-2528.115143
3842.781698,-8586.388927,1554.432478,-2298.286494
3842.782028,-8512.368333,962.267725,-536.266849
3842.782357,-9622.677246,1036.288319,995.924147
3842.782687,-10584.944971,962.267725,2374.896044
3842.783017,-10955.047942,740.205942,1685.410096
3842.783347,-9030.512492,740.205942,2374.896044
3842.783677,-8142.265362,444.123565,1838.629195
3842.784007,-8216.285956,1480.411884,1608.800546
3842.784337,-7920.203579,1924.535449,919.314598
3842.784666,-8660.409521,2738.761985,919.314598
3842.784996,-9770.718434,1998.556043,995.924147
3842.785326,-9548.656652,2368.659014,689.485948
3842.785656,-9326.594869,2072.576638,842.705048
3842.785986,-10658.965565,2368.659014,0.000000
3842.786316,-10584.944971,3256.906145,-612.876398
3842.786645,-10214.842000,3775.050304,-1915.238745
3842.786975,-12139.377449,4145.153275,-2757.943793
3842.787305,-11621.233289,3923.091493,-4136.915689
3842.787635,-10807.006753,2146.597232,-3907.087040
3842.787965,-9622.677246,1628.453072,-2298.286494
3842.788295,-10362.883188,962.267725,229.828649
3842.788625,-10510.924376,-296.082377,1532.190996
3842.788954,-9474.636058,0.000000,766.095498
3842.789284,-8660.409521,-296.082377,229.828649
3842.789614,-7920.203579,0.000000,-1302.362347
3842.789944,-9252.574275,222.061783,-1378.971896
3842.790274,-10214.842000,0.000000,76.609550
3842.790604,-9844.739029,-1036.288319,2374.896044
3842.790934,-7920.203579,-1850.514855,3294.210641
3842.791263,-8956.491898,-1628.453072,3983.696590
3842.791593,-9474.636058,-1480.411884,3064.381992
3842.791923,-9400.615463,-1480.411884,2604.724693
3842.792253,-8512.368333,-1036.288319,1072.533697
3842.792583,-9326.594869,-1110.308913,919.314598
3842.792913,-11177.109724,0.000000,1762.019645
3842.793242,-11325.150913,0.000000,1225.752797
3842.793572,-9400.615463,1036.288319,-153.219100
3842.793902,-9696.697840,1702.473667,-1072.533697
3842.794232,-11547.212695,2516.700203,-1685.410096
3842.794562,-13101.645173,1924.535449,-2298.286494
3842.794892,-13101.645173,1036.288319,-1915.238745
3842.795222,-10955.047942,-666.185348,-1149.143247
3842.795551,-9400.615463,-2590.720797,766.095498
3842.795881,-9178.553681,-2368.659014,2681.334243
3842.796211,-10066.800811,-2738.761985,2604.724693
3842.796541,-8142.265362,-2664.741391,919.314598
3842.796871,-7772.162391,-3256.906145,0.000000
3842.797201,-8438.347739,-2960.823768,-612.876398
3842.797531,-9104.533087,-2812.782580,2757.943793
3842.797860,-8290.306550,-1998.556043,4443.353888
3842.798190,-8586.388927,-1998.556043,4519.963438
3842.798520,-8956.491898,-1554.432478,3140.991542
3842.798850,-10214.842000,-1702.473667,1072.533697
3842.799180,-10955.047942,-592.164754,0.000000
3842.799510,-11621.233289,0.000000,536.266849
3842.799839,-11251.130318,0.000000,766.095498
3842.800169,-9548.656652,444.123565,0.000000
3842.800499,-8216.285956,814.226536,-1225.752797
3842.800829,-9474.636058,1184.329507,-1915.238745
3842.801159,-11029.068536,1406.391290,-2451.505594
3842.801489,-10732.986159,1924.535449,-2911.162892
3842.801819,-9844.739029,1480.411884,-2604.724693
3842.802148,-10807.006753,962.267725,-766.095498
3842.802478,-11769.274478,888.247130,-383.047749
3842.802808,-11251.130318,-666.185348,-1685.410096
3842.803138,-10436.903782,-740.205942,-3064.381992
3842.803468,-9400.615463,-1258.350101,-2298.286494
3842.803798,-9770.718434,-1850.514855,-306.438199
3842.804128,-6735.874072,-1258.350101,995.924147
3842.804457,-5773.606348,-1036.288319,536.266849
3842.804787,-7772.162391,-814.226536,76.609550
3842.805117,-9548.656652,-814.226536,306.438199
3842.805447,-9992.780217,-962.267725,766.095498
3842.805777,-9844.739029,-222.061783,1072.533697
3842.806107,-10658.965565,74.020594,1302.362347
3842.806436,-10362.883188,-370.102971,2298.286494
3842.806766,-8068.244768,0.000000,1302.362347
3842.807096,-7476.080014,666.185348,-153.219100
3842.807426,-10066.800811,592.164754,-919.314598
3842.807756,-11621.233289,1554.432478,76.609550
3842.808086,-10732.986159,1406.391290,2451.505594
3842.808416,-10066.800811,2442.679609,2681.334243
3842.808745,-10881.027347,3330.926739,459.657299
3842.809075,-11843.295072,2590.720797,-1991.848295
3842.809405,-11103.089130,3775.050304,-4136.915689
3842.809735,-9844.739029,1850.514855,-4443.353888
3842.810065,-11177.109724,2146.597232,-3140.991542
3842.810395,-12361.439231,518.144159,76.609550
3842.810725,-10955.047942,-592.164754,766.095498
3842.811054,-8882.471304,-444.123565,-383.047749
3842.811384,-9474.636058,-962.267725,-1072.533697
3842.811714,-9474.636058,-2220.617826,-1072.533697
3842.812044,-5551.544565,-2960.823768,306.438199
3842.812374,-4515.256246,-2072.576638,2757.943793
3842.812704,-6735.874072,-1850.514855,4903.011187
3842.813033,-10436.903782,-370.102971,5439.278036
3842.813363,-12139.377449,-296.082377,2987.772442
3842.813693,-11103.089130,518.144159,-459.657299
3842.814023,-11251.130318,148.041188,-2451.505594
3842.814353,-10436.903782,-296.082377,-383.047749
3842.814683,-9326.594869,0.000000,2451.505594
3842.815013,-8364.327145,0.000000,3830.477490
3842.815342,-7920.203579,962.267725,919.314598
3842.815672,-9548.656652,1184.329507,-1608.800546
3842.816002,-9992.780217,2220.617826,-2374.896044
3842.816332,-10140.821405,1998.556043,-1991.848295
3842.816662,-12583.501014,3182.885551,-459.657299
3842.816992,-13101.645173,1776.494261,1378.971896
3842.817322,-12657.521608,814.226536,689.485948
3842.817651,-10436.903782,370.102971,-1532.190996
3842.817981,-10066.800811,-962.267725,-2221.676944
3842.818311,-10658.965565,-222.061783,-612.876398
3842.818641,-9918.759623,-518.144159,919.314598
3842.818971,-9548.656652,-962.267725,2298.286494
3842.819301,-9622.677246,-222.061783,1685.410096
3842.819630,-9400.615463,-1184.329507,76.609550
3842.819960,-8882.471304,-2368.659014,-1608.800546
3842.820290,-6735.874072,-1184.329507,-459.657299
3842.820620,-7402.059420,-1480.411884,919.314598
3842.820950,-9030.512492,-370.102971,2451.505594
3842.821280,-9844.739029,0.000000,1838.629195
3842.821610,-10658.965565,0.000000,306.438199
3842.821939,-10140.821405,-444.123565,-383.047749
3842.822269,-9992.780217,-740.205942,-153.219100
3842.822599,-9178.553681,-444.123565,1991.848295
3842.822929,-8734.430116,0.000000,2604.724693
3842.823259,-8734.430116,-222.061783,1302.362347
3842.823589,-9326.594869,74.020594,76.609550
3842.823919,-10362.883188,1332.370696,-383.047749
3842.824248,-10584.944971,2294.638420,-919.314598
3842.824578,-10288.862594,2368.659014,-3064.381992
3842.824908,-11547.212695,1702.473667,-3294.210641
3842.825238,-11695.253884,1036.288319,-2298.286494
3842.825568,-11843.295072,592.164754,-1608.800546
3842.825898,-11325.150913,-370.102971,-2451.505594
3842.826227,-9844.739029,-962.267725,-1608.800546
3842.826557,-8586.388927,-1110.308913,-383.047749
3842.826887,-8290.306550,-1924.535449,0.000000
3842.827217,-7624.121203,-2294.638420,229.828649
3842.827547,-8216.285956,-2368.659014,1072.533697
3842.827877,-8290.306550,-1850.514855,1991.848295
3842.828207,-8956.491898,-1258.350101,2834.553343
3842.828536,-9622.677246,-1258.350101,2911.162892
3842.828866,-10140.821405,-814.226536,3524.039291
3842.829196,-10288.862594,-518.144159,1915.238745
3842.829526,-9474.636058,-1036.288319,0.000000
3842.829856,-9474.636058,-518.144159,0.000000
3842.830186,-9992.780217,0.000000,1455.581446
3842.830516,-10214.842000,148.041188,2068.457845
3842.830845,-10288.862594,1628.453072,306.438199
3842.831175,-9918.759623,1628.453072,-1762.019645
3842.831505,-9770.718434,1998.556043,-1838.629195
3842.831835,-11251.130318,2590.720797,-1302.362347
3842.832165,-12065.356855,3034.844362,-842.705048
3842.832495,-12509.480420,2294.638420,-1685.410096
3842.832824,-11769.274478,2220.617826,-2451.505594
3842.833154,-11177.109724,222.061783,-1455.581446
3842.833484,-9770.718434,-370.102971,-383.047749
3842.833814,-9104.533087,-444.123565,995.924147
3842.834144,-9178.553681,-444.123565,1608.800546
3842.834474,-8808.450710,-740.205942,1762.019645
3842.834804,-7994.224174,-1110.308913,2374.896044
3842.835133,-8290.306550,-740.205942,1225.752797
3842.835463,-9178.553681,0.000000,1685.410096
3842.835793,-9474.636058,-370.102971,1915.238745
3842.836123,-8956.491898,-740.205942,2911.162892
3842.836453,-8512.368333,-962.267725,2528.115143
3842.836783,-9252.574275,-888.247130,3370.820191
3842.837113,-9770.718434,-518.144159,3217.601092
3842.837442,-8660.409521,74.020594,1991.848295
3842.837772,-8586.388927,962.267725,1685.410096
3842.838102,-9622.677246,1554.432478,1915.238745
3842.838432,-10732.986159,2294.638420,1608.800546
3842.838762,-10066.800811,2294.638420,689.485948
3842.839092,-10436.903782,4145.153275,612.876398
3842.839421,-12583.501014,4515.256246,-1072.533697
3842.839751,-13619.789333,4219.173869,-4213.525239
3842.840081,-13101.645173,2146.597232,-6435.202183
3842.840411,-9400.615463,148.041188,-5669.106685
3842.840741,-7920.203579,148.041188,-2528.115143
3842.841071,-9252.574275,0.000000,1991.848295
3842.841401,-11399.171507,-222.061783,2757.943793
3842.841730,-9770.718434,-740.205942,306.438199
3842.842060,-7624.121203,-1998.556043,-3677.258390
3842.842390,-6513.812290,-2368.659014,-3370.820191
3842.842720,-7772.162391,-2146.597232,766.095498
3842.843050,-7402.059420,-1702.473667,4826.401637
3842.843380,-6217.729913,-1998.556043,5056.230287
3842.843710,-7402.059420,-962.267725,4060.306139
3842.844039,-11029.068536,-148.041188,-153.219100
3842.844369,-12953.603985,-296.082377,-2221.676944
3842.844699,-11251.130318,444.123565,-2068.457845
3842.845029,-9992.780217,518.144159,-842.705048
3842.845359,-7920.203579,1332.370696,306.438199
3842.845689,-8808.450710,222.061783,995.924147
3842.846018,-11103.089130,1776.494261,842.705048
3842.846348,-10584.944971,2516.700203,-2987.772442
3842.846678,-9696.697840,2294.638420,-5669.106685
3842.847008,-11177.109724,2590.720797,-2987.772442
3842.847338,-12953.603985,2812.782580,1225.752797
3842.847668,-13989.892304,2442.679609,2451.505594
3842.847998,-12805.562797,370.102971,-229.828649
3842.848327,-10214.842000,-740.205942,-2528.115143
3842.848657,-8216.285956,-2072.576638,-2451.505594
3842.848987,-9548.656652,-1480.411884,306.438199
3842.849317,-10436.903782,-2442.679609,3140.991542
3842.849647,-8660.409521,-2738.761985,2681.334243
3842.849977,-4663.297435,-3701.029710,1532.190996
3842.850307,-6513.812290,-3701.029710,1455.581446
3842.850636,-9104.533087,-2738.761985,2374.896044
3842.850966,-9252.574275,-2220.617826,2528.115143
3842.851296,-8290.306550,-2368.659014,2528.115143
3842.851626,-8512.368333,-1184.329507,1532.190996
3842.851956,-11695.253884,-888.247130,2298.286494
3842.852286,-10510.924376,-1998.556043,1915.238745
3842.852615,-7846.182985,-592.164754,383.047749
3842.852945,-8734.430116,0.000000,766.095498
3842.853275,-9918.759623,740.205942,0.000000
3842.853605,-11103.089130,962.267725,0.000000
3842.853935,-8956.491898,1998.556043,-1149.143247
3842.854265,-9844.739029,1924.535449,-2298.286494
3842.854595,-12361.439231,3478.967927,-1685.410096
3842.854924,-13323.706956,1924.535449,-842.705048
3842.855254,-11325.150913,962.267725,0.000000
3842.855584,-9548.656652,1184.329507,-459.657299
3842.855914,-9992.780217,-740.205942,-1532.190996
3842.856244,-11473.192101,0.000000,-1915.238745
3842.856574,-10436.903782,-1110.308913,306.438199
3842.856904,-9548.656652,-740.205942,1225.752797
3842.857233,-9918.759623,-1184.329507,1608.800546
3842.857563,-8586.388927,-1480.411884,-919.314598
3842.857893,-6587.832884,-2664.741391,-1991.848295
3842.858223,-7846.182985,-148.041188,0.000000
3842.858553,-10807.006753,-592.164754,2451.505594
3842.858883,-10436.903782,-814.226536,2068.457845
3842.859213,-7698.141797,-814.226536,0.000000
3842.859542,-8364.327145,74.020594,842.705048
3842.859872,-11177.109724,-444.123565,2911.162892
3842.860202,-11325.150913,0.000000,2757.943793
3842.860532,-8290.306550,-222.061783,1378.971896
3842.860862,-7920.203579,592.164754,2068.457845
3842.861192,-9844.739029,1406.391290,2681.334243
3842.861521,-11177.109724,1628.453072,2298.286494
3842.861851,-9844.739029,2738.761985,-919.314598
3842.862181,-9622.677246,3552.988522,-3140.991542
3842.862511,-11547.212695,3330.926739,-3983.696590
3842.862841,-12879.583391,2886.803174,-2298.286494
3842.863171,-11177.109724,2146.597232,-1072.533697
3842.863501,-9252.574275,888.247130,-1608.800546
3842.863830,-8438.347739,-444.123565,-2451.505594
3842.864160,-9918.759623,-518.144159,0.000000
3842.864490,-10510.924376,-814.226536,1685.410096
3842.864820,-10066.800811,-444.123565,1378.971896
3842.865150,-9104.533087,-1258.350101,536.266849
3842.865480,-6957.935855,-2442.679609,-995.924147
3842.865810,-5477.523971,-2368.659014,1225.752797
3842.866139,-7328.038826,-740.205942,2757.943793
3842.866469,-9252.574275,-592.164754,2911.162892
3842.866799,-9400.615463,74.020594,2068.457845
3842.867129,-9326.594869,1036.288319,153.219100
3842.867459,-10362.883188,666.185348,-612.876398
3842.867789,-11917.315666,1036.288319,76.609550
3842.868118,-9918.759623,740.205942,612.876398
3842.868448,-8660.409521,1110.308913,995.924147
3842.868778,-8882.471304,2220.617826,306.438199
3842.869108,-10288.862594,1998.556043,766.095498
3842.869438,-11325.150913,4219.173869,76.609550
3842.869768,-12139.377449,4367.215058,-2757.943793
3842.870098,-14063.912898,4367.215058,-3830.477490
3842.870427,-14285.974681,3108.864956,-2604.724693
3842.870757,-12509.480420,2072.576638,153.219100
3842.871087,-9030.512492,-222.061783,689.485948
3842.871417,-7550.100608,-1036.288319,-766.095498
3842.871747,-7698.141797,-1184.329507,-383.047749
3842.872076,-10288.862594,-1036.288319,766.095498
3842.872406,-9474.636058,-740.205942,383.047749
3842.872736,-9622.677246,-2146.597232,0.000000
3842.873066,-7772.162391,-2886.803174,459.657299
3842.873396,-6513.812290,-3627.009116,1915.238745
3842.873725,-7105.977043,-4293.194464,3907.087040
3842.874055,-7772.162391,-2738.761985,5132.839837
3842.874385,-8512.368333,-1924.535449,5286.058936
3842.874715,-8882.471304,-1184.329507,2068.457845
3842.875045,-9992.780217,-518.144159,-229.828649
3842.875375,-11103.089130,74.020594,536.266849
3842.875704,-10955.047942,74.020594,842.705048
3842.876034,-10140.821405,-148.041188,689.485948
3842.876364,-9548.656652,222.061783,-153.219100
3842.876694,-8660.409521,740.205942,-1378.971896
3842.877024,-8660.409521,1554.432478,-2528.115143
3842.877353,-9474.636058,1998.556043,-4213.525239
3842.877683,-12805.562797,3701.029710,-3447.429741
3842.878013,-13471.748144,2368.659014,-2834.553343
3842.878343,-12805.562797,888.247130,-1149.143247
3842.878673,-12509.480420,-370.102971,383.047749
3842.879002,-10584.944971,-2072.576638,1149.143247
3842.879332,-9548.656652,-1184.329507,0.000000
3842.879662,-9030.512492,-2664.741391,-766.095498
3842.879992,-8512.368333,-3034.844362,-612.876398
3842.880322,-7105.977043,-3108.864956,766.095498
3842.880651,-7254.018232,-3404.947333,2298.286494
3842.880981,-9252.574275,-2368.659014,2987.772442
3842.881311,-8364.327145,-1998.556043,4213.525239
3842.881641,-8734.430116,-2072.576638,2451.505594
3842.881971,-9252.574275,-740.205942,1072.533697
3842.882301,-9400.615463,-888.247130,0.000000
3842.882630,-9622.677246,-1480.411884,919.314598
3842.882960,-10140.821405,222.061783,2834.553343
3842.883290,-9252.574275,296.082377,4290.134789
3842.883620,-11251.130318,1332.370696,2757.943793
3842.883950,-11843.295072,888.247130,0.000000
3842.884279,-9474.636058,1110.308913,-2374.896044
3842.884609,-10214.842000,3478.967927,-1915.238745
3842.884939,-11843.295072,4367.215058,-2068.457845
3842.885269,-12435.459826,2886.803174,-2298.286494
3842.885599,-10658.965565,3256.906145,-3447.429741
3842.885928,-9548.656652,1036.288319,-3600.648841
3842.886258,-10214.842000,-740.205942,-3753.867940
3842.886588,-10807.006753,0.000000,-1915.238745
3842.886918,-10732.986159,-814.226536,-76.609550
3842.887248,-9622.677246,-1110.308913,1762.019645
3842.887578,-7179.997637,-2664.741391,995.924147
3842.887907,-6291.750507,-2146.597232,1455.581446
3842.888237,-7550.100608,-1554.432478,2834.553343
3842.888567,-7624.121203,-1776.494261,3064.381992
3842.888897,-7328.038826,-1184.329507,3600.648841
3842.889227,-8586.388927,296.082377,4443.353888
3842.889556,-11251.130318,1332.370696,2911.162892
3842.889886,-11473.192101,1110.308913,-153.219100
3842.890216,-9844.739029,740.205942,-2374.896044
3842.890546,-7031.956449,222.061783,-1302.362347
3842.890876,-7846.182985,2294.638420,2451.505594
3842.891205,-12213.398043,5107.421000,5132.839837
3842.891535,-15396.283594,5551.544565,1838.629195
3842.891865,-11399.171507,6143.709319,-3907.087040
3842.892195,-10658.965565,5699.585753,-6205.373534
3842.892525,-13323.706956,5255.462188,-3600.648841
3842.892854,-11991.336260,2812.782580,-229.828649
3842.893184,-9474.636058,370.102971,2681.334243
3842.893514,-7698.141797,-814.226536,1991.848295
3842.893844,-6439.791695,-1184.329507,1762.019645
3842.894174,-12583.501014,0.000000,-383.047749
3842.894504,-11695.253884,-2072.576638,-1378.971896
3842.894833,-8290.306550,-2738.761985,-1991.848295
3842.895163,-5033.400406,-2738.761985,1915.238745
3842.895493,-5699.585753,-3034.844362,5132.839837
3842.895823,-7624.121203,-3330.926739,6741.640382
3842.896153,-7698.141797,-1998.556043,3524.039291
3842.896482,-9400.615463,-666.185348,76.609550
3842.896812,-9918.759623,666.185348,-1685.410096
3842.897142,-12287.418637,148.041188,-1762.019645
3842.897472,-10955.047942,0.000000,1838.629195
3842.897802,-9104.533087,0.000000,2681.334243
3842.898131,-8734.430116,370.102971,1378.971896
3842.898461,-10140.821405,222.061783,-2145.067394
3842.898791,-9696.697840,518.144159,-3217.601092
3842.899121,-8956.491898,2368.659014,-1532.190996
3842.899451,-12065.356855,3478.967927,-995.924147
3842.899781,-12805.562797,2812.782580,-1072.533697
3842.900110,-11621.233289,1776.494261,-1225.752797
3842.900440,-10955.047942,74.020594,-689.485948
3842.900770,-10362.883188,-1036.288319,-995.924147
3842.901100,-10510.924376,-1406.391290,-536.266849
3842.901430,-9992.780217,-1258.350101,-1532.190996
3842.901759,-10732.986159,-2220.617826,-1149.143247
3842.902089,-9474.636058,-1776.494261,0.000000
3842.902419,-8808.450710,-3997.112087,-229.828649
3842.902749,-6217.729913,-3330.926739,-612.876398
3842.903079,-7476.080014,-3256.906145,0.000000
3842.903408,-8512.368333,-3256.906145,1225.752797
3842.903738,-9178.553681,-2368.659014,2451.505594
3842.904068,-9252.574275,-1332.370696,1225.752797
3842.904398,-9474.636058,-1036.288319,-383.047749
3842.904728,-11325.150913,-444.123565,-76.609550
3842.905057,-11103.089130,-1036.288319,1455.581446
3842.905387,-10140.821405,-962.267725,1838.629195
3842.905717,-9326.594869,-444.123565,689.485948
3842.906047,-9622.677246,-1036.288319,383.047749
3842.906377,-9326.594869,0.000000,383.047749
3842.906707,-9252.574275,1480.411884,306.438199
3842.907036,-9696.697840,1702.473667,-1225.752797
3842.907366,-10436.903782,2072.576638,-766.095498
3842.907696,-11029.068536,2146.597232,-536.266849
3842.908026,-11843.295072,1258.350101,612.876398
3842.908356,-12435.459826,1184.329507,-383.047749
3842.908685,-11769.274478,0.000000,-1608.800546
3842.909015,-9548.656652,-1406.391290,-2145.067394
3842.909345,-7624.121203,-1628.453072,-459.657299
3842.909675,-8956.491898,-1184.329507,2757.943793
3842.910005,-10807.006753,-592.164754,3677.258390
3842.910334,-9548.656652,0.000000,1455.581446
3842.910664,-7328.038826,-814.226536,-1532.190996
3842.910994,-7105.977043,-1110.308913,-1302.362347
3842.911324,-10140.821405,-296.082377,1378.971896
3842.911654,-11917.315666,222.061783,3524.039291
3842.911983,-9400.615463,-222.061783,2221.676944
3842.912313,-7698.141797,-370.102971,842.705048
3842.912643,-8142.265362,148.041188,229.828649
3842.912973,-9696.697840,74.020594,1072.533697
3842.913303,-9918.759623,518.144159,1608.800546
3842.913633,-8290.306550,444.123565,3370.820191
3842.913962,-9326.594869,1258.350101,3677.258390
3842.914292,-10510.924376,2294.638420,2374.896044
3842.914622,-10436.903782,2072.576638,-612.876398
3842.914952,-11695.253884,3182.885551,-2374.896044
3842.915282,-10955.047942,3108.864956,-2451.505594
3842.915611,-11029.068536,2738.761985,-383.047749
3842.915941,-10436.903782,2368.659014,459.657299
3842.916271,-10436.903782,1628.453072,-1685.410096
3842.916601,-9474.636058,1110.308913,-3753.867940
3842.916931,-10436.903782,74.020594,-3753.867940
3842.917260,-10066.800811,0.000000,-1225.752797
3842.917590,-10066.800811,-74.020594,1915.238745
3842.917920,-10066.800811,740.205942,2451.505594
3842.918250,-8882.471304,74.020594,0.000000
3842.918580,-7328.038826,-1406.391290,-3217.601092
3842.918910,-9030.512492,-962.267725,-2451.505594
3842.919239,-11695.253884,-666.185348,2298.286494
3842.919569,-11325.150913,-1258.350101,5822.325785
3842.919899,-8808.450710,-1776.494261,4519.963438
3842.920229,-6735.874072,-1184.329507,2757.943793
3842.920559,-9030.512492,-518.144159,1149.143247
3842.920888,-11917.315666,592.164754,-383.047749
3842.921218,-9918.759623,444.123565,-2451.505594
3842.921548,-8882.471304,666.185348,-459.657299
3842.921878,-9104.533087,1036.288319,2145.067394
3842.922208,-10732.986159,1184.329507,2681.334243
3842.922537,-11473.192101,2146.597232,689.485948
3842.922867,-11177.109724,2146.597232,-3370.820191
