#time,accel_x,accel_y,accel_z
4022.402594,-10955.047942,-888.247130,1915.238745
4022.402924,-10658.965565,-962.267725,1915.238745
4022.403254,-10214.842000,-2812.782580,2298.286494
4022.403583,-8660.409521,-2220.617826,2451.505594
4022.403913,-8068.244768,-1850.514855,3600.648841
4022.404243,-9030.512492,-1184.329507,2374.896044
4022.404573,-9474.636058,-740.205942,536.266849
4022.404903,-9844.739029,0.000000,-1149.143247
4022.405232,-10140.821405,666.185348,-689.485948
4022.405562,-10584.944971,74.020594,459.657299
4022.405892,-10140.821405,666.185348,1378.971896
4022.406222,-9622.677246,-222.061783,1302.362347
4022.406552,-10066.800811,0.000000,842.705048
4022.406881,-9770.718434,-740.205942,842.705048
4022.407211,-10436.903782,-592.164754,1608.800546
4022.407541,-10436.903782,-592.164754,2911.162892
4022.407871,-9992.780217,-518.144159,3524.039291
4022.408201,-10288.862594,-74.020594,3753.867940
4022.408530,-10807.006753,0.000000,3677.258390
4022.408860,-11621.233289,1332.370696,1532.190996
4022.409190,-8734.430116,814.226536,153.219100
4022.409520,-8660.409521,444.123565,536.266849
4022.409849,-11473.192101,888.247130,2374.896044
4022.410179,-11251.130318,518.144159,3140.991542
4022.410509,-11029.068536,-740.205942,2374.896044
4022.410839,-10066.800811,-1406.391290,1608.800546
4022.411169,-8660.409521,-2368.659014,3370.820191
4022.411498,-9622.677246,-2294.638420,5286.058936
4022.411828,-9548.656652,-2590.720797,4903.011187
4022.412158,-9548.656652,-2294.638420,3677.258390
4022.412488,-9400.615463,-1924.535449,3294.210641
4022.412818,-9918.759623,-1258.350101,2528.115143
4022.413147,-10140.821405,-1184.329507,1838.629195
4022.413477,-10288.862594,-1998.556043,1225.752797
4022.413807,-10288.862594,-2294.638420,2528.115143
4022.414137,-9696.697840,-3034.844362,2451.505594
4022.414467,-8956.491898,-3478.967927,3600.648841
4022.414796,-8290.306550,-4293.194464,3294.210641
4022.415126,-8216.285956,-4589.276840,1762.019645
4022.415456,-8882.471304,-4589.276840,1149.143247
4022.415786,-8956.491898,-3923.091493,1685.410096
4022.416115,-9104.533087,-3775.050304,4136.915689
4022.416445,-10214.842000,-3256.906145,5669.106685
4022.416775,-11473.192101,-3034.844362,4749.792088
4022.417105,-11917.315666,-2738.761985,2298.286494
4022.417435,-11103.089130,-3108.864956,-306.438199
4022.417764,-10584.944971,-3404.947333,459.657299
4022.418094,-9548.656652,-3997.112087,2221.676944
4022.418424,-9400.615463,-4293.194464,3370.820191
4022.418754,-9104.533087,-4515.256246,4060.306139
4022.419084,-9326.594869,-4441.235652,2681.334243
4022.419413,-9548.656652,-4589.276840,2374.896044
4022.419743,-10362.883188,-4663.297435,2834.553343
4022.420073,-11325.150913,-4145.153275,4290.134789
4022.420403,-11029.068536,-3627.009116,4749.792088
4022.420733,-10584.944971,-3256.906145,3600.648841
4022.421062,-10214.842000,-2960.823768,1378.971896
4022.421392,-10066.800811,-2960.823768,0.000000
4022.421722,-10955.047942,-2590.720797,-612.876398
4022.422052,-10510.924376,-2738.761985,76.609550
4022.422381,-8956.491898,-3034.844362,766.095498
4022.422711,-7994.224174,-4071.132681,2834.553343
4022.423041,-7550.100608,-4145.153275,3677.258390
4022.423371,-8956.491898,-3997.112087,2987.772442
4022.423701,-9326.594869,-3849.070898,1762.019645
4022.424030,-9252.574275,-2960.823768,995.924147
4022.424360,-9326.594869,-2368.659014,2068.457845
4022.424690,-10214.842000,-1036.288319,2757.943793
4022.425020,-10510.924376,-296.082377,2987.772442
4022.425349,-10955.047942,0.000000,2528.115143
4022.425679,-10362.883188,0.000000,1608.800546
4022.426009,-10288.862594,296.082377,383.047749
4022.426338,-9548.656652,-370.102971,-689.485948
4022.426668,-9326.594869,-74.020594,-536.266849
4022.426998,-9548.656652,-296.082377,-306.438199
4022.427328,-9844.739029,-444.123565,-612.876398
4022.427657,-9622.677246,-148.041188,-1225.752797
4022.427987,-8882.471304,444.123565,-383.047749
4022.428317,-8734.430116,814.226536,0.000000
4022.428646,-9548.656652,1184.329507,1455.581446
4022.428976,-10140.821405,1924.535449,1302.362347
4022.429306,-10140.821405,2368.659014,459.657299
4022.429636,-10658.965565,1850.514855,306.438199
4022.429965,-11399.171507,1776.494261,536.266849
4022.430295,-11029.068536,1702.473667,76.609550
4022.430625,-9918.759623,1554.432478,-306.438199
4022.430954,-8882.471304,1184.329507,-1225.752797
4022.431284,-8808.450710,1776.494261,-919.314598
4022.431614,-8586.388927,1702.473667,-1762.019645
4022.431944,-9030.512492,2072.576638,-1762.019645
4022.432273,-9326.594869,2516.700203,-1225.752797
4022.432603,-9992.780217,2442.679609,-153.219100
4022.432933,-10658.965565,2664.741391,842.705048
4022.433262,-10955.047942,2220.617826,459.657299
4022.433592,-10658.965565,2146.597232,-306.438199
4022.433922,-11399.171507,2220.617826,-459.657299
4022.434252,-10881.027347,2146.597232,-306.438199
4022.434581,-9844.739029,1554.432478,-229.828649
4022.434911,-8586.388927,1332.370696,0.000000
4022.435241,-8512.368333,1110.308913,229.828649
4022.435570,-9252.574275,1184.329507,-229.828649
4022.435900,-8808.450710,1184.329507,-1378.971896
4022.436230,-9252.574275,1110.308913,-1685.410096
4022.436560,-9918.759623,1332.370696,-689.485948
4022.436889,-10066.800811,962.267725,76.609550
4022.437219,-10066.800811,1184.329507,459.657299
4022.437549,-10214.842000,740.205942,536.266849
4022.437878,-10140.821405,444.123565,842.705048
4022.438208,-9918.759623,296.082377,612.876398
4022.438538,-9474.636058,222.061783,-689.485948
4022.438868,-8512.368333,0.000000,-766.095498
4022.439197,-8808.450710,222.061783,0.000000
4022.439527,-9474.636058,148.041188,842.705048
4022.439857,-9622.677246,222.061783,1455.581446
4022.440186,-9770.718434,296.082377,383.047749
4022.440516,-10066.800811,222.061783,0.000000
4022.440846,-10732.986159,444.123565,-306.438199
4022.441176,-11621.233289,0.000000,0.000000
4022.441505,-11325.150913,0.000000,229.828649
4022.441835,-9844.739029,-592.164754,306.438199
4022.442165,-8956.491898,-666.185348,459.657299
4022.442494,-9400.615463,-1110.308913,995.924147
4022.442824,-10066.800811,-1110.308913,1225.752797
4022.443154,-10066.800811,-1258.350101,306.438199
4022.443484,-9474.636058,-1258.350101,-229.828649
4022.443813,-9400.615463,-1332.370696,76.609550
4022.444143,-10362.883188,-740.205942,1455.581446
4022.444473,-10807.006753,-1554.432478,2451.505594
4022.444803,-10732.986159,-1776.494261,2604.724693
4022.445132,-9992.780217,-1850.514855,919.314598
4022.445462,-9252.574275,-2146.597232,229.828649
4022.445792,-9474.636058,-1850.514855,842.705048
4022.446121,-10066.800811,-1258.350101,1915.238745
4022.446451,-9030.512492,-1480.411884,1378.971896
4022.446781,-8216.285956,-1554.432478,842.705048
4022.447111,-9104.533087,-1258.350101,76.609550
4022.447440,-10584.944971,-1110.308913,153.219100
4022.447770,-11103.089130,-1110.308913,612.876398
4022.448100,-9622.677246,-1036.288319,0.000000
4022.448429,-9622.677246,-666.185348,-76.609550
4022.448759,-9178.553681,-962.267725,536.266849
4022.449089,-9696.697840,-888.247130,1302.362347
4022.449419,-9992.780217,-814.226536,1915.238745
4022.449748,-10140.821405,-592.164754,1608.800546
4022.450078,-9696.697840,-888.247130,76.609550
4022.450408,-9548.656652,-518.144159,0.000000
4022.450737,-9474.636058,-370.102971,842.705048
4022.451067,-9696.697840,148.041188,1149.143247
4022.451397,-9548.656652,0.000000,459.657299
4022.451727,-10066.800811,222.061783,459.657299
4022.452056,-9992.780217,296.082377,229.828649
4022.452386,-10214.842000,444.123565,0.000000
4022.452716,-9992.780217,814.226536,-459.657299
4022.453045,-9400.615463,666.185348,-612.876398
4022.453375,-8808.450710,444.123565,-612.876398
4022.453705,-8882.471304,740.205942,153.219100
4022.454035,-9622.677246,888.247130,919.314598
4022.454364,-10066.800811,888.247130,612.876398
4022.454694,-9548.656652,814.226536,-612.876398
4022.455024,-9622.677246,888.247130,-919.314598
4022.455353,-10362.883188,1332.370696,0.000000
4022.455683,-10807.006753,1332.370696,919.314598
4022.456013,-9844.739029,888.247130,842.705048
4022.456343,-9252.574275,1258.350101,612.876398
4022.456672,-9548.656652,1480.411884,459.657299
4022.457002,-10214.842000,1776.494261,0.000000
4022.457332,-10140.821405,1628.453072,-1378.971896
4022.457661,-9474.636058,1480.411884,-2451.505594
4022.457991,-9030.512492,1258.350101,-1838.629195
4022.458321,-9030.512492,1628.453072,-612.876398
4022.458651,-9696.697840,1480.411884,306.438199
4022.458980,-9696.697840,1258.350101,383.047749
4022.459310,-9548.656652,1036.288319,-383.047749
4022.459640,-9770.718434,962.267725,-153.219100
4022.459969,-10214.842000,1184.329507,0.000000
4022.460299,-11177.109724,1184.329507,995.924147
4022.460629,-10510.924376,1036.288319,1378.971896
4022.460959,-9548.656652,666.185348,766.095498
4022.461288,-8956.491898,666.185348,0.000000
4022.461618,-9622.677246,814.226536,-842.705048
4022.461948,-10362.883188,962.267725,-1302.362347
4022.462277,-10066.800811,888.247130,-1608.800546
4022.462607,-9474.636058,962.267725,-995.924147
4022.462937,-9474.636058,370.102971,0.000000
4022.463267,-9918.759623,148.041188,689.485948
4022.463596,-10214.842000,-148.041188,842.705048
4022.463926,-9992.780217,0.000000,306.438199
4022.464256,-9030.512492,-666.185348,-689.485948
4022.464585,-9178.553681,-370.102971,0.000000
4022.464915,-10362.883188,0.000000,1608.800546
4022.465245,-10510.924376,74.020594,1685.410096
4022.465575,-9844.739029,0.000000,995.924147
4022.465904,-9400.615463,-444.123565,0.000000
4022.466234,-10066.800811,-148.041188,0.000000
4022.466564,-10288.862594,-444.123565,-383.047749
4022.466893,-9770.718434,-74.020594,-76.609550
4022.467223,-9474.636058,-592.164754,153.219100
4022.467553,-9400.615463,-814.226536,919.314598
4022.467883,-9770.718434,-962.267725,1455.581446
4022.468212,-10362.883188,-444.123565,1608.800546
4022.468542,-10140.821405,-814.226536,919.314598
4022.468872,-9696.697840,-1184.329507,459.657299
4022.469201,-9548.656652,-1258.350101,612.876398
4022.469531,-9844.739029,-1036.288319,1302.362347
4022.469861,-10066.800811,-518.144159,2221.676944
4022.470191,-9474.636058,-1184.329507,612.876398
4022.470520,-9622.677246,-666.185348,383.047749
4022.470850,-9696.697840,-370.102971,689.485948
4022.471180,-10214.842000,-740.205942,76.609550
4022.471509,-9992.780217,-518.144159,306.438199
4022.471839,-9770.718434,-518.144159,0.000000
4022.472169,-9400.615463,-666.185348,-383.047749
4022.472499,-9326.594869,-666.185348,459.657299
4022.472828,-9548.656652,-592.164754,1378.971896
4022.473158,-9622.677246,-518.144159,766.095498
4022.473488,-10066.800811,-518.144159,-153.219100
4022.473817,-9992.780217,-444.123565,0.000000
4022.474147,-10066.800811,-296.082377,1072.533697
4022.474477,-10214.842000,0.000000,1532.190996
4022.474807,-9918.759623,-592.164754,229.828649
4022.475136,-9844.739029,-370.102971,-383.047749
4022.475466,-9696.697840,0.000000,-153.219100
4022.475796,-10214.842000,-148.041188,0.000000
4022.476125,-10584.944971,0.000000,-459.657299
4022.476455,-9918.759623,-222.061783,-612.876398
4022.476785,-9104.533087,-370.102971,-306.438199
4022.477115,-9104.533087,-518.144159,383.047749
4022.477444,-9696.697840,-296.082377,842.705048
4022.477774,-9918.759623,-222.061783,995.924147
4022.478104,-9770.718434,-148.041188,383.047749
4022.478433,-9474.636058,-666.185348,0.000000
4022.478763,-9844.739029,0.000000,383.047749
4022.479093,-10066.800811,74.020594,842.705048
4022.479423,-9770.718434,222.061783,689.485948
4022.479752,-9474.636058,74.020594,-383.047749
4022.480082,-9696.697840,370.102971,-459.657299
4022.480412,-9548.656652,518.144159,-76.609550
4022.480741,-9622.677246,592.164754,0.000000
4022.481071,-9918.759623,740.205942,-536.266849
4022.481401,-9548.656652,370.102971,-995.924147
4022.481731,-9474.636058,444.123565,-536.266849
4022.482060,-9178.553681,592.164754,-306.438199
4022.482390,-9844.739029,814.226536,383.047749
4022.482720,-9992.780217,888.247130,229.828649
4022.483049,-9696.697840,592.164754,-919.314598
4022.483379,-9474.636058,888.247130,-306.438199
4022.483709,-9844.739029,888.247130,689.485948
4022.484039,-10436.903782,1406.391290,1225.752797
4022.484368,-10214.842000,962.267725,0.000000
4022.484698,-10066.800811,962.267725,0.000000
4022.485028,-9844.739029,888.247130,766.095498
4022.485357,-10288.862594,1036.288319,-306.438199
4022.485687,-10214.842000,444.123565,-1225.752797
4022.486017,-9400.615463,592.164754,-995.924147
4022.486347,-9326.594869,740.205942,-306.438199
4022.486676,-9770.718434,888.247130,229.828649
4022.487006,-10510.924376,740.205942,1378.971896
4022.487336,-9992.780217,518.144159,919.314598
4022.487665,-9474.636058,222.061783,0.000000
4022.487995,-9474.636058,0.000000,0.000000
4022.488325,-10066.800811,0.000000,995.924147
4022.488655,-9844.739029,222.061783,1608.800546
4022.488984,-9622.677246,0.000000,995.924147
4022.489314,-9696.697840,0.000000,383.047749
4022.489644,-10066.800811,370.102971,229.828649
4022.489973,-10584.944971,74.020594,0.000000
4022.490303,-10066.800811,74.020594,-383.047749
4022.490633,-9474.636058,0.000000,-306.438199
4022.490963,-9178.553681,-148.041188,0.000000
4022.491292,-9474.636058,-74.020594,76.609550
4022.491622,-9918.759623,0.000000,612.876398
4022.491952,-10362.883188,-74.020594,842.705048
4022.492281,-10214.842000,-74.020594,-306.438199
4022.492611,-10288.862594,-148.041188,153.219100
4022.492941,-9918.759623,-296.082377,229.828649
4022.493271,-10140.821405,-444.123565,1378.971896
4022.493600,-9770.718434,-740.205942,1149.143247
4022.493930,-9400.615463,-814.226536,536.266849
4022.494260,-9770.718434,-814.226536,76.609550
4022.494589,-10288.862594,-592.164754,306.438199
4022.494919,-10140.821405,-888.247130,383.047749
4022.495249,-9622.677246,-666.185348,459.657299
4022.495579,-8956.491898,-1036.288319,229.828649
4022.495908,-9252.574275,-814.226536,229.828649
4022.496238,-9474.636058,-666.185348,842.705048
4022.496568,-10140.821405,-666.185348,995.924147
4022.496897,-10214.842000,-222.061783,1149.143247
4022.497227,-9696.697840,-666.185348,153.219100
4022.497557,-9474.636058,-370.102971,766.095498
4022.497887,-9770.718434,-518.144159,1378.971896
4022.498216,-10140.821405,-296.082377,1149.143247
4022.498546,-9326.594869,-370.102971,-153.219100
4022.498876,-9104.533087,-518.144159,-459.657299
4022.499205,-9770.718434,0.000000,459.657299
4022.499535,-9992.780217,0.000000,766.095498
4022.499865,-9696.697840,74.020594,0.000000
4022.500195,-9474.636058,-74.020594,-689.485948
4022.500524,-9400.615463,-296.082377,-689.485948
4022.500854,-9548.656652,-222.061783,153.219100
4022.501184,-10362.883188,296.082377,1072.533697
4022.501514,-10214.842000,74.020594,1225.752797
4022.501843,-9770.718434,0.000000,306.438199
4022.502173,-10140.821405,148.041188,536.266849
4022.502503,-10732.986159,296.082377,1762.019645
4022.502832,-10807.006753,296.082377,1072.533697
4022.503162,-9844.739029,0.000000,-153.219100
4022.503492,-9030.512492,0.000000,-536.266849
4022.503822,-9400.615463,0.000000,76.609550
4022.504151,-10066.800811,74.020594,306.438199
4022.504481,-10214.842000,74.020594,153.219100
4022.504811,-9770.718434,0.000000,-229.828649
4022.505140,-9696.697840,518.144159,-153.219100
4022.505470,-9696.697840,148.041188,229.828649
4022.505800,-10362.883188,444.123565,1149.143247
4022.506130,-10510.924376,222.061783,1378.971896
4022.506459,-9844.739029,0.000000,306.438199
4022.506789,-9474.636058,0.000000,-383.047749
4022.507119,-9918.759623,592.164754,153.219100
4022.507448,-10066.800811,444.123565,459.657299
4022.507778,-9844.739029,592.164754,306.438199
4022.508108,-9548.656652,592.164754,-383.047749
4022.508438,-9400.615463,370.102971,0.000000
4022.508767,-9770.718434,296.082377,383.047749
4022.509097,-9548.656652,222.061783,-306.438199
4022.509427,-9400.615463,370.102971,-1225.752797
4022.509756,-8734.430116,74.020594,-1225.752797
4022.510086,-9030.512492,370.102971,-459.657299
4022.510416,-9770.718434,518.144159,612.876398
4022.510746,-10510.924376,518.144159,1072.533697
4022.511075,-9992.780217,518.144159,0.000000
4022.511405,-9548.656652,148.041188,-689.485948
4022.511735,-9770.718434,0.000000,-306.438199
4022.512064,-10362.883188,370.102971,536.266849
4022.512394,-10140.821405,296.082377,1225.752797
4022.512724,-9474.636058,370.102971,306.438199
4022.513054,-9548.656652,296.082377,-76.609550
4022.513383,-10436.903782,740.205942,76.609550
4022.513713,-10732.986159,518.144159,0.000000
4022.514043,-10140.821405,518.144159,-689.485948
4022.514372,-9770.718434,444.123565,-306.438199
4022.514702,-9474.636058,0.000000,306.438199
4022.515032,-9474.636058,0.000000,842.705048
4022.515362,-9918.759623,370.102971,1149.143247
4022.515691,-9918.759623,0.000000,536.266849
4022.516021,-9474.636058,-296.082377,0.000000
4022.516351,-9548.656652,0.000000,0.000000
4022.516680,-10140.821405,518.144159,1225.752797
4022.517010,-10510.924376,592.164754,1149.143247
4022.517340,-9474.636058,296.082377,306.438199
4022.517670,-9474.636058,222.061783,-306.438199
4022.517999,-10214.842000,370.102971,153.219100
4022.518329,-10658.965565,74.020594,0.000000
4022.518659,-10066.800811,0.000000,0.000000
4022.518988,-9252.574275,-740.205942,-306.438199
4022.519318,-8882.471304,-518.144159,-306.438199
4022.519648,-8586.388927,-518.144159,383.047749
4022.519978,-8956.491898,-444.123565,995.924147
4022.520307,-9474.636058,-518.144159,1378.971896
4022.520637,-9770.718434,-444.123565,919.314598
4022.520967,-10584.944971,0.000000,1225.752797
4022.521296,-10955.047942,0.000000,1072.533697
4022.521626,-10732.986159,0.000000,919.314598
4022.521956,-10066.800811,-444.123565,229.828649
4022.522286,-9474.636058,-370.102971,0.000000
4022.522615,-9474.636058,0.000000,689.485948
4022.522945,-10066.800811,296.082377,995.924147
4022.523275,-10066.800811,0.000000,76.609550
4022.523604,-9696.697840,222.061783,-766.095498
4022.523934,-9474.636058,0.000000,-1225.752797
4022.524264,-9252.574275,-370.102971,-536.266849
4022.524594,-9696.697840,-444.123565,919.314598
4022.524923,-10066.800811,-148.041188,1455.581446
4022.525253,-9696.697840,0.000000,1455.581446
4022.525583,-9326.594869,-666.185348,459.657299
4022.525912,-10066.800811,0.000000,689.485948
4022.526242,-10955.047942,74.020594,1225.752797
4022.526572,-11029.068536,296.082377,1455.581446
4022.526902,-9770.718434,222.061783,76.609550
4022.527231,-9474.636058,222.061783,153.219100
4022.527561,-9770.718434,296.082377,0.000000
4022.527891,-10066.800811,0.000000,-689.485948
4022.528221,-9548.656652,592.164754,-1149.143247
4022.528550,-9252.574275,444.123565,-1302.362347
4022.528880,-9474.636058,148.041188,-689.485948
4022.529210,-9474.636058,148.041188,383.047749
4022.529539,-9992.780217,74.020594,1302.362347
4022.529869,-10140.821405,74.020594,1072.533697
4022.530199,-9696.697840,0.000000,0.000000
4022.530529,-9696.697840,0.000000,306.438199
4022.530858,-10362.883188,444.123565,1378.971896
4022.531188,-10140.821405,296.082377,995.924147
4022.531518,-9548.656652,518.144159,536.266849
4022.531847,-9696.697840,444.123565,76.609550
4022.532177,-10066.800811,1036.288319,153.219100
4022.532507,-10066.800811,518.144159,0.000000
4022.532837,-9844.739029,740.205942,-995.924147
4022.533166,-9400.615463,444.123565,-1378.971896
4022.533496,-9178.553681,0.000000,-1225.752797
4022.533826,-9030.512492,0.000000,-766.095498
4022.534155,-9326.594869,74.020594,919.314598
4022.534485,-10436.903782,0.000000,919.314598
4022.534815,-10066.800811,-148.041188,0.000000
4022.535145,-9326.594869,148.041188,76.609550
4022.535474,-9474.636058,0.000000,842.705048
4022.535804,-9992.780217,444.123565,1302.362347
4022.536134,-10140.821405,148.041188,842.705048
4022.536464,-9548.656652,296.082377,536.266849
4022.536793,-9770.718434,370.102971,459.657299
4022.537123,-10510.924376,370.102971,306.438199
4022.537453,-10436.903782,370.102971,-919.314598
4022.537782,-9400.615463,148.041188,-1532.190996
4022.538112,-8882.471304,148.041188,-1455.581446
4022.538442,-9474.636058,0.000000,0.000000
4022.538772,-9844.739029,148.041188,995.924147
4022.539101,-9918.759623,74.020594,1302.362347
4022.539431,-9622.677246,-370.102971,0.000000
4022.539761,-9918.759623,0.000000,-76.609550
4022.540090,-9992.780217,0.000000,536.266849
4022.540420,-10362.883188,0.000000,1072.533697
4022.540750,-9622.677246,-296.082377,1149.143247
4022.541080,-9622.677246,74.020594,995.924147
4022.541409,-9696.697840,74.020594,842.705048
4022.541739,-10214.842000,0.000000,229.828649
4022.542069,-10214.842000,0.000000,-153.219100
4022.542399,-9548.656652,0.000000,-1149.143247
4022.542728,-9030.512492,0.000000,-612.876398
4022.543058,-8808.450710,-74.020594,-383.047749
4022.543388,-9252.574275,0.000000,689.485948
4022.543717,-9770.718434,0.000000,1608.800546
4022.544047,-10584.944971,222.061783,0.000000
4022.544377,-9992.780217,-74.020594,-229.828649
4022.544707,-10140.821405,0.000000,-229.828649
4022.545036,-10362.883188,222.061783,1532.190996
4022.545366,-9918.759623,0.000000,1072.533697
4022.545696,-8956.491898,-222.061783,383.047749
4022.546025,-9474.636058,0.000000,842.705048
4022.546355,-10066.800811,222.061783,1302.362347
4022.546685,-10510.924376,74.020594,383.047749
4022.547015,-10214.842000,74.020594,-383.047749
4022.547344,-9178.553681,-222.061783,-766.095498
4022.547674,-9030.512492,-666.185348,-612.876398
4022.548004,-9622.677246,-74.020594,612.876398
4022.548333,-9844.739029,0.000000,1225.752797
4022.548663,-9622.677246,-148.041188,1149.143247
4022.548993,-9622.677246,0.000000,0.000000
4022.549323,-9992.780217,518.144159,-153.219100
4022.549652,-10510.924376,0.000000,383.047749
4022.549982,-10288.862594,0.000000,919.314598
4022.550312,-9622.677246,-444.123565,842.705048
4022.550642,-9696.697840,0.000000,1302.362347
4022.550971,-9474.636058,-296.082377,995.924147
4022.551301,-9844.739029,-148.041188,229.828649
4022.551631,-9622.677246,148.041188,-766.095498
4022.551960,-9178.553681,-296.082377,-842.705048
4022.552290,-9400.615463,0.000000,76.609550
4022.552620,-9548.656652,0.000000,1072.533697
4022.552950,-9992.780217,296.082377,1378.971896
4022.553279,-10140.821405,0.000000,689.485948
4022.553609,-10066.800811,0.000000,-459.657299
4022.553939,-9992.780217,0.000000,-766.095498
4022.554268,-10140.821405,0.000000,-229.828649
4022.554598,-10140.821405,0.000000,689.485948
4022.554928,-9252.574275,444.123565,383.047749
4022.555258,-9252.574275,222.061783,0.000000
4022.555587,-9770.718434,444.123565,0.000000
4022.555917,-10584.944971,666.185348,0.000000
4022.556247,-10584.944971,444.123565,-229.828649
4022.556576,-10066.800811,296.082377,-536.266849
4022.556906,-9548.656652,148.041188,153.219100
4022.557236,-9400.615463,-222.061783,766.095498
4022.557566,-9474.636058,-74.020594,1532.190996
4022.557895,-9770.718434,0.000000,536.266849
4022.558225,-9992.780217,0.000000,229.828649
4022.558555,-9696.697840,-148.041188,-689.485948
4022.558885,-9770.718434,0.000000,0.000000
4022.559214,-9844.739029,518.144159,1072.533697
4022.559544,-9844.739029,0.000000,689.485948
4022.559874,-9326.594869,-222.061783,153.219100
4022.560203,-9400.615463,0.000000,306.438199
4022.560533,-9844.739029,296.082377,689.485948
4022.560863,-9844.739029,0.000000,0.000000
4022.561193,-9622.677246,222.061783,-842.705048
4022.561522,-9548.656652,74.020594,-766.095498
4022.561852,-9252.574275,0.000000,76.609550
4022.562182,-9104.533087,-296.082377,766.095498
4022.562511,-9622.677246,74.020594,766.095498
4022.562841,-9770.718434,222.061783,0.000000
4022.563171,-9252.574275,74.020594,-383.047749
4022.563501,-9844.739029,296.082377,0.000000
4022.563830,-10288.862594,592.164754,229.828649
4022.564160,-10510.924376,518.144159,229.828649
4022.564490,-9548.656652,148.041188,76.609550
4022.564820,-9326.594869,148.041188,229.828649
4022.565149,-9992.780217,74.020594,842.705048
4022.565479,-10436.903782,222.061783,306.438199
4022.565809,-10214.842000,444.123565,-612.876398
4022.566138,-9548.656652,370.102971,-995.924147
4022.566468,-9474.636058,296.082377,0.000000
4022.566798,-9622.677246,0.000000,689.485948
4022.567128,-9918.759623,370.102971,1608.800546
4022.567457,-10214.842000,296.082377,1072.533697
4022.567787,-9918.759623,0.000000,76.609550
4022.568117,-9548.656652,222.061783,-383.047749
4022.568446,-10214.842000,148.041188,306.438199
4022.568776,-10584.944971,296.082377,842.705048
4022.569106,-10066.800811,0.000000,1149.143247
4022.569436,-9548.656652,222.061783,766.095498
4022.569765,-9178.553681,0.000000,612.876398
4022.570095,-9622.677246,148.041188,306.438199
4022.570425,-9548.656652,518.144159,-612.876398
4022.570754,-9474.636058,296.082377,-842.705048
4022.571084,-9474.636058,370.102971,-383.047749
4022.571414,-9770.718434,0.000000,306.438199
4022.571744,-10362.883188,74.020594,1378.971896
4022.572073,-10288.862594,0.000000,1378.971896
4022.572403,-9326.594869,-518.144159,-306.438199
4022.572733,-8956.491898,-740.205942,-459.657299
4022.573063,-9474.636058,-222.061783,459.657299
4022.573392,-9622.677246,222.061783,1532.190996
4022.573722,-9770.718434,0.000000,1378.971896
4022.574052,-9400.615463,-222.061783,842.705048
4022.574381,-10214.842000,370.102971,766.095498
4022.574711,-10584.944971,222.061783,689.485948
4022.575041,-10288.862594,-444.123565,-76.609550
4022.575371,-9696.697840,222.061783,-459.657299
4022.575700,-9474.636058,0.000000,-306.438199
4022.576030,-9548.656652,0.000000,459.657299
4022.576360,-9992.780217,0.000000,1072.533697
4022.576689,-10214.842000,0.000000,689.485948
4022.577019,-9770.718434,74.020594,0.000000
4022.577349,-9770.718434,0.000000,-766.095498
4022.577679,-10066.800811,222.061783,0.000000
4022.578008,-10288.862594,74.020594,612.876398
4022.578338,-10362.883188,222.061783,1072.533697
4022.578668,-9992.780217,-222.061783,536.266849
4022.578997,-10066.800811,0.000000,612.876398
4022.579327,-9770.718434,-444.123565,229.828649
4022.579657,-10288.862594,-296.082377,0.000000
4022.579987,-9474.636058,0.000000,0.000000
4022.580316,-9178.553681,-296.082377,-459.657299
4022.580646,-9252.574275,0.000000,0.000000
4022.580976,-9696.697840,-74.020594,995.924147
4022.581306,-10140.821405,148.041188,1455.581446
4022.581635,-9770.718434,0.000000,766.095498
4022.581965,-9696.697840,-222.061783,-306.438199
4022.582295,-9622.677246,0.000000,153.219100
4022.582624,-9918.759623,0.000000,612.876398
4022.582954,-9844.739029,0.000000,995.924147
4022.583284,-9400.615463,0.000000,766.095498
4022.583614,-9400.615463,222.061783,0.000000
4022.583943,-9844.739029,296.082377,76.609550
4022.584273,-10140.821405,296.082377,-76.609550
4022.584603,-9770.718434,148.041188,0.000000
4022.584932,-9844.739029,370.102971,-766.095498
4022.585262,-9252.574275,148.041188,306.438199
4022.585592,-9548.656652,0.000000,1225.752797
4022.585922,-9992.780217,222.061783,1225.752797
4022.586251,-9992.780217,148.041188,995.924147
4022.586581,-9696.697840,0.000000,-306.438199
4022.586911,-9474.636058,0.000000,-689.485948
4022.587241,-9770.718434,222.061783,153.219100
4022.587570,-10214.842000,740.205942,842.705048
4022.587900,-9918.759623,296.082377,536.266849
4022.588230,-9622.677246,296.082377,0.000000
4022.588559,-9992.780217,518.144159,-153.219100
4022.588889,-10066.800811,444.123565,0.000000
4022.589219,-10140.821405,222.061783,-459.657299
4022.589549,-9104.533087,222.061783,-383.047749
4022.589878,-9030.512492,370.102971,153.219100
4022.590208,-9474.636058,296.082377,536.266849
4022.590538,-10066.800811,222.061783,689.485948
4022.590867,-10584.944971,444.123565,459.657299
4022.591197,-10066.800811,444.123565,-612.876398
4022.591527,-9474.636058,74.020594,-459.657299
4022.591857,-10066.800811,0.000000,766.095498
4022.592186,-10510.924376,74.020594,1455.581446
4022.592516,-10066.800811,222.061783,1455.581446
4022.592846,-9474.636058,0.000000,229.828649
4022.593175,-9918.759623,0.000000,766.095498
4022.593505,-10362.883188,444.123565,76.609550
4022.593835,-10362.883188,0.000000,76.609550
4022.594165,-9474.636058,148.041188,-536.266849
4022.594494,-9178.553681,0.000000,0.000000
4022.594824,-9474.636058,0.000000,229.828649
4022.595154,-9918.759623,-148.041188,842.705048
4022.595484,-9992.780217,148.041188,919.314598
4022.595813,-9770.718434,-222.061783,229.828649
4022.596143,-9622.677246,0.000000,-76.609550
4022.596473,-9770.718434,74.020594,153.219100
4022.596802,-10214.842000,74.020594,1225.752797
4022.597132,-10066.800811,-296.082377,1072.533697
4022.597462,-9696.697840,0.000000,689.485948
4022.597792,-9474.636058,0.000000,0.000000
4022.598121,-10140.821405,0.000000,383.047749
4022.598451,-10288.862594,0.000000,76.609550
4022.598781,-9844.739029,0.000000,-459.657299
4022.599110,-9548.656652,74.020594,-459.657299
4022.599440,-9474.636058,0.000000,229.828649
4022.599770,-9770.718434,-222.061783,536.266849
4022.600100,-9918.759623,0.000000,766.095498
4022.600429,-10140.821405,0.000000,536.266849
4022.600759,-9474.636058,-296.082377,76.609550
4022.601089,-9474.636058,-296.082377,76.609550
4022.601418,-9918.759623,0.000000,1072.533697
4022.601748,-9992.780217,-222.061783,1608.800546
4022.602078,-10066.800811,-370.102971,766.095498
4022.602408,-9844.739029,-370.102971,0.000000
4022.602737,-9992.780217,0.000000,153.219100
4022.603067,-10288.862594,-222.061783,0.000000
4022.603397,-9918.759623,148.041188,-306.438199
4022.603727,-9474.636058,0.000000,-306.438199
4022.604056,-9104.533087,-296.082377,-459.657299
4022.604386,-9326.594869,-148.041188,0.000000
4022.604716,-9844.739029,0.000000,766.095498
4022.605045,-10214.842000,-148.041188,995.924147
4022.605375,-9474.636058,-592.164754,-153.219100
4022.605705,-9030.512492,-370.102971,-689.485948
4022.606035,-9252.574275,0.000000,612.876398
4022.606364,-10214.842000,148.041188,1149.143247
4022.606694,-10140.821405,74.020594,919.314598
4022.607024,-9992.780217,0.000000,153.219100
4022.607353,-9622.677246,148.041188,689.485948
4022.607683,-10362.883188,222.061783,459.657299
4022.608013,-10288.862594,148.041188,0.000000
4022.608343,-9474.636058,0.000000,-766.095498
4022.608672,-8956.491898,0.000000,0.000000
4022.609002,-9104.533087,0.000000,0.000000
4022.609332,-9548.656652,0.000000,383.047749
4022.609662,-9696.697840,296.082377,153.219100
4022.609991,-9252.574275,0.000000,-383.047749
4022.610321,-8882.471304,0.000000,-995.924147
4022.610651,-9622.677246,148.041188,306.438199
4022.610980,-10436.903782,222.061783,1685.410096
4022.611310,-10214.842000,148.041188,1532.190996
4022.611640,-9770.718434,296.082377,383.047749
4022.611970,-9918.759623,592.164754,-229.828649
4022.612299,-10288.862594,666.185348,-153.219100
4022.612629,-10584.944971,592.164754,-306.438199
4022.612959,-9548.656652,296.082377,-229.828649
4022.613288,-9252.574275,296.082377,-612.876398
4022.613618,-9104.533087,370.102971,-153.219100
4022.613948,-9622.677246,222.061783,76.609550
4022.614278,-10066.800811,222.061783,612.876398
4022.614607,-9844.739029,148.041188,919.314598
4022.614937,-9918.759623,148.041188,-153.219100
4022.615267,-9844.739029,296.082377,153.219100
4022.615596,-10510.924376,370.102971,1225.752797
4022.615926,-10436.903782,518.144159,1762.019645
4022.616256,-10140.821405,0.000000,689.485948
4022.616586,-9844.739029,74.020594,0.000000
4022.616915,-9548.656652,148.041188,306.438199
4022.617245,-9918.759623,0.000000,689.485948
4022.617575,-9696.697840,222.061783,0.000000
4022.617905,-9030.512492,0.000000,-766.095498
4022.618234,-8956.491898,0.000000,-306.438199
4022.618564,-9548.656652,0.000000,383.047749
4022.618894,-9918.759623,0.000000,1455.581446
4022.619223,-9844.739029,-370.102971,1532.190996
4022.619553,-9770.718434,-592.164754,536.266849
4022.619883,-9770.718434,-518.144159,766.095498
4022.620213,-9770.718434,-370.102971,1302.362347
4022.620542,-9844.739029,74.020594,1225.752797
4022.620872,-9400.615463,0.000000,536.266849
4022.621202,-9400.615463,0.000000,-306.438199
4022.621531,-9770.718434,0.000000,229.828649
4022.621861,-10140.821405,74.020594,-76.609550
4022.622191,-10362.883188,0.000000,0.000000
4022.622521,-9770.718434,-148.041188,-766.095498
4022.622850,-8956.491898,-962.267725,-306.438199
4022.623180,-8882.471304,-592.164754,229.828649
4022.623510,-9474.636058,-370.102971,459.657299
4022.623840,-10288.862594,-74.020594,995.924147
4022.624169,-10140.821405,0.000000,0.000000
4022.624499,-9696.697840,-888.247130,153.219100
4022.624829,-9992.780217,-370.102971,536.266849
4022.625158,-10140.821405,-296.082377,1762.019645
4022.625488,-9992.780217,-296.082377,1225.752797
4022.625818,-8956.491898,-666.185348,-76.609550
4022.626148,-9474.636058,0.000000,383.047749
4022.626477,-10362.883188,74.020594,306.438199
4022.626807,-10955.047942,222.061783,0.000000
4022.627137,-10288.862594,296.082377,0.000000
4022.627467,-9622.677246,0.000000,-459.657299
4022.627796,-9400.615463,0.000000,-229.828649
4022.628126,-9622.677246,-222.061783,0.000000
4022.628456,-9992.780217,-148.041188,1072.533697
4022.628786,-9474.636058,-370.102971,612.876398
4022.629115,-9474.636058,-518.144159,0.000000
4022.629445,-9474.636058,-370.102971,536.266849
4022.629775,-10288.862594,-370.102971,1532.190996
4022.630105,-10658.965565,-296.082377,2068.457845
4022.630434,-9474.636058,-444.123565,689.485948
4022.630764,-9326.594869,0.000000,153.219100
4022.631094,-9400.615463,148.041188,919.314598
4022.631424,-9696.697840,370.102971,1225.752797
4022.631753,-9696.697840,444.123565,-919.314598
4022.632083,-9400.615463,592.164754,-1608.800546
4022.632413,-9252.574275,148.041188,-1302.362347
4022.632743,-9548.656652,148.041188,-306.438199
4022.633072,-10066.800811,296.082377,306.438199
4022.633402,-9844.739029,518.144159,229.828649
4022.633732,-9474.636058,296.082377,-689.485948
4022.634062,-9252.574275,296.082377,0.000000
4022.634391,-10288.862594,888.247130,536.266849
4022.634721,-10955.047942,1184.329507,1149.143247
4022.635051,-10436.903782,888.247130,536.266849
4022.635381,-9696.697840,666.185348,76.609550
4022.635710,-10140.821405,1036.288319,306.438199
4022.636040,-10436.903782,740.205942,383.047749
4022.636370,-10066.800811,518.144159,-612.876398
4022.636700,-9252.574275,740.205942,-1225.752797
4022.637029,-9030.512492,370.102971,-1378.971896
4022.637359,-9474.636058,888.247130,-153.219100
4022.637689,-9918.759623,814.226536,306.438199
4022.638019,-10510.924376,592.164754,76.609550
4022.638348,-9918.759623,444.123565,0.000000
4022.638678,-9770.718434,370.102971,-306.438199
4022.639008,-9622.677246,0.000000,612.876398
4022.639337,-10362.883188,370.102971,1532.190996
4022.639667,-9770.718434,148.041188,1225.752797
4022.639997,-9474.636058,0.000000,383.047749
4022.640327,-9622.677246,222.061783,459.657299
4022.640656,-10362.883188,592.164754,919.314598
4022.640986,-10510.924376,296.082377,383.047749
4022.641316,-9252.574275,0.000000,-153.219100
4022.641646,-8512.368333,-222.061783,-1072.533697
4022.641975,-8660.409521,0.000000,-536.266849
4022.642305,-9178.553681,-222.061783,229.828649
4022.642635,-9770.718434,0.000000,383.047749
4022.642965,-9548.656652,0.000000,306.438199
4022.643294,-9548.656652,-518.144159,-459.657299
4022.643624,-9918.759623,-74.020594,306.438199
4022.643954,-10436.903782,0.000000,1455.581446
4022.644284,-10066.800811,74.020594,1302.362347
4022.644613,-9474.636058,-444.123565,459.657299
4022.644943,-9178.553681,-296.082377,383.047749
4022.645273,-10140.821405,74.020594,842.705048
4022.645603,-10362.883188,370.102971,766.095498
4022.645932,-9844.739029,222.061783,-1072.533697
4022.646262,-9696.697840,0.000000,-1915.238745
4022.646592,-9474.636058,0.000000,-459.657299
4022.646922,-9326.594869,-148.041188,306.438199
4022.647251,-9770.718434,-222.061783,766.095498
4022.647581,-9548.656652,-370.102971,766.095498
4022.647911,-9400.615463,-296.082377,306.438199
4022.648241,-9844.739029,-370.102971,306.438199
4022.648570,-10584.944971,-148.041188,1302.362347
4022.648900,-10436.903782,-518.144159,1838.629195
4022.649230,-9696.697840,-370.102971,919.314598
4022.649560,-9474.636058,-518.144159,689.485948
4022.649889,-9844.739029,74.020594,1225.752797
4022.650219,-10436.903782,296.082377,766.095498
4022.650549,-10436.903782,296.082377,-153.219100
4022.650879,-9770.718434,0.000000,-1072.533697
4022.651208,-9474.636058,222.061783,-1455.581446
4022.651538,-9474.636058,-370.102971,153.219100
4022.651868,-9770.718434,-444.123565,1149.143247
4022.652198,-9770.718434,-592.164754,1225.752797
4022.652527,-9326.594869,-740.205942,76.609550
4022.652857,-8956.491898,-1036.288319,0.000000
4022.653187,-9622.677246,-296.082377,842.705048
4022.653517,-10214.842000,0.000000,1838.629195
4022.653846,-9992.780217,0.000000,689.485948
4022.654176,-9474.636058,0.000000,0.000000
4022.654506,-9548.656652,-222.061783,459.657299
4022.654836,-10288.862594,-148.041188,689.485948
4022.655165,-10140.821405,-74.020594,76.609550
4022.655495,-9326.594869,296.082377,-1608.800546
4022.655825,-8734.430116,0.000000,-919.314598
4022.656155,-8660.409521,222.061783,0.000000
4022.656484,-9770.718434,296.082377,766.095498
4022.656814,-10807.006753,1036.288319,995.924147
4022.657144,-10140.821405,518.144159,0.000000
4022.657474,-9770.718434,0.000000,-536.266849
4022.657803,-9548.656652,296.082377,229.828649
4022.658133,-10288.862594,296.082377,1149.143247
4022.658463,-10066.800811,666.185348,459.657299
4022.658793,-9474.636058,296.082377,0.000000
4022.659122,-9548.656652,592.164754,76.609550
4022.659452,-10362.883188,666.185348,766.095498
4022.659782,-10066.800811,814.226536,0.000000
4022.660112,-9770.718434,888.247130,-536.266849
4022.660441,-9400.615463,444.123565,-1225.752797
4022.660771,-9548.656652,518.144159,-459.657299
4022.661101,-9918.759623,666.185348,153.219100
4022.661431,-10140.821405,518.144159,919.314598
4022.661760,-9622.677246,444.123565,0.000000
4022.662090,-9548.656652,296.082377,-612.876398
4022.662420,-9918.759623,296.082377,-383.047749
4022.662750,-10288.862594,296.082377,306.438199
4022.663079,-10066.800811,148.041188,995.924147
4022.663409,-9326.594869,0.000000,612.876398
4022.663739,-9252.574275,0.000000,1149.143247
4022.664068,-9474.636058,222.061783,1225.752797
4022.664398,-10436.903782,222.061783,612.876398
4022.664728,-10066.800811,148.041188,-383.047749
4022.665058,-9326.594869,0.000000,-995.924147
4022.665387,-8956.491898,518.144159,-459.657299
4022.665717,-9252.574275,74.020594,0.000000
4022.666047,-9770.718434,370.102971,1149.143247
4022.666377,-9844.739029,592.164754,229.828649
4022.666706,-9770.718434,74.020594,-766.095498
4022.667036,-9770.718434,-296.082377,-1072.533697
4022.667366,-9918.759623,-296.082377,0.000000
4022.667696,-10140.821405,-296.082377,995.924147
4022.668025,-9326.594869,-666.185348,612.876398
4022.668355,-9030.512492,-592.164754,1149.143247
4022.668685,-9622.677246,-148.041188,1455.581446
4022.669015,-10214.842000,0.000000,1225.752797
4022.669344,-10436.903782,0.000000,459.657299
4022.669674,-9844.739029,296.082377,-1225.752797
4022.670004,-9844.739029,148.041188,-383.047749
4022.670334,-9326.594869,-370.102971,536.266849
4022.670663,-9696.697840,-296.082377,842.705048
4022.670993,-9844.739029,0.000000,383.047749
4022.671323,-9696.697840,-148.041188,-612.876398
4022.671653,-9104.533087,-444.123565,-1378.971896
4022.671982,-9400.615463,-148.041188,-383.047749
4022.672312,-10066.800811,444.123565,1149.143247
4022.672642,-9918.759623,148.041188,1302.362347
4022.672972,-9696.697840,-370.102971,306.438199
4022.673301,-9622.677246,-222.061783,842.705048
4022.673631,-10436.903782,0.000000,1072.533697
4022.673961,-10288.862594,0.000000,-306.438199
4022.674291,-9770.718434,-444.123565,-306.438199
4022.674620,-9400.615463,-148.041188,-383.047749
4022.674950,-8956.491898,-222.061783,-229.828649
4022.675280,-9326.594869,148.041188,229.828649
4022.675610,-9918.759623,222.061783,689.485948
4022.675939,-9696.697840,0.000000,153.219100
4022.676269,-9770.718434,-444.123565,-229.828649
4022.676599,-9696.697840,-592.164754,306.438199
4022.676929,-10140.821405,-222.061783,1685.410096
4022.677258,-10140.821405,-222.061783,1378.971896
4022.677588,-9548.656652,-518.144159,306.438199
4022.677918,-9696.697840,-296.082377,689.485948
4022.678248,-9696.697840,0.000000,1532.190996
4022.678577,-10362.883188,0.000000,995.924147
4022.678907,-10288.862594,222.061783,0.000000
4022.679237,-9326.594869,74.020594,-612.876398
4022.679567,-9178.553681,0.000000,0.000000
4022.679896,-9400.615463,0.000000,459.657299
4022.680226,-9844.739029,0.000000,766.095498
4022.680556,-9844.739029,-370.102971,536.266849
4022.680886,-9178.553681,-148.041188,-383.047749
4022.681215,-9252.574275,0.000000,-842.705048
4022.681545,-10214.842000,74.020594,153.219100
4022.681875,-10288.862594,444.123565,842.705048
4022.682205,-9770.718434,296.082377,229.828649
4022.682534,-9474.636058,370.102971,0.000000
4022.682864,-9696.697840,888.247130,766.095498
4022.683194,-10658.965565,592.164754,383.047749
4022.683524,-10881.027347,370.102971,-1072.533697
4022.683853,-9844.739029,296.082377,-1532.190996
4022.684183,-9400.615463,296.082377,-689.485948
4022.684513,-9178.553681,148.041188,0.000000
4022.684843,-9696.697840,296.082377,1225.752797
4022.685172,-10066.800811,222.061783,536.266849
4022.685502,-9770.718434,444.123565,-383.047749
4022.685832,-9548.656652,444.123565,-919.314598
4022.686162,-9918.759623,592.164754,153.219100
4022.686491,-10658.965565,592.164754,1762.019645
4022.686821,-10066.800811,370.102971,1302.362347
4022.687151,-9252.574275,296.082377,536.266849
4022.687481,-9918.759623,296.082377,383.047749
4022.687810,-10658.965565,296.082377,76.609550
4022.688140,-10362.883188,518.144159,-459.657299
4022.688470,-9548.656652,666.185348,-536.266849
4022.688799,-8956.491898,666.185348,-612.876398
4022.689129,-9400.615463,518.144159,0.000000
4022.689459,-9770.718434,518.144159,689.485948
4022.689789,-10066.800811,592.164754,459.657299
4022.690118,-9326.594869,0.000000,-306.438199
4022.690448,-9104.533087,0.000000,-1072.533697
4022.690778,-9474.636058,74.020594,-383.047749
4022.691108,-9844.739029,370.102971,612.876398
4022.691437,-9622.677246,222.061783,919.314598
4022.691767,-9400.615463,0.000000,383.047749
4022.692097,-9696.697840,0.000000,383.047749
4022.692427,-10362.883188,148.041188,689.485948
4022.692756,-10362.883188,740.205942,153.219100
4022.693086,-9844.739029,296.082377,-153.219100
4022.693416,-9104.533087,296.082377,-383.047749
4022.693746,-9326.594869,222.061783,76.609550
4022.694075,-9770.718434,148.041188,459.657299
4022.694405,-10658.965565,222.061783,612.876398
4022.694735,-10140.821405,296.082377,0.000000
4022.695065,-9770.718434,-148.041188,-1378.971896
4022.695394,-9696.697840,-296.082377,-919.314598
4022.695724,-10436.903782,0.000000,612.876398
4022.696054,-9992.780217,-148.041188,1608.800546
4022.696384,-9326.594869,-592.164754,919.314598
4022.696713,-9474.636058,-222.061783,383.047749
4022.697043,-10362.883188,0.000000,612.876398
4022.697373,-10658.965565,-370.102971,229.828649
4022.697703,-10214.842000,-296.082377,306.438199
4022.698032,-9400.615463,-592.164754,0.000000
4022.698362,-9400.615463,-148.041188,919.314598
4022.698692,-9548.656652,-666.185348,1072.533697
4022.699022,-10214.842000,148.041188,995.924147
4022.699351,-10140.821405,0.000000,306.438199
4022.699681,-10066.800811,-148.041188,-689.485948
4022.700011,-9844.739029,-592.164754,-536.266849
4022.700341,-9548.656652,-592.164754,612.876398
4022.700670,-9844.739029,-444.123565,1225.752797
4022.701000,-9474.636058,-518.144159,1149.143247
4022.701330,-9178.553681,-444.123565,689.485948
4022.701660,-9474.636058,-296.082377,459.657299
4022.701989,-10066.800811,0.000000,383.047749
4022.702319,-10214.842000,0.000000,0.000000
4022.702649,-9548.656652,-148.041188,-383.047749
4022.702979,-9252.574275,-296.082377,0.000000
4022.703308,-9252.574275,-296.082377,536.266849
4022.703638,-9844.739029,-222.061783,1072.533697
4022.703968,-10214.842000,-296.082377,842.705048
4022.704298,-9696.697840,-296.082377,-76.609550
4022.704627,-9030.512492,-296.082377,-689.485948
4022.704957,-9400.615463,148.041188,612.876398
4022.705287,-10584.944971,296.082377,1302.362347
4022.705617,-10510.924376,296.082377,995.924147
4022.705946,-9770.718434,148.041188,0.000000
4022.706276,-9326.594869,296.082377,-383.047749
4022.706606,-9992.780217,666.185348,0.000000
4022.706936,-10362.883188,74.020594,0.000000
4022.707265,-9474.636058,296.082377,-842.705048
4022.707595,-9326.594869,222.061783,-306.438199
4022.707925,-9474.636058,444.123565,76.609550
4022.708255,-9844.739029,296.082377,1149.143247
4022.708584,-10288.862594,296.082377,1378.971896
4022.708914,-10066.800811,518.144159,612.876398
4022.709244,-10066.800811,222.061783,-76.609550
4022.709574,-9770.718434,222.061783,0.000000
4022.709903,-10288.862594,592.164754,459.657299
4022.710233,-9918.759623,666.185348,842.705048
4022.710563,-9326.594869,592.164754,0.000000
4022.710893,-9326.594869,592.164754,-536.266849
4022.711222,-9844.739029,888.247130,-459.657299
4022.711552,-10214.842000,444.123565,-612.876398
4022.711882,-10288.862594,444.123565,-919.314598
4022.712212,-9474.636058,296.082377,-459.657299
4022.712541,-9104.533087,-148.041188,766.095498
4022.712871,-9030.512492,0.000000,766.095498
4022.713201,-9696.697840,0.000000,1302.362347
4022.713530,-9992.780217,222.061783,306.438199
4022.713860,-9400.615463,0.000000,-536.266849
4022.714190,-9400.615463,148.041188,-306.438199
4022.714520,-10066.800811,74.020594,1225.752797
4022.714849,-10288.862594,296.082377,1685.410096
4022.715179,-9622.677246,74.020594,612.876398
4022.715509,-9400.615463,370.102971,0.000000
4022.715839,-9474.636058,74.020594,-153.219100
4022.716168,-10066.800811,74.020594,-459.657299
4022.716498,-9918.759623,222.061783,-459.657299
4022.716828,-9918.759623,370.102971,76.609550
4022.717158,-9474.636058,592.164754,0.000000
4022.717487,-9696.697840,222.061783,76.609550
4022.717817,-10288.862594,370.102971,536.266849
4022.718147,-10214.842000,0.000000,306.438199
4022.718477,-9400.615463,74.020594,0.000000
4022.718806,-9030.512492,-444.123565,-842.705048
4022.719136,-9474.636058,0.000000,995.924147
4022.719466,-10140.821405,0.000000,1608.800546
4022.719796,-9844.739029,0.000000,1838.629195
4022.720125,-9844.739029,-370.102971,383.047749
4022.720455,-9992.780217,0.000000,766.095498
4022.720785,-10584.944971,-222.061783,995.924147
4022.721115,-10510.924376,0.000000,766.095498
4022.721444,-9622.677246,-296.082377,459.657299
4022.721774,-9326.594869,-296.082377,0.000000
4022.722104,-9252.574275,-296.082377,0.000000
4022.722434,-9548.656652,-444.123565,153.219100
4022.722763,-9474.636058,-370.102971,229.828649
4022.723093,-9474.636058,-592.164754,76.609550
4022.723423,-9326.594869,-370.102971,-536.266849
4022.723753,-9474.636058,-592.164754,536.266849
4022.724082,-10214.842000,-444.123565,2068.457845
4022.724408,-10214.842000,-888.247130,919.314598
4022.724738,-9696.697840,-814.226536,306.438199
4022.725068,-9474.636058,-666.185348,383.047749
4022.725398,-9474.636058,-592.164754,689.485948
4022.725728,-9622.677246,0.000000,306.438199
4022.726057,-9844.739029,-148.041188,-536.266849
4022.726387,-9770.718434,222.061783,-612.876398
4022.726717,-9548.656652,0.000000,-76.609550
4022.727047,-10362.883188,0.000000,153.219100
4022.727377,-10584.944971,0.000000,536.266849
4022.727706,-10214.842000,0.000000,-459.657299
4022.728036,-9474.636058,-296.082377,-995.924147
4022.728366,-9252.574275,-518.144159,-153.219100
4022.728696,-9474.636058,0.000000,689.485948
4022.729026,-10140.821405,222.061783,1149.143247
4022.729355,-10214.842000,518.144159,612.876398
4022.729685,-10066.800811,222.061783,306.438199
4022.730015,-10214.842000,296.082377,383.047749
4022.730345,-10510.924376,0.000000,689.485948
4022.730675,-9844.739029,0.000000,306.438199
4022.731004,-9400.615463,74.020594,0.000000
4022.731334,-9400.615463,592.164754,0.000000
4022.731664,-9326.594869,74.020594,0.000000
4022.731994,-9844.739029,222.061783,459.657299
4022.732324,-10584.944971,518.144159,383.047749
4022.732653,-9474.636058,0.000000,76.609550
4022.732983,-9104.533087,0.000000,-459.657299
4022.733313,-9252.574275,-148.041188,766.095498
4022.733643,-9992.780217,74.020594,995.924147
4022.733973,-9770.718434,-148.041188,306.438199
4022.734302,-9474.636058,148.041188,-766.095498
4022.734632,-9770.718434,296.082377,76.609550
4022.734962,-10214.842000,296.082377,842.705048
4022.735292,-10288.862594,0.000000,842.705048
4022.735621,-9696.697840,0.000000,76.609550
4022.735951,-8956.491898,74.020594,-153.219100
4022.736281,-8882.471304,0.000000,0.000000
4022.736611,-9326.594869,74.020594,459.657299
4022.736941,-9622.677246,0.000000,306.438199
4022.737270,-9844.739029,222.061783,153.219100
4022.737600,-9622.677246,148.041188,-459.657299
4022.737930,-9770.718434,518.144159,0.000000
4022.738260,-10362.883188,222.061783,919.314598
4022.738590,-10066.800811,740.205942,689.485948
4022.738919,-9548.656652,370.102971,0.000000
4022.739249,-9696.697840,592.164754,76.609550
4022.739579,-10510.924376,814.226536,153.219100
4022.739909,-10510.924376,518.144159,0.000000
4022.740239,-9992.780217,370.102971,-995.924147
4022.740568,-9622.677246,0.000000,-612.876398
4022.740898,-9474.636058,0.000000,0.000000
4022.741228,-9474.636058,-148.041188,153.219100
4022.741558,-10066.800811,518.144159,612.876398
4022.741888,-9622.677246,0.000000,383.047749
4022.742217,-9548.656652,0.000000,0.000000
4022.742547,-9622.677246,-74.020594,766.095498
4022.742877,-10288.862594,-370.102971,919.314598
4022.743207,-10066.800811,-370.102971,995.924147
4022.743537,-9252.574275,-814.226536,459.657299
4022.743866,-9104.533087,-370.102971,459.657299
4022.744196,-9400.615463,-444.123565,842.705048
4022.744526,-10288.862594,0.000000,1225.752797
4022.744856,-10214.842000,74.020594,153.219100
4022.745186,-9770.718434,222.061783,-383.047749
4022.745515,-9474.636058,148.041188,-536.266849
4022.745845,-9400.615463,0.000000,0.000000
4022.746175,-9696.697840,-74.020594,919.314598
4022.746505,-9548.656652,-444.123565,306.438199
4022.746835,-9548.656652,-518.144159,-459.657299
4022.747164,-9104.533087,-814.226536,-766.095498
4022.747494,-9770.718434,-444.123565,459.657299
4022.747824,-9770.718434,-296.082377,1072.533697
4022.748154,-9252.574275,-370.102971,153.219100
4022.748484,-9252.574275,-222.061783,842.705048
4022.748813,-9844.739029,74.020594,1225.752797
4022.749143,-10732.986159,0.000000,1302.362347
4022.749473,-10955.047942,0.000000,383.047749
4022.749803,-10140.821405,0.000000,-306.438199
4022.750133,-9474.636058,148.041188,-383.047749
4022.750462,-9400.615463,148.041188,-536.266849
4022.750792,-9548.656652,0.000000,-76.609550
4022.751122,-9918.759623,148.041188,229.828649
4022.751452,-9770.718434,148.041188,-229.828649
4022.751782,-9622.677246,0.000000,-612.876398
4022.752111,-9696.697840,0.000000,229.828649
4022.752441,-10066.800811,0.000000,919.314598
4022.752771,-9992.780217,0.000000,995.924147
4022.753101,-10140.821405,-222.061783,459.657299
4022.753431,-9992.780217,-74.020594,842.705048
4022.753760,-10436.903782,0.000000,1225.752797
4022.754090,-10362.883188,0.000000,995.924147
4022.754420,-9918.759623,0.000000,76.609550
4022.754750,-9400.615463,0.000000,-766.095498
4022.755079,-9030.512492,74.020594,-689.485948
4022.755409,-8882.471304,74.020594,0.000000
4022.755739,-10140.821405,370.102971,995.924147
4022.756069,-9770.718434,74.020594,459.657299
4022.756399,-9474.636058,74.020594,-612.876398
4022.756728,-9474.636058,666.185348,229.828649
4022.757058,-10214.842000,148.041188,766.095498
4022.757388,-10066.800811,74.020594,766.095498
4022.757718,-9622.677246,0.000000,459.657299
4022.758048,-9104.533087,296.082377,842.705048
4022.758377,-9696.697840,296.082377,842.705048
4022.758707,-10436.903782,518.144159,612.876398
4022.759037,-9992.780217,518.144159,-766.095498
4022.759367,-9474.636058,148.041188,-1149.143247
4022.759697,-9178.553681,222.061783,-842.705048
4022.760026,-9326.594869,0.000000,306.438199
4022.760356,-9918.759623,370.102971,842.705048
4022.760686,-9770.718434,0.000000,612.876398
4022.761016,-9178.553681,0.000000,-383.047749
4022.761346,-9104.533087,-74.020594,-383.047749
4022.761675,-9474.636058,74.020594,306.438199
4022.762005,-9622.677246,370.102971,612.876398
4022.762335,-9548.656652,888.247130,689.485948
4022.762665,-9474.636058,370.102971,76.609550
4022.762995,-10288.862594,370.102971,153.219100
4022.763324,-10510.924376,296.082377,0.000000
4022.763654,-10288.862594,0.000000,-536.266849
4022.763984,-9548.656652,296.082377,-919.314598
4022.764314,-8956.491898,370.102971,-612.876398
4022.764644,-9178.553681,222.061783,0.000000
4022.764973,-9770.718434,444.123565,919.314598
4022.765303,-10140.821405,592.164754,689.485948
4022.765633,-9918.759623,0.000000,76.609550
4022.765963,-10066.800811,-222.061783,-229.828649
4022.766293,-9918.759623,-370.102971,459.657299
4022.766622,-10214.842000,-148.041188,689.485948
4022.766952,-9770.718434,-518.144159,842.705048
4022.767282,-9400.615463,-518.144159,459.657299
4022.767612,-9918.759623,-148.041188,919.314598
4022.767942,-10288.862594,370.102971,1072.533697
4022.768271,-10214.842000,148.041188,459.657299
4022.768601,-9992.780217,296.082377,0.000000
4022.768931,-9844.739029,74.020594,-612.876398
4022.769261,-9400.615463,-222.061783,-306.438199
4022.769591,-9400.615463,-296.082377,459.657299
4022.769920,-9622.677246,-444.123565,1072.533697
4022.770250,-9252.574275,-740.205942,306.438199
4022.770580,-8808.450710,-666.185348,-229.828649
4022.770910,-9326.594869,74.020594,-306.438199
4022.771240,-10436.903782,-148.041188,995.924147
4022.771569,-10807.006753,0.000000,1225.752797
4022.771899,-9918.759623,-518.144159,842.705048
4022.772229,-9548.656652,0.000000,995.924147
4022.772559,-10066.800811,-148.041188,1225.752797
4022.772889,-10362.883188,0.000000,383.047749
4022.773218,-9992.780217,-74.020594,-689.485948
4022.773548,-9326.594869,0.000000,-995.924147
4022.773878,-8882.471304,0.000000,-842.705048
4022.774208,-9326.594869,370.102971,536.266849
4022.774537,-10362.883188,370.102971,842.705048
4022.774867,-10066.800811,444.123565,306.438199
4022.775197,-9326.594869,296.082377,-842.705048
4022.775527,-9770.718434,0.000000,-766.095498
4022.775857,-10140.821405,-148.041188,229.828649
4022.776186,-10066.800811,-370.102971,842.705048
4022.776516,-9400.615463,-296.082377,1225.752797
4022.776846,-9548.656652,-296.082377,1072.533697
4022.777176,-10362.883188,0.000000,1608.800546
4022.777506,-10584.944971,222.061783,842.705048
4022.777835,-10362.883188,0.000000,0.000000
4022.778165,-9548.656652,74.020594,-612.876398
4022.778495,-9326.594869,0.000000,-612.876398
4022.778825,-9178.553681,148.041188,-306.438199
4022.779155,-9992.780217,518.144159,229.828649
4022.779484,-10214.842000,814.226536,383.047749
4022.779814,-9622.677246,0.000000,-766.095498
4022.780144,-9178.553681,0.000000,-995.924147
4022.780474,-9474.636058,222.061783,383.047749
4022.780804,-10584.944971,666.185348,1991.848295
4022.781133,-10214.842000,592.164754,919.314598
4022.781463,-9770.718434,370.102971,459.657299
4022.781793,-9844.739029,148.041188,919.314598
4022.782123,-10436.903782,296.082377,842.705048
4022.782453,-10658.965565,74.020594,0.000000
4022.782782,-9696.697840,444.123565,-383.047749
4022.783112,-9030.512492,296.082377,-995.924147
4022.783442,-8660.409521,0.000000,-229.828649
4022.783772,-9548.656652,222.061783,919.314598
4022.784102,-9992.780217,370.102971,612.876398
4022.784431,-9548.656652,222.061783,0.000000
4022.784761,-9548.656652,0.000000,-306.438199
4022.785091,-9696.697840,-148.041188,0.000000
4022.785421,-9992.780217,74.020594,689.485948
4022.785751,-9844.739029,0.000000,919.314598
4022.786080,-9400.615463,0.000000,459.657299
4022.786410,-9844.739029,444.123565,1378.971896
4022.786740,-10288.862594,222.061783,1072.533697
4022.787070,-10658.965565,666.185348,0.000000
4022.787400,-10214.842000,444.123565,-766.095498
4022.787729,-9770.718434,518.144159,-1302.362347
4022.788059,-9474.636058,296.082377,-306.438199
4022.788389,-9770.718434,0.000000,153.219100
4022.788719,-9992.780217,74.020594,1378.971896
4022.789049,-9696.697840,0.000000,536.266849
4022.789378,-9474.636058,-296.082377,0.000000
4022.789708,-9474.636058,-148.041188,-612.876398
4022.790038,-10214.842000,-296.082377,995.924147
4022.790368,-10436.903782,0.000000,1608.800546
4022.790698,-9696.697840,-592.164754,1608.800546
4022.791027,-9326.594869,-296.082377,1225.752797
4022.791357,-9992.780217,-148.041188,1225.752797
4022.791687,-10584.944971,0.000000,536.266849
4022.792017,-10362.883188,-222.061783,-842.705048
4022.792347,-9474.636058,0.000000,-1915.238745
4022.792676,-9252.574275,-296.082377,-995.924147
4022.793006,-9474.636058,0.000000,612.876398
4022.793336,-9918.759623,0.000000,1149.143247
4022.793666,-9474.636058,-518.144159,76.609550
4022.793995,-9474.636058,-740.205942,-842.705048
4022.794325,-9252.574275,-444.123565,-1072.533697
4022.794655,-9844.739029,-296.082377,229.828649
4022.794985,-9696.697840,0.000000,1685.410096
4022.795315,-9474.636058,-444.123565,1302.362347
4022.795644,-9696.697840,-296.082377,919.314598
4022.795974,-9844.739029,0.000000,153.219100
4022.796304,-10584.944971,0.000000,383.047749
4022.796634,-10584.944971,148.041188,-689.485948
4022.796964,-9548.656652,0.000000,-842.705048
4022.797293,-8882.471304,222.061783,-459.657299
4022.797623,-8882.471304,-148.041188,153.219100
4022.797953,-9548.656652,296.082377,919.314598
4022.798283,-10140.821405,518.144159,229.828649
4022.798613,-10214.842000,296.082377,-689.485948
4022.798942,-9622.677246,0.000000,-995.924147
4022.799272,-9918.759623,148.041188,612.876398
4022.799602,-10362.883188,74.020594,1378.971896
4022.799932,-9992.780217,0.000000,1991.848295
4022.800262,-9400.615463,-444.123565,995.924147
4022.800591,-9696.697840,444.123565,1225.752797
4022.800921,-10362.883188,370.102971,995.924147
4022.801251,-11325.150913,444.123565,689.485948
4022.801581,-10214.842000,222.061783,76.609550
4022.801911,-9474.636058,296.082377,-689.485948
4022.802240,-9326.594869,444.123565,0.000000
4022.802570,-9400.615463,148.041188,612.876398
4022.802900,-9548.656652,370.102971,153.219100
4022.803230,-9474.636058,222.061783,-153.219100
4022.803560,-9252.574275,370.102971,-612.876398
4022.803889,-9548.656652,222.061783,76.609550
4022.804219,-10288.862594,370.102971,1378.971896
4022.804549,-9992.780217,148.041188,1455.581446
4022.804879,-9696.697840,444.123565,1225.752797
4022.805209,-9474.636058,222.061783,995.924147
4022.805538,-9548.656652,518.144159,1149.143247
4022.805868,-9918.759623,592.164754,153.219100
4022.806198,-10066.800811,888.247130,-842.705048
4022.806528,-9844.739029,888.247130,-1072.533697
4022.806858,-9474.636058,888.247130,-1149.143247
4022.807187,-9326.594869,444.123565,-383.047749
4022.807517,-10658.965565,592.164754,229.828649
4022.807847,-9918.759623,296.082377,153.219100
4022.808177,-9474.636058,0.000000,-612.876398
4022.808507,-8956.491898,-444.123565,-306.438199
4022.808836,-9918.759623,-222.061783,689.485948
4022.809166,-10436.903782,666.185348,1685.410096
4022.809496,-9622.677246,-296.082377,1149.143247
4022.809826,-9474.636058,222.061783,689.485948
4022.810156,-10140.821405,222.061783,1455.581446
4022.810485,-11177.109724,370.102971,1302.362347
4022.810815,-10955.047942,74.020594,153.219100
4022.811145,-9844.739029,148.041188,-842.705048
4022.811475,-9252.574275,0.000000,-689.485948
4022.811805,-9104.533087,0.000000,0.000000
4022.812134,-8956.491898,0.000000,1149.143247
4022.812464,-9548.656652,0.000000,229.828649
4022.812794,-9474.636058,-74.020594,-995.924147
4022.813124,-9400.615463,-444.123565,-1302.362347
4022.813453,-9548.656652,-592.164754,0.000000
4022.813783,-10362.883188,-296.082377,1608.800546
4022.814113,-10140.821405,-592.164754,1838.629195
4022.814443,-9548.656652,-444.123565,1532.190996
4022.814773,-9548.656652,-592.164754,1455.581446
4022.815102,-10066.800811,-444.123565,995.924147
4022.815432,-10658.965565,0.000000,306.438199
4022.815762,-10214.842000,0.000000,-229.828649
4022.816092,-9474.636058,74.020594,-612.876398
4022.816422,-8586.388927,-222.061783,-153.219100
4022.816751,-9326.594869,0.000000,153.219100
4022.817081,-9992.780217,148.041188,229.828649
4022.817411,-9918.759623,-222.061783,-842.705048
4022.817741,-9474.636058,-666.185348,-1302.362347
4022.818071,-9474.636058,-592.164754,-612.876398
4022.818400,-10140.821405,0.000000,1225.752797
4022.818730,-10066.800811,-444.123565,1685.410096
4022.819060,-9770.718434,-296.082377,995.924147
4022.819390,-9474.636058,0.000000,995.924147
4022.819720,-10214.842000,0.000000,1455.581446
4022.820049,-10584.944971,0.000000,536.266849
4022.820379,-9770.718434,0.000000,-76.609550
4022.820709,-9474.636058,0.000000,-383.047749
4022.821039,-9548.656652,0.000000,153.219100
4022.821369,-9770.718434,222.061783,842.705048
4022.821698,-10140.821405,370.102971,689.485948
4022.822028,-9770.718434,518.144159,0.000000
4022.822358,-9474.636058,0.000000,-1225.752797
4022.822688,-9474.636058,0.000000,-536.266849
4022.823018,-9992.780217,0.000000,612.876398
4022.823347,-10362.883188,74.020594,1532.190996
4022.823677,-9474.636058,-370.102971,1072.533697
4022.824007,-9104.533087,-370.102971,689.485948
4022.824337,-9548.656652,0.000000,995.924147
4022.824667,-10214.842000,74.020594,766.095498
4022.824996,-9918.759623,296.082377,306.438199
4022.825326,-9696.697840,444.123565,0.000000
4022.825656,-9622.677246,666.185348,0.000000
4022.825986,-9918.759623,518.144159,-76.609550
4022.826316,-10140.821405,888.247130,-612.876398
4022.826645,-10066.800811,148.041188,-459.657299
4022.826975,-9474.636058,222.061783,-1455.581446
4022.827305,-8808.450710,0.000000,-1225.752797
4022.827635,-9030.512492,444.123565,0.000000
4022.827964,-9548.656652,444.123565,995.924147
4022.828294,-9474.636058,148.041188,536.266849
4022.828624,-9548.656652,0.000000,76.609550
4022.828954,-9844.739029,148.041188,689.485948
4022.829284,-10732.986159,518.144159,1302.362347
4022.829613,-10732.986159,370.102971,995.924147
4022.829943,-9992.780217,222.061783,229.828649
4022.830273,-9844.739029,444.123565,-306.438199
4022.830603,-9474.636058,296.082377,-536.266849
4022.830932,-10436.903782,370.102971,76.609550
4022.831262,-10066.800811,222.061783,153.219100
4022.831592,-9474.636058,0.000000,-459.657299
4022.831922,-8512.368333,0.000000,-995.924147
4022.832252,-8956.491898,0.000000,-459.657299
4022.832581,-9844.739029,0.000000,842.705048
4022.832911,-9992.780217,0.000000,1225.752797
4022.833241,-9548.656652,-74.020594,995.924147
4022.833571,-9918.759623,-148.041188,1149.143247
4022.833901,-10510.924376,74.020594,766.095498
4022.834230,-10510.924376,0.000000,459.657299
4022.834560,-10140.821405,148.041188,0.000000
4022.834890,-9326.594869,222.061783,0.000000
4022.835220,-9696.697840,74.020594,153.219100
4022.835549,-9918.759623,222.061783,612.876398
4022.835879,-10362.883188,222.061783,612.876398
4022.836209,-9474.636058,-518.144159,459.657299
4022.836539,-9252.574275,-814.226536,-689.485948
4022.836869,-8882.471304,-222.061783,-459.657299
4022.837198,-9770.718434,0.000000,995.924147
4022.837528,-10214.842000,222.061783,1532.190996
4022.837858,-9474.636058,0.000000,689.485948
4022.838188,-9770.718434,222.061783,229.828649
4022.838517,-10288.862594,370.102971,459.657299
4022.838847,-10658.965565,74.020594,536.266849
4022.839177,-10140.821405,-222.061783,229.828649
4022.839507,-9326.594869,-222.061783,0.000000
4022.839837,-9104.533087,-148.041188,153.219100
4022.840166,-9326.594869,-74.020594,0.000000
4022.840496,-9696.697840,222.061783,459.657299
4022.840826,-10288.862594,222.061783,0.000000
4022.841156,-9696.697840,0.000000,-919.314598
4022.841485,-9622.677246,0.000000,-766.095498
4022.841815,-9696.697840,74.020594,766.095498
4022.842145,-9844.739029,0.000000,1302.362347
4022.842475,-9548.656652,-370.102971,383.047749
4022.842805,-9622.677246,-148.041188,0.000000
4022.843134,-9696.697840,-296.082377,995.924147
4022.843464,-10140.821405,-148.041188,612.876398
4022.843794,-10214.842000,0.000000,153.219100
4022.844124,-9474.636058,0.000000,153.219100
4022.844454,-9326.594869,74.020594,0.000000
4022.844783,-9252.574275,148.041188,153.219100
4022.845113,-10362.883188,222.061783,459.657299
4022.845443,-10436.903782,148.041188,689.485948
4022.845773,-9918.759623,74.020594,-536.266849
4022.846102,-9474.636058,296.082377,-612.876398
4022.846432,-9548.656652,0.000000,76.609550
4022.846762,-9844.739029,0.000000,536.266849
4022.847092,-9400.615463,0.000000,612.876398
4022.847422,-9474.636058,592.164754,0.000000
4022.847751,-9548.656652,222.061783,459.657299
4022.848081,-10436.903782,222.061783,919.314598
4022.848411,-10510.924376,0.000000,459.657299
4022.848741,-9992.780217,0.000000,153.219100
4022.849070,-9474.636058,74.020594,0.000000
4022.849400,-9622.677246,222.061783,0.000000
4022.849730,-9992.780217,148.041188,536.266849
4022.850060,-10436.903782,518.144159,919.314598
4022.850390,-10436.903782,592.164754,0.000000
4022.850719,-9844.739029,444.123565,-612.876398
4022.851049,-9326.594869,74.020594,0.000000
4022.851379,-9548.656652,0.000000,612.876398
4022.851709,-9770.718434,444.123565,612.876398
4022.852039,-9400.615463,74.020594,0.000000
4022.852368,-9178.553681,148.041188,612.876398
4022.852698,-9474.636058,518.144159,1149.143247
4022.853028,-10362.883188,296.082377,766.095498
4022.853358,-10436.903782,518.144159,76.609550
4022.853687,-10362.883188,518.144159,-153.219100
4022.854017,-9918.759623,444.123565,-383.047749
4022.854347,-9400.615463,74.020594,76.609550
4022.854677,-9474.636058,518.144159,153.219100
4022.855007,-9252.574275,222.061783,229.828649
4022.855336,-9252.574275,370.102971,-689.485948
4022.855666,-9474.636058,296.082377,-689.485948
4022.855996,-10732.986159,962.267725,766.095498
4022.856326,-10881.027347,518.144159,383.047749
4022.856655,-10140.821405,148.041188,76.609550
4022.856985,-9622.677246,222.061783,229.828649
4022.857315,-9548.656652,-74.020594,766.095498
4022.857645,-10066.800811,-74.020594,536.266849
4022.857975,-9696.697840,-296.082377,306.438199
4022.858304,-9770.718434,0.000000,-229.828649
4022.858634,-9696.697840,148.041188,0.000000
4022.858964,-9548.656652,74.020594,459.657299
4022.859294,-9770.718434,222.061783,689.485948
4022.859623,-10066.800811,0.000000,766.095498
4022.859953,-9548.656652,-148.041188,-459.657299
4022.860283,-9474.636058,-74.020594,-612.876398
4022.860613,-9548.656652,-74.020594,0.000000
4022.860943,-9844.739029,0.000000,1455.581446
4022.861272,-9252.574275,-296.082377,919.314598
4022.861602,-9474.636058,0.000000,306.438199
4022.861932,-9474.636058,-370.102971,383.047749
4022.862262,-10288.862594,0.000000,612.876398
4022.862592,-10510.924376,-222.061783,536.266849
4022.862921,-9622.677246,-370.102971,153.219100
4022.863251,-9400.615463,0.000000,153.219100
4022.863581,-9622.677246,-222.061783,0.000000
4022.863911,-9992.780217,0.000000,0.000000
4022.864240,-10066.800811,-148.041188,689.485948
4022.864570,-9548.656652,0.000000,-919.314598
4022.864900,-9252.574275,-592.164754,-306.438199
4022.865230,-9474.636058,-592.164754,0.000000
4022.865560,-10436.903782,-296.082377,842.705048
4022.865889,-9844.739029,0.000000,689.485948
4022.866219,-9548.656652,-592.164754,-153.219100
4022.866549,-9548.656652,-592.164754,766.095498
4022.866879,-9918.759623,-518.144159,919.314598
4022.867208,-9918.759623,-444.123565,842.705048
4022.867538,-9474.636058,0.000000,153.219100
4022.867868,-9252.574275,0.000000,-153.219100
4022.868198,-9770.718434,222.061783,-536.266849
4022.868528,-10362.883188,74.020594,306.438199
4022.868857,-11029.068536,444.123565,995.924147
4022.869187,-10436.903782,370.102971,689.485948
4022.869517,-9622.677246,-148.041188,-229.828649
4022.869847,-9400.615463,-222.061783,-459.657299
4022.870176,-9696.697840,222.061783,689.485948
4022.870506,-9770.718434,222.061783,536.266849
4022.870836,-9400.615463,74.020594,536.266849
4022.871166,-9400.615463,296.082377,1072.533697
4022.871496,-9844.739029,592.164754,1072.533697
4022.871825,-10510.924376,370.102971,612.876398
4022.872155,-10288.862594,444.123565,-76.609550
4022.872485,-9918.759623,296.082377,-612.876398
4022.872815,-9474.636058,148.041188,-766.095498
4022.873145,-9252.574275,0.000000,306.438199
4022.873474,-9326.594869,444.123565,459.657299
4022.873804,-9400.615463,518.144159,153.219100
4022.874134,-9400.615463,444.123565,-459.657299
4022.874464,-9474.636058,296.082377,-153.219100
4022.874793,-10362.883188,814.226536,-306.438199
4022.875123,-10066.800811,518.144159,306.438199
4022.875453,-9474.636058,296.082377,0.000000
4022.875783,-9178.553681,370.102971,536.266849
4022.876113,-9326.594869,148.041188,612.876398
4022.876442,-9548.656652,222.061783,459.657299
4022.876772,-10066.800811,296.082377,0.000000
4022.877102,-9548.656652,222.061783,-536.266849
4022.877432,-9400.615463,740.205942,-229.828649
4022.877761,-9326.594869,296.082377,0.000000
4022.878091,-9622.677246,518.144159,842.705048
4022.878421,-9992.780217,666.185348,919.314598
4022.878751,-10510.924376,740.205942,536.266849
4022.879081,-9918.759623,296.082377,-689.485948
4022.879410,-9992.780217,592.164754,-536.266849
4022.879740,-10288.862594,296.082377,229.828649
4022.880070,-10362.883188,592.164754,459.657299
4022.880400,-9474.636058,74.020594,0.000000
4022.880729,-9474.636058,222.061783,459.657299
4022.881059,-9548.656652,222.061783,919.314598
4022.881389,-9696.697840,0.000000,383.047749
4022.881719,-10140.821405,222.061783,-459.657299
4022.882049,-9992.780217,0.000000,-383.047749
4022.882378,-9992.780217,0.000000,306.438199
4022.882708,-10140.821405,0.000000,612.876398
4022.883038,-10807.006753,296.082377,1225.752797
4022.883368,-10066.800811,-370.102971,919.314598
4022.883698,-9400.615463,-444.123565,0.000000
4022.884027,-9252.574275,-592.164754,0.000000
4022.884357,-10140.821405,-296.082377,689.485948
4022.884687,-9918.759623,0.000000,536.266849
4022.885017,-9548.656652,-592.164754,536.266849
4022.885346,-9622.677246,-444.123565,689.485948
4022.885676,-9918.759623,-592.164754,1072.533697
4022.886006,-10066.800811,-962.267725,766.095498
4022.886336,-9622.677246,-814.226536,0.000000
4022.886666,-9400.615463,-370.102971,-536.266849
4022.886995,-9326.594869,-666.185348,-76.609550
4022.887325,-9326.594869,-148.041188,766.095498
4022.887655,-10214.842000,148.041188,1378.971896
4022.887985,-10658.965565,-222.061783,919.314598
4022.888314,-10214.842000,-444.123565,-536.266849
4022.888644,-9252.574275,-592.164754,-459.657299
4022.888974,-9622.677246,-296.082377,0.000000
4022.889304,-10214.842000,74.020594,383.047749
4022.889634,-9548.656652,-444.123565,306.438199
4022.889963,-9252.574275,-444.123565,536.266849
4022.890293,-9622.677246,222.061783,612.876398
4022.890623,-10436.903782,148.041188,459.657299
4022.890953,-10658.965565,222.061783,0.000000
4022.891282,-9992.780217,74.020594,-76.609550
4022.891612,-9474.636058,370.102971,-76.609550
4022.891942,-9474.636058,-74.020594,0.000000
4022.892272,-10066.800811,0.000000,842.705048
4022.892602,-9770.718434,0.000000,919.314598
4022.892931,-9548.656652,-222.061783,76.609550
4022.893261,-9696.697840,0.000000,-536.266849
4022.893591,-9844.739029,0.000000,0.000000
4022.893921,-10140.821405,74.020594,306.438199
4022.894251,-9548.656652,-148.041188,995.924147
4022.894580,-9474.636058,148.041188,689.485948
4022.894910,-9474.636058,0.000000,995.924147
4022.895240,-9326.594869,74.020594,842.705048
4022.895570,-9992.780217,148.041188,-76.609550
4022.895899,-9844.739029,592.164754,-536.266849
4022.896229,-10288.862594,518.144159,-689.485948
4022.896559,-9696.697840,74.020594,-459.657299
4022.896889,-9400.615463,0.000000,766.095498
4022.897219,-9918.759623,518.144159,1149.143247
4022.897548,-9178.553681,296.082377,0.000000
4022.897878,-9474.636058,370.102971,-842.705048
4022.898208,-9696.697840,518.144159,-612.876398
4022.898538,-10214.842000,1036.288319,229.828649
4022.898867,-10436.903782,1036.288319,306.438199
4022.899197,-9400.615463,444.123565,-76.609550
4022.899527,-9400.615463,592.164754,153.219100
4022.899857,-9474.636058,444.123565,229.828649
4022.900187,-10214.842000,518.144159,229.828649
4022.900516,-10214.842000,444.123565,-229.828649
4022.900846,-9548.656652,444.123565,-919.314598
4022.901176,-9474.636058,222.061783,0.000000
4022.901506,-9622.677246,222.061783,306.438199
4022.901835,-10288.862594,370.102971,1302.362347
4022.902165,-10288.862594,370.102971,766.095498
4022.902495,-9622.677246,-148.041188,-229.828649
4022.902825,-9548.656652,74.020594,-306.438199
4022.903155,-10140.821405,296.082377,536.266849
4022.903484,-10214.842000,518.144159,383.047749
4022.903814,-9770.718434,0.000000,0.000000
4022.904144,-9622.677246,370.102971,383.047749
4022.904474,-9474.636058,0.000000,229.828649
4022.904804,-9696.697840,-296.082377,459.657299
4022.905133,-9844.739029,0.000000,0.000000
4022.905463,-9400.615463,0.000000,-229.828649
4022.905793,-9252.574275,0.000000,153.219100
4022.906123,-9474.636058,0.000000,766.095498
4022.906452,-9992.780217,0.000000,1608.800546
4022.906782,-10510.924376,222.061783,1455.581446
4022.907112,-9992.780217,0.000000,153.219100
4022.907442,-8956.491898,-518.144159,-995.924147
4022.907772,-9696.697840,0.000000,-229.828649
4022.908101,-9918.759623,0.000000,459.657299
4022.908431,-9474.636058,74.020594,153.219100
4022.908761,-9104.533087,0.000000,612.876398
4022.909091,-9548.656652,0.000000,766.095498
4022.909420,-10066.800811,0.000000,229.828649
4022.909750,-10362.883188,-370.102971,-383.047749
4022.910080,-9548.656652,-296.082377,-306.438199
4022.910410,-9326.594869,-592.164754,-383.047749
4022.910740,-9030.512492,-592.164754,842.705048
4022.911069,-9770.718434,0.000000,1762.019645
4022.911399,-10362.883188,0.000000,1455.581446
4022.911729,-9918.759623,0.000000,153.219100
4022.912059,-9844.739029,0.000000,-995.924147
4022.912388,-9918.759623,74.020594,-612.876398
4022.912718,-10214.842000,0.000000,383.047749
4022.913048,-9696.697840,0.000000,995.924147
4022.913378,-9622.677246,0.000000,0.000000
4022.913708,-9326.594869,-222.061783,-229.828649
4022.914037,-9918.759623,-222.061783,-306.438199
4022.914367,-10214.842000,-148.041188,0.000000
4022.914697,-9918.759623,-296.082377,0.000000
4022.915027,-9696.697840,-296.082377,229.828649
4022.915357,-9030.512492,-370.102971,612.876398
4022.915686,-9770.718434,-296.082377,1455.581446
4022.916016,-10362.883188,0.000000,1685.410096
4022.916346,-10214.842000,0.000000,536.266849
4022.916676,-9622.677246,-296.082377,-919.314598
4022.917005,-9400.615463,0.000000,-612.876398
4022.917335,-9992.780217,296.082377,383.047749
4022.917665,-10214.842000,296.082377,459.657299
4022.917995,-9548.656652,-148.041188,-306.438199
4022.918325,-9252.574275,0.000000,-383.047749
4022.918654,-9696.697840,74.020594,153.219100
4022.918984,-9844.739029,0.000000,0.000000
4022.919314,-9696.697840,0.000000,0.000000
4022.919644,-9400.615463,-74.020594,0.000000
4022.919973,-9548.656652,0.000000,76.609550
4022.920303,-9992.780217,-148.041188,766.095498
4022.920633,-10214.842000,222.061783,1225.752797
4022.920963,-9918.759623,-296.082377,1149.143247
4022.921293,-9326.594869,-222.061783,-153.219100
4022.921622,-9400.615463,592.164754,-536.266849
4022.921952,-9770.718434,222.061783,0.000000
4022.922282,-10362.883188,666.185348,76.609550
4022.922612,-10066.800811,666.185348,0.000000
4022.922941,-9770.718434,1036.288319,76.609550
4022.923271,-9548.656652,592.164754,306.438199
4022.923601,-9770.718434,518.144159,76.609550
4022.923931,-10140.821405,592.164754,-766.095498
4022.924261,-9844.739029,814.226536,-612.876398
4022.924590,-9474.636058,222.061783,-229.828649
4022.924920,-9770.718434,74.020594,1149.143247
4022.925250,-10362.883188,370.102971,2451.505594
4022.925580,-9770.718434,74.020594,2298.286494
4022.925910,-9622.677246,0.000000,766.095498
4022.926239,-9474.636058,0.000000,-153.219100
4022.926569,-10214.842000,444.123565,0.000000
4022.926899,-10658.965565,888.247130,995.924147
4022.927229,-10362.883188,666.185348,1762.019645
4022.927559,-9474.636058,296.082377,229.828649
4022.927889,-9178.553681,296.082377,153.219100
4022.928218,-9474.636058,74.020594,-459.657299
4022.928548,-9918.759623,222.061783,-612.876398
4022.928878,-9178.553681,222.061783,-995.924147
4022.929208,-8956.491898,74.020594,-306.438199
4022.929538,-9252.574275,222.061783,766.095498
4022.929868,-9918.759623,-74.020594,1608.800546
4022.930197,-10584.944971,0.000000,1762.019645
4022.930527,-10140.821405,-370.102971,0.000000
4022.930857,-9400.615463,-518.144159,-842.705048
4022.931187,-9400.615463,0.000000,-306.438199
4022.931517,-10288.862594,296.082377,766.095498
4022.931846,-10436.903782,148.041188,1455.581446
4022.932176,-10066.800811,222.061783,76.609550
4022.932506,-9622.677246,74.020594,-1149.143247
4022.932836,-9844.739029,148.041188,-995.924147
4022.933166,-10436.903782,0.000000,-1378.971896
4022.933496,-9474.636058,0.000000,-842.705048
4022.933825,-9030.512492,-518.144159,-459.657299
4022.934155,-9104.533087,-444.123565,612.876398
4022.934485,-9400.615463,-518.144159,766.095498
4022.934815,-10436.903782,-74.020594,1225.752797
4022.935145,-10288.862594,-444.123565,842.705048
4022.935475,-9918.759623,-592.164754,-153.219100
4022.935804,-9474.636058,-518.144159,229.828649
4022.936134,-9770.718434,-740.205942,1072.533697
4022.936464,-10066.800811,0.000000,1302.362347
4022.936794,-9474.636058,-148.041188,0.000000
4022.937124,-9770.718434,74.020594,-153.219100
4022.937454,-10140.821405,370.102971,229.828649
4022.937783,-10066.800811,148.041188,0.000000
4022.938113,-9992.780217,0.000000,-383.047749
4022.938443,-9622.677246,74.020594,-689.485948
4022.938773,-9030.512492,0.000000,-383.047749
4022.939103,-9030.512492,-370.102971,0.000000
4022.939432,-9918.759623,0.000000,1225.752797
4022.939762,-10436.903782,-74.020594,1378.971896
4022.940092,-10066.800811,0.000000,766.095498
4022.940422,-9622.677246,-148.041188,536.266849
4022.940752,-10140.821405,74.020594,919.314598
4022.941082,-10362.883188,74.020594,1225.752797
4022.941411,-10140.821405,0.000000,306.438199
4022.941741,-9104.533087,296.082377,-76.609550
4022.942071,-9474.636058,222.061783,383.047749
4022.942401,-10288.862594,666.185348,306.438199
4022.942731,-10362.883188,370.102971,-229.828649
4022.943061,-9992.780217,444.123565,-1225.752797
4022.943390,-9104.533087,148.041188,-536.266849
4022.943720,-9252.574275,0.000000,0.000000
4022.944050,-9548.656652,0.000000,1225.752797
4022.944380,-10140.821405,0.000000,995.924147
4022.944710,-9400.615463,148.041188,383.047749
4022.945040,-9252.574275,296.082377,-459.657299
4022.945369,-9918.759623,814.226536,306.438199
4022.945699,-10584.944971,518.144159,1149.143247
4022.946029,-10214.842000,592.164754,995.924147
4022.946359,-9918.759623,444.123565,229.828649
4022.946689,-9918.759623,370.102971,0.000000
4022.947019,-9844.739029,370.102971,0.000000
4022.947348,-9474.636058,148.041188,-229.828649
4022.947678,-9030.512492,370.102971,-766.095498
4022.948008,-9104.533087,370.102971,-689.485948
4022.948338,-9104.533087,370.102971,-153.219100
4022.948668,-9548.656652,296.082377,689.485948
4022.948997,-10362.883188,666.185348,995.924147
4022.949327,-10436.903782,296.082377,306.438199
4022.949657,-10288.862594,0.000000,-229.828649
4022.949987,-9548.656652,-370.102971,0.000000
4022.950317,-9548.656652,-518.144159,1378.971896
4022.950647,-10066.800811,0.000000,1302.362347
4022.950976,-9474.636058,0.000000,306.438199
4022.951306,-9400.615463,296.082377,-76.609550
4022.951636,-9252.574275,222.061783,153.219100
4022.951966,-9992.780217,444.123565,-459.657299
4022.952296,-10288.862594,296.082377,-689.485948
4022.952626,-9770.718434,296.082377,-842.705048
4022.952955,-9252.574275,0.000000,-612.876398
4022.953285,-9474.636058,0.000000,383.047749
4022.953615,-10362.883188,370.102971,1149.143247
4022.953945,-10214.842000,0.000000,689.485948
4022.954275,-9400.615463,0.000000,-153.219100
4022.954605,-8956.491898,0.000000,229.828649
4022.954934,-10214.842000,222.061783,689.485948
4022.955264,-10362.883188,148.041188,1532.190996
4022.955594,-9770.718434,222.061783,0.000000
4022.955924,-9548.656652,0.000000,-612.876398
4022.956254,-10214.842000,222.061783,-76.609550
4022.956583,-10584.944971,222.061783,-229.828649
4022.956913,-9918.759623,0.000000,76.609550
4022.957243,-9326.594869,0.000000,76.609550
4022.957573,-9104.533087,0.000000,229.828649
4022.957903,-9474.636058,-74.020594,536.266849
4022.958233,-10362.883188,0.000000,1302.362347
4022.958562,-10732.986159,-296.082377,1455.581446
4022.958892,-10288.862594,-370.102971,459.657299
4022.959222,-9400.615463,-1110.308913,612.876398
4022.959552,-9548.656652,-740.205942,1455.581446
4022.959882,-9770.718434,-518.144159,1455.581446
4022.960212,-9548.656652,-148.041188,612.876398
4022.960541,-9178.553681,-444.123565,306.438199
4022.960871,-9770.718434,0.000000,0.000000
4022.961201,-9844.739029,0.000000,459.657299
4022.961531,-9844.739029,0.000000,0.000000
4022.961861,-9474.636058,-222.061783,-459.657299
4022.962191,-9400.615463,-370.102971,-689.485948
4022.962520,-8586.388927,-370.102971,-459.657299
4022.962850,-9104.533087,-518.144159,459.657299
4022.963180,-9918.759623,0.000000,842.705048
4022.963510,-10140.821405,0.000000,689.485948
4022.963840,-9918.759623,-222.061783,229.828649
4022.964169,-9696.697840,-444.123565,536.266849
4022.964499,-9770.718434,74.020594,1378.971896
4022.964829,-10066.800811,222.061783,689.485948
4022.965159,-9696.697840,-74.020594,0.000000
4022.965489,-9770.718434,222.061783,-153.219100
4022.965819,-9474.636058,592.164754,612.876398
4022.966148,-10436.903782,222.061783,383.047749
4022.966478,-9992.780217,0.000000,-612.876398
4022.966808,-9622.677246,296.082377,-689.485948
4022.967138,-9548.656652,148.041188,-459.657299
4022.967468,-9548.656652,74.020594,76.609550
4022.967798,-9992.780217,296.082377,1225.752797
4022.968127,-9918.759623,74.020594,766.095498
4022.968457,-9696.697840,148.041188,76.609550
4022.968787,-9548.656652,518.144159,383.047749
4022.969117,-10140.821405,444.123565,689.485948
4022.969447,-10436.903782,296.082377,689.485948
4022.969777,-10140.821405,444.123565,0.000000
4022.970106,-9548.656652,814.226536,0.000000
4022.970436,-9992.780217,592.164754,383.047749
4022.970766,-9918.759623,296.082377,0.000000
4022.971096,-9326.594869,370.102971,-689.485948
4022.971426,-8882.471304,518.144159,-1225.752797
4022.971755,-9252.574275,444.123565,153.219100
4022.972085,-9770.718434,296.082377,229.828649
4022.972415,-10066.800811,444.123565,995.924147
4022.972745,-9918.759623,222.061783,842.705048
4022.973075,-9770.718434,148.041188,-383.047749
4022.973405,-9622.677246,0.000000,0.000000
4022.973734,-9844.739029,0.000000,536.266849
4022.974064,-9770.718434,296.082377,1532.190996
4022.974394,-9326.594869,296.082377,689.485948
4022.974724,-9326.594869,296.082377,0.000000
4022.975054,-9400.615463,518.144159,-459.657299
4022.975384,-10362.883188,1036.288319,-459.657299
4022.975713,-10214.842000,1110.308913,-919.314598
4022.976043,-10066.800811,814.226536,-995.924147
4022.976373,-9178.553681,444.123565,-1072.533697
4022.976703,-8956.491898,222.061783,-1302.362347
4022.977033,-9326.594869,222.061783,-229.828649
4022.977363,-10140.821405,444.123565,766.095498
4022.977692,-10288.862594,0.000000,383.047749
4022.978022,-9622.677246,222.061783,76.609550
4022.978352,-9844.739029,222.061783,995.924147
4022.978682,-10510.924376,296.082377,1302.362347
4022.979012,-10807.006753,148.041188,1149.143247
4022.979341,-9844.739029,-222.061783,612.876398
4022.979671,-9622.677246,74.020594,766.095498
4022.980001,-9474.636058,-148.041188,536.266849
4022.980331,-10140.821405,-74.020594,842.705048
4022.980661,-9548.656652,0.000000,-229.828649
4022.980991,-9474.636058,0.000000,-842.705048
4022.981320,-9400.615463,0.000000,-995.924147
4022.981650,-9474.636058,-296.082377,0.000000
4022.981980,-9770.718434,-74.020594,383.047749
4022.982310,-9622.677246,-444.123565,689.485948
4022.982640,-9918.759623,-518.144159,229.828649
4022.982970,-9474.636058,-518.144159,612.876398
4022.983299,-10214.842000,-518.144159,612.876398
4022.983629,-10362.883188,-370.102971,1225.752797
4022.983959,-9622.677246,-592.164754,459.657299
4022.984289,-9326.594869,-296.082377,536.266849
4022.984619,-9548.656652,0.000000,919.314598
4022.984949,-10066.800811,-296.082377,306.438199
4022.985278,-10066.800811,74.020594,-459.657299
4022.985608,-9770.718434,-148.041188,-919.314598
4022.985938,-9474.636058,-518.144159,-842.705048
4022.986268,-9474.636058,-444.123565,76.609550
4022.986598,-9844.739029,-222.061783,1225.752797
4022.986928,-10288.862594,0.000000,1608.800546
4022.987257,-9844.739029,-444.123565,76.609550
4022.987587,-9474.636058,0.000000,-459.657299
4022.987917,-10214.842000,0.000000,383.047749
4022.988247,-10658.965565,222.061783,995.924147
4022.988577,-10066.800811,222.061783,612.876398
4022.988906,-9548.656652,74.020594,0.000000
4022.989236,-9696.697840,0.000000,76.609550
4022.989566,-10510.924376,74.020594,76.609550
4022.989896,-10066.800811,-222.061783,153.219100
4022.990226,-9696.697840,0.000000,-612.876398
4022.990556,-9178.553681,74.020594,-459.657299
4022.990885,-9178.553681,296.082377,766.095498
4022.991215,-9770.718434,0.000000,919.314598
4022.991545,-10510.924376,222.061783,1149.143247
4022.991875,-9770.718434,0.000000,0.000000
4022.992205,-9104.533087,-296.082377,0.000000
4022.992535,-9326.594869,-296.082377,229.828649
4022.992864,-9844.739029,0.000000,1838.629195
4022.993194,-9696.697840,0.000000,766.095498
4022.993524,-9178.553681,0.000000,153.219100
4022.993854,-9326.594869,222.061783,0.000000
4022.994184,-9696.697840,370.102971,306.438199
4022.994514,-10288.862594,740.205942,-76.609550
4022.994843,-9696.697840,666.185348,-766.095498
4022.995173,-9400.615463,592.164754,-995.924147
4022.995503,-9252.574275,370.102971,-766.095498
4022.995833,-9474.636058,222.061783,0.000000
4022.996163,-9844.739029,370.102971,1072.533697
4022.996492,-9992.780217,444.123565,536.266849
4022.996822,-9844.739029,296.082377,-306.438199
4022.997152,-9696.697840,444.123565,-306.438199
4022.997482,-10214.842000,592.164754,612.876398
4022.997812,-10510.924376,518.144159,383.047749
4022.998142,-9548.656652,296.082377,76.609550
4022.998471,-9474.636058,962.267725,229.828649
4022.998801,-9992.780217,740.205942,689.485948
4022.999131,-10807.006753,962.267725,536.266849
4022.999461,-10658.965565,740.205942,-536.266849
4022.999791,-10510.924376,814.226536,-1302.362347
4023.000121,-9474.636058,370.102971,-689.485948
4023.000450,-9252.574275,-148.041188,459.657299
4023.000780,-9918.759623,0.000000,1608.800546
4023.001110,-9770.718434,0.000000,1149.143247
4023.001440,-9474.636058,-296.082377,0.000000
4023.001770,-9178.553681,-296.082377,0.000000
4023.002100,-10362.883188,74.020594,612.876398
4023.002429,-10584.944971,222.061783,1225.752797
4023.002759,-9400.615463,148.041188,383.047749
4023.003089,-9474.636058,74.020594,76.609550
4023.003419,-9844.739029,74.020594,459.657299
4023.003749,-10510.924376,0.000000,459.657299
4023.004078,-10066.800811,-296.082377,-689.485948
4023.004408,-9400.615463,-148.041188,-1225.752797
4023.004738,-9178.553681,-444.123565,-1072.533697
4023.005068,-9178.553681,-814.226536,-306.438199
4023.005398,-9474.636058,-592.164754,1302.362347
4023.005728,-9548.656652,-518.144159,1302.362347
4023.006057,-9474.636058,-592.164754,842.705048
4023.006387,-9622.677246,-296.082377,0.000000
4023.006717,-10140.821405,-370.102971,995.924147
4023.007047,-10658.965565,148.041188,1225.752797
4023.007377,-10214.842000,0.000000,995.924147
4023.007707,-9474.636058,0.000000,766.095498
4023.008036,-9474.636058,74.020594,919.314598
4023.008366,-10362.883188,296.082377,995.924147
4023.008696,-10584.944971,222.061783,-229.828649
4023.009026,-10140.821405,0.000000,-842.705048
4023.009356,-9400.615463,-148.041188,-1378.971896
4023.009686,-9178.553681,0.000000,-383.047749
4023.010015,-10214.842000,148.041188,995.924147
4023.010345,-10510.924376,222.061783,1378.971896
4023.010675,-9844.739029,-74.020594,612.876398
4023.011005,-9474.636058,-222.061783,-306.438199
4023.011335,-10066.800811,518.144159,536.266849
4023.011664,-10807.006753,444.123565,1378.971896
4023.011994,-10510.924376,222.061783,1225.752797
4023.012324,-9326.594869,0.000000,0.000000
4023.012654,-8882.471304,444.123565,306.438199
4023.012984,-9770.718434,0.000000,383.047749
4023.013314,-10362.883188,0.000000,0.000000
4023.013643,-9770.718434,74.020594,-1225.752797
4023.013973,-8956.491898,0.000000,-1608.800546
4023.014303,-8808.450710,0.000000,-689.485948
4023.014633,-9400.615463,0.000000,536.266849
4023.014963,-10066.800811,74.020594,1225.752797
4023.015293,-9992.780217,0.000000,766.095498
4023.015622,-9326.594869,-222.061783,-459.657299
4023.015952,-9400.615463,0.000000,-383.047749
4023.016282,-9770.718434,0.000000,1149.143247
4023.016612,-9992.780217,222.061783,1608.800546
4023.016942,-9844.739029,222.061783,536.266849
4023.017272,-9252.574275,148.041188,0.000000
4023.017601,-9770.718434,148.041188,153.219100
4023.017931,-10140.821405,296.082377,0.000000
4023.018261,-10288.862594,888.247130,-229.828649
4023.018591,-10140.821405,592.164754,-1225.752797
4023.018921,-9474.636058,296.082377,-1149.143247
4023.019250,-9548.656652,0.000000,0.000000
4023.019580,-10214.842000,370.102971,919.314598
4023.019910,-10140.821405,74.020594,536.266849
4023.020240,-10066.800811,222.061783,-76.609550
4023.020570,-9622.677246,0.000000,-306.438199
4023.020900,-9770.718434,-74.020594,842.705048
4023.021229,-10066.800811,444.123565,995.924147
4023.021559,-9770.718434,148.041188,459.657299
4023.021889,-9178.553681,0.000000,612.876398
4023.022219,-9178.553681,296.082377,612.876398
4023.022549,-10362.883188,296.082377,459.657299
4023.022879,-10732.986159,148.041188,76.609550
4023.023208,-10214.842000,444.123565,-842.705048
4023.023538,-9326.594869,-74.020594,-842.705048
4023.023868,-9030.512492,-444.123565,76.609550
4023.024198,-9622.677246,0.000000,1685.410096
4023.024528,-9992.780217,0.000000,1915.238745
4023.024858,-9548.656652,0.000000,153.219100
4023.025187,-9400.615463,0.000000,-1072.533697
4023.025517,-10140.821405,148.041188,229.828649
4023.025847,-10510.924376,0.000000,919.314598
4023.026177,-9918.759623,148.041188,1149.143247
4023.026507,-8956.491898,0.000000,842.705048
4023.026837,-8660.409521,0.000000,995.924147
4023.027166,-9844.739029,296.082377,689.485948
4023.027496,-10584.944971,148.041188,-306.438199
4023.027826,-10288.862594,74.020594,-919.314598
4023.028156,-9548.656652,222.061783,-536.266849
4023.028486,-9030.512492,0.000000,-306.438199
4023.028815,-9030.512492,0.000000,919.314598
4023.029145,-9844.739029,444.123565,1149.143247
4023.029475,-9844.739029,148.041188,0.000000
4023.029805,-9844.739029,222.061783,-1378.971896
4023.030134,-9992.780217,370.102971,-689.485948
4023.030464,-10881.027347,0.000000,842.705048
4023.030794,-10214.842000,0.000000,995.924147
4023.031124,-9326.594869,-518.144159,536.266849
4023.031454,-9178.553681,0.000000,383.047749
4023.031783,-9696.697840,0.000000,459.657299
4023.032113,-10288.862594,74.020594,459.657299
4023.032443,-9992.780217,148.041188,153.219100
4023.032773,-9622.677246,148.041188,-842.705048
4023.033103,-9474.636058,0.000000,-536.266849
4023.033432,-9770.718434,-370.102971,0.000000
4023.033762,-9992.780217,0.000000,1072.533697
4023.034092,-9622.677246,-444.123565,459.657299
4023.034422,-9178.553681,-666.185348,-842.705048
4023.034751,-9104.533087,-444.123565,-689.485948
4023.035081,-9770.718434,-148.041188,536.266849
4023.035411,-10510.924376,-148.041188,1685.410096
4023.035741,-10288.862594,-370.102971,842.705048
4023.036071,-9548.656652,-296.082377,459.657299
4023.036400,-9326.594869,-592.164754,766.095498
4023.036730,-9770.718434,0.000000,536.266849
4023.037060,-9918.759623,0.000000,0.000000
4023.037390,-9696.697840,148.041188,-612.876398
4023.037720,-9548.656652,74.020594,-689.485948
4023.038049,-9622.677246,74.020594,0.000000
4023.038379,-9918.759623,222.061783,919.314598
4023.038709,-10658.965565,0.000000,919.314598
4023.039039,-10066.800811,-74.020594,-229.828649
4023.039369,-9030.512492,-592.164754,-842.705048
4023.039698,-9474.636058,0.000000,0.000000
4023.040028,-10436.903782,0.000000,1762.019645
4023.040358,-10140.821405,296.082377,1378.971896
4023.040688,-9400.615463,-148.041188,459.657299
4023.041017,-9474.636058,148.041188,459.657299
4023.041347,-10288.862594,0.000000,612.876398
4023.041677,-10288.862594,0.000000,76.609550
4023.042007,-9474.636058,0.000000,-689.485948
4023.042337,-8808.450710,222.061783,-383.047749
4023.042666,-9104.533087,0.000000,-153.219100
4023.042996,-9474.636058,0.000000,919.314598
4023.043326,-10214.842000,222.061783,766.095498
4023.043656,-10066.800811,296.082377,0.000000
4023.043986,-9844.739029,74.020594,-536.266849
4023.044315,-9548.656652,0.000000,0.000000
4023.044645,-10140.821405,148.041188,689.485948
4023.044975,-10140.821405,444.123565,1225.752797
4023.045305,-9474.636058,-222.061783,153.219100
4023.045634,-9178.553681,74.020594,0.000000
4023.045964,-9622.677246,148.041188,76.609550
4023.046294,-10510.924376,518.144159,-306.438199
4023.046624,-10066.800811,0.000000,-536.266849
4023.046954,-9252.574275,0.000000,-459.657299
4023.047283,-9178.553681,-74.020594,153.219100
4023.047613,-9474.636058,-148.041188,1149.143247
4023.047943,-10510.924376,74.020594,1149.143247
4023.048273,-9770.718434,0.000000,689.485948
4023.048603,-9252.574275,74.020594,-536.266849
4023.048932,-9030.512492,148.041188,-459.657299
4023.049262,-10066.800811,444.123565,306.438199
4023.049592,-10288.862594,518.144159,459.657299
4023.049922,-9548.656652,0.000000,-153.219100
4023.050251,-9104.533087,74.020594,0.000000
4023.050581,-9696.697840,148.041188,229.828649
4023.050911,-10140.821405,296.082377,0.000000
4023.051241,-9696.697840,0.000000,-229.828649
4023.051571,-9252.574275,74.020594,-612.876398
4023.051900,-8956.491898,0.000000,0.000000
4023.052230,-8956.491898,0.000000,766.095498
4023.052560,-10288.862594,148.041188,1838.629195
4023.052890,-10510.924376,666.185348,1149.143247
4023.053220,-10214.842000,444.123565,-459.657299
4023.053549,-9992.780217,0.000000,-919.314598
4023.053879,-9474.636058,-222.061783,-306.438199
4023.054209,-9622.677246,-148.041188,1072.533697
4023.054539,-9326.594869,0.000000,612.876398
4023.054869,-9474.636058,74.020594,229.828649
4023.055198,-9770.718434,148.041188,306.438199
4023.055528,-10362.883188,296.082377,153.219100
4023.055858,-10362.883188,222.061783,-76.609550
4023.056188,-9548.656652,74.020594,-153.219100
4023.056517,-8808.450710,148.041188,153.219100
4023.056847,-9104.533087,148.041188,76.609550
4023.057177,-10288.862594,222.061783,766.095498
4023.057507,-10955.047942,518.144159,766.095498
4023.057837,-10288.862594,0.000000,-76.609550
4023.058166,-9622.677246,-296.082377,-459.657299
4023.058496,-9696.697840,74.020594,536.266849
4023.058826,-10510.924376,296.082377,1685.410096
4023.059156,-10066.800811,222.061783,1302.362347
4023.059486,-9696.697840,148.041188,459.657299
4023.059815,-9918.759623,666.185348,229.828649
4023.060145,-10510.924376,592.164754,536.266849
4023.060475,-10510.924376,0.000000,-153.219100
4023.060805,-9844.739029,444.123565,-689.485948
4023.061134,-8956.491898,0.000000,-766.095498
4023.061464,-8734.430116,-444.123565,-153.219100
4023.061794,-9400.615463,-222.061783,459.657299
4023.062124,-9770.718434,148.041188,842.705048
4023.062454,-9770.718434,148.041188,612.876398
4023.062783,-9548.656652,0.000000,-612.876398
4023.063113,-9696.697840,148.041188,-229.828649
4023.063443,-10214.842000,0.000000,919.314598
4023.063773,-10510.924376,370.102971,1149.143247
4023.064103,-9622.677246,-148.041188,76.609550
4023.064432,-9252.574275,0.000000,76.609550
4023.064762,-9400.615463,0.000000,306.438199
4023.065092,-10362.883188,0.000000,459.657299
4023.065422,-10881.027347,740.205942,-306.438199
4023.065752,-9844.739029,0.000000,-612.876398
4023.066081,-8808.450710,-148.041188,-459.657299
4023.066411,-9104.533087,-296.082377,766.095498
4023.066741,-10140.821405,222.061783,1302.362347
4023.067071,-10140.821405,-148.041188,766.095498
4023.067400,-9622.677246,0.000000,-383.047749
4023.067730,-9474.636058,-222.061783,-306.438199
4023.068060,-10658.965565,370.102971,1455.581446
4023.068390,-10658.965565,0.000000,1608.800546
4023.068720,-9696.697840,-148.041188,766.095498
4023.069049,-9548.656652,0.000000,459.657299
4023.069379,-9918.759623,-148.041188,459.657299
4023.069709,-10807.006753,222.061783,76.609550
4023.070039,-10140.821405,0.000000,-76.609550
4023.070369,-9178.553681,74.020594,-383.047749
4023.070698,-9326.594869,0.000000,153.219100
4023.071028,-9178.553681,0.000000,1455.581446
4023.071358,-9770.718434,-296.082377,995.924147
4023.071688,-9918.759623,0.000000,612.876398
4023.072017,-9548.656652,-740.205942,-153.219100
4023.072347,-9400.615463,-592.164754,0.000000
4023.072677,-9548.656652,-444.123565,842.705048
4023.073007,-10066.800811,-222.061783,1685.410096
4023.073337,-9770.718434,-222.061783,689.485948
4023.073666,-9474.636058,-222.061783,-612.876398
4023.073996,-9400.615463,0.000000,-229.828649
4023.074326,-9770.718434,74.020594,153.219100
4023.074656,-10214.842000,222.061783,0.000000
4023.074986,-9844.739029,222.061783,-612.876398
4023.075315,-9104.533087,0.000000,-1302.362347
4023.075645,-9104.533087,-74.020594,-383.047749
4023.075975,-9548.656652,0.000000,306.438199
4023.076305,-9992.780217,0.000000,612.876398
4023.076635,-9326.594869,-296.082377,0.000000
4023.076964,-9178.553681,-444.123565,-306.438199
4023.077294,-9844.739029,0.000000,612.876398
4023.077624,-10955.047942,0.000000,1608.800546
4023.077954,-10881.027347,296.082377,1608.800546
4023.078283,-9844.739029,0.000000,153.219100
4023.078613,-9770.718434,0.000000,153.219100
4023.078943,-10066.800811,148.041188,459.657299
4023.079273,-10288.862594,222.061783,229.828649
4023.079603,-9474.636058,0.000000,0.000000
4023.079932,-9178.553681,148.041188,-842.705048
4023.080262,-8586.388927,74.020594,-306.438199
4023.080592,-9326.594869,0.000000,153.219100
4023.080922,-9622.677246,296.082377,919.314598
4023.081252,-9992.780217,0.000000,383.047749
4023.081581,-9696.697840,0.000000,-229.828649
4023.081911,-9400.615463,296.082377,76.609550
4023.082241,-10214.842000,148.041188,1302.362347
4023.082571,-10214.842000,222.061783,995.924147
4023.082900,-9548.656652,222.061783,229.828649
4023.083230,-9326.594869,370.102971,-306.438199
4023.083560,-9474.636058,740.205942,76.609550
4023.083890,-9992.780217,814.226536,-229.828649
4023.084220,-10140.821405,592.164754,-306.438199
4023.084549,-9992.780217,370.102971,-306.438199
4023.084879,-9326.594869,0.000000,-306.438199
4023.085209,-9400.615463,148.041188,229.828649
4023.085539,-9696.697840,148.041188,612.876398
4023.085869,-9622.677246,0.000000,842.705048
4023.086198,-8808.450710,0.000000,383.047749
4023.086528,-9474.636058,370.102971,306.438199
4023.086858,-10510.924376,888.247130,1149.143247
4023.087188,-10881.027347,888.247130,1378.971896
4023.087517,-10214.842000,740.205942,306.438199
4023.087847,-9696.697840,296.082377,-766.095498
4023.088177,-10066.800811,666.185348,229.828649
4023.088507,-10140.821405,444.123565,76.609550
4023.088837,-9696.697840,222.061783,-612.876398
4023.089166,-9326.594869,370.102971,-1378.971896
4023.089496,-9252.574275,296.082377,-1149.143247
4023.089826,-9696.697840,0.000000,0.000000
4023.090156,-10140.821405,0.000000,995.924147
4023.090486,-10066.800811,74.020594,1072.533697
4023.090815,-9474.636058,-296.082377,383.047749
4023.091145,-9474.636058,-518.144159,306.438199
4023.091475,-9622.677246,-518.144159,995.924147
4023.091805,-10362.883188,-222.061783,1685.410096
4023.092135,-9918.759623,-370.102971,995.924147
4023.092464,-9104.533087,-518.144159,306.438199
4023.092794,-9326.594869,0.000000,0.000000
4023.093124,-10066.800811,0.000000,0.000000
4023.093454,-10658.965565,74.020594,-306.438199
4023.093783,-9770.718434,-222.061783,-459.657299
4023.094113,-9400.615463,74.020594,-689.485948
4023.094443,-8956.491898,-148.041188,-306.438199
4023.094773,-9622.677246,-444.123565,76.609550
4023.095103,-10140.821405,0.000000,689.485948
4023.095432,-9770.718434,-592.164754,306.438199
4023.095762,-9622.677246,-666.185348,-459.657299
4023.096092,-9696.697840,-666.185348,536.266849
4023.096422,-10362.883188,-370.102971,1685.410096
4023.096752,-9844.739029,-370.102971,1762.019645
4023.097081,-9474.636058,-518.144159,306.438199
4023.097411,-9326.594869,-296.082377,-383.047749
4023.097741,-9770.718434,0.000000,306.438199
4023.098071,-10066.800811,-444.123565,612.876398
4023.098400,-10214.842000,0.000000,0.000000
4023.098730,-9918.759623,0.000000,-536.266849
4023.099060,-9474.636058,0.000000,-842.705048
4023.099390,-9474.636058,-370.102971,-383.047749
4023.099720,-9770.718434,0.000000,459.657299
4023.100049,-9992.780217,-74.020594,689.485948
4023.100379,-9474.636058,-296.082377,0.000000
4023.100709,-9400.615463,0.000000,0.000000
4023.101039,-10214.842000,74.020594,1532.190996
4023.101369,-10807.006753,222.061783,1378.971896
4023.101698,-10214.842000,148.041188,306.438199
4023.102028,-9178.553681,296.082377,0.000000
4023.102358,-9474.636058,518.144159,536.266849
4023.102688,-10584.944971,592.164754,766.095498
4023.103018,-10881.027347,740.205942,383.047749
4023.103347,-10362.883188,740.205942,-919.314598
4023.103677,-9474.636058,740.205942,-1149.143247
4023.104007,-9548.656652,0.000000,0.000000
4023.104337,-10140.821405,0.000000,1149.143247
4023.104666,-9548.656652,0.000000,1072.533697
4023.104996,-9030.512492,-444.123565,0.000000
4023.105326,-8586.388927,-370.102971,-459.657299
4023.105656,-9548.656652,0.000000,919.314598
4023.105986,-10658.965565,296.082377,1762.019645
4023.106315,-10510.924376,666.185348,995.924147
4023.106645,-9548.656652,296.082377,229.828649
4023.106975,-9400.615463,222.061783,842.705048
4023.107305,-9696.697840,222.061783,919.314598
4023.107635,-10066.800811,222.061783,-153.219100
4023.107964,-9474.636058,222.061783,-995.924147
4023.108294,-9326.594869,370.102971,-1072.533697
4023.108624,-9178.553681,296.082377,-766.095498
4023.108954,-10066.800811,222.061783,-306.438199
4023.109283,-10140.821405,518.144159,1072.533697
4023.109613,-9918.759623,222.061783,229.828649
4023.109943,-9474.636058,0.000000,-459.657299
4023.110273,-10066.800811,74.020594,536.266849
4023.110603,-10658.965565,148.041188,1532.190996
4023.110932,-10510.924376,444.123565,766.095498
4023.111262,-9400.615463,0.000000,76.609550
4023.111592,-9474.636058,296.082377,383.047749
4023.111922,-10066.800811,74.020594,1072.533697
4023.112252,-10436.903782,0.000000,153.219100
4023.112581,-9770.718434,0.000000,-766.095498
4023.112911,-9622.677246,0.000000,-842.705048
4023.113241,-9252.574275,148.041188,-383.047749
4023.113571,-9474.636058,-148.041188,76.609550
4023.113900,-10066.800811,296.082377,766.095498
4023.114230,-9696.697840,0.000000,536.266849
4023.114560,-9548.656652,-296.082377,-229.828649
4023.114890,-9770.718434,0.000000,-919.314598
4023.115220,-10362.883188,0.000000,383.047749
4023.115549,-10140.821405,0.000000,1225.752797
4023.115879,-9326.594869,-222.061783,306.438199
4023.116209,-8882.471304,-222.061783,76.609550
4023.116539,-9104.533087,-148.041188,459.657299
4023.116869,-9992.780217,148.041188,689.485948
4023.117198,-10362.883188,370.102971,0.000000
4023.117528,-9918.759623,0.000000,-459.657299
4023.117858,-9548.656652,0.000000,-153.219100
4023.118188,-9770.718434,222.061783,536.266849
4023.118518,-10436.903782,222.061783,1225.752797
4023.118847,-9770.718434,0.000000,459.657299
4023.119177,-9474.636058,0.000000,-612.876398
4023.119507,-8956.491898,-148.041188,-383.047749
4023.119837,-9622.677246,370.102971,0.000000
4023.120166,-10510.924376,370.102971,842.705048
4023.120496,-10214.842000,0.000000,0.000000
4023.120826,-9326.594869,-296.082377,-536.266849
4023.121156,-9474.636058,0.000000,919.314598
4023.121486,-10066.800811,222.061783,1455.581446
4023.121815,-10436.903782,0.000000,842.705048
4023.122145,-9770.718434,148.041188,-689.485948
4023.122475,-9474.636058,296.082377,-383.047749
4023.122805,-9548.656652,74.020594,0.000000
4023.123135,-10510.924376,148.041188,842.705048
4023.123464,-10140.821405,0.000000,1302.362347
4023.123794,-9326.594869,-518.144159,153.219100
4023.124124,-9104.533087,0.000000,-766.095498
4023.124454,-9548.656652,0.000000,153.219100
4023.124783,-10362.883188,0.000000,842.705048
4023.125113,-9844.739029,0.000000,229.828649
4023.125443,-9400.615463,-148.041188,229.828649
4023.125773,-9696.697840,0.000000,536.266849
4023.126103,-10362.883188,0.000000,995.924147
4023.126432,-10510.924376,-296.082377,383.047749
4023.126762,-9622.677246,-222.061783,-459.657299
4023.127092,-9252.574275,-296.082377,-536.266849
4023.127422,-8882.471304,-518.144159,153.219100
4023.127752,-8956.491898,0.000000,1072.533697
4023.128081,-9992.780217,296.082377,1149.143247
4023.128411,-10066.800811,74.020594,153.219100
4023.128741,-9770.718434,-222.061783,-612.876398
4023.129071,-9548.656652,0.000000,-229.828649
4023.129401,-9992.780217,0.000000,459.657299
4023.129730,-9844.739029,74.020594,612.876398
4023.130060,-9326.594869,0.000000,0.000000
4023.130390,-9474.636058,222.061783,0.000000
4023.130720,-10066.800811,296.082377,689.485948
4023.131050,-10807.006753,222.061783,383.047749
4023.131380,-10807.006753,370.102971,0.000000
4023.131709,-9992.780217,0.000000,-689.485948
4023.132039,-9252.574275,-814.226536,-536.266849
4023.132369,-9474.636058,-148.041188,459.657299
4023.132699,-9844.739029,0.000000,919.314598
4023.133029,-9548.656652,-296.082377,612.876398
4023.133359,-9326.594869,0.000000,-612.876398
4023.133689,-9326.594869,0.000000,-306.438199
4023.134018,-10658.965565,518.144159,766.095498
4023.134348,-10955.047942,592.164754,1072.533697
4023.134678,-10214.842000,0.000000,76.609550
4023.135008,-9474.636058,74.020594,76.609550
4023.135338,-9770.718434,222.061783,919.314598
4023.135668,-10214.842000,370.102971,689.485948
4023.135998,-9918.759623,74.020594,-459.657299
4023.136327,-9548.656652,592.164754,-1378.971896
4023.136657,-9326.594869,222.061783,-689.485948
4023.136987,-9548.656652,370.102971,229.828649
4023.137317,-10066.800811,0.000000,1149.143247
4023.137647,-9844.739029,296.082377,842.705048
4023.137977,-9400.615463,-74.020594,-229.828649
4023.138306,-9030.512492,-222.061783,-689.485948
4023.138636,-9474.636058,0.000000,153.219100
4023.138966,-10140.821405,74.020594,995.924147
4023.139296,-9992.780217,296.082377,1608.800546
4023.139626,-9474.636058,0.000000,459.657299
4023.139956,-9548.656652,518.144159,766.095498
4023.140286,-10288.862594,592.164754,689.485948
4023.140615,-10881.027347,518.144159,-229.828649
4023.140945,-10288.862594,518.144159,-1302.362347
4023.141275,-9326.594869,518.144159,-1455.581446
4023.141605,-9104.533087,222.061783,-1072.533697
4023.141935,-9326.594869,444.123565,229.828649
4023.142265,-9992.780217,222.061783,612.876398
4023.142595,-9770.718434,296.082377,536.266849
4023.142924,-9474.636058,0.000000,0.000000
4023.143254,-9548.656652,0.000000,995.924147
4023.143584,-10881.027347,0.000000,1608.800546
4023.143914,-10584.944971,-148.041188,1455.581446
4023.144244,-9474.636058,-518.144159,612.876398
4023.144574,-9178.553681,0.000000,459.657299
4023.144904,-9770.718434,222.061783,919.314598
4023.145233,-10436.903782,74.020594,306.438199
4023.145563,-9918.759623,0.000000,-689.485948
4023.145893,-9400.615463,148.041188,-1378.971896
4023.146223,-9400.615463,444.123565,-1149.143247
4023.146553,-9548.656652,-222.061783,153.219100
4023.146883,-9844.739029,0.000000,1149.143247
4023.147213,-9400.615463,-148.041188,919.314598
4023.147542,-8512.368333,0.000000,0.000000
4023.147872,-8808.450710,-296.082377,-383.047749
4023.148202,-10584.944971,148.041188,612.876398
4023.148532,-10807.006753,148.041188,1608.800546
4023.148862,-10066.800811,-296.082377,842.705048
4023.149192,-10288.862594,-296.082377,689.485948
4023.149521,-10288.862594,74.020594,1302.362347
4023.149851,-10140.821405,0.000000,612.876398
4023.150181,-9918.759623,74.020594,-383.047749
4023.150511,-9178.553681,518.144159,-689.485948
4023.150841,-9252.574275,296.082377,-1072.533697
4023.151171,-9548.656652,0.000000,-76.609550
4023.151501,-10436.903782,222.061783,536.266849
4023.151830,-9770.718434,0.000000,229.828649
4023.152160,-9474.636058,-740.205942,-1072.533697
4023.152490,-9104.533087,-740.205942,-612.876398
4023.152820,-9474.636058,-518.144159,459.657299
4023.153150,-9770.718434,0.000000,1225.752797
4023.153480,-10288.862594,74.020594,1072.533697
4023.153810,-10288.862594,148.041188,689.485948
4023.154139,-10436.903782,370.102971,766.095498
4023.154469,-10658.965565,370.102971,459.657299
4023.154799,-10214.842000,148.041188,-383.047749
4023.155129,-9548.656652,148.041188,-1072.533697
4023.155459,-8660.409521,0.000000,-1225.752797
4023.155789,-8882.471304,148.041188,-612.876398
4023.156119,-9474.636058,592.164754,0.000000
4023.156448,-10214.842000,888.247130,383.047749
4023.156778,-9918.759623,0.000000,-229.828649
4023.157108,-9770.718434,0.000000,-689.485948
4023.157438,-9622.677246,518.144159,689.485948
4023.157768,-10584.944971,0.000000,1608.800546
4023.158098,-9992.780217,-148.041188,1685.410096
4023.158428,-9030.512492,-592.164754,1072.533697
4023.158757,-9030.512492,0.000000,1302.362347
4023.159087,-9992.780217,296.082377,1302.362347
4023.159417,-10510.924376,148.041188,689.485948
4023.159747,-10214.842000,0.000000,-612.876398
4023.160077,-9622.677246,74.020594,-536.266849
4023.160407,-9400.615463,296.082377,0.000000
4023.160737,-9326.594869,-148.041188,383.047749
4023.161066,-9252.574275,0.000000,919.314598
4023.161396,-9178.553681,0.000000,0.000000
4023.161726,-9178.553681,74.020594,-1225.752797
4023.162056,-9252.574275,296.082377,-306.438199
4023.162386,-10436.903782,444.123565,459.657299
4023.162716,-10807.006753,666.185348,842.705048
4023.163045,-10140.821405,74.020594,-536.266849
4023.163375,-9474.636058,222.061783,0.000000
4023.163705,-9548.656652,0.000000,536.266849
4023.164035,-10066.800811,74.020594,0.000000
4023.164365,-9844.739029,148.041188,-536.266849
4023.164695,-9104.533087,740.205942,-1302.362347
4023.165025,-9474.636058,444.123565,-536.266849
4023.165354,-9992.780217,296.082377,229.828649
4023.165684,-10510.924376,74.020594,689.485948
4023.166014,-10214.842000,518.144159,0.000000
4023.166344,-9548.656652,-296.082377,-306.438199
4023.166674,-8586.388927,-222.061783,-689.485948
4023.167004,-9548.656652,-444.123565,153.219100
4023.167334,-9918.759623,592.164754,536.266849
4023.167663,-9622.677246,148.041188,689.485948
4023.167993,-9844.739029,148.041188,766.095498
4023.168323,-10362.883188,296.082377,1072.533697
4023.168653,-10658.965565,370.102971,1072.533697
4023.168983,-10510.924376,222.061783,229.828649
4023.169313,-9548.656652,0.000000,-536.266849
4023.169643,-9326.594869,-222.061783,-612.876398
4023.169972,-9178.553681,-74.020594,229.828649
4023.170302,-9474.636058,296.082377,612.876398
4023.170632,-9918.759623,222.061783,689.485948
4023.170962,-9992.780217,0.000000,-229.828649
4023.171292,-9326.594869,0.000000,-612.876398
4023.171622,-9844.739029,296.082377,0.000000
4023.171952,-10066.800811,0.000000,1685.410096
4023.172281,-10140.821405,-296.082377,1378.971896
4023.172611,-9474.636058,-592.164754,842.705048
4023.172941,-9770.718434,-148.041188,459.657299
4023.173271,-10214.842000,-148.041188,612.876398
4023.173601,-10214.842000,-370.102971,0.000000
4023.173931,-9030.512492,-222.061783,-459.657299
4023.174260,-8882.471304,0.000000,-536.266849
4023.174590,-8956.491898,74.020594,0.000000
4023.174920,-9696.697840,296.082377,153.219100
4023.175250,-10436.903782,296.082377,383.047749
4023.175580,-10288.862594,-148.041188,-1072.533697
4023.175910,-9178.553681,0.000000,-1838.629195
4023.176240,-9326.594869,-444.123565,-536.266849
4023.176569,-9770.718434,-666.185348,1455.581446
4023.176899,-9696.697840,-370.102971,1608.800546
4023.177229,-8956.491898,0.000000,1072.533697
4023.177559,-9474.636058,148.041188,76.609550
4023.177889,-10584.944971,370.102971,0.000000
4023.178219,-11029.068536,74.020594,76.609550
4023.178549,-10436.903782,222.061783,-229.828649
4023.178878,-9770.718434,0.000000,0.000000
4023.179208,-9326.594869,0.000000,0.000000
4023.179538,-9252.574275,-444.123565,0.000000
4023.179868,-9474.636058,148.041188,229.828649
4023.180198,-10214.842000,518.144159,-459.657299
4023.180528,-10066.800811,0.000000,-229.828649
4023.180858,-9622.677246,-74.020594,0.000000
4023.181187,-10066.800811,148.041188,1225.752797
4023.181517,-10214.842000,518.144159,1072.533697
4023.181847,-9696.697840,0.000000,919.314598
4023.182177,-9474.636058,-296.082377,306.438199
4023.182507,-9548.656652,296.082377,612.876398
4023.182837,-10436.903782,370.102971,229.828649
4023.183167,-10807.006753,444.123565,306.438199
4023.183496,-9696.697840,0.000000,-229.828649
4023.183826,-9400.615463,0.000000,0.000000
4023.184156,-9030.512492,-148.041188,306.438199
4023.184486,-9918.759623,74.020594,919.314598
4023.184816,-9844.739029,0.000000,612.876398
4023.185146,-9030.512492,-222.061783,-229.828649
4023.185476,-8512.368333,0.000000,-229.828649
4023.185805,-9770.718434,592.164754,0.000000
4023.186135,-10584.944971,148.041188,1225.752797
4023.186465,-10288.862594,0.000000,76.609550
4023.186795,-9474.636058,-370.102971,0.000000
4023.187125,-9400.615463,444.123565,536.266849
4023.187455,-9622.677246,222.061783,383.047749
4023.187784,-9770.718434,74.020594,-229.828649
4023.188114,-9400.615463,592.164754,-842.705048
4023.188444,-9326.594869,592.164754,-1378.971896
4023.188774,-9844.739029,370.102971,-766.095498
4023.189104,-10214.842000,222.061783,0.000000
4023.189434,-9918.759623,296.082377,536.266849
4023.189764,-9400.615463,0.000000,-153.219100
4023.190093,-9104.533087,148.041188,-1608.800546
4023.190423,-9548.656652,148.041188,-842.705048
4023.190753,-10362.883188,0.000000,229.828649
4023.191083,-10362.883188,0.000000,995.924147
4023.191413,-9992.780217,222.061783,995.924147
4023.191743,-9696.697840,74.020594,995.924147
4023.192073,-9844.739029,222.061783,919.314598
4023.192402,-10066.800811,222.061783,689.485948
4023.192732,-10436.903782,222.061783,-306.438199
4023.193062,-10436.903782,666.185348,-459.657299
4023.193392,-10066.800811,74.020594,459.657299
4023.193722,-10066.800811,0.000000,689.485948
4023.194052,-10288.862594,0.000000,766.095498
4023.194382,-10807.006753,0.000000,0.000000
4023.194711,-9696.697840,-592.164754,-842.705048
4023.195041,-8956.491898,-370.102971,-383.047749
4023.195371,-9474.636058,0.000000,1072.533697
4023.195701,-10066.800811,370.102971,2298.286494
4023.196031,-9992.780217,-148.041188,1455.581446
4023.196361,-9474.636058,-148.041188,766.095498
4023.196691,-9918.759623,-296.082377,536.266849
4023.197020,-10658.965565,-148.041188,766.095498
4023.197350,-9844.739029,-370.102971,0.000000
4023.197680,-9030.512492,0.000000,0.000000
4023.198010,-8586.388927,0.000000,76.609550
4023.198340,-8956.491898,0.000000,153.219100
4023.198670,-9770.718434,370.102971,229.828649
4023.198999,-9548.656652,222.061783,-383.047749
4023.199329,-9178.553681,0.000000,-995.924147
4023.199659,-9252.574275,148.041188,-612.876398
4023.199989,-10066.800811,592.164754,383.047749
4023.200319,-10362.883188,222.061783,612.876398
4023.200649,-9770.718434,-74.020594,229.828649
4023.200979,-9252.574275,-222.061783,0.000000
4023.201308,-9844.739029,296.082377,612.876398
4023.201638,-9992.780217,74.020594,766.095498
4023.201968,-9918.759623,592.164754,459.657299
4023.202298,-9844.739029,888.247130,0.000000
4023.202628,-10214.842000,1110.308913,-536.266849
4023.202958,-10140.821405,518.144159,-842.705048
4023.203288,-9770.718434,518.144159,-536.266849
4023.203617,-10214.842000,444.123565,0.000000
4023.203947,-9918.759623,222.061783,-766.095498
4023.204277,-9178.553681,-296.082377,-1455.581446
4023.204607,-9622.677246,-74.020594,229.828649
4023.204937,-9918.759623,0.000000,1225.752797
4023.205267,-10140.821405,0.000000,1455.581446
4023.205597,-9622.677246,296.082377,919.314598
4023.205926,-9844.739029,148.041188,1072.533697
4023.206256,-10288.862594,296.082377,1455.581446
4023.206586,-10658.965565,0.000000,1225.752797
4023.206916,-10436.903782,0.000000,76.609550
4023.207246,-9548.656652,148.041188,-536.266849
4023.207576,-9326.594869,-296.082377,-383.047749
4023.207906,-9770.718434,-370.102971,229.828649
4023.208235,-9696.697840,-148.041188,1072.533697
4023.208565,-9178.553681,74.020594,0.000000
4023.208895,-8882.471304,-518.144159,-229.828649
4023.209225,-9104.533087,-518.144159,76.609550
4023.209555,-10140.821405,0.000000,1378.971896
4023.209885,-10288.862594,518.144159,1225.752797
4023.210215,-9918.759623,-148.041188,459.657299
4023.210544,-9844.739029,0.000000,536.266849
4023.210874,-9474.636058,0.000000,919.314598
4023.211204,-10288.862594,0.000000,536.266849
4023.211534,-9622.677246,370.102971,-536.266849
4023.211864,-9844.739029,74.020594,-995.924147
4023.212194,-9326.594869,370.102971,-919.314598
4023.212523,-9622.677246,0.000000,-612.876398
4023.212853,-10140.821405,444.123565,0.000000
4023.213183,-9770.718434,370.102971,-229.828649
4023.213513,-9474.636058,-148.041188,-766.095498
4023.213843,-9104.533087,-148.041188,-383.047749
4023.214173,-9918.759623,370.102971,766.095498
4023.214503,-10807.006753,222.061783,1608.800546
4023.214832,-10510.924376,0.000000,1149.143247
4023.215162,-9844.739029,-148.041188,612.876398
4023.215492,-9918.759623,0.000000,1378.971896
4023.215822,-10288.862594,148.041188,919.314598
4023.216152,-10214.842000,0.000000,306.438199
4023.216482,-9474.636058,148.041188,-536.266849
4023.216812,-9326.594869,148.041188,-459.657299
4023.217141,-9252.574275,222.061783,-153.219100
4023.217471,-9548.656652,0.000000,76.609550
4023.217801,-9992.780217,296.082377,383.047749
4023.218131,-9474.636058,-370.102971,-229.828649
4023.218461,-9474.636058,0.000000,0.000000
4023.218791,-9622.677246,-148.041188,459.657299
4023.219121,-10436.903782,0.000000,1302.362347
4023.219450,-9918.759623,-296.082377,1149.143247
4023.219780,-9844.739029,0.000000,842.705048
4023.220110,-9548.656652,-148.041188,919.314598
4023.220440,-9992.780217,0.000000,1302.362347
4023.220770,-9992.780217,0.000000,459.657299
4023.221100,-9178.553681,-148.041188,-306.438199
4023.221430,-9030.512492,0.000000,-995.924147
4023.221759,-9030.512492,0.000000,-689.485948
4023.222089,-9622.677246,518.144159,0.000000
4023.222419,-10066.800811,962.267725,306.438199
4023.222749,-9548.656652,518.144159,0.000000
4023.223079,-9770.718434,222.061783,-995.924147
4023.223409,-9696.697840,370.102971,-459.657299
4023.223738,-10510.924376,370.102971,842.705048
4023.224068,-10362.883188,370.102971,1532.190996
4023.224398,-9474.636058,0.000000,383.047749
4023.224728,-9178.553681,148.041188,766.095498
4023.225058,-9474.636058,74.020594,919.314598
4023.225388,-10584.944971,370.102971,459.657299
4023.225718,-10510.924376,444.123565,-306.438199
4023.226047,-9918.759623,74.020594,-766.095498
4023.226377,-9474.636058,296.082377,-306.438199
4023.226707,-9622.677246,296.082377,76.609550
4023.227037,-9992.780217,222.061783,919.314598
4023.227367,-9770.718434,74.020594,612.876398
4023.227697,-9252.574275,0.000000,-459.657299
4023.228027,-9178.553681,74.020594,-383.047749
4023.228356,-10066.800811,0.000000,1149.143247
4023.228686,-10584.944971,148.041188,1072.533697
4023.229016,-10066.800811,0.000000,919.314598
4023.229346,-9474.636058,-148.041188,459.657299
4023.229676,-9844.739029,0.000000,1915.238745
4023.230006,-10288.862594,-296.082377,919.314598
4023.230336,-10066.800811,74.020594,-306.438199
4023.230666,-9326.594869,222.061783,-995.924147
4023.230995,-9326.594869,74.020594,-766.095498
4023.231325,-9474.636058,444.123565,-612.876398
4023.231655,-10066.800811,444.123565,0.000000
4023.231985,-9844.739029,222.061783,229.828649
4023.232315,-9252.574275,-296.082377,-766.095498
4023.232645,-9178.553681,-296.082377,-459.657299
4023.232975,-9474.636058,-74.020594,0.000000
4023.233305,-10066.800811,-148.041188,306.438199
4023.233634,-9770.718434,-222.061783,229.828649
4023.233964,-9400.615463,-370.102971,383.047749
4023.234294,-9918.759623,296.082377,1302.362347
4023.234624,-10881.027347,222.061783,1225.752797
4023.234954,-11103.089130,296.082377,689.485948
4023.235284,-9992.780217,296.082377,-459.657299
4023.235614,-9400.615463,592.164754,-842.705048
4023.235944,-9252.574275,148.041188,-459.657299
4023.236273,-9844.739029,296.082377,229.828649
4023.236603,-10140.821405,222.061783,689.485948
4023.236933,-9918.759623,222.061783,0.000000
4023.237263,-9400.615463,-296.082377,-995.924147
4023.237593,-9770.718434,-370.102971,-306.438199
4023.237923,-10214.842000,-370.102971,1072.533697
4023.238253,-10140.821405,-370.102971,1378.971896
4023.238583,-9474.636058,-444.123565,1225.752797
