#time,accel_x,accel_y,accel_z
3600.345202,-9844.739029,-1184.329507,-3370.820191
3600.345532,-9844.739029,-74.020594,-1762.019645
3600.345862,-11103.089130,-666.185348,-612.876398
3600.346192,-11473.192101,-1036.288319,-306.438199
3600.346521,-10288.862594,-1702.473667,-1455.581446
3600.346851,-9474.636058,-1998.556043,-2528.115143
3600.347181,-8586.388927,-1110.308913,-2221.676944
3600.347511,-9474.636058,-888.247130,-689.485948
3600.347841,-9326.594869,222.061783,383.047749
3600.348171,-8882.471304,-74.020594,0.000000
3600.348501,-9474.636058,1184.329507,-995.924147
3600.348830,-9992.780217,888.247130,-1149.143247
3600.349160,-10436.903782,1110.308913,-1455.581446
3600.349490,-9400.615463,814.226536,-1838.629195
3600.349820,-9474.636058,592.164754,-3140.991542
3600.350150,-10288.862594,518.144159,-1915.238745
3600.350480,-10288.862594,148.041188,-1685.410096
3600.350810,-10436.903782,0.000000,-995.924147
3600.351139,-9918.759623,74.020594,-1072.533697
3600.351469,-9770.718434,74.020594,-689.485948
3600.351799,-9252.574275,-148.041188,0.000000
3600.352129,-9252.574275,370.102971,536.266849
3600.352459,-9918.759623,592.164754,766.095498
3600.352789,-10214.842000,148.041188,-306.438199
3600.353118,-9548.656652,444.123565,-1685.410096
3600.353448,-9252.574275,148.041188,-2451.505594
3600.353778,-9622.677246,148.041188,-2604.724693
3600.354108,-9770.718434,-148.041188,-2834.553343
3600.354438,-10214.842000,-148.041188,-1762.019645
3600.354768,-7550.100608,-370.102971,-383.047749
3600.355098,-10214.842000,-592.164754,0.000000
3600.355427,-9252.574275,-1258.350101,1225.752797
3600.355757,-8364.327145,-2072.576638,3370.820191
3600.356087,-10732.986159,-592.164754,2298.286494
3600.356417,-10732.986159,-518.144159,-842.705048
3600.356747,-10732.986159,0.000000,-2374.896044
3600.357077,-11917.315666,0.000000,-3140.991542
3600.357407,-11547.212695,-592.164754,-3907.087040
3600.357736,-9992.780217,-1702.473667,-2987.772442
3600.358066,-8882.471304,-2220.617826,-2834.553343
3600.358396,-8438.347739,-2368.659014,-2987.772442
3600.358726,-8586.388927,-2960.823768,-1915.238745
3600.359056,-8364.327145,-2516.700203,0.000000
3600.359386,-8808.450710,-2220.617826,1378.971896
3600.359715,-9326.594869,-1406.391290,2451.505594
3600.360045,-9918.759623,-1184.329507,1532.190996
3600.360375,-11695.253884,-666.185348,689.485948
3600.360705,-13027.624579,-1036.288319,-229.828649
3600.361035,-12213.398043,-1924.535449,-842.705048
3600.361365,-10807.006753,-1924.535449,-1378.971896
3600.361695,-9918.759623,-2072.576638,-2221.676944
3600.362024,-9030.512492,-2294.638420,-3370.820191
3600.362354,-7994.224174,-1776.494261,-3983.696590
3600.362684,-7476.080014,-1702.473667,-4060.306139
3600.363014,-8364.327145,-1554.432478,-1378.971896
3600.363344,-9474.636058,-1184.329507,689.485948
3600.363674,-10584.944971,-1258.350101,1915.238745
3600.364004,-10955.047942,-1184.329507,1838.629195
3600.364333,-11917.315666,-1776.494261,919.314598
3600.364663,-11917.315666,-2220.617826,0.000000
3600.364993,-11251.130318,-3034.844362,-612.876398
3600.365323,-10066.800811,-2960.823768,459.657299
3600.365653,-8512.368333,-2516.700203,1838.629195
3600.365983,-8068.244768,-2220.617826,2987.772442
3600.366312,-8364.327145,-1406.391290,1685.410096
3600.366642,-9252.574275,-592.164754,-1608.800546
3600.366972,-9696.697840,-814.226536,-4290.134789
3600.367302,-10140.821405,-1184.329507,-4596.572988
3600.367632,-9474.636058,-1776.494261,-2604.724693
3600.367962,-9548.656652,-2738.761985,0.000000
3600.368292,-9104.533087,-2516.700203,1455.581446
3600.368622,-8808.450710,-3108.864956,1225.752797
3600.368952,-8438.347739,-3108.864956,229.828649
3600.369282,-9104.533087,-2294.638420,689.485948
3600.369613,-9622.677246,-1628.453072,2987.772442
3600.369943,-9992.780217,-1110.308913,4443.353888
3600.370273,-9696.697840,-1036.288319,3524.039291
3600.370603,-9104.533087,-962.267725,383.047749
3600.370933,-9844.739029,-962.267725,-2374.896044
3600.371263,-10584.944971,-740.205942,-4213.525239
3600.371593,-10881.027347,-1110.308913,-4290.134789
3600.371923,-9474.636058,-1184.329507,-2298.286494
3600.372253,-8364.327145,-1702.473667,612.876398
3600.372583,-8734.430116,-962.267725,3600.648841
3600.372913,-9400.615463,-592.164754,2528.115143
3600.373243,-9474.636058,-740.205942,459.657299
3600.373573,-9548.656652,-814.226536,0.000000
3600.373903,-10584.944971,0.000000,2145.067394
3600.374233,-11325.150913,148.041188,4136.915689
3600.374564,-10732.986159,296.082377,4903.011187
3600.374894,-10584.944971,888.247130,2757.943793
3600.375224,-10732.986159,962.267725,306.438199
3600.375554,-11473.192101,1480.411884,-2221.676944
3600.375884,-11325.150913,1258.350101,-2451.505594
3600.376214,-10436.903782,888.247130,-995.924147
3600.376544,-9696.697840,592.164754,536.266849
3600.376874,-8660.409521,518.144159,995.924147
3600.377204,-7994.224174,592.164754,766.095498
3600.377534,-8216.285956,888.247130,-612.876398
3600.377864,-8364.327145,1480.411884,-612.876398
3600.378194,-9030.512492,2220.617826,459.657299
3600.378524,-10362.883188,2590.720797,3217.601092
3600.378854,-11251.130318,2738.761985,5286.058936
3600.379185,-11991.336260,3330.926739,4673.182538
3600.379515,-11769.274478,2960.823768,1072.533697
3600.379845,-11473.192101,2442.679609,-2528.115143
3600.380175,-10214.842000,1924.535449,-3753.867940
3600.380505,-9474.636058,1406.391290,-1915.238745
3600.380835,-7994.224174,1776.494261,0.000000
3600.381165,-7105.977043,2368.659014,766.095498
3600.381495,-7105.977043,2960.823768,76.609550
3600.381825,-8364.327145,4071.132681,-1302.362347
3600.382155,-9326.594869,3849.070898,-2604.724693
3600.382485,-9918.759623,3627.009116,-2604.724693
3600.382815,-11103.089130,3034.844362,229.828649
3600.383145,-11621.233289,2368.659014,2528.115143
3600.383475,-11029.068536,1480.411884,3677.258390
3600.383806,-9844.739029,1554.432478,1455.581446
3600.384136,-9474.636058,1480.411884,-612.876398
3600.384466,-9474.636058,1702.473667,-2757.943793
3600.384796,-9770.718434,2072.576638,-1608.800546
3600.385126,-9770.718434,2516.700203,-306.438199
3600.385456,-8882.471304,1924.535449,766.095498
3600.385786,-9252.574275,1850.514855,306.438199
3600.386116,-8734.430116,1702.473667,-1149.143247
3600.386446,-9252.574275,1406.391290,-2528.115143
3600.386776,-9252.574275,1110.308913,-2451.505594
3600.387106,-9844.739029,296.082377,-459.657299
3600.387436,-9992.780217,0.000000,2221.676944
3600.387766,-10584.944971,-666.185348,4060.306139
3600.388096,-10732.986159,-370.102971,3217.601092
3600.388427,-10658.965565,-1184.329507,2068.457845
3600.388757,-10436.903782,-1406.391290,0.000000
3600.389087,-9844.739029,-1480.411884,-689.485948
3600.389417,-9030.512492,-1406.391290,0.000000
3600.389747,-8290.306550,-1332.370696,1149.143247
3600.390077,-8068.244768,-1702.473667,1762.019645
3600.390407,-8956.491898,-962.267725,689.485948
3600.390737,-9474.636058,-1554.432478,-1302.362347
3600.391067,-9696.697840,-1998.556043,-1762.019645
3600.391397,-10362.883188,-2294.638420,-383.047749
3600.391727,-11029.068536,-2368.659014,2451.505594
3600.392057,-11103.089130,-2886.803174,3677.258390
3600.392387,-10066.800811,-2590.720797,4366.744339
3600.392717,-9474.636058,-2812.782580,2298.286494
3600.393048,-9844.739029,-2442.679609,306.438199
3600.393378,-10732.986159,-1332.370696,-1685.410096
3600.393708,-10436.903782,-1258.350101,-2068.457845
3600.394038,-9770.718434,-1258.350101,-1838.629195
3600.394368,-9400.615463,-1702.473667,-919.314598
3600.394698,-9770.718434,-1924.535449,-76.609550
3600.395028,-9474.636058,-2072.576638,-229.828649
3600.395358,-9252.574275,-2294.638420,-766.095498
3600.395688,-8808.450710,-2368.659014,0.000000
3600.396018,-9622.677246,-1554.432478,1532.190996
3600.396348,-10807.006753,-1036.288319,2604.724693
3600.396678,-11029.068536,-444.123565,2757.943793
3600.397008,-11251.130318,148.041188,1838.629195
3600.397338,-11103.089130,0.000000,-536.266849
3600.397669,-10881.027347,0.000000,-2451.505594
3600.397999,-9770.718434,-222.061783,-2604.724693
3600.398329,-9326.594869,-592.164754,-1915.238745
3600.398659,-8364.327145,-666.185348,76.609550
3600.398989,-7846.182985,-592.164754,1378.971896
3600.399319,-8438.347739,-222.061783,383.047749
3600.399649,-8734.430116,370.102971,76.609550
3600.399979,-9400.615463,666.185348,-536.266849
3600.400309,-10066.800811,518.144159,383.047749
3600.400639,-10658.965565,740.205942,2298.286494
3600.400969,-10362.883188,222.061783,3600.648841
3600.401299,-9770.718434,740.205942,3524.039291
3600.401629,-9400.615463,1036.288319,1302.362347
3600.401959,-9844.739029,1332.370696,-1149.143247
3600.402290,-9622.677246,1628.453072,-2911.162892
3600.402620,-10066.800811,1776.494261,-2681.334243
3600.402950,-9178.553681,1406.391290,-2068.457845
3600.403280,-8734.430116,1406.391290,-306.438199
3600.403610,-8142.265362,1258.350101,-229.828649
3600.403940,-8142.265362,888.247130,-306.438199
3600.404270,-8142.265362,962.267725,-1225.752797
3600.404600,-8660.409521,1110.308913,-766.095498
3600.404930,-9770.718434,1480.411884,1072.533697
3600.405260,-10584.944971,1850.514855,3294.210641
3600.405590,-11695.253884,1924.535449,3524.039291
3600.405920,-11621.233289,2146.597232,1915.238745
3600.406250,-11473.192101,1702.473667,-689.485948
3600.406580,-10732.986159,1998.556043,-2528.115143
3600.406911,-10066.800811,1036.288319,-3217.601092
3600.407241,-9326.594869,1110.308913,-1225.752797
3600.407571,-8364.327145,1110.308913,766.095498
3600.407901,-7772.162391,1480.411884,1532.190996
3600.408231,-8512.368333,1776.494261,153.219100
3600.408561,-9474.636058,1998.556043,-1455.581446
3600.408891,-10584.944971,1776.494261,-1455.581446
3600.409221,-11325.150913,1702.473667,0.000000
3600.409551,-11695.253884,1036.288319,2528.115143
3600.409881,-10955.047942,222.061783,4060.306139
3600.410211,-10362.883188,0.000000,3524.039291
3600.410541,-9844.739029,0.000000,919.314598
3600.410871,-10288.862594,222.061783,-1225.752797
3600.411201,-10066.800811,296.082377,-2604.724693
3600.411532,-9844.739029,222.061783,-1608.800546
3600.411862,-9178.553681,444.123565,0.000000
3600.412192,-9252.574275,222.061783,612.876398
3600.412522,-9178.553681,0.000000,306.438199
3600.412852,-9104.533087,-222.061783,-995.924147
3600.413182,-8734.430116,-740.205942,-1302.362347
3600.413512,-9030.512492,-740.205942,-459.657299
3600.413842,-10214.842000,-814.226536,2451.505594
3600.414172,-11029.068536,-444.123565,4366.744339
3600.414502,-11251.130318,-444.123565,3983.696590
3600.414832,-11103.089130,-740.205942,2145.067394
3600.415162,-11325.150913,-888.247130,-766.095498
3600.415492,-10436.903782,-740.205942,-2451.505594
3600.415822,-9622.677246,-1184.329507,-1838.629195
3600.416153,-8808.450710,-1110.308913,-383.047749
3600.416483,-7624.121203,-888.247130,612.876398
3600.416813,-7994.224174,-888.247130,766.095498
3600.417143,-8734.430116,-592.164754,76.609550
3600.417473,-9622.677246,-444.123565,-689.485948
3600.417803,-9918.759623,-444.123565,-689.485948
3600.418133,-11029.068536,-888.247130,1225.752797
3600.418463,-11325.150913,-962.267725,3294.210641
3600.418793,-10881.027347,-1406.391290,4366.744339
3600.419123,-9992.780217,-1332.370696,2987.772442
3600.419453,-10066.800811,-740.205942,383.047749
3600.419783,-9918.759623,-222.061783,-2068.457845
3600.420113,-9844.739029,-222.061783,-3140.991542
3600.420443,-9474.636058,-222.061783,-2451.505594
3600.420773,-8734.430116,-370.102971,-689.485948
3600.421104,-8734.430116,-814.226536,76.609550
3600.421434,-8364.327145,-1184.329507,76.609550
3600.421764,-8734.430116,-1110.308913,-919.314598
3600.422094,-8438.347739,-1628.453072,-1149.143247
3600.422424,-9178.553681,-1184.329507,0.000000
3600.422754,-9992.780217,-962.267725,2604.724693
3600.423084,-10732.986159,-740.205942,4136.915689
3600.423414,-10955.047942,-370.102971,2681.334243
3600.423744,-10881.027347,0.000000,1149.143247
3600.424074,-10955.047942,0.000000,-2068.457845
3600.424404,-10510.924376,0.000000,-3524.039291
3600.424734,-9844.739029,-370.102971,-2987.772442
3600.425064,-8290.306550,-370.102971,-1838.629195
3600.425394,-7920.203579,-592.164754,459.657299
3600.425725,-8142.265362,0.000000,229.828649
3600.426055,-8660.409521,296.082377,-153.219100
3600.426385,-9400.615463,592.164754,-1378.971896
3600.426715,-10362.883188,296.082377,-536.266849
3600.427045,-11473.192101,296.082377,1838.629195
3600.427375,-11917.315666,296.082377,3677.258390
3600.427705,-11251.130318,222.061783,3677.258390
3600.428035,-10288.862594,74.020594,2681.334243
3600.428365,-10140.821405,444.123565,76.609550
3600.428695,-10510.924376,888.247130,-2374.896044
3600.429025,-9918.759623,740.205942,-2681.334243
3600.429355,-9326.594869,888.247130,-1915.238745
3600.429685,-8734.430116,888.247130,0.000000
3600.430015,-8364.327145,592.164754,612.876398
3600.430346,-8364.327145,740.205942,76.609550
3600.430676,-8586.388927,1110.308913,-1455.581446
3600.431006,-8808.450710,370.102971,-612.876398
3600.431336,-9548.656652,740.205942,842.705048
3600.431666,-10732.986159,666.185348,3064.381992
3600.431996,-11251.130318,1406.391290,3753.867940
3600.432326,-11103.089130,1184.329507,3217.601092
3600.432656,-10881.027347,1258.350101,919.314598
3600.432986,-10955.047942,1184.329507,-1685.410096
3600.433316,-10436.903782,888.247130,-2834.553343
3600.433646,-9474.636058,518.144159,-1991.848295
3600.433976,-8068.244768,1110.308913,0.000000
3600.434306,-7698.141797,888.247130,1225.752797
3600.434636,-8290.306550,1258.350101,383.047749
3600.434967,-8660.409521,1480.411884,-995.924147
3600.435297,-9474.636058,1406.391290,-1762.019645
3600.435627,-10288.862594,1110.308913,-689.485948
3600.435957,-11473.192101,962.267725,1762.019645
3600.436287,-11399.171507,740.205942,3524.039291
3600.436617,-11029.068536,222.061783,4213.525239
3600.436947,-9844.739029,0.000000,2374.896044
3600.437277,-9844.739029,148.041188,-536.266849
3600.437607,-10066.800811,1184.329507,-2068.457845
3600.437937,-10214.842000,518.144159,-2374.896044
3600.438267,-9252.574275,444.123565,-1532.190996
3600.438597,-8808.450710,370.102971,-383.047749
3600.438927,-8734.430116,0.000000,0.000000
3600.439257,-8734.430116,-74.020594,-689.485948
3600.439588,-8586.388927,-370.102971,-1378.971896
3600.439918,-8956.491898,-888.247130,-995.924147
3600.440248,-9474.636058,-962.267725,1072.533697
3600.440578,-10881.027347,-370.102971,3064.381992
3600.440908,-11029.068536,-666.185348,4060.306139
3600.441238,-11029.068536,-592.164754,3064.381992
3600.441568,-11103.089130,-666.185348,459.657299
3600.441898,-10732.986159,-814.226536,-3064.381992
3600.442228,-9918.759623,-1184.329507,-2604.724693
3600.442558,-9030.512492,-1406.391290,-1532.190996
3600.442888,-7550.100608,-1406.391290,0.000000
3600.443218,-7402.059420,-1332.370696,689.485948
3600.443548,-8216.285956,-740.205942,153.219100
3600.443878,-8808.450710,-444.123565,-1072.533697
3600.444209,-9548.656652,-814.226536,-766.095498
3600.444539,-10436.903782,-666.185348,0.000000
3600.444869,-10881.027347,-518.144159,2068.457845
3600.445199,-11843.295072,-962.267725,3907.087040
3600.445529,-11103.089130,-1110.308913,3677.258390
3600.445859,-10510.924376,-814.226536,1608.800546
3600.446189,-10214.842000,-370.102971,-1378.971896
3600.446519,-10140.821405,148.041188,-1991.848295
3600.446849,-10214.842000,-222.061783,-2451.505594
3600.447179,-9548.656652,0.000000,-1532.190996
3600.447509,-8660.409521,222.061783,0.000000
3600.447839,-8956.491898,-296.082377,229.828649
3600.448169,-9104.533087,-370.102971,-383.047749
3600.448499,-9252.574275,-518.144159,-689.485948
3600.448830,-9326.594869,-444.123565,0.000000
3600.449160,-10214.842000,0.000000,1225.752797
3600.449490,-11325.150913,148.041188,3447.429741
3600.449820,-11547.212695,222.061783,3524.039291
3600.450150,-11325.150913,444.123565,2221.676944
3600.450480,-10955.047942,444.123565,-1225.752797
3600.450810,-10362.883188,222.061783,-2834.553343
3600.451140,-9400.615463,-444.123565,-3064.381992
3600.451470,-8364.327145,-444.123565,-1608.800546
3600.451800,-7402.059420,-74.020594,612.876398
3600.452130,-7624.121203,296.082377,689.485948
3600.452460,-8068.244768,666.185348,153.219100
3600.452790,-8882.471304,740.205942,-1455.581446
3600.453120,-9918.759623,444.123565,-995.924147
3600.453451,-10955.047942,518.144159,0.000000
3600.453781,-11251.130318,0.000000,2068.457845
3600.454111,-10510.924376,-370.102971,3524.039291
3600.454441,-9844.739029,-444.123565,3064.381992
3600.454771,-9696.697840,74.020594,842.705048
3600.455101,-9918.759623,592.164754,-1915.238745
3600.455431,-9696.697840,1258.350101,-3524.039291
3600.455761,-9474.636058,1406.391290,-3140.991542
3600.456091,-9326.594869,1628.453072,-1072.533697
3600.456421,-9178.553681,1036.288319,0.000000
3600.456751,-8956.491898,740.205942,76.609550
3600.457081,-8882.471304,370.102971,-919.314598
3600.457411,-9326.594869,296.082377,-1685.410096
3600.457741,-9622.677246,222.061783,-766.095498
3600.458072,-10362.883188,592.164754,1225.752797
3600.458402,-11177.109724,444.123565,3370.820191
3600.458732,-11251.130318,444.123565,3983.696590
3600.459062,-11251.130318,888.247130,2451.505594
3600.459392,-11251.130318,444.123565,-306.438199
3600.459722,-10658.965565,444.123565,-2451.505594
3600.460052,-9992.780217,-148.041188,-2374.896044
3600.460382,-8882.471304,148.041188,-383.047749
3600.460712,-7994.224174,74.020594,842.705048
3600.461042,-8216.285956,148.041188,1455.581446
3600.461372,-8660.409521,666.185348,306.438199
3600.461702,-9474.636058,888.247130,-766.095498
3600.462032,-9992.780217,74.020594,-1072.533697
3600.462362,-11177.109724,74.020594,842.705048
3600.462693,-11251.130318,-296.082377,3140.991542
3600.463023,-10807.006753,-888.247130,4366.744339
3600.463353,-9770.718434,-666.185348,3294.210641
3600.463683,-9918.759623,-444.123565,919.314598
3600.464013,-10066.800811,-148.041188,-1762.019645
3600.464343,-10436.903782,296.082377,-2681.334243
3600.464673,-9918.759623,444.123565,-2221.676944
3600.465003,-8586.388927,74.020594,-153.219100
3600.465333,-8808.450710,0.000000,689.485948
3600.465663,-8882.471304,-370.102971,229.828649
3600.465993,-8660.409521,-444.123565,-689.485948
3600.466323,-8438.347739,-666.185348,-1225.752797
3600.466653,-9474.636058,-518.144159,76.609550
3600.466983,-10807.006753,-222.061783,2068.457845
3600.467313,-11695.253884,74.020594,4136.915689
3600.467644,-11473.192101,148.041188,3294.210641
3600.467974,-11177.109724,222.061783,1149.143247
3600.468304,-11251.130318,148.041188,-1762.019645
3600.468634,-10140.821405,0.000000,-2987.772442
3600.468964,-9326.594869,-592.164754,-1991.848295
3600.469294,-8068.244768,-740.205942,0.000000
3600.469624,-7402.059420,-518.144159,1225.752797
3600.469954,-7772.162391,0.000000,1149.143247
3600.470284,-9030.512492,1036.288319,306.438199
3600.470614,-10214.842000,666.185348,-1072.533697
3600.470944,-10658.965565,666.185348,-459.657299
3600.471273,-11325.150913,370.102971,1149.143247
3600.471603,-11473.192101,-74.020594,3600.648841
3600.471933,-11029.068536,-444.123565,4749.792088
3600.472263,-10214.842000,-148.041188,2681.334243
3600.472593,-9770.718434,0.000000,0.000000
3600.472923,-9918.759623,296.082377,-2451.505594
3600.473253,-9918.759623,296.082377,-2145.067394
3600.473583,-9178.553681,370.102971,-1072.533697
3600.473913,-8586.388927,666.185348,536.266849
3600.474243,-8512.368333,444.123565,842.705048
3600.474572,-8438.347739,296.082377,229.828649
3600.474902,-8882.471304,0.000000,-1225.752797
3600.475232,-9104.533087,-222.061783,-1378.971896
3600.475562,-9844.739029,0.000000,842.705048
3600.475892,-10955.047942,0.000000,2757.943793
3600.476222,-11325.150913,74.020594,4213.525239
3600.476552,-10955.047942,370.102971,2834.553343
3600.476882,-10732.986159,222.061783,306.438199
3600.477212,-10436.903782,370.102971,-2451.505594
3600.477542,-10288.862594,370.102971,-3140.991542
3600.477872,-9474.636058,0.000000,-2068.457845
3600.478201,-8068.244768,0.000000,-153.219100
3600.478531,-7624.121203,0.000000,842.705048
3600.478861,-8068.244768,518.144159,153.219100
3600.479191,-9178.553681,666.185348,-1302.362347
3600.479521,-9992.780217,296.082377,-1991.848295
3600.479851,-11029.068536,148.041188,-842.705048
3600.480181,-11399.171507,222.061783,2145.067394
3600.480511,-11399.171507,-518.144159,3217.601092
3600.480841,-10658.965565,-296.082377,3600.648841
3600.481171,-9696.697840,-370.102971,1838.629195
3600.481500,-9992.780217,0.000000,-1072.533697
3600.481830,-9844.739029,148.041188,-2681.334243
3600.482160,-9696.697840,148.041188,-2374.896044
3600.482490,-9400.615463,222.061783,-766.095498
3600.482820,-9030.512492,0.000000,153.219100
3600.483150,-8586.388927,-370.102971,383.047749
3600.483480,-8586.388927,-592.164754,-459.657299
3600.483810,-8808.450710,-518.144159,-459.657299
3600.484140,-9178.553681,-518.144159,229.828649
3600.484470,-9918.759623,0.000000,1838.629195
3600.484799,-10510.924376,-518.144159,3140.991542
3600.485129,-11251.130318,0.000000,3600.648841
3600.485459,-11399.171507,592.164754,2374.896044
3600.485789,-10881.027347,592.164754,-306.438199
3600.486119,-10214.842000,0.000000,-2681.334243
3600.486449,-9326.594869,-370.102971,-3294.210641
3600.486779,-8734.430116,-666.185348,-1608.800546
3600.487109,-7772.162391,-444.123565,459.657299
3600.487439,-7846.182985,0.000000,1532.190996
3600.487769,-8660.409521,370.102971,689.485948
3600.488099,-9474.636058,740.205942,-383.047749
3600.488428,-10436.903782,444.123565,-689.485948
3600.488758,-10807.006753,370.102971,1225.752797
3600.489088,-11695.253884,296.082377,2681.334243
3600.489418,-11621.233289,0.000000,3677.258390
3600.489748,-10510.924376,-370.102971,3064.381992
3600.490078,-9696.697840,0.000000,1378.971896
3600.490408,-9770.718434,518.144159,-1378.971896
3600.490738,-9770.718434,740.205942,-2911.162892
3600.491068,-9770.718434,666.185348,-2451.505594
3600.491398,-9030.512492,666.185348,-919.314598
3600.491727,-8882.471304,148.041188,842.705048
3600.492057,-9178.553681,74.020594,1149.143247
3600.492387,-9178.553681,-296.082377,229.828649
3600.492717,-8882.471304,-444.123565,-536.266849
3600.493047,-8882.471304,-444.123565,-76.609550
3600.493377,-10214.842000,0.000000,2068.457845
3600.493707,-10881.027347,74.020594,3677.258390
3600.494037,-11251.130318,518.144159,3983.696590
3600.494367,-10658.965565,370.102971,1762.019645
3600.494697,-11251.130318,518.144159,-995.924147
3600.495026,-10362.883188,370.102971,-3524.039291
3600.495356,-9622.677246,0.000000,-3217.601092
3600.495686,-8956.491898,-518.144159,-1608.800546
3600.496016,-7550.100608,-444.123565,612.876398
3600.496346,-7476.080014,-296.082377,1225.752797
3600.496676,-8586.388927,148.041188,459.657299
3600.497006,-9474.636058,296.082377,-995.924147
3600.497336,-10436.903782,222.061783,-689.485948
3600.497666,-11029.068536,444.123565,919.314598
3600.497996,-11473.192101,-444.123565,2987.772442
3600.498326,-11251.130318,-518.144159,3447.429741
3600.498655,-10436.903782,-370.102971,3140.991542
3600.498985,-9918.759623,-370.102971,0.000000
3600.499315,-9770.718434,0.000000,-2068.457845
3600.499645,-9770.718434,74.020594,-3370.820191
3600.499975,-9178.553681,370.102971,-2298.286494
3600.500305,-8808.450710,0.000000,-689.485948
3600.500635,-8808.450710,74.020594,612.876398
3600.500965,-9326.594869,0.000000,153.219100
3600.501295,-9474.636058,0.000000,-153.219100
3600.501625,-9770.718434,-370.102971,-689.485948
3600.501954,-9844.739029,-370.102971,153.219100
3600.502284,-10584.944971,-518.144159,2221.676944
3600.502614,-11029.068536,-518.144159,3830.477490
3600.502944,-11029.068536,-592.164754,3447.429741
3600.503274,-10881.027347,0.000000,1072.533697
3600.503604,-10436.903782,0.000000,-1302.362347
3600.503934,-9992.780217,0.000000,-2604.724693
3600.504264,-9178.553681,-222.061783,-2221.676944
3600.504594,-8438.347739,-444.123565,-612.876398
3600.504924,-7698.141797,-444.123565,842.705048
3600.505253,-7846.182985,0.000000,919.314598
3600.505583,-8660.409521,74.020594,0.000000
3600.505913,-9548.656652,296.082377,-995.924147
3600.506243,-10436.903782,148.041188,-766.095498
3600.506573,-11325.150913,444.123565,1455.581446
3600.506903,-11621.233289,0.000000,2834.553343
3600.507233,-10807.006753,-370.102971,3983.696590
3600.507563,-10214.842000,0.000000,2451.505594
3600.507893,-9548.656652,0.000000,306.438199
3600.508223,-9844.739029,444.123565,-2145.067394
3600.508553,-9548.656652,518.144159,-2911.162892
3600.508882,-9474.636058,370.102971,-2528.115143
3600.509212,-8808.450710,518.144159,-766.095498
3600.509542,-9030.512492,148.041188,842.705048
3600.509872,-9252.574275,74.020594,612.876398
3600.510202,-9252.574275,148.041188,-306.438199
3600.510532,-9252.574275,-222.061783,-612.876398
3600.510862,-9844.739029,0.000000,766.095498
3600.511192,-10881.027347,222.061783,2451.505594
3600.511522,-11177.109724,74.020594,3907.087040
3600.511852,-11399.171507,666.185348,2987.772442
3600.512181,-11029.068536,666.185348,612.876398
3600.512511,-10436.903782,296.082377,-1991.848295
3600.512841,-10066.800811,0.000000,-2834.553343
3600.513171,-9104.533087,-148.041188,-1915.238745
3600.513501,-7846.182985,0.000000,0.000000
3600.513831,-7624.121203,0.000000,1302.362347
3600.514161,-8216.285956,0.000000,1149.143247
3600.514491,-8956.491898,296.082377,229.828649
3600.514821,-9622.677246,370.102971,-536.266849
3600.515151,-10510.924376,148.041188,0.000000
3600.515480,-11029.068536,148.041188,2145.067394
3600.515810,-11029.068536,-222.061783,3983.696590
3600.516140,-10584.944971,0.000000,4213.525239
3600.516470,-9770.718434,222.061783,2221.676944
3600.516800,-9696.697840,518.144159,-383.047749
3600.517130,-9918.759623,814.226536,-2834.553343
3600.517460,-10140.821405,888.247130,-2681.334243
3600.517790,-9474.636058,740.205942,-1838.629195
3600.518120,-8808.450710,814.226536,-459.657299
3600.518450,-8956.491898,0.000000,459.657299
3600.518780,-9178.553681,222.061783,153.219100
3600.519109,-9474.636058,444.123565,-919.314598
3600.519439,-9326.594869,222.061783,-766.095498
3600.519769,-10066.800811,444.123565,1455.581446
3600.520099,-11325.150913,518.144159,3447.429741
3600.520429,-11769.274478,592.164754,4290.134789
3600.520759,-11473.192101,592.164754,2911.162892
3600.521089,-10807.006753,740.205942,0.000000
3600.521419,-10955.047942,740.205942,-2221.676944
3600.521749,-9918.759623,148.041188,-2451.505594
3600.522079,-9104.533087,74.020594,-1455.581446
3600.522408,-7920.203579,148.041188,0.000000
3600.522738,-7994.224174,592.164754,1378.971896
3600.523068,-8660.409521,444.123565,459.657299
3600.523398,-9474.636058,740.205942,-612.876398
3600.523728,-10066.800811,666.185348,-1532.190996
3600.524058,-10658.965565,74.020594,-306.438199
3600.524388,-11029.068536,148.041188,1838.629195
3600.524718,-11103.089130,-518.144159,3217.601092
3600.525048,-10214.842000,-518.144159,3140.991542
3600.525378,-9548.656652,-296.082377,1302.362347
3600.525708,-9622.677246,0.000000,-1225.752797
3600.526037,-9548.656652,222.061783,-2681.334243
3600.526367,-9622.677246,222.061783,-2681.334243
3600.526697,-8956.491898,370.102971,-1149.143247
3600.527027,-8438.347739,0.000000,0.000000
3600.527357,-8882.471304,-74.020594,153.219100
3600.527687,-8808.450710,-444.123565,0.000000
3600.528017,-8808.450710,-592.164754,-689.485948
3600.528347,-9030.512492,-888.247130,459.657299
3600.528677,-10214.842000,-296.082377,1608.800546
3600.529007,-11399.171507,-222.061783,3140.991542
3600.529336,-11473.192101,0.000000,3370.820191
3600.529666,-10955.047942,0.000000,1991.848295
3600.529996,-10436.903782,-296.082377,-306.438199
3600.530326,-10214.842000,-148.041188,-2604.724693
3600.530656,-9696.697840,-592.164754,-2911.162892
3600.530986,-8956.491898,-740.205942,-1685.410096
3600.531316,-8216.285956,-370.102971,76.609550
3600.531646,-7994.224174,-370.102971,459.657299
3600.531976,-8512.368333,-222.061783,229.828649
3600.532306,-9770.718434,74.020594,-842.705048
3600.532635,-10288.862594,0.000000,-306.438199
3600.532965,-10955.047942,-296.082377,612.876398
3600.533295,-11473.192101,-740.205942,2068.457845
3600.533625,-11103.089130,-666.185348,3524.039291
3600.533955,-10140.821405,-370.102971,3983.696590
3600.534285,-9992.780217,-296.082377,1532.190996
3600.534615,-9992.780217,0.000000,-1225.752797
3600.534945,-9844.739029,296.082377,-2604.724693
3600.535275,-9400.615463,222.061783,-2298.286494
3600.535605,-9178.553681,592.164754,-919.314598
3600.535935,-8956.491898,148.041188,766.095498
3600.536264,-9030.512492,0.000000,1072.533697
3600.536594,-9030.512492,-296.082377,76.609550
3600.536924,-9252.574275,74.020594,-766.095498
3600.537254,-9474.636058,-222.061783,0.000000
3600.537584,-10584.944971,0.000000,1838.629195
3600.537914,-11251.130318,74.020594,3140.991542
3600.538244,-11103.089130,0.000000,3447.429741
3600.538574,-10955.047942,592.164754,1608.800546
3600.538904,-10658.965565,296.082377,-689.485948
3600.539234,-10362.883188,370.102971,-2681.334243
3600.539563,-9474.636058,-148.041188,-2221.676944
3600.539893,-8882.471304,0.000000,-919.314598
3600.540223,-8068.244768,74.020594,766.095498
3600.540553,-8068.244768,0.000000,1149.143247
3600.540883,-9030.512492,518.144159,153.219100
3600.541213,-9918.759623,444.123565,-612.876398
3600.541543,-10140.821405,296.082377,-1225.752797
3600.541873,-10807.006753,148.041188,536.266849
3600.542203,-10955.047942,0.000000,2068.457845
3600.542533,-10732.986159,-148.041188,3753.867940
3600.542862,-9992.780217,0.000000,2681.334243
3600.543192,-9696.697840,74.020594,306.438199
3600.543522,-9696.697840,518.144159,-1915.238745
3600.543852,-9548.656652,518.144159,-2834.553343
3600.544182,-9548.656652,296.082377,-1915.238745
3600.544512,-9178.553681,518.144159,-766.095498
3600.544842,-8808.450710,222.061783,306.438199
3600.545172,-9030.512492,74.020594,306.438199
3600.545502,-9252.574275,0.000000,-383.047749
3600.545832,-8808.450710,-370.102971,-1225.752797
3600.546162,-9178.553681,-296.082377,-459.657299
3600.546491,-10362.883188,74.020594,1991.848295
3600.546821,-10807.006753,0.000000,3370.820191
3600.547151,-11103.089130,296.082377,2681.334243
3600.547481,-10881.027347,222.061783,919.314598
3600.547811,-10658.965565,296.082377,-1378.971896
3600.548141,-10140.821405,296.082377,-2221.676944
3600.548471,-9474.636058,-296.082377,-2298.286494
3600.548801,-8512.368333,-296.082377,-1072.533697
3600.549131,-7994.224174,-444.123565,995.924147
3600.549461,-8364.327145,74.020594,995.924147
3600.549790,-8956.491898,296.082377,76.609550
3600.550120,-9696.697840,222.061783,-842.705048
3600.550450,-10436.903782,0.000000,-766.095498
3600.550780,-11177.109724,0.000000,1072.533697
3600.551110,-11325.150913,0.000000,3064.381992
3600.551440,-10955.047942,-296.082377,4060.306139
3600.551770,-10288.862594,0.000000,2451.505594
3600.552100,-9918.759623,0.000000,383.047749
3600.552430,-10584.944971,666.185348,-1302.362347
3600.552760,-10288.862594,444.123565,-2528.115143
3600.553089,-10140.821405,74.020594,-1762.019645
3600.553419,-9400.615463,148.041188,0.000000
3600.553749,-8956.491898,-444.123565,919.314598
3600.554079,-9104.533087,-518.144159,689.485948
3600.554409,-9030.512492,-740.205942,153.219100
3600.554739,-8882.471304,-740.205942,-459.657299
3600.555069,-9474.636058,-740.205942,459.657299
3600.555399,-10732.986159,0.000000,2528.115143
3600.555729,-11325.150913,0.000000,3600.648841
3600.556059,-11103.089130,74.020594,3140.991542
3600.556389,-10510.924376,0.000000,766.095498
3600.556718,-10732.986159,222.061783,-1378.971896
3600.557048,-9918.759623,-296.082377,-3140.991542
3600.557378,-9030.512492,-518.144159,-1991.848295
3600.557708,-8068.244768,-370.102971,-306.438199
3600.558038,-7920.203579,-296.082377,995.924147
3600.558368,-8512.368333,0.000000,612.876398
3600.558698,-8956.491898,148.041188,-842.705048
3600.559028,-9696.697840,74.020594,-1685.410096
3600.559358,-10214.842000,148.041188,-995.924147
3600.559688,-11325.150913,370.102971,1225.752797
3600.560017,-11103.089130,-296.082377,3140.991542
3600.560347,-10510.924376,-296.082377,3830.477490
3600.560677,-9548.656652,0.000000,2374.896044
3600.561007,-10140.821405,888.247130,229.828649
3600.561337,-10362.883188,592.164754,-2068.457845
3600.561667,-9992.780217,518.144159,-2374.896044
3600.561997,-9548.656652,444.123565,-766.095498
3600.562327,-8882.471304,370.102971,842.705048
3600.562657,-8734.430116,148.041188,1378.971896
3600.562987,-8882.471304,0.000000,0.000000
3600.563316,-8808.450710,0.000000,-995.924147
3600.563646,-8882.471304,-296.082377,-919.314598
3600.563976,-9918.759623,370.102971,612.876398
3600.564306,-10955.047942,518.144159,2604.724693
3600.564636,-11473.192101,296.082377,3447.429741
3600.564966,-11103.089130,740.205942,2604.724693
3600.565296,-11029.068536,518.144159,76.609550
3600.565626,-10584.944971,74.020594,-1915.238745
3600.565956,-9918.759623,222.061783,-2374.896044
3600.566286,-9178.553681,-74.020594,-1838.629195
3600.566616,-8364.327145,-74.020594,842.705048
3600.566945,-8216.285956,-222.061783,1532.190996
3600.567275,-8586.388927,74.020594,612.876398
3600.567605,-9104.533087,518.144159,-153.219100
3600.567935,-9918.759623,518.144159,-919.314598
3600.568265,-10658.965565,296.082377,-306.438199
3600.568595,-11325.150913,74.020594,1608.800546
3600.568925,-11029.068536,-370.102971,3064.381992
3600.569255,-10436.903782,-296.082377,3064.381992
3600.569584,-9844.739029,74.020594,1685.410096
3600.569914,-9622.677246,222.061783,-919.314598
3600.570244,-9918.759623,666.185348,-2451.505594
3600.570574,-10288.862594,592.164754,-2221.676944
3600.570903,-9622.677246,1110.308913,-689.485948
3600.571233,-8956.491898,444.123565,229.828649
3600.571563,-8956.491898,222.061783,383.047749
3600.571893,-8808.450710,0.000000,-306.438199
3600.572223,-8882.471304,0.000000,-612.876398
3600.572552,-9252.574275,-222.061783,-766.095498
3600.572882,-9992.780217,222.061783,1072.533697
3600.573212,-10955.047942,222.061783,3140.991542
3600.573542,-11177.109724,444.123565,3753.867940
3600.573871,-11177.109724,444.123565,2757.943793
3600.574201,-10732.986159,148.041188,153.219100
3600.574531,-10510.924376,0.000000,-2298.286494
3600.574861,-9770.718434,0.000000,-2451.505594
3600.575191,-9030.512492,-518.144159,-995.924147
3600.575520,-8290.306550,-370.102971,229.828649
3600.575850,-8068.244768,-444.123565,1225.752797
3600.576180,-8586.388927,148.041188,536.266849
3600.576510,-9474.636058,370.102971,-536.266849
3600.576839,-9622.677246,0.000000,-1302.362347
3600.577169,-10658.965565,0.000000,0.000000
3600.577499,-11029.068536,-296.082377,2068.457845
3600.577829,-10732.986159,-592.164754,3064.381992
3600.578159,-10510.924376,-592.164754,2987.772442
3600.578488,-9548.656652,-444.123565,1225.752797
3600.578818,-9918.759623,0.000000,-1302.362347
3600.579148,-10288.862594,296.082377,-2451.505594
3600.579478,-9992.780217,444.123565,-1915.238745
3600.579807,-9400.615463,0.000000,-766.095498
3600.580137,-8956.491898,0.000000,612.876398
3600.580467,-9178.553681,0.000000,1072.533697
3600.580797,-8808.450710,518.144159,0.000000
3600.581127,-8882.471304,-296.082377,-995.924147
3600.581456,-9622.677246,0.000000,-536.266849
3600.581786,-10288.862594,222.061783,919.314598
3600.582116,-11399.171507,296.082377,2987.772442
3600.582446,-11103.089130,296.082377,3524.039291
3600.582775,-10658.965565,592.164754,1685.410096
3600.583105,-11029.068536,444.123565,-689.485948
3600.583435,-10584.944971,74.020594,-2757.943793
3600.583765,-9844.739029,0.000000,-2681.334243
3600.584095,-8808.450710,-370.102971,-1149.143247
3600.584424,-7994.224174,-296.082377,689.485948
3600.584754,-8142.265362,0.000000,995.924147
3600.585084,-8290.306550,444.123565,0.000000
3600.585414,-9252.574275,518.144159,-995.924147
3600.585743,-9918.759623,148.041188,-1225.752797
3600.586073,-10807.006753,222.061783,306.438199
3600.586403,-11325.150913,148.041188,2681.334243
3600.586733,-10658.965565,-296.082377,3447.429741
3600.587063,-10140.821405,-370.102971,2911.162892
3600.587392,-9770.718434,0.000000,1072.533697
3600.587722,-10140.821405,296.082377,-1302.362347
3600.588052,-10214.842000,518.144159,-2528.115143
3600.588382,-9992.780217,518.144159,-2068.457845
3600.588711,-9474.636058,740.205942,-229.828649
3600.589041,-9252.574275,444.123565,459.657299
3600.589371,-8956.491898,148.041188,306.438199
3600.589701,-8956.491898,222.061783,-842.705048
3600.590031,-8660.409521,-222.061783,-1225.752797
3600.590360,-9178.553681,-222.061783,-459.657299
3600.590690,-9992.780217,148.041188,2298.286494
3600.591020,-10658.965565,0.000000,3370.820191
3600.591350,-10955.047942,222.061783,3217.601092
3600.591679,-10955.047942,592.164754,1762.019645
3600.592009,-10807.006753,222.061783,-842.705048
3600.592339,-10436.903782,222.061783,-2298.286494
3600.592669,-9918.759623,0.000000,-2145.067394
3600.592999,-8808.450710,0.000000,-612.876398
3600.593328,-7846.182985,222.061783,612.876398
3600.593658,-8216.285956,0.000000,1302.362347
3600.593988,-8882.471304,666.185348,-766.095498
3600.594318,-9696.697840,592.164754,-1838.629195
3600.594647,-10140.821405,148.041188,-1762.019645
3600.594977,-11103.089130,74.020594,842.705048
3600.595307,-11251.130318,-222.061783,2911.162892
3600.595637,-10732.986159,-592.164754,3983.696590
3600.595967,-10214.842000,-666.185348,3217.601092
3600.596296,-9844.739029,-296.082377,1072.533697
3600.596626,-9992.780217,-222.061783,-1532.190996
3600.596956,-10362.883188,74.020594,-1762.019645
3600.597286,-9918.759623,74.020594,-1072.533697
3600.597615,-9252.574275,74.020594,536.266849
3600.597945,-8660.409521,-370.102971,919.314598
3600.598275,-8586.388927,-370.102971,306.438199
3600.598605,-8512.368333,-518.144159,-842.705048
3600.598935,-8660.409521,-740.205942,-995.924147
3600.599264,-9326.594869,-592.164754,0.000000
3600.599594,-10436.903782,222.061783,1991.848295
3600.599924,-11103.089130,0.000000,3524.039291
3600.600254,-11325.150913,74.020594,3064.381992
3600.600583,-11029.068536,74.020594,1072.533697
3600.600913,-10881.027347,0.000000,-1455.581446
3600.601243,-10288.862594,-296.082377,-2528.115143
3600.601573,-9844.739029,-592.164754,-1608.800546
3600.601903,-8808.450710,-222.061783,229.828649
3600.602232,-8216.285956,-740.205942,1072.533697
3600.602562,-8290.306550,-74.020594,842.705048
3600.602892,-9030.512492,74.020594,-689.485948
3600.603222,-9400.615463,148.041188,-1302.362347
3600.603551,-9992.780217,0.000000,-689.485948
3600.603881,-11029.068536,74.020594,1838.629195
3600.604211,-11399.171507,-148.041188,3294.210641
3600.604541,-10807.006753,-74.020594,3677.258390
3600.604871,-10510.924376,0.000000,2604.724693
3600.605200,-10288.862594,74.020594,-306.438199
3600.605530,-10362.883188,370.102971,-1685.410096
3600.605860,-10436.903782,518.144159,-1762.019645
3600.606190,-9622.677246,592.164754,-612.876398
3600.606519,-9178.553681,592.164754,383.047749
3600.606849,-8734.430116,296.082377,766.095498
3600.607179,-9030.512492,296.082377,76.609550
3600.607509,-8734.430116,148.041188,-842.705048
3600.607839,-9104.533087,0.000000,-689.485948
3600.608168,-9844.739029,666.185348,1072.533697
3600.608498,-10658.965565,740.205942,3140.991542
3600.608828,-11399.171507,666.185348,3753.867940
3600.609158,-11251.130318,1406.391290,2987.772442
3600.609487,-10807.006753,666.185348,0.000000
3600.609817,-10881.027347,370.102971,-1915.238745
3600.610147,-9918.759623,370.102971,-2298.286494
3600.610477,-9474.636058,296.082377,-1149.143247
3600.610807,-7994.224174,222.061783,0.000000
3600.611136,-7920.203579,0.000000,842.705048
3600.611466,-8586.388927,592.164754,306.438199
3600.611796,-9104.533087,740.205942,-766.095498
3600.612126,-9548.656652,592.164754,-1685.410096
3600.612455,-10066.800811,222.061783,-766.095498
3600.612785,-10732.986159,148.041188,1302.362347
3600.613115,-10807.006753,0.000000,3064.381992
3600.613445,-10362.883188,-148.041188,2911.162892
3600.613775,-9696.697840,0.000000,1225.752797
3600.614104,-9844.739029,0.000000,-842.705048
3600.614434,-9844.739029,296.082377,-2374.896044
3600.614764,-10362.883188,592.164754,-1532.190996
3600.615094,-9474.636058,222.061783,-1072.533697
3600.615423,-8956.491898,74.020594,-229.828649
3600.615753,-9030.512492,74.020594,-153.219100
3600.616083,-8438.347739,-296.082377,-536.266849
3600.616413,-8882.471304,-592.164754,-1225.752797
3600.616743,-9178.553681,-296.082377,-995.924147
3600.617072,-9696.697840,-222.061783,919.314598
3600.617402,-10807.006753,-148.041188,2987.772442
3600.617732,-11399.171507,0.000000,3677.258390
3600.618062,-11177.109724,0.000000,2604.724693
3600.618391,-11251.130318,-148.041188,76.609550
3600.618721,-10658.965565,0.000000,-1915.238745
3600.619051,-10362.883188,-444.123565,-1762.019645
3600.619381,-9400.615463,-888.247130,-1149.143247
3600.619711,-8512.368333,-518.144159,153.219100
3600.620040,-8290.306550,-518.144159,842.705048
3600.620370,-8586.388927,0.000000,1072.533697
3600.620700,-9178.553681,222.061783,-766.095498
3600.621030,-9844.739029,0.000000,-1072.533697
3600.621359,-10436.903782,0.000000,76.609550
3600.621689,-11251.130318,0.000000,2374.896044
3600.622019,-11177.109724,-518.144159,3600.648841
3600.622349,-10510.924376,-518.144159,3524.039291
3600.622679,-10066.800811,-148.041188,1838.629195
3600.623008,-10362.883188,0.000000,-383.047749
3600.623338,-10214.842000,296.082377,-1915.238745
3600.623668,-9770.718434,74.020594,-1915.238745
3600.623998,-9400.615463,296.082377,-1072.533697
3600.624327,-8882.471304,148.041188,536.266849
3600.624657,-8882.471304,296.082377,1378.971896
3600.624987,-8586.388927,0.000000,-306.438199
3600.625317,-8734.430116,-370.102971,-1072.533697
3600.625647,-8956.491898,-222.061783,-459.657299
3600.625976,-9770.718434,444.123565,1225.752797
3600.626306,-10881.027347,370.102971,2911.162892
3600.626636,-10881.027347,148.041188,3294.210641
3600.626966,-10955.047942,740.205942,2145.067394
3600.627295,-11325.150913,666.185348,-153.219100
3600.627625,-10584.944971,518.144159,-1991.848295
3600.627955,-9918.759623,222.061783,-2298.286494
3600.628285,-8882.471304,0.000000,-1378.971896
3600.628615,-8068.244768,0.000000,536.266849
3600.628944,-7994.224174,74.020594,1302.362347
3600.629274,-8586.388927,592.164754,153.219100
3600.629604,-9252.574275,962.267725,-919.314598
3600.629934,-10066.800811,666.185348,-1378.971896
3600.630264,-10807.006753,666.185348,-229.828649
3600.630593,-11177.109724,0.000000,2374.896044
3600.630923,-10881.027347,-222.061783,3830.477490
3600.631253,-10362.883188,-296.082377,3217.601092
3600.631583,-10066.800811,-148.041188,1225.752797
3600.631912,-10362.883188,0.000000,-919.314598
3600.632242,-10362.883188,296.082377,-2374.896044
3600.632572,-10140.821405,148.041188,-2068.457845
3600.632902,-9326.594869,222.061783,-842.705048
3600.633232,-9030.512492,222.061783,842.705048
3600.633561,-8956.491898,0.000000,459.657299
3600.633891,-8734.430116,0.000000,-995.924147
3600.634221,-8438.347739,-222.061783,-1608.800546
3600.634551,-8956.491898,0.000000,-306.438199
3600.634880,-10214.842000,-222.061783,995.924147
3600.635210,-10955.047942,-74.020594,2757.943793
3600.635540,-11325.150913,74.020594,3370.820191
3600.635870,-11325.150913,0.000000,2068.457845
3600.636200,-11103.089130,-444.123565,-919.314598
3600.636529,-10658.965565,0.000000,-2604.724693
3600.636859,-10140.821405,-592.164754,-2221.676944
3600.637189,-9104.533087,-814.226536,-536.266849
3600.637519,-8438.347739,-518.144159,1225.752797
3600.637848,-8216.285956,0.000000,1378.971896
3600.638178,-8512.368333,0.000000,0.000000
3600.638508,-9474.636058,370.102971,-1685.410096
3600.638838,-10066.800811,-592.164754,-842.705048
3600.639168,-10584.944971,74.020594,383.047749
3600.639497,-11103.089130,-518.144159,2681.334243
3600.639827,-10658.965565,-592.164754,3830.477490
3600.640157,-10140.821405,-444.123565,2604.724693
3600.640487,-10140.821405,-444.123565,689.485948
3600.640816,-10288.862594,0.000000,-1915.238745
3600.641146,-10510.924376,370.102971,-1915.238745
3600.641476,-9770.718434,0.000000,-1532.190996
3600.641806,-9178.553681,0.000000,459.657299
3600.642136,-8438.347739,0.000000,995.924147
3600.642465,-8660.409521,-370.102971,612.876398
3600.642795,-8364.327145,-148.041188,-689.485948
3600.643125,-8808.450710,-222.061783,-766.095498
3600.643455,-9326.594869,0.000000,383.047749
3600.643784,-10436.903782,148.041188,2451.505594
3600.644114,-11103.089130,148.041188,3907.087040
3600.644444,-11251.130318,592.164754,3447.429741
3600.644774,-11251.130318,592.164754,842.705048
3600.645104,-10658.965565,222.061783,-1838.629195
3600.645433,-10140.821405,0.000000,-2451.505594
3600.645763,-9178.553681,-296.082377,-1608.800546
3600.646093,-8512.368333,-74.020594,459.657299
3600.646423,-7994.224174,0.000000,1455.581446
3600.646752,-8364.327145,222.061783,995.924147
3600.647082,-8882.471304,666.185348,-766.095498
3600.647412,-9696.697840,740.205942,-1532.190996
3600.647742,-10362.883188,592.164754,-76.609550
3600.648072,-10955.047942,296.082377,1608.800546
3600.648401,-11177.109724,0.000000,3370.820191
3600.648731,-10584.944971,0.000000,3600.648841
3600.649061,-9992.780217,0.000000,2451.505594
3600.649391,-10214.842000,222.061783,76.609550
3600.649720,-9918.759623,444.123565,-1762.019645
3600.650050,-9918.759623,370.102971,-2221.676944
3600.650380,-9252.574275,370.102971,-1532.190996
3600.650710,-9104.533087,148.041188,76.609550
3600.651040,-8734.430116,444.123565,766.095498
3600.651369,-8660.409521,296.082377,76.609550
3600.651699,-8882.471304,222.061783,-919.314598
3600.652029,-8882.471304,0.000000,-612.876398
3600.652359,-9622.677246,222.061783,536.266849
3600.652688,-11103.089130,444.123565,3217.601092
3600.653018,-11547.212695,592.164754,3830.477490
3600.653348,-11177.109724,740.205942,3217.601092
3600.653678,-10955.047942,222.061783,76.609550
3600.654008,-10732.986159,666.185348,-2221.676944
3600.654337,-10288.862594,222.061783,-2681.334243
3600.654667,-9474.636058,0.000000,-1915.238745
3600.654997,-8586.388927,370.102971,0.000000
3600.655327,-8216.285956,148.041188,1149.143247
3600.655656,-8660.409521,148.041188,383.047749
3600.655986,-9326.594869,666.185348,-995.924147
3600.656316,-9918.759623,370.102971,-1378.971896
3600.656646,-10658.965565,148.041188,0.000000
3600.656976,-11547.212695,74.020594,1915.238745
3600.657305,-11325.150913,0.000000,3677.258390
3600.657635,-10584.944971,0.000000,3983.696590
3600.657965,-10066.800811,0.000000,1532.190996
3600.658295,-10140.821405,0.000000,-612.876398
3600.658624,-10214.842000,592.164754,-2221.676944
3600.658954,-9992.780217,222.061783,-2374.896044
3600.659284,-9326.594869,370.102971,-1302.362347
3600.659614,-8586.388927,148.041188,-612.876398
3600.659944,-8660.409521,-370.102971,0.000000
3600.660273,-8660.409521,-148.041188,0.000000
3600.660603,-9030.512492,-296.082377,-766.095498
3600.660933,-8808.450710,-518.144159,-383.047749
3600.661263,-9770.718434,0.000000,995.924147
3600.661592,-10807.006753,-74.020594,2757.943793
3600.661922,-11473.192101,296.082377,4290.134789
3600.662252,-11325.150913,0.000000,2528.115143
3600.662582,-10807.006753,-222.061783,0.000000
3600.662912,-10584.944971,0.000000,-2374.896044
3600.663241,-9844.739029,-370.102971,-2681.334243
3600.663571,-9104.533087,-888.247130,-1685.410096
3600.663901,-7994.224174,-666.185348,-383.047749
3600.664231,-7994.224174,-444.123565,459.657299
3600.664560,-7994.224174,-666.185348,153.219100
3600.664890,-8808.450710,0.000000,-536.266849
3600.665220,-9622.677246,-296.082377,-612.876398
3600.665550,-11029.068536,148.041188,229.828649
3600.665880,-11473.192101,-518.144159,2298.286494
3600.666209,-11843.295072,-444.123565,3677.258390
3600.666539,-10510.924376,-740.205942,3447.429741
3600.666869,-9992.780217,-370.102971,1378.971896
3600.667199,-10288.862594,0.000000,-919.314598
3600.667528,-10214.842000,296.082377,-2145.067394
3600.667858,-9770.718434,148.041188,-2757.943793
3600.668188,-9326.594869,222.061783,-1378.971896
3600.668518,-8660.409521,0.000000,229.828649
3600.668848,-8586.388927,-148.041188,995.924147
3600.669177,-9030.512492,0.000000,0.000000
3600.669507,-8956.491898,-296.082377,-612.876398
3600.669837,-9252.574275,-444.123565,153.219100
3600.670167,-10510.924376,74.020594,2068.457845
3600.670496,-11695.253884,370.102971,4060.306139
3600.670826,-11843.295072,518.144159,4443.353888
3600.671156,-11177.109724,740.205942,2451.505594
3600.671486,-11029.068536,444.123565,-153.219100
3600.671816,-10510.924376,518.144159,-1532.190996
3600.672146,-9622.677246,74.020594,-2757.943793
3600.672476,-8808.450710,0.000000,-1838.629195
3600.672806,-7402.059420,0.000000,229.828649
3600.673136,-7772.162391,370.102971,536.266849
3600.673466,-8290.306550,888.247130,459.657299
3600.673795,-9178.553681,962.267725,-842.705048
3600.674125,-10214.842000,518.144159,-1072.533697
3600.674455,-11251.130318,666.185348,919.314598
3600.674785,-11325.150913,-444.123565,2834.553343
3600.675115,-11103.089130,0.000000,3830.477490
3600.675445,-10214.842000,0.000000,2987.772442
3600.675775,-10066.800811,74.020594,612.876398
3600.676105,-9548.656652,222.061783,-2068.457845
3600.676435,-9844.739029,740.205942,-2834.553343
3600.676765,-9252.574275,518.144159,-2834.553343
3600.677095,-8586.388927,518.144159,-1378.971896
3600.677424,-8438.347739,370.102971,229.828649
3600.677754,-8512.368333,0.000000,306.438199
3600.678084,-8734.430116,74.020594,-995.924147
3600.678414,-8956.491898,-148.041188,-995.924147
3600.678744,-9474.636058,-296.082377,0.000000
3600.679074,-10436.903782,-296.082377,2451.505594
3600.679404,-11251.130318,0.000000,3907.087040
3600.679734,-11325.150913,222.061783,3677.258390
3600.680064,-11029.068536,222.061783,1608.800546
3600.680394,-10658.965565,74.020594,-1455.581446
3600.680724,-10288.862594,0.000000,-2757.943793
3600.681053,-9400.615463,-592.164754,-2604.724693
3600.681383,-8142.265362,-370.102971,-1302.362347
3600.681713,-7179.997637,-444.123565,-459.657299
3600.682043,-7550.100608,-296.082377,536.266849
3600.682373,-8586.388927,148.041188,-306.438199
3600.682703,-9844.739029,296.082377,-1302.362347
3600.683033,-10584.944971,74.020594,-459.657299
3600.683363,-11177.109724,0.000000,1378.971896
3600.683693,-11695.253884,-592.164754,3064.381992
3600.684023,-11177.109724,-1036.288319,4060.306139
3600.684352,-10362.883188,-814.226536,2834.553343
3600.684682,-9696.697840,-592.164754,153.219100
3600.685012,-10214.842000,0.000000,-2145.067394
3600.685342,-9844.739029,222.061783,-2681.334243
3600.685672,-9178.553681,148.041188,-2068.457845
3600.686002,-8142.265362,0.000000,-689.485948
3600.686332,-8808.450710,0.000000,766.095498
3600.686662,-9178.553681,0.000000,842.705048
3600.686992,-9252.574275,-222.061783,0.000000
3600.687322,-9326.594869,-666.185348,76.609550
3600.687652,-9844.739029,-518.144159,766.095498
3600.687981,-11029.068536,0.000000,2911.162892
3600.688311,-11621.233289,0.000000,4290.134789
3600.688641,-11399.171507,222.061783,3447.429741
3600.688971,-11103.089130,0.000000,1072.533697
3600.689301,-10584.944971,222.061783,-1838.629195
3600.689631,-9992.780217,0.000000,-2834.553343
3600.689961,-9030.512492,-296.082377,-1915.238745
3600.690291,-7920.203579,-74.020594,-383.047749
3600.690621,-7179.997637,-666.185348,1302.362347
3600.690951,-7994.224174,0.000000,1149.143247
3600.691281,-9178.553681,296.082377,-383.047749
3600.691610,-10066.800811,740.205942,-1072.533697
3600.691940,-10732.986159,370.102971,0.000000
3600.692270,-11843.295072,518.144159,2145.067394
3600.692600,-11621.233289,74.020594,3677.258390
3600.692930,-10955.047942,0.000000,3830.477490
3600.693260,-9770.718434,74.020594,2374.896044
3600.693590,-9992.780217,148.041188,-995.924147
3600.693920,-9992.780217,814.226536,-2757.943793
3600.694250,-9622.677246,666.185348,-2987.772442
3600.694580,-8438.347739,666.185348,-995.924147
3600.694910,-8512.368333,592.164754,306.438199
3600.695239,-8808.450710,592.164754,689.485948
3600.695569,-8882.471304,222.061783,153.219100
3600.695899,-8586.388927,222.061783,-919.314598
3600.696229,-9252.574275,-74.020594,-383.047749
3600.696559,-10140.821405,148.041188,1608.800546
3600.696889,-11325.150913,0.000000,3524.039291
3600.697219,-11473.192101,74.020594,4443.353888
3600.697549,-11103.089130,592.164754,2757.943793
3600.697879,-11177.109724,518.144159,-306.438199
3600.698209,-10807.006753,814.226536,-2374.896044
3600.698539,-9918.759623,518.144159,-2911.162892
3600.698868,-9178.553681,148.041188,-1608.800546
3600.699198,-8068.244768,148.041188,-306.438199
3600.699528,-7772.162391,-370.102971,689.485948
3600.699858,-8364.327145,222.061783,0.000000
3600.700188,-9030.512492,296.082377,-689.485948
3600.700518,-9844.739029,-148.041188,-995.924147
3600.700848,-10214.842000,0.000000,842.705048
3600.701178,-11103.089130,0.000000,2681.334243
3600.701508,-11621.233289,-222.061783,4060.306139
3600.701838,-10955.047942,-296.082377,3370.820191
3600.702168,-10436.903782,0.000000,1455.581446
3600.702497,-10066.800811,0.000000,-1302.362347
3600.702827,-9622.677246,444.123565,-2911.162892
3600.703157,-9178.553681,296.082377,-2451.505594
3600.703487,-8956.491898,74.020594,-1608.800546
3600.703817,-8290.306550,222.061783,-383.047749
3600.704147,-8586.388927,74.020594,0.000000
3600.704477,-8512.368333,296.082377,0.000000
3600.704807,-9252.574275,-296.082377,-536.266849
3600.705137,-9770.718434,0.000000,153.219100
3600.705467,-10732.986159,296.082377,1608.800546
3600.705797,-11325.150913,0.000000,3370.820191
3600.706126,-11399.171507,0.000000,3677.258390
3600.706456,-11177.109724,444.123565,2374.896044
3600.706786,-11029.068536,222.061783,-459.657299
3600.707116,-10658.965565,74.020594,-2374.896044
3600.707446,-9696.697840,-148.041188,-2987.772442
3600.707776,-8956.491898,-444.123565,-1608.800546
3600.708106,-7994.224174,-370.102971,689.485948
3600.708436,-7698.141797,-370.102971,1378.971896
3600.708766,-8438.347739,222.061783,1225.752797
3600.709096,-9104.533087,74.020594,-229.828649
3600.709426,-9918.759623,0.000000,-459.657299
3600.709755,-11029.068536,0.000000,919.314598
3600.710085,-11029.068536,-518.144159,2757.943793
3600.710415,-11251.130318,-740.205942,4213.525239
3600.710745,-10510.924376,-518.144159,3524.039291
3600.711075,-9622.677246,-592.164754,919.314598
3600.711405,-9474.636058,-296.082377,-1378.971896
3600.711735,-9326.594869,0.000000,-2911.162892
3600.712065,-8956.491898,0.000000,-2604.724693
3600.712395,-8660.409521,222.061783,-919.314598
3600.712725,-8216.285956,-370.102971,76.609550
3600.713055,-8364.327145,0.000000,383.047749
3600.713384,-8808.450710,-444.123565,-306.438199
3600.713714,-9030.512492,-370.102971,-1378.971896
3600.714044,-9474.636058,-148.041188,-383.047749
3600.714374,-10066.800811,296.082377,1915.238745
3600.714704,-11399.171507,0.000000,4136.915689
3600.715034,-11399.171507,296.082377,3677.258390
3600.715364,-11251.130318,814.226536,1762.019645
3600.715694,-11325.150913,592.164754,-995.924147
3600.716024,-10658.965565,518.144159,-2987.772442
3600.716354,-9696.697840,0.000000,-2681.334243
3600.716684,-8512.368333,-222.061783,-842.705048
3600.717013,-7994.224174,-74.020594,689.485948
3600.717343,-7846.182985,0.000000,1608.800546
3600.717673,-8956.491898,148.041188,383.047749
3600.718003,-9548.656652,518.144159,-1149.143247
3600.718333,-10214.842000,296.082377,-919.314598
3600.718663,-11251.130318,370.102971,842.705048
3600.718993,-11695.253884,0.000000,2911.162892
3600.719323,-11251.130318,-296.082377,3983.696590
3600.719653,-10584.944971,-296.082377,2528.115143
3600.719983,-9696.697840,-74.020594,-76.609550
3600.720313,-9844.739029,0.000000,-2145.067394
3600.720642,-9696.697840,518.144159,-2834.553343
3600.720972,-9178.553681,74.020594,-2451.505594
3600.721302,-8364.327145,222.061783,-689.485948
3600.721632,-8142.265362,-296.082377,612.876398
3600.721962,-8660.409521,-296.082377,306.438199
3600.722292,-8734.430116,0.000000,-306.438199
3600.722622,-9104.533087,-444.123565,-995.924147
3600.722952,-9474.636058,-370.102971,459.657299
3600.723282,-10658.965565,74.020594,2145.067394
3600.723612,-11103.089130,222.061783,3447.429741
3600.723942,-11399.171507,444.123565,3140.991542
3600.724271,-10436.903782,592.164754,766.095498
3600.724601,-11177.109724,740.205942,-1991.848295
3600.724931,-10436.903782,592.164754,-3140.991542
3600.725261,-9400.615463,0.000000,-2757.943793
3600.725591,-8290.306550,222.061783,-1072.533697
3600.725921,-7698.141797,74.020594,536.266849
3600.726251,-8290.306550,0.000000,1149.143247
3600.726581,-9104.533087,518.144159,536.266849
3600.726911,-9770.718434,592.164754,-306.438199
3600.727241,-10510.924376,0.000000,-459.657299
3600.727571,-11251.130318,148.041188,1302.362347
3600.727900,-11843.295072,0.000000,3447.429741
3600.728230,-11103.089130,-222.061783,3830.477490
3600.728560,-9992.780217,-74.020594,2374.896044
3600.728890,-9844.739029,-222.061783,229.828649
3600.729220,-9770.718434,222.061783,-1991.848295
3600.729550,-9400.615463,222.061783,-2757.943793
3600.729880,-8882.471304,148.041188,-1685.410096
3600.730210,-8586.388927,370.102971,0.000000
3600.730540,-8512.368333,-222.061783,919.314598
3600.730870,-8586.388927,-296.082377,459.657299
3600.731200,-8364.327145,-518.144159,-612.876398
3600.731529,-8660.409521,-1036.288319,-689.485948
3600.731859,-9548.656652,-370.102971,689.485948
3600.732189,-10807.006753,-74.020594,2757.943793
3600.732519,-11547.212695,74.020594,4060.306139
3600.732849,-10881.027347,-148.041188,3524.039291
3600.733179,-10881.027347,0.000000,1072.533697
3600.733509,-10658.965565,0.000000,-1991.848295
3600.733839,-9696.697840,0.000000,-2911.162892
3600.734169,-9030.512492,-740.205942,-2451.505594
3600.734499,-7920.203579,-222.061783,-76.609550
3600.734829,-7624.121203,-148.041188,1149.143247
3600.735158,-8290.306550,222.061783,1072.533697
3600.735488,-9104.533087,740.205942,-612.876398
3600.735818,-10288.862594,666.185348,-1532.190996
3600.736148,-11325.150913,518.144159,-689.485948
3600.736478,-11695.253884,222.061783,1685.410096
3600.736808,-11769.274478,74.020594,3753.867940
3600.737138,-11029.068536,0.000000,3524.039291
3600.737468,-10214.842000,0.000000,1685.410096
3600.737798,-10140.821405,0.000000,-689.485948
3600.738128,-10362.883188,518.144159,-2911.162892
3600.738458,-10140.821405,222.061783,-2145.067394
3600.738787,-9104.533087,222.061783,-1455.581446
3600.739117,-8734.430116,222.061783,229.828649
3600.739447,-8734.430116,-148.041188,842.705048
3600.739777,-8438.347739,-296.082377,0.000000
3600.740107,-8660.409521,-222.061783,-1072.533697
3600.740437,-9326.594869,-518.144159,-459.657299
3600.740767,-9770.718434,0.000000,1532.190996
3600.741097,-10807.006753,74.020594,3830.477490
3600.741427,-11621.233289,444.123565,3907.087040
3600.741757,-11029.068536,592.164754,2681.334243
3600.742087,-11029.068536,666.185348,-76.609550
3600.742416,-10436.903782,370.102971,-2834.553343
3600.742746,-9474.636058,222.061783,-2528.115143
3600.743076,-8882.471304,-222.061783,-1915.238745
3600.743406,-7846.182985,0.000000,153.219100
3600.743736,-7476.080014,0.000000,1149.143247
3600.744066,-8438.347739,518.144159,842.705048
3600.744396,-8808.450710,444.123565,-1072.533697
3600.744726,-9844.739029,222.061783,-1225.752797
3600.745056,-10658.965565,222.061783,76.609550
3600.745386,-11325.150913,0.000000,2451.505594
3600.745716,-11547.212695,-148.041188,3524.039291
3600.746045,-10807.006753,-222.061783,3294.210641
3600.746375,-9992.780217,-296.082377,919.314598
3600.746705,-9770.718434,-148.041188,-1762.019645
3600.747035,-10066.800811,296.082377,-3294.210641
3600.747365,-9548.656652,296.082377,-2451.505594
3600.747695,-9326.594869,518.144159,-842.705048
3600.748025,-8882.471304,222.061783,76.609550
3600.748355,-8956.491898,0.000000,0.000000
3600.748685,-9104.533087,74.020594,-766.095498
3600.749015,-9178.553681,-444.123565,-1302.362347
3600.749345,-9252.574275,-444.123565,-306.438199
3600.749674,-10140.821405,0.000000,1685.410096
3600.750004,-11029.068536,0.000000,3524.039291
3600.750334,-11399.171507,296.082377,3447.429741
3600.750664,-11621.233289,666.185348,1991.848295
3600.750994,-11029.068536,296.082377,-612.876398
3600.751324,-10214.842000,148.041188,-2145.067394
3600.751654,-9548.656652,-370.102971,-2221.676944
3600.751984,-8660.409521,-592.164754,-919.314598
3600.752314,-7772.162391,-370.102971,536.266849
3600.752644,-7772.162391,-148.041188,1608.800546
3600.752974,-8734.430116,148.041188,306.438199
3600.753303,-9252.574275,296.082377,-995.924147
3600.753633,-10436.903782,148.041188,-842.705048
3600.753963,-11177.109724,296.082377,919.314598
3600.754293,-11325.150913,0.000000,2604.724693
3600.754623,-10881.027347,-666.185348,3600.648841
3600.754953,-10362.883188,-370.102971,2757.943793
3600.755283,-10066.800811,-222.061783,1072.533697
3600.755613,-9844.739029,148.041188,-766.095498
3600.755943,-9696.697840,814.226536,-2451.505594
3600.756273,-9474.636058,148.041188,-2298.286494
3600.756603,-9030.512492,444.123565,-919.314598
3600.756932,-8808.450710,0.000000,842.705048
3600.757262,-9030.512492,0.000000,919.314598
3600.757592,-9178.553681,0.000000,0.000000
3600.757922,-9030.512492,-370.102971,-919.314598
3600.758252,-9400.615463,-888.247130,229.828649
3600.758582,-10658.965565,222.061783,2068.457845
3600.758912,-11399.171507,370.102971,3677.258390
3600.759242,-11029.068536,666.185348,3217.601092
3600.759572,-10807.006753,888.247130,1532.190996
3600.759902,-10807.006753,444.123565,-689.485948
3600.760232,-10658.965565,370.102971,-2451.505594
3600.760561,-10066.800811,-74.020594,-2374.896044
3600.760891,-8734.430116,74.020594,-842.705048
3600.761221,-7550.100608,-592.164754,842.705048
3600.761551,-7920.203579,0.000000,1072.533697
3600.761881,-8438.347739,518.144159,0.000000
3600.762211,-9252.574275,740.205942,-766.095498
3600.762541,-10140.821405,222.061783,-306.438199
3600.762871,-11177.109724,666.185348,306.438199
3600.763201,-11843.295072,444.123565,1991.848295
3600.763531,-11177.109724,0.000000,2987.772442
3600.763861,-9918.759623,-222.061783,2451.505594
3600.764190,-9622.677246,-370.102971,383.047749
3600.764520,-9770.718434,296.082377,-1838.629195
3600.764850,-9770.718434,222.061783,-2451.505594
3600.765180,-9474.636058,370.102971,-1991.848295
3600.765510,-9104.533087,74.020594,-76.609550
3600.765840,-8956.491898,0.000000,459.657299
3600.766170,-8808.450710,-370.102971,306.438199
3600.766500,-8956.491898,-296.082377,-229.828649
3600.766830,-9326.594869,-666.185348,-459.657299
3600.767160,-9548.656652,-370.102971,-229.828649
3600.767490,-10436.903782,148.041188,1915.238745
3600.767819,-11177.109724,0.000000,3370.820191
3600.768149,-11177.109724,222.061783,3983.696590
3600.768479,-10881.027347,148.041188,1302.362347
3600.768809,-11103.089130,74.020594,-1225.752797
3600.769139,-10436.903782,0.000000,-2451.505594
3600.769469,-9622.677246,-444.123565,-2145.067394
3600.769799,-8512.368333,-518.144159,-229.828649
3600.770129,-7846.182985,-518.144159,1378.971896
3600.770458,-8290.306550,-222.061783,1532.190996
3600.770788,-8734.430116,0.000000,0.000000
3600.771118,-10066.800811,-518.144159,-1149.143247
3600.771448,-10584.944971,-148.041188,-919.314598
3600.771778,-11103.089130,0.000000,1149.143247
3600.772108,-11029.068536,-740.205942,2757.943793
3600.772437,-10436.903782,-518.144159,4213.525239
3600.772767,-9918.759623,-370.102971,2221.676944
3600.773097,-9844.739029,-592.164754,229.828649
3600.773427,-9918.759623,0.000000,-2145.067394
3600.773757,-9770.718434,148.041188,-2681.334243
3600.774086,-9252.574275,0.000000,-2221.676944
3600.774416,-9030.512492,222.061783,0.000000
3600.774746,-8956.491898,-370.102971,919.314598
3600.775076,-8808.450710,-296.082377,306.438199
3600.775406,-8586.388927,-518.144159,-842.705048
3600.775735,-9178.553681,-740.205942,-995.924147
3600.776065,-9844.739029,-518.144159,689.485948
3600.776395,-10807.006753,0.000000,3064.381992
3600.776725,-11103.089130,222.061783,4213.525239
3600.777055,-11103.089130,444.123565,3217.601092
3600.777384,-11177.109724,370.102971,919.314598
3600.777714,-11029.068536,296.082377,-1532.190996
3600.778044,-10362.883188,148.041188,-2221.676944
3600.778374,-9474.636058,74.020594,-1149.143247
3600.778704,-8364.327145,148.041188,842.705048
3600.779033,-7624.121203,0.000000,1838.629195
3600.779363,-8216.285956,222.061783,1225.752797
3600.779693,-8956.491898,888.247130,-536.266849
3600.780023,-9844.739029,444.123565,-1302.362347
3600.780353,-10584.944971,740.205942,-229.828649
3600.780682,-11251.130318,740.205942,1455.581446
3600.781012,-11399.171507,74.020594,3830.477490
3600.781342,-10584.944971,74.020594,4136.915689
3600.781672,-9696.697840,222.061783,2145.067394
3600.782002,-9844.739029,148.041188,-459.657299
3600.782331,-9622.677246,592.164754,-2451.505594
3600.782661,-9844.739029,814.226536,-2298.286494
3600.782991,-9252.574275,222.061783,-536.266849
3600.783321,-8734.430116,370.102971,153.219100
3600.783651,-8586.388927,0.000000,229.828649
3600.783980,-8734.430116,296.082377,-766.095498
3600.784310,-8142.265362,0.000000,-1532.190996
3600.784640,-9030.512492,-222.061783,-995.924147
3600.784970,-9622.677246,148.041188,766.095498
3600.785300,-10955.047942,962.267725,3064.381992
3600.785630,-11325.150913,814.226536,3524.039291
3600.785959,-11399.171507,1036.288319,2068.457845
3600.786289,-11325.150913,740.205942,-383.047749
3600.786619,-10881.027347,444.123565,-1991.848295
3600.786949,-9992.780217,592.164754,-2374.896044
3600.787279,-9030.512492,0.000000,-1302.362347
3600.787608,-8438.347739,0.000000,0.000000
3600.787938,-8290.306550,370.102971,842.705048
3600.788268,-8734.430116,592.164754,229.828649
3600.788598,-9400.615463,1036.288319,-995.924147
3600.788928,-10436.903782,666.185348,-1608.800546
3600.789257,-11029.068536,666.185348,-229.828649
3600.789587,-11547.212695,296.082377,1838.629195
3600.789917,-11177.109724,74.020594,2987.772442
3600.790247,-10881.027347,0.000000,3217.601092
3600.790577,-9992.780217,0.000000,1838.629195
3600.790906,-10584.944971,-74.020594,0.000000
3600.791236,-9992.780217,518.144159,-1685.410096
3600.791566,-9918.759623,370.102971,-1608.800546
3600.791896,-9326.594869,444.123565,-536.266849
3600.792226,-8734.430116,0.000000,229.828649
3600.792555,-8660.409521,-370.102971,153.219100
3600.792885,-8660.409521,-740.205942,-306.438199
3600.793215,-8734.430116,-814.226536,-919.314598
3600.793545,-8882.471304,-962.267725,-689.485948
3600.793875,-9844.739029,-592.164754,689.485948
3600.794204,-10658.965565,-148.041188,2834.553343
3600.794534,-10807.006753,-148.041188,3217.601092
3600.794864,-10807.006753,0.000000,2145.067394
3600.795194,-10510.924376,518.144159,-383.047749
3600.795524,-10510.924376,0.000000,-2451.505594
3600.795853,-9770.718434,-444.123565,-2604.724693
3600.796183,-8882.471304,-888.247130,-1685.410096
3600.796513,-7994.224174,-592.164754,229.828649
3600.796843,-7994.224174,-592.164754,995.924147
3600.797173,-8586.388927,-222.061783,153.219100
3600.797503,-9178.553681,0.000000,-689.485948
3600.797832,-10214.842000,0.000000,-1149.143247
3600.798162,-10807.006753,0.000000,306.438199
3600.798492,-11325.150913,-444.123565,2145.067394
3600.798822,-10955.047942,-814.226536,3600.648841
3600.799152,-10362.883188,-888.247130,3600.648841
3600.799481,-9918.759623,-222.061783,1762.019645
3600.799811,-10510.924376,0.000000,-536.266849
3600.800141,-10214.842000,296.082377,-2221.676944
3600.800471,-10214.842000,0.000000,-2374.896044
3600.800801,-9474.636058,222.061783,-919.314598
3600.801130,-9104.533087,0.000000,76.609550
3600.801460,-8956.491898,-296.082377,459.657299
3600.801790,-8586.388927,-444.123565,-383.047749
3600.802120,-8734.430116,-666.185348,-1149.143247
3600.802450,-9178.553681,-666.185348,-306.438199
3600.802779,-9918.759623,-518.144159,1685.410096
3600.803109,-10881.027347,-148.041188,3447.429741
3600.803439,-11029.068536,74.020594,3907.087040
3600.803769,-10955.047942,296.082377,1991.848295
3600.804099,-10881.027347,148.041188,-383.047749
3600.804428,-10214.842000,74.020594,-2374.896044
3600.804758,-9696.697840,-222.061783,-2374.896044
3600.805088,-8808.450710,-296.082377,-766.095498
3600.805418,-8068.244768,-148.041188,536.266849
3600.805748,-7920.203579,0.000000,1072.533697
3600.806077,-8142.265362,148.041188,-306.438199
3600.806407,-8808.450710,296.082377,-1302.362347
3600.806737,-9770.718434,74.020594,-1608.800546
3600.807067,-10807.006753,370.102971,0.000000
3600.807397,-11177.109724,0.000000,2298.286494
3600.807726,-11325.150913,0.000000,3600.648841
3600.808056,-10510.924376,222.061783,3064.381992
3600.808386,-10288.862594,296.082377,536.266849
3600.808716,-10066.800811,592.164754,-1608.800546
3600.809046,-10214.842000,666.185348,-2911.162892
3600.809375,-9992.780217,814.226536,-1991.848295
3600.809705,-9474.636058,666.185348,-1072.533697
3600.810035,-9178.553681,296.082377,229.828649
3600.810365,-8660.409521,0.000000,76.609550
3600.810695,-9030.512492,296.082377,-842.705048
3600.811025,-8586.388927,-222.061783,-1608.800546
3600.811354,-9252.574275,0.000000,-306.438199
3600.811684,-10214.842000,518.144159,1838.629195
3600.812014,-11029.068536,740.205942,3524.039291
3600.812344,-11473.192101,666.185348,3677.258390
3600.812674,-11325.150913,592.164754,1608.800546
3600.813003,-11325.150913,148.041188,-995.924147
3600.813333,-10510.924376,222.061783,-2298.286494
3600.813663,-9992.780217,0.000000,-1532.190996
3600.813993,-8438.347739,-222.061783,-306.438199
3600.814323,-7624.121203,-222.061783,1225.752797
3600.814652,-7772.162391,148.041188,919.314598
3600.814982,-8216.285956,888.247130,-459.657299
3600.815312,-9474.636058,518.144159,-1455.581446
3600.815642,-10288.862594,222.061783,-919.314598
3600.815972,-11177.109724,518.144159,1532.190996
3600.816301,-11325.150913,-370.102971,3600.648841
3600.816631,-10807.006753,-814.226536,4060.306139
3600.816961,-10214.842000,-444.123565,2834.553343
3600.817291,-9844.739029,-444.123565,689.485948
3600.817621,-9992.780217,222.061783,-1378.971896
3600.817950,-10140.821405,222.061783,-1608.800546
3600.818280,-9548.656652,0.000000,-842.705048
3600.818610,-9104.533087,0.000000,229.828649
3600.818940,-9178.553681,0.000000,536.266849
3600.819270,-8734.430116,-296.082377,-153.219100
3600.819599,-8438.347739,-666.185348,-1072.533697
3600.819929,-8956.491898,-814.226536,-1302.362347
3600.820259,-9474.636058,-666.185348,153.219100
3600.820589,-10362.883188,-296.082377,2987.772442
3600.820919,-11029.068536,222.061783,3830.477490
3600.821248,-11177.109724,222.061783,2987.772442
3600.821578,-11029.068536,74.020594,1225.752797
3600.821908,-11399.171507,222.061783,-1608.800546
3600.822238,-10732.986159,0.000000,-2298.286494
3600.822568,-9548.656652,-592.164754,-1455.581446
3600.822898,-8438.347739,-370.102971,0.000000
3600.823227,-7698.141797,-296.082377,536.266849
3600.823557,-8364.327145,0.000000,689.485948
3600.823887,-8734.430116,296.082377,-1302.362347
3600.824217,-9474.636058,74.020594,-1532.190996
3600.824547,-10140.821405,0.000000,-612.876398
3600.824876,-10955.047942,444.123565,2068.457845
3600.825206,-11325.150913,-148.041188,3907.087040
3600.825536,-10584.944971,-296.082377,3907.087040
3600.825866,-9992.780217,-444.123565,2451.505594
3600.826196,-9992.780217,-296.082377,-153.219100
3600.826525,-9844.739029,296.082377,-2298.286494
3600.826855,-10436.903782,148.041188,-1838.629195
3600.827185,-9622.677246,518.144159,-612.876398
3600.827515,-9252.574275,370.102971,459.657299
3600.827845,-8808.450710,74.020594,383.047749
3600.828174,-8438.347739,-296.082377,-153.219100
3600.828504,-8438.347739,-666.185348,-995.924147
3600.828834,-8586.388927,-444.123565,-612.876398
3600.829164,-9252.574275,296.082377,1532.190996
3600.829494,-10510.924376,148.041188,3064.381992
3600.829823,-10955.047942,666.185348,3830.477490
3600.830153,-11325.150913,666.185348,2298.286494
3600.830483,-11473.192101,518.144159,306.438199
3600.830813,-11103.089130,592.164754,-2068.457845
3600.831143,-10288.862594,0.000000,-2298.286494
3600.831472,-9326.594869,0.000000,-995.924147
3600.831802,-8438.347739,74.020594,306.438199
3600.832132,-7624.121203,0.000000,1302.362347
3600.832462,-8068.244768,370.102971,0.000000
3600.832792,-8882.471304,1036.288319,-1838.629195
3600.833121,-9622.677246,666.185348,-2145.067394
3600.833451,-10288.862594,740.205942,-766.095498
3600.833781,-11029.068536,148.041188,1378.971896
3600.834111,-10807.006753,-444.123565,2834.553343
3600.834441,-10066.800811,0.000000,3064.381992
3600.834770,-9622.677246,148.041188,1072.533697
3600.835100,-10214.842000,518.144159,-919.314598
3600.835430,-10140.821405,444.123565,-2221.676944
3600.835760,-9770.718434,296.082377,-2145.067394
3600.836090,-9622.677246,592.164754,-919.314598
3600.836420,-9326.594869,444.123565,306.438199
3600.836749,-8956.491898,222.061783,-153.219100
3600.837079,-8808.450710,0.000000,-1378.971896
3600.837409,-8512.368333,-222.061783,-1915.238745
3600.837739,-8438.347739,-222.061783,-383.047749
3600.838069,-9622.677246,148.041188,1149.143247
3600.838398,-10658.965565,148.041188,3370.820191
3600.838728,-11103.089130,370.102971,3677.258390
3600.839058,-11029.068536,666.185348,2374.896044
3600.839388,-11251.130318,370.102971,0.000000
3600.839718,-10955.047942,370.102971,-1608.800546
3600.840047,-9918.759623,-296.082377,-1685.410096
3600.840377,-9030.512492,-370.102971,-536.266849
3600.840707,-8068.244768,-148.041188,842.705048
3600.841037,-7994.224174,0.000000,1149.143247
3600.841367,-8586.388927,370.102971,76.609550
3600.841696,-9178.553681,370.102971,-919.314598
3600.842026,-9992.780217,296.082377,-612.876398
3600.842356,-10955.047942,74.020594,919.314598
3600.842686,-11399.171507,0.000000,3217.601092
3600.843016,-11251.130318,-444.123565,4519.963438
3600.843345,-10362.883188,0.000000,3370.820191
3600.843675,-10066.800811,-222.061783,1225.752797
3600.844005,-10140.821405,0.000000,-1072.533697
3600.844335,-10140.821405,222.061783,-1915.238745
3600.844665,-9992.780217,666.185348,-1455.581446
3600.844994,-9104.533087,518.144159,-383.047749
3600.845324,-8660.409521,148.041188,229.828649
3600.845654,-8734.430116,-222.061783,0.000000
3600.845984,-8660.409521,-370.102971,-1149.143247
3600.846314,-8586.388927,-222.061783,-1302.362347
3600.846643,-8956.491898,-740.205942,-459.657299
3600.846973,-9844.739029,0.000000,1762.019645
3600.847303,-10955.047942,0.000000,3600.648841
3600.847633,-11399.171507,148.041188,2757.943793
3600.847963,-11103.089130,592.164754,919.314598
3600.848293,-11325.150913,296.082377,-1225.752797
3600.848622,-10658.965565,370.102971,-2757.943793
3600.848952,-9918.759623,0.000000,-2298.286494
3600.849282,-8734.430116,-444.123565,-1378.971896
3600.849612,-7846.182985,-222.061783,0.000000
3600.849942,-7846.182985,0.000000,0.000000
3600.850271,-8364.327145,74.020594,-766.095498
3600.850601,-9400.615463,740.205942,-1991.848295
3600.850931,-10066.800811,370.102971,-1225.752797
3600.851261,-11029.068536,148.041188,689.485948
3600.851591,-11103.089130,-296.082377,2911.162892
3600.851920,-10807.006753,-518.144159,3983.696590
3600.852250,-10214.842000,-592.164754,2911.162892
3600.852580,-10066.800811,-740.205942,229.828649
3600.852910,-10214.842000,-296.082377,-1685.410096
3600.853240,-9992.780217,296.082377,-3064.381992
3600.853569,-9918.759623,0.000000,-1455.581446
3600.853899,-9178.553681,148.041188,-229.828649
3600.854229,-8882.471304,-370.102971,306.438199
3600.854559,-8512.368333,-518.144159,76.609550
3600.854889,-8364.327145,-814.226536,-536.266849
3600.855218,-8586.388927,-962.267725,-689.485948
3600.855548,-9252.574275,-888.247130,612.876398
3600.855878,-10140.821405,-518.144159,2757.943793
3600.856208,-10436.903782,-814.226536,3907.087040
3600.856538,-11177.109724,0.000000,3370.820191
3600.856867,-10881.027347,74.020594,1149.143247
3600.857197,-10955.047942,74.020594,-1378.971896
3600.857527,-9918.759623,0.000000,-2757.943793
3600.857857,-9474.636058,-518.144159,-2451.505594
3600.858187,-8438.347739,-296.082377,-842.705048
3600.858516,-7772.162391,-296.082377,459.657299
3600.858846,-8290.306550,148.041188,76.609550
3600.859176,-9030.512492,666.185348,-306.438199
3600.859506,-9474.636058,518.144159,-1685.410096
3600.859836,-10288.862594,444.123565,-612.876398
3600.860165,-11251.130318,370.102971,1302.362347
3600.860495,-11695.253884,0.000000,3447.429741
3600.860825,-11103.089130,-444.123565,4290.134789
3600.861155,-10288.862594,0.000000,2604.724693
3600.861485,-10362.883188,148.041188,76.609550
3600.861815,-10584.944971,740.205942,-1838.629195
3600.862144,-10436.903782,1110.308913,-2298.286494
3600.862474,-9622.677246,518.144159,-1608.800546
3600.862804,-8808.450710,222.061783,0.000000
3600.863134,-8882.471304,296.082377,536.266849
3600.863464,-8364.327145,222.061783,306.438199
3600.863793,-8512.368333,0.000000,-995.924147
3600.864123,-8808.450710,-222.061783,-842.705048
3600.864453,-9770.718434,74.020594,842.705048
3600.864783,-10510.924376,222.061783,3064.381992
3600.865113,-11473.192101,518.144159,4290.134789
3600.865442,-11399.171507,888.247130,3217.601092
3600.865772,-11103.089130,888.247130,459.657299
3600.866102,-10807.006753,592.164754,-1762.019645
3600.866432,-10066.800811,444.123565,-2451.505594
3600.866762,-9030.512492,0.000000,-1608.800546
3600.867091,-7846.182985,222.061783,383.047749
3600.867421,-7550.100608,370.102971,1149.143247
3600.867751,-8216.285956,814.226536,153.219100
3600.868081,-8956.491898,888.247130,-919.314598
3600.868411,-9992.780217,962.267725,-1532.190996
3600.868740,-10436.903782,888.247130,0.000000
3600.869070,-11251.130318,666.185348,2451.505594
3600.869400,-11621.233289,74.020594,4366.744339
3600.869730,-10658.965565,0.000000,4060.306139
3600.870060,-10288.862594,296.082377,1915.238745
3600.870389,-10362.883188,370.102971,-919.314598
3600.870719,-9992.780217,962.267725,-2298.286494
3600.871049,-9696.697840,370.102971,-2145.067394
3600.871379,-9400.615463,592.164754,-1149.143247
3600.871708,-8734.430116,296.082377,-153.219100
3600.872038,-8734.430116,222.061783,229.828649
3600.872368,-8586.388927,222.061783,-995.924147
3600.872698,-8586.388927,-518.144159,-1838.629195
3600.873027,-9178.553681,-370.102971,-842.705048
3600.873357,-9770.718434,0.000000,2068.457845
3600.873687,-10881.027347,-74.020594,3294.210641
3600.874017,-11399.171507,148.041188,3983.696590
3600.874347,-11547.212695,222.061783,2451.505594
3600.874676,-11547.212695,222.061783,-229.828649
3600.875006,-11251.130318,370.102971,-2221.676944
3600.875336,-9770.718434,-370.102971,-2451.505594
3600.875666,-9178.553681,-444.123565,-995.924147
3600.875995,-8290.306550,-444.123565,153.219100
3600.876325,-7920.203579,-296.082377,919.314598
3600.876655,-8216.285956,-296.082377,-153.219100
3600.876985,-8882.471304,-296.082377,-1149.143247
3600.877315,-9844.739029,-296.082377,-919.314598
3600.877644,-10510.924376,370.102971,919.314598
3600.877974,-11251.130318,-296.082377,2757.943793
3600.878304,-10955.047942,-740.205942,3677.258390
3600.878634,-10732.986159,-296.082377,3370.820191
3600.878963,-10584.944971,-296.082377,1149.143247
3600.879293,-10214.842000,-296.082377,-1455.581446
3600.879623,-9992.780217,296.082377,-2451.505594
3600.879953,-9548.656652,0.000000,-2451.505594
3600.880282,-9400.615463,222.061783,-1762.019645
3600.880612,-8364.327145,0.000000,0.000000
3600.880942,-8438.347739,-740.205942,229.828649
3600.881272,-8734.430116,-518.144159,-766.095498
3600.881602,-8660.409521,-518.144159,-1149.143247
3600.881931,-9104.533087,-222.061783,0.000000
3600.882261,-10140.821405,-296.082377,1838.629195
3600.882591,-11177.109724,0.000000,3600.648841
3600.882921,-11399.171507,444.123565,3830.477490
3600.883250,-11399.171507,888.247130,1762.019645
3600.883580,-11547.212695,444.123565,-383.047749
3600.883910,-10732.986159,74.020594,-2374.896044
3600.884240,-9622.677246,0.000000,-3064.381992
3600.884570,-8734.430116,-222.061783,-1302.362347
3600.884899,-7550.100608,0.000000,383.047749
3600.885229,-7624.121203,0.000000,1225.752797
3600.885559,-8068.244768,148.041188,0.000000
3600.885889,-9030.512492,666.185348,-612.876398
3600.886218,-9770.718434,888.247130,-919.314598
3600.886548,-10955.047942,518.144159,1225.752797
3600.886878,-11473.192101,74.020594,3524.039291
3600.887208,-11399.171507,74.020594,4366.744339
3600.887537,-10881.027347,74.020594,3753.867940
3600.887867,-10214.842000,296.082377,1302.362347
3600.888197,-9992.780217,222.061783,-1149.143247
3600.888527,-9622.677246,814.226536,-2451.505594
3600.888857,-9474.636058,222.061783,-2145.067394
3600.889186,-8882.471304,814.226536,-612.876398
3600.889516,-8586.388927,222.061783,0.000000
3600.889846,-8734.430116,222.061783,-229.828649
3600.890176,-8512.368333,148.041188,-1149.143247
3600.890505,-8512.368333,222.061783,-1302.362347
3600.890835,-8956.491898,-296.082377,0.000000
3600.891165,-10066.800811,0.000000,2145.067394
3600.891495,-10881.027347,148.041188,3600.648841
3600.891825,-11695.253884,592.164754,3677.258390
3600.892154,-11325.150913,370.102971,1378.971896
3600.892484,-11547.212695,222.061783,-1302.362347
3600.892814,-10584.944971,222.061783,-2757.943793
3600.893144,-9474.636058,-370.102971,-2604.724693
3600.893473,-8068.244768,-592.164754,-1149.143247
3600.893803,-7550.100608,-296.082377,153.219100
3600.894133,-8142.265362,-222.061783,383.047749
3600.894463,-8438.347739,222.061783,-383.047749
3600.894792,-8956.491898,222.061783,-1302.362347
3600.895122,-10214.842000,74.020594,-536.266849
3600.895452,-11325.150913,0.000000,1532.190996
3600.895782,-12139.377449,-148.041188,3064.381992
3600.896112,-11029.068536,-518.144159,3140.991542
3600.896441,-10362.883188,-370.102971,2221.676944
3600.896771,-10214.842000,-444.123565,383.047749
3600.897101,-10510.924376,0.000000,-1455.581446
3600.897431,-10066.800811,444.123565,-2528.115143
3600.897760,-9696.697840,222.061783,-2221.676944
3600.898090,-8734.430116,148.041188,-1225.752797
3600.898420,-8586.388927,-222.061783,0.000000
3600.898750,-9104.533087,-296.082377,0.000000
3600.899080,-8438.347739,-518.144159,-383.047749
3600.899409,-8808.450710,-888.247130,-612.876398
3600.899739,-9696.697840,-592.164754,766.095498
3600.900069,-10436.903782,-370.102971,2681.334243
3600.900399,-10955.047942,74.020594,3600.648841
3600.900728,-11177.109724,296.082377,3064.381992
3600.901058,-10807.006753,444.123565,1149.143247
3600.901388,-10955.047942,296.082377,-1302.362347
3600.901718,-10436.903782,518.144159,-2451.505594
3600.902047,-9474.636058,0.000000,-2451.505594
3600.902377,-8142.265362,-370.102971,-1149.143247
3600.902707,-7402.059420,-74.020594,766.095498
3600.903037,-8068.244768,148.041188,766.095498
3600.903367,-8734.430116,518.144159,-153.219100
3600.903696,-9178.553681,444.123565,-1532.190996
3600.904026,-10510.924376,222.061783,-842.705048
3600.904356,-11251.130318,370.102971,919.314598
3600.904686,-11399.171507,148.041188,3370.820191
3600.905015,-10362.883188,0.000000,3983.696590
3600.905345,-10288.862594,0.000000,2911.162892
3600.905675,-10066.800811,0.000000,0.000000
3600.906005,-10066.800811,518.144159,-2221.676944
3600.906334,-9844.739029,1036.288319,-2987.772442
3600.906664,-9326.594869,370.102971,-2068.457845
3600.906994,-8734.430116,296.082377,-459.657299
3600.907324,-8364.327145,0.000000,306.438199
3600.907654,-8808.450710,0.000000,383.047749
3600.907983,-8512.368333,-296.082377,-995.924147
3600.908313,-8956.491898,-518.144159,-842.705048
3600.908643,-9622.677246,-74.020594,612.876398
3600.908973,-10510.924376,0.000000,2834.553343
3600.909302,-10658.965565,444.123565,3907.087040
3600.909632,-11325.150913,444.123565,3600.648841
3600.909962,-11399.171507,518.144159,689.485948
3600.910292,-10807.006753,148.041188,-1915.238745
3600.910622,-9696.697840,0.000000,-3830.477490
3600.910951,-9178.553681,-518.144159,-2068.457845
3600.911281,-7994.224174,-518.144159,0.000000
3600.911611,-7254.018232,-444.123565,1225.752797
3600.911941,-7698.141797,0.000000,919.314598
3600.912270,-8808.450710,296.082377,-229.828649
3600.912600,-10140.821405,0.000000,-842.705048
3600.912930,-11029.068536,296.082377,153.219100
3600.913260,-11769.274478,148.041188,2528.115143
3600.913589,-11399.171507,0.000000,4136.915689
3600.913919,-11177.109724,0.000000,3983.696590
3600.914249,-10510.924376,0.000000,1762.019645
3600.914579,-10288.862594,0.000000,-1302.362347
3600.914909,-9844.739029,370.102971,-2451.505594
3600.915238,-9622.677246,370.102971,-2451.505594
3600.915568,-9326.594869,592.164754,-1072.533697
3600.915898,-8734.430116,74.020594,383.047749
3600.916228,-8808.450710,0.000000,536.266849
3600.916557,-8956.491898,148.041188,-459.657299
3600.916887,-8808.450710,-444.123565,-1608.800546
3600.917217,-9326.594869,-148.041188,-229.828649
3600.917547,-10140.821405,148.041188,1838.629195
3600.917877,-11399.171507,148.041188,4060.306139
3600.918206,-11473.192101,444.123565,3753.867940
3600.918536,-11029.068536,444.123565,2298.286494
3600.918866,-10955.047942,296.082377,-842.705048
3600.919196,-10732.986159,370.102971,-2528.115143
3600.919525,-9474.636058,74.020594,-3294.210641
3600.919855,-8438.347739,0.000000,-1685.410096
3600.920185,-7550.100608,222.061783,0.000000
3600.920515,-7624.121203,592.164754,919.314598
3600.920844,-8808.450710,592.164754,153.219100
3600.921174,-9622.677246,1184.329507,-919.314598
3600.921504,-10288.862594,814.226536,-1072.533697
3600.921834,-11103.089130,518.144159,383.047749
3600.922164,-11621.233289,296.082377,2681.334243
3600.922493,-11251.130318,-148.041188,3907.087040
3600.922823,-10732.986159,0.000000,2987.772442
3600.923153,-10214.842000,0.000000,1149.143247
3600.923483,-10066.800811,666.185348,-1378.971896
3600.923812,-9992.780217,666.185348,-2145.067394
3600.924142,-9696.697840,370.102971,-1991.848295
3600.924472,-8808.450710,222.061783,-919.314598
3600.924802,-8142.265362,370.102971,459.657299
3600.925132,-8364.327145,-296.082377,306.438199
3600.925461,-8734.430116,-296.082377,-459.657299
3600.925791,-9030.512492,-370.102971,-766.095498
3600.926121,-9400.615463,-740.205942,153.219100
3600.926451,-10807.006753,0.000000,1762.019645
3600.926780,-11103.089130,0.000000,3370.820191
3600.927110,-11251.130318,148.041188,3217.601092
3600.927440,-10807.006753,148.041188,1455.581446
3600.927770,-10584.944971,148.041188,-995.924147
3600.928099,-10436.903782,74.020594,-2681.334243
3600.928429,-9622.677246,-518.144159,-2451.505594
3600.928759,-8660.409521,-814.226536,-1838.629195
3600.929089,-7254.018232,-370.102971,-459.657299
3600.929419,-7846.182985,-592.164754,153.219100
3600.929748,-8290.306550,-592.164754,-229.828649
3600.930078,-9104.533087,-222.061783,-1072.533697
3600.930408,-9992.780217,-518.144159,-612.876398
3600.930738,-11029.068536,-74.020594,919.314598
3600.931067,-11621.233289,-518.144159,2987.772442
3600.931397,-11769.274478,-592.164754,3677.258390
3600.931727,-10881.027347,-296.082377,3064.381992
3600.932057,-10214.842000,-296.082377,842.705048
3600.932387,-9918.759623,-296.082377,-1455.581446
3600.932716,-9844.739029,222.061783,-2221.676944
3600.933046,-9474.636058,0.000000,-2068.457845
3600.933376,-8586.388927,370.102971,-536.266849
3600.933706,-8660.409521,0.000000,76.609550
3600.934035,-9104.533087,-222.061783,459.657299
3600.934365,-9252.574275,-518.144159,0.000000
3600.934695,-9104.533087,-740.205942,0.000000
3600.935025,-9992.780217,-296.082377,1149.143247
3600.935354,-10732.986159,0.000000,2757.943793
3600.935684,-11251.130318,370.102971,3753.867940
3600.936014,-11547.212695,814.226536,3064.381992
3600.936344,-11251.130318,666.185348,1225.752797
3600.936674,-10807.006753,518.144159,-1378.971896
3600.937003,-10288.862594,518.144159,-3064.381992
3600.937333,-9474.636058,74.020594,-2528.115143
3600.937663,-8068.244768,74.020594,-1149.143247
3600.937993,-7476.080014,0.000000,612.876398
3600.938322,-7846.182985,222.061783,689.485948
3600.938652,-8364.327145,444.123565,306.438199
3600.938982,-9400.615463,962.267725,-919.314598
3600.939312,-10584.944971,740.205942,-306.438199
3600.939642,-11473.192101,666.185348,1072.533697
3600.939971,-11621.233289,370.102971,2987.772442
3600.940301,-11103.089130,222.061783,3753.867940
3600.940631,-10066.800811,518.144159,2681.334243
3600.940961,-9844.739029,148.041188,0.000000
3600.941290,-10066.800811,666.185348,-2145.067394
3600.941620,-9548.656652,444.123565,-3064.381992
3600.941950,-9252.574275,370.102971,-2145.067394
3600.942280,-8882.471304,370.102971,-612.876398
3600.942609,-8438.347739,148.041188,383.047749
3600.942939,-8660.409521,0.000000,0.000000
3600.943269,-8586.388927,148.041188,-1378.971896
3600.943599,-9030.512492,-222.061783,-1149.143247
3600.943929,-9992.780217,0.000000,0.000000
3600.944258,-11029.068536,148.041188,2145.067394
3600.944588,-11103.089130,518.144159,3294.210641
3600.944918,-10955.047942,370.102971,2451.505594
3600.945248,-10807.006753,296.082377,229.828649
3600.945577,-10881.027347,74.020594,-2221.676944
3600.945907,-10066.800811,0.000000,-3524.039291
3600.946237,-8882.471304,-592.164754,-2451.505594
3600.946567,-8290.306550,-296.082377,-459.657299
3600.946897,-7772.162391,-518.144159,1225.752797
3600.947226,-8216.285956,-444.123565,1072.533697
3600.947556,-8956.491898,0.000000,-612.876398
3600.947886,-9474.636058,-296.082377,-1455.581446
3600.948216,-10732.986159,0.000000,-153.219100
3600.948545,-11621.233289,0.000000,2068.457845
3600.948875,-11325.150913,0.000000,4060.306139
3600.949205,-10955.047942,-666.185348,3524.039291
3600.949535,-10288.862594,-296.082377,2068.457845
3600.949864,-10140.821405,-296.082377,-536.266849
3600.950194,-10066.800811,148.041188,-2374.896044
3600.950524,-9548.656652,0.000000,-2451.505594
3600.950854,-9104.533087,0.000000,-1225.752797
3600.951184,-8512.368333,-148.041188,306.438199
3600.951513,-8512.368333,-518.144159,612.876398
3600.951843,-8660.409521,-444.123565,76.609550
3600.952173,-8956.491898,-444.123565,-842.705048
3600.952503,-9104.533087,-888.247130,0.000000
3600.952832,-9918.759623,0.000000,1685.410096
3600.953162,-10658.965565,370.102971,3524.039291
3600.953492,-11843.295072,518.144159,3983.696590
3600.953822,-11251.130318,888.247130,2068.457845
3600.954152,-11029.068536,740.205942,-612.876398
3600.954481,-11029.068536,888.247130,-2528.115143
3600.954811,-10214.842000,370.102971,-2987.772442
3600.955141,-9178.553681,-148.041188,-1838.629195
3600.955471,-7328.038826,-444.123565,76.609550
3600.955800,-7476.080014,0.000000,1225.752797
3600.956130,-8216.285956,74.020594,1072.533697
3600.956460,-8956.491898,222.061783,153.219100
3600.956790,-9770.718434,444.123565,-229.828649
3600.957119,-10881.027347,592.164754,536.266849
3600.957449,-11325.150913,592.164754,2834.553343
3600.957779,-11695.253884,-148.041188,3907.087040
3600.958109,-10881.027347,74.020594,3524.039291
3600.958439,-9770.718434,74.020594,1608.800546
3600.958768,-9622.677246,296.082377,-612.876398
3600.959098,-9844.739029,740.205942,-2298.286494
3600.959428,-9622.677246,740.205942,-2374.896044
3600.959758,-9178.553681,888.247130,-995.924147
3600.960087,-8364.327145,222.061783,306.438199
3600.960417,-8660.409521,148.041188,306.438199
3600.960747,-8660.409521,296.082377,-229.828649
3600.961077,-8660.409521,0.000000,-842.705048
3600.961407,-9252.574275,0.000000,0.000000
3600.961736,-9770.718434,592.164754,1302.362347
3600.962066,-11399.171507,592.164754,3370.820191
3600.962396,-11547.212695,592.164754,3830.477490
3600.962726,-11325.150913,1036.288319,2068.457845
3600.963055,-10658.965565,666.185348,-383.047749
3600.963385,-10510.924376,370.102971,-2528.115143
3600.963715,-9474.636058,222.061783,-2528.115143
3600.964045,-8512.368333,-296.082377,-1762.019645
3600.964374,-7846.182985,0.000000,-229.828649
3600.964704,-7624.121203,0.000000,383.047749
3600.965034,-8586.388927,148.041188,0.000000
3600.965364,-9326.594869,296.082377,-1072.533697
3600.965694,-10436.903782,74.020594,-995.924147
3600.966023,-10362.883188,222.061783,76.609550
3600.966353,-11547.212695,-222.061783,2451.505594
3600.966683,-11325.150913,-888.247130,3677.258390
3600.967013,-10584.944971,-592.164754,3064.381992
3600.967342,-9474.636058,0.000000,1378.971896
3600.967672,-9622.677246,-370.102971,-995.924147
3600.968002,-9992.780217,296.082377,-2145.067394
3600.968332,-9844.739029,296.082377,-1991.848295
3600.968662,-9104.533087,444.123565,-995.924147
3600.968991,-8660.409521,0.000000,-76.609550
3600.969321,-8956.491898,-444.123565,0.000000
3600.969651,-8882.471304,-370.102971,-919.314598
3600.969981,-8660.409521,-814.226536,-1072.533697
3600.970310,-9104.533087,-592.164754,0.000000
3600.970640,-10214.842000,-296.082377,1455.581446
3600.970970,-10955.047942,0.000000,3140.991542
3600.971300,-11251.130318,222.061783,3294.210641
3600.971629,-11029.068536,962.267725,1455.581446
3600.971959,-11177.109724,222.061783,-306.438199
3600.972289,-10510.924376,296.082377,-2374.896044
3600.972619,-9622.677246,-444.123565,-2681.334243
3600.972949,-8438.347739,-370.102971,-2145.067394
3600.973278,-7550.100608,-666.185348,306.438199
3600.973608,-8068.244768,-444.123565,995.924147
3600.973938,-8660.409521,0.000000,229.828649
3600.974268,-9252.574275,0.000000,-612.876398
3600.974597,-10288.862594,74.020594,-383.047749
3600.974927,-11325.150913,296.082377,766.095498
3600.975257,-11325.150913,-148.041188,2681.334243
3600.975587,-11251.130318,-444.123565,3907.087040
3600.975916,-10362.883188,296.082377,2604.724693
3600.976246,-10066.800811,0.000000,1072.533697
3600.976576,-10140.821405,222.061783,-1149.143247
3600.976906,-10140.821405,370.102971,-2451.505594
3600.977236,-9400.615463,0.000000,-1915.238745
3600.977565,-9104.533087,222.061783,229.828649
3600.977895,-8882.471304,148.041188,1149.143247
3600.978225,-8734.430116,-296.082377,766.095498
3600.978555,-8364.327145,0.000000,-383.047749
3600.978884,-8956.491898,-370.102971,-612.876398
3600.979214,-9548.656652,-370.102971,229.828649
3600.979544,-10510.924376,0.000000,2298.286494
3600.979874,-11029.068536,148.041188,3677.258390
3600.980203,-11325.150913,666.185348,3447.429741
3600.980533,-11251.130318,1036.288319,1072.533697
3600.980863,-11251.130318,518.144159,-1302.362347
3600.981193,-10584.944971,666.185348,-2604.724693
3600.981523,-9326.594869,0.000000,-2221.676944
3600.981852,-8364.327145,0.000000,-459.657299
3600.982182,-7920.203579,0.000000,612.876398
3600.982512,-8290.306550,0.000000,612.876398
3600.982842,-8586.388927,370.102971,-536.266849
3600.983171,-9252.574275,666.185348,-1302.362347
3600.983501,-10288.862594,518.144159,-995.924147
3600.983831,-11029.068536,740.205942,689.485948
3600.984161,-11251.130318,888.247130,2757.943793
3600.984490,-11177.109724,148.041188,3217.601092
3600.984820,-10436.903782,74.020594,1378.971896
3600.985150,-10288.862594,74.020594,-612.876398
3600.985480,-10288.862594,666.185348,-2068.457845
3600.985810,-9696.697840,444.123565,-2374.896044
3600.986139,-9548.656652,74.020594,-1302.362347
3600.986469,-9030.512492,444.123565,0.000000
3600.986799,-8660.409521,0.000000,76.609550
3600.987129,-8660.409521,0.000000,76.609550
3600.987458,-9178.553681,-148.041188,-689.485948
3600.987788,-9474.636058,-296.082377,-1149.143247
3600.988118,-9548.656652,0.000000,459.657299
3600.988448,-10436.903782,0.000000,2068.457845
3600.988777,-11177.109724,222.061783,2911.162892
3600.989107,-10881.027347,222.061783,2298.286494
3600.989437,-10510.924376,148.041188,306.438199
3600.989767,-10436.903782,0.000000,-1532.190996
3600.990097,-10214.842000,148.041188,-2068.457845
3600.990426,-9400.615463,-518.144159,-1838.629195
3600.990756,-8512.368333,-296.082377,-306.438199
3600.991086,-7994.224174,-666.185348,689.485948
3600.991416,-8438.347739,0.000000,689.485948
3600.991745,-8808.450710,-592.164754,306.438199
3600.992075,-9622.677246,0.000000,-995.924147
3600.992405,-10214.842000,0.000000,-306.438199
3600.992735,-11029.068536,74.020594,1302.362347
3600.993064,-10807.006753,-592.164754,2987.772442
3600.993394,-10807.006753,-518.144159,3600.648841
3600.993724,-10214.842000,-222.061783,2528.115143
3600.994054,-10214.842000,-74.020594,153.219100
3600.994383,-10362.883188,296.082377,-1608.800546
3600.994713,-9696.697840,222.061783,-1915.238745
3600.995043,-9696.697840,0.000000,-919.314598
3600.995373,-8956.491898,0.000000,536.266849
3600.995703,-8882.471304,-148.041188,842.705048
3600.996032,-8660.409521,0.000000,536.266849
3600.996362,-9178.553681,-74.020594,-689.485948
3600.996692,-9104.533087,-370.102971,-229.828649
3600.997022,-10140.821405,-222.061783,1302.362347
3600.997351,-10732.986159,0.000000,2911.162892
3600.997681,-11325.150913,0.000000,3830.477490
3600.998011,-10955.047942,222.061783,3064.381992
3600.998341,-10807.006753,148.041188,842.705048
3600.998670,-10881.027347,0.000000,-1378.971896
3600.999000,-10066.800811,0.000000,-1608.800546
3600.999330,-9696.697840,-296.082377,-919.314598
3600.999660,-8512.368333,0.000000,536.266849
3600.999990,-8216.285956,-296.082377,1762.019645
3601.000319,-8438.347739,592.164754,1378.971896
3601.000649,-9178.553681,296.082377,-689.485948
3601.000979,-9622.677246,222.061783,-1302.362347
3601.001309,-10362.883188,148.041188,-612.876398
3601.001638,-10881.027347,222.061783,2374.896044
3601.001968,-10807.006753,0.000000,3294.210641
3601.002298,-10436.903782,0.000000,3294.210641
3601.002628,-10066.800811,444.123565,1378.971896
3601.002957,-10066.800811,0.000000,-1072.533697
3601.003287,-10066.800811,592.164754,-2604.724693
3601.003617,-9844.739029,740.205942,-1915.238745
3601.003947,-9400.615463,296.082377,-919.314598
3601.004277,-9178.553681,296.082377,459.657299
3601.004606,-8734.430116,148.041188,612.876398
3601.004936,-8660.409521,0.000000,-766.095498
3601.005266,-8956.491898,0.000000,-1378.971896
3601.005596,-9474.636058,222.061783,-383.047749
3601.005925,-9918.759623,740.205942,1225.752797
3601.006255,-10881.027347,666.185348,3064.381992
3601.006585,-11251.130318,740.205942,3064.381992
3601.006915,-11251.130318,1036.288319,1685.410096
3601.007244,-11325.150913,888.247130,-689.485948
3601.007574,-10732.986159,592.164754,-2451.505594
3601.007904,-9918.759623,148.041188,-2298.286494
3601.008234,-9030.512492,-444.123565,-689.485948
3601.008564,-8216.285956,0.000000,612.876398
3601.008893,-7772.162391,148.041188,766.095498
3601.009223,-8068.244768,74.020594,153.219100
3601.009553,-9178.553681,148.041188,-1072.533697
3601.009883,-9844.739029,148.041188,-1302.362347
3601.010212,-10658.965565,518.144159,766.095498
3601.010542,-10732.986159,0.000000,1991.848295
3601.010872,-10732.986159,-296.082377,3370.820191
3601.011202,-10140.821405,-296.082377,2911.162892
3601.011531,-9770.718434,0.000000,1149.143247
3601.011861,-10066.800811,518.144159,-1149.143247
3601.012191,-9770.718434,814.226536,-2221.676944
3601.012521,-10066.800811,592.164754,-1762.019645
3601.012851,-9474.636058,592.164754,-383.047749
3601.013180,-8956.491898,0.000000,76.609550
3601.013510,-9178.553681,-148.041188,0.000000
3601.013840,-8512.368333,-444.123565,-995.924147
3601.014170,-8290.306550,-592.164754,-1225.752797
3601.014499,-8734.430116,-148.041188,-76.609550
3601.014829,-10066.800811,-74.020594,1762.019645
3601.015159,-10881.027347,74.020594,3294.210641
3601.015489,-11325.150913,296.082377,3370.820191
3601.015818,-11473.192101,518.144159,2374.896044
3601.016148,-11473.192101,222.061783,0.000000
3601.016478,-10881.027347,0.000000,-1455.581446
3601.016808,-9918.759623,-444.123565,-1915.238745
3601.017138,-9104.533087,-740.205942,-842.705048
3601.017467,-8364.327145,-592.164754,459.657299
3601.017797,-7994.224174,-370.102971,766.095498
3601.018127,-8438.347739,74.020594,76.609550
3601.018457,-8956.491898,222.061783,-1149.143247
3601.018786,-9918.759623,370.102971,-766.095498
3601.019116,-10807.006753,0.000000,689.485948
3601.019446,-11251.130318,0.000000,2681.334243
3601.019776,-10807.006753,-444.123565,3370.820191
3601.020105,-10881.027347,-74.020594,3217.601092
3601.020435,-10214.842000,-222.061783,1225.752797
3601.020765,-10214.842000,0.000000,-1149.143247
3601.021095,-10214.842000,148.041188,-1685.410096
3601.021425,-9844.739029,0.000000,-1149.143247
3601.021754,-8956.491898,0.000000,-306.438199
3601.022084,-8734.430116,-296.082377,459.657299
3601.022414,-8586.388927,-518.144159,153.219100
3601.022744,-8438.347739,-370.102971,-1072.533697
3601.023073,-8512.368333,-592.164754,-1378.971896
3601.023403,-9104.533087,-666.185348,-536.266849
3601.023733,-9992.780217,0.000000,1762.019645
3601.024063,-10732.986159,222.061783,3600.648841
3601.024392,-11103.089130,444.123565,3064.381992
3601.024722,-11251.130318,592.164754,1302.362347
3601.025052,-11325.150913,370.102971,-919.314598
3601.025382,-10584.944971,296.082377,-2221.676944
3601.025712,-9548.656652,0.000000,-1991.848295
3601.026041,-9030.512492,0.000000,-612.876398
3601.026371,-8142.265362,0.000000,229.828649
3601.026701,-8142.265362,222.061783,459.657299
3601.027031,-8660.409521,296.082377,-689.485948
3601.027360,-9400.615463,518.144159,-1685.410096
3601.027690,-9844.739029,222.061783,-1149.143247
3601.028020,-10658.965565,222.061783,229.828649
3601.028350,-10955.047942,0.000000,2298.286494
3601.028679,-11103.089130,-296.082377,2987.772442
3601.029009,-10214.842000,-370.102971,2528.115143
3601.029339,-10362.883188,0.000000,383.047749
3601.029669,-10436.903782,296.082377,-1149.143247
3601.029999,-9992.780217,444.123565,-2221.676944
3601.030328,-9770.718434,296.082377,-1685.410096
3601.030658,-9326.594869,296.082377,-153.219100
3601.030988,-8956.491898,0.000000,306.438199
3601.031318,-8734.430116,0.000000,-229.828649
3601.031647,-7772.162391,-518.144159,-1302.362347
3601.031977,-8068.244768,-592.164754,-1608.800546
3601.032307,-9104.533087,-148.041188,0.000000
3601.032637,-10066.800811,0.000000,2068.457845
3601.032966,-10881.027347,370.102971,3830.477490
3601.033296,-11251.130318,740.205942,2757.943793
3601.033626,-11547.212695,740.205942,995.924147
3601.033956,-11399.171507,518.144159,-1072.533697
3601.034286,-10955.047942,518.144159,-1838.629195
3601.034615,-9696.697840,-148.041188,-1685.410096
3601.034945,-8438.347739,0.000000,-76.609550
3601.035275,-8068.244768,0.000000,842.705048
3601.035605,-8290.306550,148.041188,612.876398
3601.035934,-8734.430116,370.102971,-536.266849
3601.036264,-9474.636058,444.123565,-1149.143247
3601.036594,-10066.800811,370.102971,-306.438199
3601.036924,-11251.130318,444.123565,1455.581446
3601.037253,-11399.171507,148.041188,3600.648841
3601.037583,-10881.027347,0.000000,3830.477490
3601.037913,-10362.883188,0.000000,2681.334243
3601.038243,-10510.924376,74.020594,229.828649
3601.038572,-10510.924376,1036.288319,-1302.362347
3601.038902,-10436.903782,592.164754,-1608.800546
3601.039232,-9918.759623,592.164754,-459.657299
3601.039562,-8882.471304,444.123565,842.705048
3601.039892,-8586.388927,0.000000,689.485948
3601.040221,-8142.265362,-444.123565,-153.219100
3601.040551,-8068.244768,-222.061783,-995.924147
3601.040881,-8512.368333,-592.164754,-459.657299
3601.041211,-9252.574275,74.020594,1149.143247
3601.041540,-10362.883188,296.082377,3447.429741
3601.041870,-11177.109724,444.123565,4290.134789
3601.042200,-11177.109724,740.205942,2911.162892
3601.042530,-11399.171507,814.226536,153.219100
3601.042859,-10807.006753,962.267725,-1455.581446
3601.043189,-10510.924376,296.082377,-2298.286494
3601.043519,-9474.636058,74.020594,-1149.143247
3601.043849,-8068.244768,0.000000,153.219100
3601.044179,-7328.038826,0.000000,1072.533697
3601.044508,-7920.203579,148.041188,-383.047749
3601.044838,-8660.409521,518.144159,-1532.190996
3601.045168,-9770.718434,592.164754,-1378.971896
3601.045498,-10140.821405,222.061783,-229.828649
3601.045827,-10807.006753,0.000000,2145.067394
3601.046157,-11029.068536,0.000000,3524.039291
3601.046487,-10881.027347,-74.020594,3524.039291
3601.046817,-10362.883188,0.000000,1838.629195
3601.047146,-10584.944971,518.144159,-612.876398
3601.047476,-10362.883188,592.164754,-2221.676944
3601.047806,-10140.821405,370.102971,-1915.238745
3601.048136,-9622.677246,370.102971,-919.314598
3601.048466,-9030.512492,296.082377,-306.438199
3601.048795,-8882.471304,-74.020594,76.609550
3601.049125,-8734.430116,-222.061783,-995.924147
3601.049455,-8512.368333,-518.144159,-1685.410096
3601.049785,-8734.430116,-222.061783,-612.876398
3601.050114,-10214.842000,74.020594,1608.800546
3601.050444,-10881.027347,0.000000,3907.087040
3601.050774,-11177.109724,296.082377,3907.087040
3601.051104,-11325.150913,518.144159,2221.676944
3601.051433,-11103.089130,296.082377,306.438199
3601.051763,-10658.965565,0.000000,-2145.067394
3601.052093,-9992.780217,-370.102971,-2604.724693
3601.052423,-9178.553681,-666.185348,-1302.362347
3601.052753,-7698.141797,-222.061783,229.828649
3601.053082,-7772.162391,-370.102971,153.219100
3601.053412,-8142.265362,-222.061783,-919.314598
3601.053742,-8956.491898,0.000000,-1762.019645
3601.054072,-9474.636058,-148.041188,-1762.019645
3601.054401,-10584.944971,0.000000,0.000000
3601.054731,-10881.027347,-592.164754,2298.286494
3601.055061,-10881.027347,-666.185348,3753.867940
3601.055391,-10658.965565,-740.205942,3370.820191
3601.055720,-10362.883188,-444.123565,1838.629195
3601.056050,-10436.903782,-296.082377,-766.095498
3601.056380,-10140.821405,148.041188,-2145.067394
3601.056710,-9696.697840,0.000000,-1608.800546
3601.057040,-9326.594869,222.061783,-995.924147
3601.057369,-8586.388927,0.000000,-153.219100
3601.057699,-8808.450710,-444.123565,-612.876398
3601.058029,-8438.347739,-222.061783,-1149.143247
3601.058359,-8216.285956,-148.041188,-1302.362347
3601.058688,-9326.594869,-370.102971,-459.657299
3601.059018,-10140.821405,0.000000,1378.971896
3601.059348,-10881.027347,296.082377,3064.381992
3601.059678,-11029.068536,296.082377,3294.210641
3601.060007,-11399.171507,444.123565,1991.848295
3601.060337,-11325.150913,74.020594,-153.219100
3601.060667,-11103.089130,296.082377,-1991.848295
3601.060997,-10288.862594,-370.102971,-2298.286494
3601.061327,-9104.533087,-148.041188,-919.314598
3601.061656,-7846.182985,-370.102971,536.266849
3601.061986,-7994.224174,-518.144159,1149.143247
3601.062316,-8216.285956,0.000000,0.000000
3601.062646,-8512.368333,370.102971,-842.705048
3601.062975,-9474.636058,222.061783,-995.924147
3601.063305,-10436.903782,370.102971,919.314598
3601.063635,-11029.068536,296.082377,2451.505594
3601.063965,-11029.068536,74.020594,3983.696590
3601.064294,-10584.944971,518.144159,3064.381992
3601.064624,-10732.986159,518.144159,995.924147
3601.064954,-10658.965565,592.164754,-1225.752797
3601.065284,-10214.842000,444.123565,-2145.067394
3601.065614,-9844.739029,370.102971,-1608.800546
3601.065943,-9104.533087,592.164754,-306.438199
3601.066273,-8808.450710,222.061783,612.876398
3601.066603,-8660.409521,0.000000,536.266849
3601.066933,-8290.306550,0.000000,-689.485948
3601.067262,-8660.409521,0.000000,-1072.533697
3601.067592,-9326.594869,296.082377,0.000000
3601.067922,-10436.903782,592.164754,2221.676944
3601.068252,-10807.006753,666.185348,4366.744339
3601.068581,-11177.109724,1110.308913,3447.429741
3601.068911,-11251.130318,888.247130,1838.629195
3601.069241,-11547.212695,814.226536,-1072.533697
3601.069571,-10955.047942,888.247130,-2298.286494
3601.069901,-9844.739029,148.041188,-2298.286494
3601.070230,-8808.450710,148.041188,-919.314598
3601.070560,-7698.141797,0.000000,306.438199
3601.070890,-7772.162391,0.000000,229.828649
3601.071220,-7476.080014,222.061783,-536.266849
3601.071549,-8586.388927,518.144159,-1838.629195
3601.071879,-9770.718434,296.082377,-1302.362347
3601.072209,-10584.944971,296.082377,536.266849
3601.072539,-11103.089130,222.061783,2604.724693
3601.072868,-11251.130318,-296.082377,3907.087040
3601.073198,-10510.924376,0.000000,2834.553343
3601.073528,-10140.821405,0.000000,612.876398
3601.073858,-10140.821405,296.082377,-1455.581446
3601.074188,-10288.862594,444.123565,-2374.896044
3601.074518,-9622.677246,222.061783,-1915.238745
3601.074847,-8734.430116,296.082377,-995.924147
3601.075177,-8290.306550,0.000000,0.000000
3601.075507,-8586.388927,-444.123565,-229.828649
3601.075837,-8660.409521,-666.185348,-1149.143247
3601.076167,-8882.471304,-740.205942,-1225.752797
3601.076497,-9400.615463,-740.205942,306.438199
3601.076826,-10066.800811,-370.102971,2528.115143
3601.077156,-11029.068536,-222.061783,4136.915689
3601.077486,-11843.295072,74.020594,3830.477490
3601.077816,-11695.253884,0.000000,1532.190996
3601.078146,-11473.192101,0.000000,-612.876398
3601.078476,-10436.903782,-148.041188,-2221.676944
3601.078805,-9622.677246,-888.247130,-1608.800546
3601.079135,-8808.450710,-370.102971,-383.047749
3601.079465,-7994.224174,-740.205942,766.095498
3601.079795,-7698.141797,-444.123565,306.438199
3601.080125,-8290.306550,-222.061783,-1302.362347
3601.080455,-9326.594869,0.000000,-1455.581446
3601.080784,-10214.842000,-222.061783,-919.314598
3601.081114,-11251.130318,-222.061783,1455.581446
3601.081444,-11029.068536,-888.247130,3370.820191
3601.081774,-10955.047942,-592.164754,3677.258390
3601.082104,-10288.862594,-814.226536,2604.724693
3601.082434,-10362.883188,-666.185348,153.219100
3601.082763,-10362.883188,-222.061783,-1991.848295
3601.083093,-9918.759623,-222.061783,-2298.286494
3601.083423,-9252.574275,-222.061783,-1225.752797
3601.083753,-8586.388927,-148.041188,76.609550
3601.084083,-8586.388927,-740.205942,229.828649
3601.084413,-8438.347739,-592.164754,0.000000
3601.084742,-8512.368333,-592.164754,-689.485948
3601.085072,-8660.409521,-962.267725,-842.705048
3601.085402,-9696.697840,-666.185348,919.314598
3601.085732,-10807.006753,-222.061783,2911.162892
3601.086062,-11547.212695,148.041188,4060.306139
3601.086392,-11473.192101,444.123565,2987.772442
3601.086721,-11399.171507,296.082377,919.314598
3601.087051,-10955.047942,592.164754,-1762.019645
3601.087381,-10584.944971,518.144159,-2681.334243
3601.087711,-9548.656652,0.000000,-1762.019645
3601.088041,-8364.327145,-370.102971,76.609550
3601.088371,-7920.203579,222.061783,1149.143247
3601.088700,-8142.265362,148.041188,536.266849
3601.089030,-8734.430116,370.102971,-689.485948
3601.089360,-9622.677246,222.061783,-919.314598
3601.089690,-10288.862594,148.041188,536.266849
3601.090020,-11399.171507,592.164754,2451.505594
3601.090349,-11473.192101,444.123565,3830.477490
3601.090679,-10807.006753,296.082377,3677.258390
3601.091009,-10288.862594,518.144159,2068.457845
3601.091339,-10732.986159,592.164754,-459.657299
3601.091669,-10510.924376,1110.308913,-1608.800546
3601.091999,-9918.759623,518.144159,-2068.457845
3601.092328,-8956.491898,370.102971,-842.705048
3601.092658,-8364.327145,444.123565,0.000000
3601.092988,-7994.224174,0.000000,0.000000
3601.093318,-8216.285956,148.041188,-459.657299
3601.093648,-8216.285956,148.041188,-1532.190996
3601.093978,-9252.574275,444.123565,-919.314598
3601.094307,-10066.800811,666.185348,1378.971896
3601.094637,-10732.986159,592.164754,3294.210641
3601.094967,-11177.109724,592.164754,3907.087040
3601.095297,-11325.150913,1184.329507,2757.943793
3601.095627,-10955.047942,814.226536,0.000000
3601.095957,-10436.903782,740.205942,-2221.676944
3601.096286,-9770.718434,370.102971,-2604.724693
3601.096616,-9326.594869,370.102971,-919.314598
3601.096946,-7846.182985,370.102971,0.000000
3601.097276,-7624.121203,518.144159,76.609550
3601.097606,-8438.347739,1184.329507,-689.485948
3601.097936,-8956.491898,1258.350101,-1838.629195
3601.098265,-9918.759623,888.247130,-1915.238745
3601.098595,-10881.027347,592.164754,153.219100
3601.098925,-11621.233289,518.144159,2221.676944
3601.099255,-11843.295072,0.000000,3983.696590
3601.099585,-11103.089130,222.061783,3217.601092
3601.099915,-10881.027347,0.000000,1225.752797
3601.100244,-10510.924376,0.000000,-612.876398
3601.100574,-10436.903782,444.123565,-1532.190996
3601.100904,-9696.697840,370.102971,-919.314598
3601.101234,-9326.594869,148.041188,0.000000
3601.101564,-8438.347739,-592.164754,459.657299
3601.101894,-8734.430116,-518.144159,229.828649
3601.102223,-8290.306550,-666.185348,-919.314598
3601.102553,-8290.306550,-962.267725,-1532.190996
3601.102883,-9030.512492,-962.267725,-229.828649
3601.103213,-9696.697840,-740.205942,1991.848295
3601.103543,-10584.944971,-814.226536,3294.210641
3601.103873,-11177.109724,-444.123565,3830.477490
3601.104202,-11251.130318,0.000000,2145.067394
3601.104532,-11251.130318,-370.102971,-306.438199
3601.104862,-10436.903782,-518.144159,-2298.286494
3601.105192,-9548.656652,-592.164754,-2145.067394
3601.105522,-8438.347739,-1036.288319,-842.705048
3601.105852,-7550.100608,-1036.288319,0.000000
3601.106181,-7698.141797,-740.205942,306.438199
3601.106511,-8142.265362,0.000000,-459.657299
3601.106841,-9104.533087,0.000000,-1608.800546
3601.107171,-9918.759623,-74.020594,-1072.533697
3601.107501,-11103.089130,-74.020594,536.266849
3601.107831,-11621.233289,-518.144159,2528.115143
3601.108160,-11029.068536,-962.267725,3677.258390
3601.108490,-10658.965565,-888.247130,2834.553343
3601.108820,-10732.986159,-518.144159,842.705048
3601.109150,-10658.965565,0.000000,-1378.971896
3601.109480,-9548.656652,0.000000,-2451.505594
3601.109810,-9770.718434,74.020594,-2145.067394
3601.110139,-9178.553681,0.000000,-842.705048
3601.110469,-8438.347739,-518.144159,153.219100
3601.110799,-8290.306550,-370.102971,153.219100
3601.111129,-8364.327145,-592.164754,-919.314598
3601.111459,-9030.512492,-592.164754,-459.657299
3601.111789,-9770.718434,-370.102971,536.266849
3601.112118,-10584.944971,0.000000,2528.115143
3601.112448,-11399.171507,0.000000,4290.134789
3601.112778,-11695.253884,296.082377,3830.477490
3601.113108,-11473.192101,518.144159,1915.238745
3601.113438,-11621.233289,666.185348,-383.047749
3601.113768,-10436.903782,518.144159,-2221.676944
3601.114097,-9548.656652,0.000000,-1915.238745
3601.114427,-8364.327145,0.000000,-1072.533697
3601.114757,-7772.162391,74.020594,0.000000
3601.115087,-7476.080014,518.144159,536.266849
3601.115417,-8216.285956,666.185348,-1072.533697
3601.115747,-9030.512492,666.185348,-1608.800546
3601.116076,-10066.800811,666.185348,-995.924147
3601.116406,-10955.047942,1184.329507,1149.143247
3601.116736,-11325.150913,0.000000,2757.943793
3601.117066,-11177.109724,74.020594,3447.429741
3601.117396,-10510.924376,296.082377,2451.505594
3601.117726,-10436.903782,222.061783,612.876398
3601.118055,-10436.903782,444.123565,-1532.190996
3601.118385,-9548.656652,666.185348,-2528.115143
3601.118715,-9400.615463,666.185348,-2298.286494
3601.119045,-8660.409521,740.205942,-995.924147
3601.119375,-8956.491898,888.247130,229.828649
3601.119705,-8734.430116,592.164754,-612.876398
3601.120034,-8586.388927,592.164754,-1685.410096
3601.120364,-8660.409521,148.041188,-1532.190996
3601.120694,-9844.739029,740.205942,383.047749
3601.121024,-10658.965565,370.102971,2528.115143
3601.121354,-11399.171507,296.082377,4060.306139
3601.121684,-11621.233289,518.144159,3370.820191
3601.122013,-11251.130318,814.226536,1532.190996
3601.122343,-11177.109724,518.144159,-995.924147
3601.122673,-10288.862594,148.041188,-2298.286494
3601.123003,-9474.636058,-370.102971,-1838.629195
3601.123333,-8068.244768,0.000000,0.000000
3601.123663,-7772.162391,0.000000,1072.533697
3601.123992,-7994.224174,0.000000,766.095498
3601.124322,-8660.409521,148.041188,-383.047749
3601.124652,-9400.615463,0.000000,-1225.752797
3601.124982,-10066.800811,222.061783,0.000000
3601.125312,-11029.068536,-296.082377,1685.410096
3601.125642,-11473.192101,-444.123565,3217.601092
3601.125971,-10955.047942,-666.185348,3753.867940
3601.126301,-10066.800811,-148.041188,1838.629195
3601.126631,-10362.883188,-296.082377,-306.438199
3601.126961,-10584.944971,74.020594,-2221.676944
3601.127291,-9918.759623,0.000000,-2681.334243
3601.127621,-9474.636058,0.000000,-1455.581446
3601.127950,-8364.327145,-222.061783,0.000000
3601.128280,-8586.388927,-444.123565,689.485948
3601.128610,-9030.512492,-518.144159,-306.438199
3601.128940,-8808.450710,-518.144159,-995.924147
3601.129270,-9252.574275,-74.020594,-995.924147
3601.129600,-10140.821405,-222.061783,1225.752797
3601.129929,-11251.130318,0.000000,3677.258390
3601.130259,-11843.295072,0.000000,4903.011187
3601.130589,-11251.130318,592.164754,2451.505594
3601.130919,-11029.068536,148.041188,612.876398
3601.131249,-11251.130318,518.144159,-1991.848295
3601.131579,-10066.800811,222.061783,-2757.943793
3601.131908,-9326.594869,-518.144159,-1685.410096
3601.132238,-7994.224174,-296.082377,0.000000
3601.132568,-7550.100608,-740.205942,1149.143247
3601.132898,-7846.182985,-74.020594,536.266849
3601.133228,-8734.430116,370.102971,-689.485948
3601.133558,-9326.594869,296.082377,-919.314598
3601.133887,-10584.944971,222.061783,153.219100
3601.134217,-11177.109724,0.000000,2451.505594
3601.134547,-11695.253884,-222.061783,4136.915689
3601.134877,-10658.965565,-296.082377,3447.429741
3601.135207,-10140.821405,-148.041188,1455.581446
3601.135537,-9992.780217,0.000000,-995.924147
3601.135866,-9548.656652,370.102971,-2451.505594
3601.136196,-8660.409521,74.020594,-2145.067394
3601.136526,-8586.388927,444.123565,-689.485948
3601.136856,-8364.327145,592.164754,383.047749
3601.137186,-8512.368333,296.082377,229.828649
3601.137516,-8438.347739,444.123565,-995.924147
3601.137845,-8808.450710,0.000000,-1072.533697
3601.138175,-9400.615463,222.061783,-536.266849
3601.138505,-10436.903782,592.164754,1225.752797
3601.138835,-11103.089130,444.123565,3064.381992
3601.139165,-11103.089130,666.185348,3907.087040
3601.139495,-11177.109724,1036.288319,2298.286494
3601.139824,-11029.068536,814.226536,-383.047749
3601.140154,-10881.027347,888.247130,-2374.896044
3601.140484,-9844.739029,592.164754,-2374.896044
3601.140814,-9400.615463,222.061783,-1072.533697
3601.141144,-8068.244768,148.041188,536.266849
3601.141474,-7846.182985,74.020594,612.876398
3601.141803,-8438.347739,444.123565,-153.219100
3601.142133,-8586.388927,518.144159,-1225.752797
3601.142463,-9696.697840,666.185348,-1149.143247
3601.142793,-10955.047942,888.247130,153.219100
3601.143123,-11621.233289,666.185348,1991.848295
3601.143453,-11325.150913,222.061783,3447.429741
3601.143782,-10881.027347,148.041188,2834.553343
3601.144112,-10288.862594,148.041188,919.314598
3601.144442,-10066.800811,296.082377,-1608.800546
3601.144772,-9918.759623,444.123565,-2681.334243
3601.145102,-9400.615463,296.082377,-1915.238745
3601.145432,-8956.491898,222.061783,-766.095498
3601.145761,-8808.450710,74.020594,153.219100
3601.146091,-8734.430116,-296.082377,-459.657299
3601.146421,-8586.388927,0.000000,-689.485948
3601.146751,-8364.327145,-518.144159,-919.314598
3601.147081,-9252.574275,-444.123565,229.828649
3601.147411,-10362.883188,0.000000,2528.115143
3601.147740,-11473.192101,0.000000,3907.087040
3601.148070,-11695.253884,296.082377,3753.867940
3601.148400,-11325.150913,444.123565,1915.238745
3601.148730,-11251.130318,0.000000,-383.047749
3601.149060,-10584.944971,222.061783,-2374.896044
3601.149390,-9770.718434,-518.144159,-1915.238745
3601.149719,-8734.430116,-814.226536,-612.876398
3601.150049,-7846.182985,-370.102971,766.095498
3601.150379,-7846.182985,74.020594,459.657299
3601.150709,-8364.327145,0.000000,612.876398
3601.151039,-9400.615463,148.041188,-766.095498
3601.151369,-9844.739029,0.000000,-612.876398
3601.151698,-11251.130318,74.020594,919.314598
3601.152028,-11621.233289,0.000000,2681.334243
3601.152358,-11547.212695,-592.164754,3294.210641
3601.152688,-10881.027347,-148.041188,2451.505594
3601.153018,-10066.800811,-444.123565,153.219100
3601.153348,-9992.780217,74.020594,-2145.067394
3601.153677,-9622.677246,74.020594,-2528.115143
3601.154007,-8882.471304,0.000000,-2145.067394
3601.154337,-8068.244768,-222.061783,-766.095498
3601.154667,-7994.224174,-518.144159,536.266849
3601.154997,-8734.430116,-518.144159,153.219100
3601.155327,-9178.553681,-444.123565,-766.095498
3601.155656,-9178.553681,-740.205942,-306.438199
3601.155986,-9992.780217,-592.164754,919.314598
3601.156316,-10955.047942,-296.082377,2604.724693
3601.156646,-11251.130318,0.000000,3907.087040
3601.156976,-11251.130318,222.061783,3140.991542
3601.157306,-11103.089130,296.082377,919.314598
3601.157635,-10732.986159,370.102971,-1762.019645
3601.157965,-10214.842000,74.020594,-2528.115143
3601.158295,-9178.553681,-370.102971,-2374.896044
3601.158625,-8068.244768,-444.123565,-689.485948
3601.158955,-7476.080014,-370.102971,306.438199
3601.159285,-7920.203579,0.000000,0.000000
3601.159614,-8660.409521,0.000000,-229.828649
3601.159944,-9474.636058,0.000000,-842.705048
3601.160274,-10732.986159,222.061783,-76.609550
3601.160604,-11547.212695,296.082377,1608.800546
3601.160934,-11769.274478,-370.102971,2528.115143
3601.161263,-11177.109724,-370.102971,3370.820191
3601.161593,-10732.986159,-296.082377,2068.457845
3601.161923,-10066.800811,0.000000,-612.876398
3601.162253,-9844.739029,296.082377,-2451.505594
3601.162583,-9326.594869,0.000000,-2834.553343
3601.162913,-9030.512492,0.000000,-2451.505594
3601.163242,-8586.388927,0.000000,-1072.533697
