#time,accel_x,accel_y,accel_z
3748.271857,-9548.656652,74.020594,306.438199
3748.272187,-9770.718434,0.000000,76.609550
3748.272517,-9918.759623,222.061783,383.047749
3748.272847,-9918.759623,148.041188,306.438199
3748.273177,-9770.718434,0.000000,0.000000
3748.273507,-9992.780217,74.020594,383.047749
3748.273837,-9548.656652,0.000000,383.047749
3748.274167,-9474.636058,0.000000,76.609550
3748.274497,-9622.677246,222.061783,459.657299
3748.274827,-9696.697840,222.061783,76.609550
3748.275157,-9622.677246,148.041188,383.047749
3748.275487,-9992.780217,74.020594,1072.533697
3748.275817,-10436.903782,370.102971,689.485948
3748.276147,-10140.821405,0.000000,0.000000
3748.276478,-9622.677246,148.041188,-536.266849
3748.276808,-9696.697840,148.041188,-536.266849
3748.277138,-9622.677246,148.041188,-383.047749
3748.277468,-10214.842000,222.061783,-536.266849
3748.277798,-9770.718434,0.000000,-76.609550
3748.278128,-9844.739029,-444.123565,0.000000
3748.278458,-9400.615463,-148.041188,76.609550
3748.278788,-9400.615463,-740.205942,-306.438199
3748.279118,-9548.656652,-888.247130,-76.609550
3748.279448,-9252.574275,-592.164754,-306.438199
3748.279778,-9918.759623,-518.144159,0.000000
3748.280108,-9918.759623,-370.102971,153.219100
3748.280438,-10066.800811,-518.144159,306.438199
3748.280768,-10510.924376,-296.082377,459.657299
3748.281098,-10066.800811,-444.123565,-995.924147
3748.281428,-10066.800811,-296.082377,-1838.629195
3748.281758,-9622.677246,-888.247130,-2298.286494
3748.282088,-9622.677246,-666.185348,-1915.238745
3748.282419,-9474.636058,-1184.329507,-1762.019645
3748.282749,-8956.491898,-1036.288319,-612.876398
3748.283079,-9252.574275,-1184.329507,0.000000
3748.283409,-9548.656652,-1036.288319,0.000000
3748.283739,-9992.780217,-888.247130,-383.047749
3748.284069,-10584.944971,-666.185348,-612.876398
3748.284399,-10362.883188,-666.185348,-919.314598
3748.284729,-10214.842000,-962.267725,-995.924147
3748.285059,-10288.862594,-1036.288319,-919.314598
3748.285389,-9844.739029,-1184.329507,-1838.629195
3748.285719,-9992.780217,-1406.391290,-2604.724693
3748.286049,-9844.739029,-1628.453072,-2757.943793
3748.286379,-9844.739029,-1850.514855,-2757.943793
3748.286709,-9696.697840,-1776.494261,-2451.505594
3748.287039,-8586.388927,-1702.473667,-2528.115143
3748.287369,-8290.306550,-1924.535449,-1838.629195
3748.287699,-8660.409521,-1628.453072,-1072.533697
3748.288030,-9770.718434,-1036.288319,-459.657299
3748.288360,-10658.965565,-814.226536,76.609550
3748.288690,-11399.171507,-888.247130,-306.438199
3748.289020,-11695.253884,-1406.391290,-459.657299
3748.289350,-12139.377449,-1924.535449,-1455.581446
3748.289680,-11695.253884,-2294.638420,-2757.943793
3748.290010,-9992.780217,-3108.864956,-4903.011187
3748.290340,-8216.285956,-3701.029710,-4826.401637
3748.290670,-6735.874072,-3552.988522,-3064.381992
3748.291000,-7624.121203,-2590.720797,-1302.362347
3748.291330,-9104.533087,-1554.432478,-689.485948
3748.291660,-10214.842000,-1332.370696,-2374.896044
3748.291990,-10732.986159,-1480.411884,-4673.182538
3748.292320,-11621.233289,-2516.700203,-5209.449386
3748.292650,-11991.336260,-3108.864956,-3524.039291
3748.292980,-10732.986159,-4737.318029,-1762.019645
3748.293310,-8438.347739,-5625.565159,-1455.581446
3748.293640,-7179.997637,-5551.544565,-2068.457845
3748.293971,-7698.141797,-4367.215058,-2298.286494
3748.294301,-8216.285956,-3330.926739,-2298.286494
3748.294631,-9770.718434,-1776.494261,-1225.752797
3748.294961,-11547.212695,-1110.308913,-919.314598
3748.295291,-11843.295072,-1184.329507,-1915.238745
3748.295621,-11251.130318,-2442.679609,-3753.867940
3748.295951,-10510.924376,-3627.009116,-5209.449386
3748.296281,-9548.656652,-4663.297435,-4826.401637
3748.296611,-8808.450710,-5625.565159,-3370.820191
3748.296941,-8808.450710,-4811.338623,-1225.752797
3748.297271,-7846.182985,-4441.235652,459.657299
3748.297601,-8216.285956,-3330.926739,1455.581446
3748.297931,-9696.697840,-2072.576638,536.266849
3748.298261,-12287.418637,-1702.473667,-766.095498
3748.298591,-12509.480420,-1628.453072,-2298.286494
3748.298921,-11325.150913,-2146.597232,-2987.772442
3748.299251,-9548.656652,-3552.988522,-2528.115143
3748.299581,-9104.533087,-4441.235652,-2298.286494
3748.299912,-9326.594869,-4293.194464,-1991.848295
3748.300242,-8660.409521,-3997.112087,-1532.190996
3748.300572,-8438.347739,-2960.823768,-1149.143247
3748.300902,-9474.636058,-2368.659014,-1608.800546
3748.301232,-10214.842000,-1184.329507,-689.485948
3748.301562,-11695.253884,-1332.370696,842.705048
3748.301892,-12879.583391,-888.247130,612.876398
3748.302222,-11251.130318,-1702.473667,-995.924147
3748.302552,-9178.553681,-2220.617826,-1302.362347
3748.302882,-9548.656652,-2368.659014,-1915.238745
3748.303212,-10584.944971,-2368.659014,-3217.601092
3748.303542,-9918.759623,-2220.617826,-2911.162892
3748.303872,-9178.553681,-1998.556043,-2221.676944
3748.304202,-8882.471304,-2146.597232,-1838.629195
3748.304532,-9326.594869,-1628.453072,0.000000
3748.304862,-9918.759623,-1702.473667,-459.657299
3748.305192,-9622.677246,-1480.411884,-2374.896044
3748.305523,-8586.388927,-1554.432478,-3370.820191
3748.305853,-9474.636058,-1554.432478,-2757.943793
3748.306183,-9696.697840,-1406.391290,-995.924147
3748.306513,-10066.800811,-1110.308913,306.438199
3748.306843,-10955.047942,-666.185348,0.000000
3748.307173,-11251.130318,-296.082377,-2374.896044
3748.307503,-11029.068536,-1184.329507,-4519.963438
3748.307833,-9770.718434,-1850.514855,-4749.792088
3748.308163,-9252.574275,-1924.535449,-2911.162892
3748.308493,-10214.842000,-1184.329507,-1608.800546
3748.308823,-8956.491898,-1332.370696,-2374.896044
3748.309153,-7179.997637,-1776.494261,-3217.601092
3748.309483,-6883.915261,-1776.494261,-4290.134789
3748.309813,-8586.388927,-1184.329507,-2987.772442
3748.310143,-11029.068536,-444.123565,-306.438199
3748.310473,-11621.233289,0.000000,459.657299
3748.310803,-11325.150913,-444.123565,-383.047749
3748.311133,-10881.027347,-1332.370696,-1072.533697
3748.311464,-11399.171507,-962.267725,-2528.115143
3748.311794,-12361.439231,-1924.535449,-2987.772442
3748.312124,-10140.821405,-1628.453072,-3217.601092
3748.312454,-7105.977043,-1850.514855,-2221.676944
3748.312784,-7402.059420,-1998.556043,-919.314598
3748.313114,-8882.471304,-1036.288319,-76.609550
3748.313444,-10140.821405,-592.164754,-2145.067394
3748.313774,-9548.656652,-666.185348,-2681.334243
3748.314104,-9252.574275,-888.247130,-2528.115143
3748.314434,-10140.821405,-1332.370696,-612.876398
3748.314764,-11695.253884,-2220.617826,919.314598
3748.315094,-12213.398043,-2220.617826,919.314598
3748.315424,-10510.924376,-3552.988522,-1072.533697
3748.315754,-8808.450710,-3034.844362,-1685.410096
3748.316084,-9474.636058,-2368.659014,-153.219100
3748.316414,-10436.903782,-2294.638420,0.000000
3748.316744,-9178.553681,-1702.473667,-1378.971896
3748.317074,-7550.100608,-1332.370696,-3447.429741
3748.317405,-8956.491898,-814.226536,-4443.353888
3748.317735,-10955.047942,-1480.411884,-3524.039291
3748.318065,-10807.006753,-2516.700203,-1608.800546
3748.318395,-8808.450710,-2664.741391,-1072.533697
3748.318725,-9252.574275,-2664.741391,-1378.971896
3748.319055,-10436.903782,-2738.761985,-1991.848295
3748.319385,-10807.006753,-3108.864956,-1762.019645
3748.319715,-10140.821405,-2442.679609,-842.705048
3748.320045,-9918.759623,-2368.659014,-1072.533697
3748.320375,-10510.924376,-2368.659014,-612.876398
3748.320705,-10140.821405,-2516.700203,-383.047749
3748.321035,-9992.780217,-2220.617826,-689.485948
3748.321365,-9326.594869,-1776.494261,-2757.943793
3748.321695,-8660.409521,-2442.679609,-4826.401637
3748.322025,-8364.327145,-2516.700203,-3830.477490
3748.322355,-9474.636058,-1850.514855,153.219100
3748.322685,-10362.883188,-1776.494261,1302.362347
3748.323016,-10658.965565,-1702.473667,0.000000
3748.323346,-9992.780217,-2368.659014,-1838.629195
3748.323676,-11029.068536,-2294.638420,-1072.533697
3748.324006,-11177.109724,-1776.494261,536.266849
3748.324336,-10362.883188,-2072.576638,1225.752797
3748.324666,-9030.512492,-1480.411884,0.000000
3748.324996,-7550.100608,-1554.432478,-1685.410096
3748.325326,-8216.285956,-1184.329507,-1685.410096
3748.325656,-10510.924376,-888.247130,306.438199
3748.325986,-10732.986159,-962.267725,689.485948
3748.326316,-10140.821405,-1184.329507,153.219100
3748.326646,-8808.450710,-1406.391290,383.047749
3748.326976,-9400.615463,-888.247130,1149.143247
3748.327306,-10214.842000,-444.123565,1685.410096
3748.327636,-8882.471304,-740.205942,1225.752797
3748.327966,-8882.471304,-370.102971,2145.067394
3748.328296,-9622.677246,444.123565,1915.238745
3748.328626,-10436.903782,0.000000,2298.286494
3748.328956,-10881.027347,518.144159,1915.238745
3748.329285,-10288.862594,518.144159,536.266849
3748.329615,-10066.800811,888.247130,-383.047749
3748.329945,-8956.491898,666.185348,-1378.971896
3748.330275,-9918.759623,1110.308913,-306.438199
3748.330605,-10955.047942,2146.597232,612.876398
3748.330935,-10955.047942,1184.329507,842.705048
3748.331265,-10214.842000,740.205942,383.047749
3748.331595,-10510.924376,518.144159,-383.047749
3748.331925,-10214.842000,518.144159,306.438199
3748.332254,-8956.491898,296.082377,1225.752797
3748.332584,-8290.306550,962.267725,919.314598
3748.332914,-8882.471304,1036.288319,919.314598
3748.333244,-9474.636058,1332.370696,383.047749
3748.333574,-9992.780217,1702.473667,689.485948
3748.333904,-11029.068536,1702.473667,76.609550
3748.334234,-10807.006753,2294.638420,-229.828649
3748.334564,-9622.677246,1406.391290,689.485948
3748.334894,-9696.697840,1776.494261,1225.752797
3748.335223,-10066.800811,1480.411884,0.000000
3748.335553,-10066.800811,1850.514855,-1302.362347
3748.335883,-9326.594869,1628.453072,-1685.410096
3748.336213,-9918.759623,1998.556043,-1072.533697
3748.336543,-9844.739029,2072.576638,153.219100
3748.336873,-9400.615463,2442.679609,153.219100
3748.337203,-9918.759623,2664.741391,0.000000
3748.337533,-9992.780217,2220.617826,-842.705048
3748.337863,-9696.697840,1776.494261,-612.876398
3748.338193,-10066.800811,1406.391290,153.219100
3748.338522,-10658.965565,1258.350101,689.485948
3748.338852,-9844.739029,370.102971,1225.752797
3748.339182,-9474.636058,296.082377,1762.019645
3748.339512,-8956.491898,148.041188,1762.019645
3748.339842,-9474.636058,296.082377,1149.143247
3748.340172,-9918.759623,0.000000,1378.971896
3748.340502,-9770.718434,592.164754,1225.752797
3748.340832,-9474.636058,962.267725,1532.190996
3748.341162,-9548.656652,888.247130,1838.629195
3748.341491,-11103.089130,666.185348,2068.457845
3748.341821,-11473.192101,666.185348,306.438199
3748.342151,-10510.924376,74.020594,-1149.143247
3748.342481,-9548.656652,0.000000,-995.924147
3748.342811,-9992.780217,0.000000,-306.438199
3748.343141,-10140.821405,-444.123565,-1072.533697
3748.343471,-9400.615463,-814.226536,-995.924147
3748.343801,-8808.450710,0.000000,-842.705048
3748.344131,-9252.574275,-888.247130,-612.876398
3748.344460,-9474.636058,-592.164754,-612.876398
3748.344790,-9252.574275,-1110.308913,919.314598
3748.345120,-9844.739029,-1036.288319,459.657299
3748.345450,-9696.697840,-1184.329507,1072.533697
3748.345780,-10066.800811,-1628.453072,1225.752797
3748.346110,-9400.615463,-1184.329507,0.000000
3748.346440,-9474.636058,-1924.535449,-766.095498
3748.346770,-9252.574275,-1554.432478,-383.047749
3748.347100,-9326.594869,-1258.350101,536.266849
3748.347429,-9548.656652,-518.144159,0.000000
3748.347759,-9252.574275,-1184.329507,-1072.533697
3748.348089,-9178.553681,-740.205942,-1378.971896
3748.348419,-9474.636058,-592.164754,-1149.143247
3748.348749,-10510.924376,-518.144159,-383.047749
3748.349079,-9992.780217,-666.185348,76.609550
3748.349409,-9992.780217,-1480.411884,689.485948
3748.349739,-9992.780217,-888.247130,995.924147
3748.350069,-10658.965565,-1036.288319,1149.143247
3748.350399,-9770.718434,-1036.288319,1225.752797
3748.350728,-9696.697840,-962.267725,2068.457845
3748.351058,-10436.903782,-814.226536,1762.019645
3748.351388,-9918.759623,-444.123565,1991.848295
3748.351718,-10584.944971,-592.164754,1072.533697
3748.352048,-10658.965565,0.000000,612.876398
3748.352378,-10436.903782,-740.205942,766.095498
3748.352708,-9770.718434,-296.082377,612.876398
3748.353038,-9474.636058,-592.164754,-612.876398
3748.353368,-10066.800811,-296.082377,-1149.143247
3748.353697,-9474.636058,-814.226536,-76.609550
3748.354027,-9696.697840,-444.123565,153.219100
3748.354357,-10066.800811,-518.144159,0.000000
3748.354687,-9918.759623,-444.123565,-383.047749
3748.355017,-9474.636058,-592.164754,229.828649
3748.355347,-9326.594869,-814.226536,689.485948
3748.355677,-9252.574275,-370.102971,0.000000
3748.356007,-9252.574275,-370.102971,536.266849
3748.356337,-9844.739029,0.000000,995.924147
3748.356666,-9178.553681,-370.102971,766.095498
3748.356996,-8734.430116,-444.123565,0.000000
3748.357326,-9326.594869,74.020594,0.000000
3748.357656,-9992.780217,370.102971,-229.828649
3748.357986,-9548.656652,370.102971,0.000000
3748.358316,-8956.491898,370.102971,-842.705048
3748.358646,-8660.409521,962.267725,-1302.362347
3748.358976,-9104.533087,518.144159,-1225.752797
3748.359306,-9918.759623,1554.432478,0.000000
3748.359635,-10510.924376,1776.494261,-76.609550
3748.359965,-11029.068536,1776.494261,-995.924147
3748.360295,-9474.636058,1332.370696,-995.924147
3748.360625,-9844.739029,1036.288319,0.000000
3748.360955,-9326.594869,814.226536,766.095498
3748.361285,-9992.780217,1036.288319,842.705048
3748.361615,-9696.697840,1406.391290,919.314598
3748.361945,-9622.677246,1332.370696,229.828649
3748.362275,-10066.800811,1406.391290,1225.752797
3748.362605,-10066.800811,1036.288319,1225.752797
3748.362934,-11177.109724,1776.494261,1378.971896
3748.363264,-10510.924376,1924.535449,1685.410096
3748.363594,-10066.800811,1184.329507,842.705048
3748.363924,-10362.883188,1258.350101,229.828649
3748.364254,-10510.924376,1036.288319,0.000000
3748.364584,-10288.862594,740.205942,0.000000
3748.364914,-9474.636058,518.144159,306.438199
3748.365244,-10214.842000,592.164754,689.485948
3748.365574,-9696.697840,-518.144159,842.705048
3748.365903,-9474.636058,-666.185348,919.314598
3748.366233,-9474.636058,-518.144159,766.095498
3748.366563,-9548.656652,-444.123565,689.485948
3748.366893,-9326.594869,-592.164754,1149.143247
3748.367223,-8438.347739,-666.185348,1455.581446
3748.367553,-8882.471304,0.000000,995.924147
3748.367883,-10140.821405,0.000000,842.705048
3748.368213,-10732.986159,-518.144159,0.000000
3748.368543,-9622.677246,-296.082377,-306.438199
3748.368872,-8364.327145,-814.226536,-689.485948
3748.369202,-8586.388927,0.000000,-459.657299
3748.369532,-9400.615463,0.000000,-536.266849
3748.369862,-10066.800811,74.020594,153.219100
3748.370192,-10066.800811,370.102971,-76.609550
3748.370522,-10658.965565,370.102971,-306.438199
3748.370852,-10732.986159,444.123565,76.609550
3748.371182,-10362.883188,0.000000,76.609550
3748.371512,-9770.718434,-148.041188,995.924147
3748.371842,-9548.656652,-592.164754,1532.190996
3748.372171,-10732.986159,74.020594,1532.190996
3748.372501,-10140.821405,-444.123565,459.657299
3748.372831,-9844.739029,-296.082377,153.219100
3748.373161,-9400.615463,0.000000,1302.362347
3748.373491,-10658.965565,-148.041188,1762.019645
3748.373821,-10362.883188,0.000000,2374.896044
3748.374151,-10140.821405,-444.123565,1302.362347
3748.374481,-10362.883188,-444.123565,383.047749
3748.374811,-10140.821405,-222.061783,689.485948
3748.375140,-10214.842000,-148.041188,1302.362347
3748.375470,-9844.739029,-296.082377,689.485948
3748.375800,-9622.677246,-370.102971,0.000000
3748.376130,-9030.512492,-592.164754,306.438199
3748.376460,-10214.842000,0.000000,-153.219100
3748.376790,-10362.883188,-444.123565,-1149.143247
3748.377120,-9252.574275,-1480.411884,-306.438199
3748.377450,-8586.388927,-222.061783,0.000000
3748.377780,-8956.491898,-444.123565,-689.485948
3748.378109,-10066.800811,0.000000,-1608.800546
3748.378439,-9104.533087,-1258.350101,-766.095498
3748.378769,-9030.512492,-666.185348,-306.438199
3748.379099,-9178.553681,-666.185348,0.000000
3748.379429,-9178.553681,-888.247130,0.000000
3748.379759,-8660.409521,-814.226536,0.000000
3748.380089,-8364.327145,-814.226536,-766.095498
3748.380419,-8956.491898,-444.123565,-1302.362347
3748.380749,-10066.800811,-222.061783,-919.314598
3748.381078,-10510.924376,0.000000,153.219100
3748.381408,-9474.636058,74.020594,0.000000
3748.381738,-8956.491898,74.020594,-153.219100
3748.382068,-9474.636058,444.123565,-766.095498
3748.382398,-10214.842000,222.061783,-766.095498
3748.382728,-10214.842000,740.205942,0.000000
3748.383058,-10214.842000,518.144159,0.000000
3748.383388,-10436.903782,962.267725,306.438199
3748.383718,-10288.862594,592.164754,766.095498
3748.384048,-10140.821405,814.226536,1302.362347
3748.384377,-10584.944971,1332.370696,612.876398
3748.384707,-10436.903782,814.226536,-306.438199
3748.385037,-10066.800811,740.205942,383.047749
3748.385367,-10436.903782,888.247130,1532.190996
3748.385697,-10807.006753,1110.308913,2451.505594
3748.386027,-10436.903782,740.205942,1378.971896
3748.386357,-9696.697840,814.226536,0.000000
3748.386687,-9622.677246,740.205942,-842.705048
3748.387017,-9992.780217,444.123565,-383.047749
3748.387346,-10214.842000,0.000000,842.705048
3748.387676,-10658.965565,74.020594,1915.238745
3748.388006,-9104.533087,-370.102971,1455.581446
3748.388336,-8512.368333,-518.144159,919.314598
3748.388666,-8660.409521,-222.061783,76.609550
3748.388996,-9326.594869,-370.102971,-766.095498
3748.389326,-9326.594869,-222.061783,-1455.581446
3748.389656,-8882.471304,-370.102971,0.000000
3748.389986,-10436.903782,148.041188,1149.143247
3748.390315,-10214.842000,-740.205942,1455.581446
3748.390645,-8956.491898,-666.185348,306.438199
3748.390975,-8142.265362,-222.061783,0.000000
3748.391305,-8438.347739,-222.061783,-612.876398
3748.391635,-10066.800811,148.041188,0.000000
3748.391965,-10584.944971,222.061783,1149.143247
3748.392295,-10140.821405,740.205942,842.705048
3748.392625,-9918.759623,296.082377,-383.047749
3748.392955,-10214.842000,370.102971,-1149.143247
3748.393284,-9992.780217,222.061783,-1225.752797
3748.393614,-9030.512492,148.041188,-766.095498
3748.393944,-8438.347739,222.061783,0.000000
3748.394274,-9918.759623,296.082377,383.047749
3748.394604,-10584.944971,814.226536,842.705048
3748.394934,-10288.862594,0.000000,1378.971896
3748.395264,-10288.862594,444.123565,1072.533697
3748.395594,-10436.903782,444.123565,612.876398
3748.395924,-10807.006753,74.020594,536.266849
3748.396254,-10140.821405,222.061783,1302.362347
3748.396583,-10584.944971,444.123565,1532.190996
3748.396913,-10658.965565,444.123565,766.095498
3748.397243,-10510.924376,222.061783,-536.266849
3748.397573,-9918.759623,222.061783,-229.828649
3748.397903,-9326.594869,0.000000,229.828649
3748.398233,-9770.718434,0.000000,76.609550
3748.398563,-9622.677246,0.000000,0.000000
3748.398893,-10214.842000,-814.226536,-229.828649
3748.399223,-9326.594869,-1406.391290,-536.266849
3748.399552,-9252.574275,-1036.288319,536.266849
3748.399882,-10214.842000,-74.020594,1608.800546
3748.400212,-9474.636058,-1258.350101,689.485948
3748.400542,-9030.512492,-592.164754,-229.828649
3748.400872,-9030.512492,-444.123565,-1302.362347
3748.401202,-10140.821405,-74.020594,-612.876398
3748.401532,-9622.677246,-592.164754,-459.657299
3748.401862,-9326.594869,-1406.391290,306.438199
3748.402192,-8660.409521,-888.247130,766.095498
3748.402521,-9030.512492,-1036.288319,0.000000
3748.402851,-9178.553681,-814.226536,-995.924147
3748.403181,-9030.512492,-814.226536,-689.485948
3748.403511,-9548.656652,148.041188,-612.876398
3748.403841,-9918.759623,-222.061783,689.485948
3748.404171,-9696.697840,-148.041188,229.828649
3748.404501,-9770.718434,962.267725,689.485948
3748.404831,-9992.780217,296.082377,229.828649
3748.405161,-9844.739029,296.082377,-689.485948
3748.405490,-9844.739029,-74.020594,-536.266849
3748.405820,-10066.800811,592.164754,459.657299
3748.406150,-9918.759623,222.061783,919.314598
3748.406480,-9844.739029,666.185348,1455.581446
3748.406810,-10066.800811,666.185348,1225.752797
3748.407140,-10807.006753,1036.288319,76.609550
3748.407470,-10807.006753,666.185348,0.000000
3748.407800,-11177.109724,888.247130,-229.828649
3748.408130,-10807.006753,888.247130,229.828649
3748.408460,-9844.739029,296.082377,1149.143247
3748.408789,-9252.574275,148.041188,1149.143247
3748.409119,-9400.615463,0.000000,536.266849
3748.409449,-9696.697840,74.020594,0.000000
3748.409779,-9622.677246,0.000000,76.609550
3748.410109,-10140.821405,-296.082377,153.219100
3748.410439,-9918.759623,296.082377,612.876398
3748.410769,-9696.697840,0.000000,842.705048
3748.411099,-9622.677246,0.000000,689.485948
3748.411429,-8586.388927,-518.144159,0.000000
3748.411758,-9104.533087,-592.164754,-536.266849
3748.412088,-8808.450710,-148.041188,0.000000
3748.412418,-9696.697840,0.000000,1149.143247
3748.412748,-9252.574275,0.000000,1685.410096
3748.413078,-9622.677246,-296.082377,1608.800546
3748.413408,-9030.512492,0.000000,459.657299
3748.413738,-9474.636058,74.020594,-689.485948
3748.414068,-9844.739029,296.082377,-995.924147
3748.414398,-9474.636058,222.061783,-995.924147
3748.414727,-9252.574275,370.102971,-1225.752797
3748.415057,-8734.430116,518.144159,-153.219100
3748.415387,-8956.491898,444.123565,0.000000
3748.415717,-10510.924376,1036.288319,0.000000
3748.416047,-10436.903782,296.082377,-1225.752797
3748.416377,-9548.656652,592.164754,-383.047749
3748.416707,-9696.697840,592.164754,689.485948
3748.417037,-10807.006753,888.247130,1455.581446
3748.417367,-11325.150913,592.164754,1915.238745
3748.417696,-10066.800811,666.185348,1455.581446
3748.418026,-9696.697840,666.185348,229.828649
3748.418356,-10288.862594,1036.288319,0.000000
3748.418686,-10066.800811,1036.288319,459.657299
3748.419016,-10807.006753,1110.308913,0.000000
3748.419346,-10658.965565,1332.370696,306.438199
3748.419676,-10658.965565,518.144159,0.000000
3748.420006,-10881.027347,296.082377,536.266849
3748.420336,-10066.800811,888.247130,383.047749
3748.420666,-9474.636058,370.102971,153.219100
3748.420995,-9548.656652,370.102971,766.095498
3748.421325,-10658.965565,222.061783,153.219100
3748.421655,-10288.862594,-148.041188,-536.266849
3748.421985,-9400.615463,-444.123565,-766.095498
3748.422315,-9548.656652,-518.144159,153.219100
3748.422645,-9252.574275,-592.164754,76.609550
3748.422975,-8438.347739,-1110.308913,0.000000
3748.423305,-7994.224174,-1036.288319,-612.876398
3748.423635,-8808.450710,-370.102971,-306.438199
3748.423964,-9696.697840,-518.144159,-229.828649
3748.424294,-9474.636058,-1036.288319,0.000000
3748.424624,-9030.512492,-740.205942,153.219100
3748.424954,-9252.574275,-666.185348,995.924147
3748.425284,-9326.594869,-740.205942,459.657299
3748.425614,-8660.409521,-814.226536,-459.657299
3748.425944,-9030.512492,-444.123565,-612.876398
3748.426274,-9252.574275,148.041188,-995.924147
3748.426603,-10066.800811,0.000000,0.000000
3748.426933,-10510.924376,740.205942,383.047749
3748.427263,-10436.903782,296.082377,-76.609550
3748.427592,-8956.491898,296.082377,-995.924147
3748.427922,-9326.594869,370.102971,0.000000
3748.428252,-10436.903782,666.185348,229.828649
3748.428582,-11103.089130,518.144159,536.266849
3748.428911,-10658.965565,740.205942,1608.800546
3748.429241,-10066.800811,148.041188,1532.190996
3748.429571,-10362.883188,370.102971,919.314598
3748.429900,-11103.089130,370.102971,995.924147
3748.430230,-11621.233289,296.082377,1532.190996
3748.430560,-10436.903782,0.000000,1302.362347
3748.430890,-9770.718434,222.061783,383.047749
3748.431219,-9474.636058,0.000000,995.924147
3748.431549,-10362.883188,370.102971,919.314598
3748.431879,-10362.883188,296.082377,919.314598
3748.432209,-9696.697840,-222.061783,229.828649
3748.432538,-9918.759623,-444.123565,-536.266849
3748.432868,-10066.800811,-74.020594,-383.047749
3748.433198,-9770.718434,-444.123565,-1225.752797
3748.433527,-9030.512492,-444.123565,-306.438199
3748.433857,-8882.471304,-666.185348,-76.609550
3748.434187,-9104.533087,-370.102971,-536.266849
3748.434517,-9178.553681,-370.102971,383.047749
3748.434846,-9770.718434,-222.061783,76.609550
3748.435176,-9326.594869,-370.102971,-383.047749
3748.435506,-9326.594869,-518.144159,0.000000
3748.435836,-9252.574275,-222.061783,842.705048
3748.436165,-9622.677246,0.000000,153.219100
3748.436495,-9918.759623,296.082377,-919.314598
3748.436825,-8734.430116,0.000000,-306.438199
3748.437154,-10066.800811,0.000000,-766.095498
3748.437484,-9252.574275,0.000000,-1149.143247
3748.437814,-8882.471304,222.061783,-689.485948
3748.438144,-9474.636058,740.205942,0.000000
3748.438473,-10066.800811,740.205942,-153.219100
3748.438803,-9622.677246,518.144159,459.657299
3748.439133,-10066.800811,666.185348,383.047749
3748.439463,-10955.047942,962.267725,919.314598
3748.439792,-10584.944971,814.226536,919.314598
3748.440122,-10436.903782,814.226536,612.876398
3748.440452,-10362.883188,962.267725,919.314598
3748.440781,-10214.842000,1036.288319,1302.362347
3748.441111,-10510.924376,740.205942,612.876398
3748.441441,-10658.965565,518.144159,0.000000
3748.441771,-10362.883188,444.123565,229.828649
3748.442100,-9918.759623,148.041188,153.219100
3748.442430,-9696.697840,74.020594,842.705048
3748.442760,-10214.842000,148.041188,383.047749
3748.443090,-10362.883188,444.123565,0.000000
3748.443419,-9548.656652,0.000000,-229.828649
3748.443749,-9474.636058,148.041188,0.000000
3748.444079,-10066.800811,74.020594,0.000000
3748.444408,-10436.903782,-222.061783,536.266849
3748.444738,-10436.903782,148.041188,306.438199
3748.445068,-9918.759623,-74.020594,-536.266849
3748.445398,-9252.574275,-592.164754,-1072.533697
3748.445727,-8808.450710,-1110.308913,-689.485948
3748.446057,-9474.636058,-888.247130,-153.219100
3748.446387,-8734.430116,-740.205942,0.000000
3748.446717,-8068.244768,-962.267725,459.657299
3748.447046,-8364.327145,-888.247130,689.485948
3748.447376,-9326.594869,-444.123565,842.705048
3748.447706,-10288.862594,-666.185348,229.828649
3748.448035,-10140.821405,-444.123565,459.657299
3748.448365,-9548.656652,0.000000,153.219100
3748.448695,-9474.636058,-296.082377,76.609550
3748.449025,-9696.697840,0.000000,0.000000
3748.449354,-9696.697840,222.061783,612.876398
3748.449684,-9474.636058,370.102971,229.828649
3748.450014,-9252.574275,296.082377,76.609550
3748.450343,-10214.842000,296.082377,995.924147
3748.450673,-10881.027347,518.144159,919.314598
3748.451003,-10807.006753,296.082377,1149.143247
3748.451333,-9992.780217,592.164754,1225.752797
3748.451662,-10066.800811,666.185348,1762.019645
3748.451992,-10807.006753,518.144159,1378.971896
3748.452322,-10658.965565,370.102971,1302.362347
3748.452652,-10510.924376,148.041188,919.314598
3748.452981,-10362.883188,518.144159,1302.362347
3748.453311,-10214.842000,148.041188,1072.533697
3748.453641,-10140.821405,222.061783,995.924147
3748.453970,-9622.677246,0.000000,995.924147
3748.454300,-9326.594869,222.061783,689.485948
3748.454630,-9474.636058,-296.082377,0.000000
3748.454960,-10510.924376,0.000000,306.438199
3748.455289,-10066.800811,0.000000,0.000000
3748.455619,-9992.780217,-518.144159,229.828649
3748.455949,-9474.636058,-444.123565,-306.438199
3748.456279,-9474.636058,-962.267725,-612.876398
3748.456608,-9474.636058,-1036.288319,-536.266849
3748.456938,-8586.388927,-592.164754,0.000000
3748.457268,-9326.594869,0.000000,536.266849
3748.457597,-9548.656652,-222.061783,383.047749
3748.457927,-9696.697840,-444.123565,-76.609550
3748.458257,-9252.574275,-148.041188,-842.705048
3748.458587,-8586.388927,-148.041188,-842.705048
3748.458916,-9252.574275,0.000000,-1072.533697
3748.459246,-9548.656652,0.000000,-766.095498
3748.459576,-10140.821405,0.000000,-612.876398
3748.459906,-9696.697840,0.000000,-995.924147
3748.460235,-9030.512492,-518.144159,-766.095498
3748.460565,-9326.594869,74.020594,-689.485948
3748.460895,-9474.636058,74.020594,-612.876398
3748.461224,-9844.739029,370.102971,229.828649
3748.461554,-10066.800811,814.226536,1532.190996
3748.461884,-10584.944971,592.164754,1225.752797
3748.462214,-11029.068536,740.205942,689.485948
3748.462543,-10658.965565,666.185348,383.047749
3748.462873,-10510.924376,962.267725,306.438199
3748.463203,-10510.924376,740.205942,0.000000
3748.463533,-9844.739029,296.082377,536.266849
3748.463862,-9400.615463,222.061783,1149.143247
3748.464192,-9844.739029,592.164754,842.705048
3748.464522,-10436.903782,740.205942,306.438199
3748.464851,-10214.842000,518.144159,0.000000
3748.465181,-9844.739029,222.061783,459.657299
3748.465511,-9696.697840,0.000000,229.828649
3748.465841,-9252.574275,370.102971,842.705048
3748.466170,-10066.800811,74.020594,1225.752797
3748.466500,-10214.842000,0.000000,536.266849
3748.466830,-9696.697840,-444.123565,612.876398
3748.467159,-9474.636058,0.000000,383.047749
3748.467489,-9252.574275,-740.205942,459.657299
3748.467819,-9178.553681,-666.185348,-306.438199
3748.468149,-8660.409521,-962.267725,536.266849
3748.468478,-9252.574275,-814.226536,842.705048
3748.468808,-9326.594869,-148.041188,229.828649
3748.469138,-8660.409521,-518.144159,0.000000
3748.469468,-8808.450710,-370.102971,0.000000
3748.469797,-9474.636058,0.000000,229.828649
3748.470127,-8882.471304,0.000000,-306.438199
3748.470457,-9178.553681,0.000000,612.876398
3748.470786,-10658.965565,296.082377,383.047749
3748.471116,-10584.944971,0.000000,0.000000
3748.471446,-9770.718434,296.082377,-459.657299
3748.471776,-9178.553681,814.226536,-612.876398
3748.472105,-9992.780217,444.123565,0.000000
3748.472435,-10140.821405,962.267725,153.219100
3748.472765,-9770.718434,740.205942,842.705048
3748.473095,-10214.842000,1110.308913,459.657299
3748.473424,-10066.800811,962.267725,766.095498
3748.473754,-11325.150913,740.205942,1072.533697
3748.474084,-10732.986159,666.185348,1072.533697
3748.474413,-10807.006753,592.164754,76.609550
3748.474743,-10362.883188,740.205942,536.266849
3748.475073,-9844.739029,148.041188,1378.971896
3748.475403,-10288.862594,666.185348,1149.143247
3748.475732,-10510.924376,0.000000,766.095498
3748.476062,-10881.027347,0.000000,153.219100
3748.476392,-10362.883188,0.000000,0.000000
3748.476722,-9548.656652,-296.082377,229.828649
3748.477051,-9104.533087,-296.082377,1302.362347
3748.477381,-8956.491898,-740.205942,1225.752797
3748.477711,-9400.615463,-370.102971,536.266849
3748.478040,-9696.697840,-592.164754,0.000000
3748.478370,-9696.697840,-74.020594,0.000000
3748.478700,-10214.842000,-444.123565,-766.095498
3748.479030,-9696.697840,-592.164754,-766.095498
3748.479359,-8882.471304,-740.205942,-459.657299
3748.479689,-9030.512492,-962.267725,-229.828649
3748.480019,-8808.450710,-592.164754,-459.657299
3748.480349,-8882.471304,-1036.288319,-383.047749
3748.480678,-8882.471304,-74.020594,-612.876398
3748.481008,-8660.409521,-222.061783,-995.924147
3748.481338,-9326.594869,148.041188,-1225.752797
3748.481667,-9474.636058,-296.082377,-76.609550
3748.481997,-10658.965565,-148.041188,76.609550
3748.482327,-9770.718434,-518.144159,76.609550
3748.482657,-8882.471304,-370.102971,-612.876398
3748.482986,-9030.512492,74.020594,0.000000
3748.483316,-9696.697840,0.000000,-459.657299
3748.483646,-9918.759623,592.164754,-536.266849
3748.483975,-9844.739029,296.082377,0.000000
3748.484305,-10214.842000,1036.288319,842.705048
3748.484635,-10584.944971,444.123565,1149.143247
3748.484965,-10658.965565,740.205942,919.314598
3748.485294,-10436.903782,888.247130,306.438199
3748.485624,-11177.109724,888.247130,0.000000
3748.485954,-10658.965565,222.061783,76.609550
3748.486284,-10362.883188,222.061783,766.095498
3748.486613,-10140.821405,0.000000,1378.971896
3748.486943,-10288.862594,0.000000,1532.190996
3748.487273,-9992.780217,0.000000,842.705048
3748.487602,-10140.821405,0.000000,459.657299
3748.487932,-10288.862594,-370.102971,229.828649
3748.488262,-9474.636058,-666.185348,766.095498
3748.488592,-9548.656652,-666.185348,1225.752797
3748.488921,-9548.656652,-296.082377,1608.800546
3748.489251,-9474.636058,-444.123565,689.485948
3748.489581,-9474.636058,-222.061783,0.000000
3748.489911,-10584.944971,148.041188,-459.657299
3748.490240,-10288.862594,-592.164754,-1072.533697
3748.490570,-9178.553681,-962.267725,-612.876398
3748.490900,-8956.491898,-518.144159,383.047749
3748.491229,-9400.615463,-222.061783,1762.019645
3748.491559,-9474.636058,-296.082377,383.047749
3748.491889,-8586.388927,-222.061783,-766.095498
3748.492219,-9030.512492,0.000000,-995.924147
3748.492548,-9252.574275,0.000000,-689.485948
3748.492878,-9918.759623,222.061783,995.924147
3748.493208,-10584.944971,0.000000,1225.752797
3748.493538,-9474.636058,74.020594,229.828649
3748.493867,-8438.347739,74.020594,0.000000
3748.494197,-9992.780217,666.185348,-766.095498
3748.494527,-10066.800811,444.123565,-919.314598
3748.494856,-9622.677246,518.144159,-919.314598
3748.495186,-9474.636058,592.164754,76.609550
3748.495516,-10436.903782,1036.288319,612.876398
3748.495846,-10362.883188,740.205942,1455.581446
3748.496175,-9918.759623,740.205942,1072.533697
3748.496505,-10066.800811,740.205942,153.219100
3748.496835,-10658.965565,666.185348,153.219100
3748.497165,-10510.924376,888.247130,612.876398
3748.497494,-11029.068536,814.226536,1532.190996
3748.497824,-10436.903782,740.205942,1762.019645
3748.498154,-10436.903782,740.205942,995.924147
3748.498483,-10066.800811,370.102971,153.219100
3748.498813,-9696.697840,370.102971,-76.609550
3748.499143,-9548.656652,222.061783,-76.609550
3748.499473,-9104.533087,0.000000,153.219100
3748.499802,-9622.677246,148.041188,766.095498
3748.500132,-9844.739029,0.000000,612.876398
3748.500462,-9844.739029,0.000000,766.095498
3748.500792,-10066.800811,148.041188,306.438199
3748.501121,-9844.739029,-592.164754,-153.219100
3748.501451,-9252.574275,-666.185348,-1762.019645
3748.501781,-8216.285956,-740.205942,-229.828649
3748.502110,-8660.409521,-592.164754,919.314598
3748.502440,-9400.615463,-444.123565,919.314598
3748.502770,-9326.594869,-962.267725,536.266849
3748.503100,-9252.574275,-740.205942,536.266849
3748.503429,-9400.615463,-666.185348,76.609550
3748.503759,-9622.677246,-444.123565,-306.438199
3748.504089,-9030.512492,-370.102971,0.000000
3748.504418,-9474.636058,-444.123565,-306.438199
3748.504748,-9548.656652,0.000000,306.438199
3748.505078,-9992.780217,-370.102971,76.609550
3748.505408,-10066.800811,222.061783,0.000000
3748.505737,-9622.677246,-296.082377,-1072.533697
3748.506067,-10214.842000,0.000000,-536.266849
3748.506397,-9918.759623,-222.061783,459.657299
3748.506727,-9992.780217,-296.082377,1149.143247
3748.507056,-9770.718434,222.061783,1685.410096
3748.507386,-10140.821405,0.000000,1762.019645
3748.507716,-10510.924376,518.144159,919.314598
3748.508045,-10955.047942,370.102971,76.609550
3748.508375,-11103.089130,1110.308913,-459.657299
3748.508705,-10807.006753,518.144159,76.609550
3748.509035,-10955.047942,74.020594,459.657299
3748.509364,-10362.883188,148.041188,842.705048
3748.509694,-9696.697840,0.000000,76.609550
3748.510024,-9844.739029,370.102971,0.000000
3748.510354,-10362.883188,0.000000,-612.876398
3748.510683,-9622.677246,0.000000,-459.657299
3748.511013,-9548.656652,-888.247130,459.657299
3748.511343,-9696.697840,0.000000,842.705048
3748.511672,-9548.656652,-740.205942,995.924147
3748.512002,-8882.471304,-148.041188,1072.533697
3748.512332,-8956.491898,-296.082377,-229.828649
3748.512662,-9474.636058,-296.082377,-1072.533697
3748.512991,-9474.636058,-296.082377,-919.314598
3748.513321,-9474.636058,-666.185348,-306.438199
3748.513651,-8808.450710,-370.102971,766.095498
3748.513981,-8290.306550,-1110.308913,919.314598
3748.514310,-9104.533087,-370.102971,306.438199
3748.514640,-8808.450710,-592.164754,0.000000
3748.514970,-8660.409521,0.000000,-229.828649
3748.515299,-8882.471304,-296.082377,-229.828649
3748.515629,-10510.924376,740.205942,76.609550
3748.515959,-10658.965565,370.102971,76.609550
3748.516289,-9844.739029,0.000000,153.219100
3748.516618,-8882.471304,222.061783,0.000000
3748.516948,-10066.800811,148.041188,-229.828649
3748.517278,-10140.821405,666.185348,-76.609550
3748.517608,-9770.718434,740.205942,-612.876398
3748.517937,-9992.780217,962.267725,229.828649
3748.518267,-10658.965565,592.164754,459.657299
3748.518597,-10732.986159,888.247130,1225.752797
3748.518926,-10140.821405,962.267725,842.705048
3748.519256,-9918.759623,814.226536,-612.876398
3748.519586,-10658.965565,1110.308913,76.609550
3748.519916,-10732.986159,444.123565,0.000000
3748.520245,-11103.089130,740.205942,689.485948
3748.520575,-10288.862594,592.164754,229.828649
3748.520905,-10066.800811,444.123565,1149.143247
3748.521234,-10362.883188,740.205942,689.485948
3748.521564,-10214.842000,444.123565,383.047749
3748.521894,-9696.697840,666.185348,153.219100
3748.522224,-10066.800811,0.000000,306.438199
3748.522553,-10066.800811,-148.041188,-153.219100
3748.522883,-8586.388927,-444.123565,0.000000
3748.523213,-8512.368333,-518.144159,919.314598
3748.523543,-9400.615463,-814.226536,76.609550
3748.523872,-9474.636058,-1184.329507,-536.266849
3748.524202,-8808.450710,-962.267725,-689.485948
3748.524532,-8882.471304,-1110.308913,-229.828649
3748.524861,-9400.615463,-814.226536,1225.752797
3748.525191,-9178.553681,-962.267725,1915.238745
3748.525521,-8586.388927,-518.144159,1225.752797
3748.525851,-9178.553681,-518.144159,76.609550
3748.526180,-9770.718434,-592.164754,-842.705048
3748.526510,-9474.636058,-592.164754,-383.047749
3748.526840,-9474.636058,-444.123565,-153.219100
3748.527170,-9252.574275,74.020594,0.000000
3748.527499,-10140.821405,-222.061783,536.266849
3748.527829,-10584.944971,370.102971,-383.047749
3748.528159,-9844.739029,74.020594,-1378.971896
3748.528488,-9844.739029,518.144159,-1302.362347
3748.528818,-9844.739029,296.082377,0.000000
3748.529147,-10584.944971,666.185348,1302.362347
3748.529477,-10658.965565,888.247130,1762.019645
3748.529807,-10214.842000,444.123565,1608.800546
3748.530136,-10362.883188,370.102971,536.266849
3748.530466,-10955.047942,592.164754,153.219100
3748.530795,-10807.006753,592.164754,612.876398
3748.531125,-9992.780217,148.041188,1532.190996
3748.531454,-10066.800811,296.082377,919.314598
3748.531784,-9400.615463,-148.041188,766.095498
3748.532114,-9696.697840,0.000000,766.095498
3748.532443,-10066.800811,370.102971,1225.752797
3748.532773,-10732.986159,222.061783,1302.362347
3748.533102,-10140.821405,0.000000,689.485948
3748.533432,-8956.491898,-444.123565,0.000000
3748.533761,-9178.553681,-444.123565,306.438199
3748.534091,-9918.759623,-74.020594,689.485948
3748.534421,-9844.739029,-74.020594,995.924147
3748.534750,-9400.615463,0.000000,229.828649
3748.535080,-9400.615463,74.020594,0.000000
3748.535409,-9622.677246,0.000000,-229.828649
3748.535739,-10436.903782,0.000000,306.438199
3748.536068,-9844.739029,-74.020594,0.000000
3748.536398,-9104.533087,-370.102971,-306.438199
3748.536728,-8882.471304,0.000000,459.657299
3748.537057,-9104.533087,-370.102971,153.219100
3748.537387,-9400.615463,222.061783,-383.047749
3748.537716,-9252.574275,222.061783,-1149.143247
3748.538046,-9844.739029,0.000000,-1225.752797
3748.538376,-9474.636058,370.102971,-383.047749
3748.538705,-9622.677246,296.082377,76.609550
3748.539035,-9918.759623,814.226536,536.266849
3748.539364,-11029.068536,518.144159,-229.828649
3748.539694,-10362.883188,518.144159,-459.657299
3748.540023,-9474.636058,0.000000,-689.485948
3748.540353,-9474.636058,222.061783,0.000000
3748.540683,-9474.636058,148.041188,76.609550
3748.541012,-9622.677246,444.123565,1532.190996
3748.541342,-9622.677246,1036.288319,2068.457845
3748.541671,-10807.006753,814.226536,919.314598
3748.542001,-11325.150913,962.267725,0.000000
3748.542330,-11251.130318,740.205942,0.000000
3748.542660,-10140.821405,592.164754,0.000000
3748.542990,-9622.677246,296.082377,0.000000
3748.543319,-9844.739029,222.061783,536.266849
3748.543649,-9770.718434,444.123565,612.876398
3748.543978,-9992.780217,0.000000,153.219100
3748.544308,-9548.656652,-888.247130,0.000000
3748.544637,-10214.842000,666.185348,1072.533697
3748.544967,-10510.924376,888.247130,1302.362347
3748.545297,-9696.697840,-666.185348,0.000000
3748.545626,-7920.203579,-888.247130,-459.657299
3748.545956,-8660.409521,-74.020594,842.705048
3748.546285,-10955.047942,148.041188,1225.752797
3748.546615,-10881.027347,74.020594,1378.971896
3748.546944,-10140.821405,0.000000,459.657299
3748.547274,-8660.409521,-370.102971,0.000000
3748.547604,-9178.553681,-370.102971,-1072.533697
3748.547933,-9474.636058,-518.144159,-689.485948
3748.548263,-9104.533087,-74.020594,-995.924147
3748.548592,-7846.182985,-444.123565,-1302.362347
3748.548922,-8512.368333,0.000000,-766.095498
3748.549251,-9696.697840,740.205942,-842.705048
3748.549581,-10362.883188,740.205942,-383.047749
3748.549911,-10214.842000,-444.123565,-229.828649
3748.550240,-10066.800811,-370.102971,842.705048
3748.550570,-10510.924376,0.000000,1455.581446
3748.550899,-10066.800811,-296.082377,1532.190996
3748.551229,-9326.594869,-740.205942,1302.362347
3748.551558,-8734.430116,-444.123565,459.657299
3748.551888,-9992.780217,296.082377,-306.438199
3748.552218,-10658.965565,518.144159,0.000000
3748.552547,-10732.986159,518.144159,766.095498
3748.552877,-10066.800811,296.082377,459.657299
3748.553206,-9622.677246,148.041188,0.000000
3748.553536,-9770.718434,-444.123565,76.609550
3748.553865,-11103.089130,74.020594,-306.438199
3748.554195,-10362.883188,0.000000,153.219100
3748.554525,-10362.883188,-296.082377,459.657299
3748.554854,-9992.780217,0.000000,612.876398
3748.555184,-10288.862594,-592.164754,995.924147
3748.555513,-9622.677246,-148.041188,919.314598
3748.555843,-9474.636058,-518.144159,459.657299
3748.556172,-10288.862594,0.000000,-536.266849
3748.556502,-10066.800811,-296.082377,-689.485948
3748.556832,-9252.574275,-592.164754,229.828649
3748.557161,-9030.512492,-666.185348,536.266849
3748.557491,-9326.594869,-444.123565,-383.047749
3748.557820,-9326.594869,-1036.288319,-1072.533697
3748.558150,-9622.677246,-666.185348,-153.219100
3748.558480,-9474.636058,-962.267725,459.657299
3748.558809,-9252.574275,-740.205942,1149.143247
3748.559139,-8808.450710,-370.102971,1225.752797
3748.559468,-9030.512492,-962.267725,459.657299
3748.559798,-9400.615463,-222.061783,229.828649
3748.560127,-9252.574275,-74.020594,0.000000
3748.560457,-10066.800811,0.000000,0.000000
3748.560787,-10214.842000,444.123565,153.219100
3748.561116,-9474.636058,-74.020594,0.000000
3748.561446,-9548.656652,370.102971,306.438199
3748.561775,-10362.883188,740.205942,229.828649
3748.562105,-10658.965565,814.226536,-1072.533697
3748.562434,-10288.862594,962.267725,-536.266849
3748.562764,-9770.718434,740.205942,-153.219100
3748.563094,-10214.842000,1110.308913,0.000000
3748.563423,-9474.636058,888.247130,0.000000
3748.563753,-9918.759623,740.205942,0.000000
3748.564082,-9770.718434,518.144159,-76.609550
3748.564412,-9622.677246,1184.329507,919.314598
3748.564741,-10658.965565,888.247130,2068.457845
3748.565071,-11177.109724,1184.329507,1685.410096
3748.565401,-11029.068536,518.144159,1149.143247
3748.565730,-10436.903782,370.102971,689.485948
3748.566060,-10140.821405,296.082377,383.047749
3748.566389,-10214.842000,-296.082377,76.609550
3748.566719,-9844.739029,0.000000,612.876398
3748.567048,-9030.512492,0.000000,459.657299
3748.567378,-8808.450710,222.061783,-689.485948
3748.567708,-8956.491898,222.061783,-1532.190996
3748.568037,-9474.636058,148.041188,-612.876398
3748.568367,-9548.656652,0.000000,-842.705048
3748.568696,-9696.697840,-592.164754,-995.924147
3748.569026,-8882.471304,-148.041188,229.828649
3748.569355,-9400.615463,-444.123565,1149.143247
3748.569685,-9474.636058,-296.082377,1302.362347
3748.570015,-9178.553681,-1110.308913,459.657299
3748.570344,-9104.533087,-666.185348,459.657299
3748.570674,-10214.842000,74.020594,842.705048
3748.571003,-9844.739029,-296.082377,306.438199
3748.571333,-9400.615463,-296.082377,306.438199
3748.571662,-9326.594869,0.000000,-383.047749
3748.571992,-9252.574275,370.102971,-995.924147
3748.572322,-9696.697840,370.102971,-919.314598
3748.572651,-9844.739029,370.102971,-536.266849
3748.572981,-10288.862594,74.020594,-229.828649
3748.573310,-9696.697840,222.061783,-689.485948
3748.573640,-9474.636058,0.000000,0.000000
3748.573969,-10140.821405,148.041188,306.438199
3748.574299,-10214.842000,518.144159,383.047749
3748.574629,-10584.944971,-148.041188,459.657299
3748.574958,-10214.842000,370.102971,766.095498
3748.575288,-10140.821405,370.102971,1608.800546
3748.575617,-10510.924376,74.020594,1915.238745
3748.575947,-10362.883188,74.020594,1762.019645
3748.576277,-10214.842000,148.041188,1302.362347
3748.576606,-10066.800811,0.000000,0.000000
3748.576936,-10510.924376,-222.061783,-76.609550
3748.577265,-10140.821405,296.082377,383.047749
3748.577595,-9400.615463,0.000000,0.000000
3748.577924,-8734.430116,74.020594,-383.047749
3748.578254,-9474.636058,148.041188,-153.219100
3748.578584,-10881.027347,74.020594,-383.047749
3748.578913,-10436.903782,-222.061783,-612.876398
3748.579243,-9474.636058,-222.061783,0.000000
3748.579572,-9030.512492,-666.185348,536.266849
3748.579902,-9622.677246,-148.041188,383.047749
3748.580231,-9400.615463,-740.205942,689.485948
3748.580561,-9326.594869,-592.164754,689.485948
3748.580891,-9400.615463,0.000000,459.657299
3748.581220,-9252.574275,-370.102971,-229.828649
3748.581550,-8882.471304,-148.041188,0.000000
3748.581879,-9326.594869,74.020594,306.438199
3748.582209,-9326.594869,-74.020594,842.705048
3748.582538,-9622.677246,370.102971,153.219100
3748.582868,-10140.821405,370.102971,-153.219100
3748.583198,-9992.780217,444.123565,-689.485948
3748.583527,-10066.800811,296.082377,0.000000
3748.583857,-9696.697840,444.123565,153.219100
3748.584186,-9918.759623,296.082377,153.219100
3748.584516,-9770.718434,888.247130,0.000000
3748.584845,-9548.656652,444.123565,536.266849
3748.585175,-10288.862594,444.123565,1378.971896
3748.585505,-10658.965565,740.205942,995.924147
3748.585834,-10288.862594,370.102971,536.266849
3748.586164,-9770.718434,370.102971,842.705048
3748.586493,-10214.842000,74.020594,766.095498
3748.586823,-10140.821405,148.041188,995.924147
3748.587152,-10214.842000,74.020594,612.876398
3748.587482,-10288.862594,296.082377,536.266849
3748.587812,-9474.636058,444.123565,1225.752797
3748.588141,-9844.739029,296.082377,536.266849
3748.588471,-9696.697840,518.144159,306.438199
3748.588800,-10140.821405,222.061783,153.219100
3748.589130,-9770.718434,518.144159,0.000000
3748.589459,-9548.656652,0.000000,306.438199
3748.589789,-10362.883188,518.144159,-306.438199
3748.590119,-9844.739029,-222.061783,-995.924147
3748.590448,-8882.471304,-74.020594,-995.924147
3748.590778,-9326.594869,74.020594,-995.924147
3748.591107,-9918.759623,-296.082377,-1225.752797
3748.591437,-10066.800811,-370.102971,-306.438199
3748.591766,-9844.739029,-444.123565,612.876398
3748.592096,-9326.594869,74.020594,995.924147
3748.592426,-9104.533087,-444.123565,459.657299
3748.592755,-9400.615463,-444.123565,383.047749
3748.593085,-10066.800811,0.000000,536.266849
3748.593414,-9992.780217,-148.041188,612.876398
3748.593744,-9474.636058,-296.082377,0.000000
3748.594073,-10214.842000,-296.082377,383.047749
3748.594403,-10584.944971,-222.061783,995.924147
3748.594733,-9474.636058,-222.061783,1072.533697
3748.595062,-8882.471304,-148.041188,0.000000
3748.595392,-9178.553681,370.102971,-536.266849
3748.595721,-10362.883188,444.123565,-383.047749
3748.596051,-10658.965565,518.144159,612.876398
3748.596381,-10732.986159,370.102971,1072.533697
3748.596710,-10288.862594,370.102971,612.876398
3748.597040,-9844.739029,-444.123565,536.266849
3748.597369,-9252.574275,-296.082377,306.438199
3748.597699,-9474.636058,-222.061783,459.657299
3748.598028,-9770.718434,-148.041188,842.705048
3748.598358,-9844.739029,-148.041188,2145.067394
3748.598688,-10510.924376,148.041188,2068.457845
3748.599017,-9918.759623,0.000000,1378.971896
3748.599347,-9474.636058,-888.247130,383.047749
3748.599676,-9474.636058,-962.267725,153.219100
3748.600006,-9844.739029,74.020594,153.219100
3748.600335,-10436.903782,-518.144159,-76.609550
3748.600665,-10066.800811,-518.144159,-536.266849
3748.600995,-9474.636058,0.000000,-306.438199
3748.601324,-9400.615463,-296.082377,-536.266849
3748.601654,-9696.697840,-592.164754,-766.095498
3748.601983,-9622.677246,0.000000,-612.876398
3748.602313,-9548.656652,-592.164754,-76.609550
3748.602642,-9474.636058,-74.020594,-383.047749
3748.602972,-9622.677246,-518.144159,0.000000
3748.603302,-10214.842000,-518.144159,229.828649
3748.603631,-8882.471304,-296.082377,153.219100
3748.603961,-9178.553681,-370.102971,383.047749
3748.604290,-9548.656652,-296.082377,-306.438199
3748.604620,-9548.656652,-592.164754,0.000000
3748.604949,-9326.594869,0.000000,383.047749
3748.605279,-9622.677246,0.000000,995.924147
3748.605609,-10436.903782,0.000000,689.485948
3748.605938,-10214.842000,0.000000,459.657299
3748.606268,-10066.800811,148.041188,383.047749
3748.606597,-9844.739029,370.102971,-153.219100
3748.606927,-9326.594869,222.061783,-995.924147
3748.607256,-9770.718434,296.082377,0.000000
3748.607586,-9474.636058,0.000000,0.000000
3748.607916,-9918.759623,814.226536,76.609550
3748.608245,-10436.903782,444.123565,383.047749
3748.608575,-10288.862594,814.226536,689.485948
3748.608904,-10140.821405,296.082377,0.000000
3748.609234,-9918.759623,370.102971,229.828649
3748.609563,-9770.718434,0.000000,1302.362347
3748.609893,-10140.821405,296.082377,1532.190996
3748.610223,-10140.821405,444.123565,1225.752797
3748.610552,-10881.027347,74.020594,1149.143247
3748.610882,-10732.986159,592.164754,76.609550
3748.611211,-9326.594869,296.082377,-1149.143247
3748.611541,-8734.430116,222.061783,-1455.581446
3748.611870,-8586.388927,74.020594,-1225.752797
3748.612200,-9696.697840,592.164754,-229.828649
3748.612530,-9474.636058,370.102971,-383.047749
3748.612859,-9400.615463,444.123565,-612.876398
3748.613189,-9992.780217,222.061783,-612.876398
3748.613518,-11029.068536,0.000000,-1149.143247
3748.613848,-9474.636058,-148.041188,-766.095498
3748.614177,-9030.512492,-370.102971,536.266849
3748.614507,-8956.491898,0.000000,919.314598
3748.614837,-9178.553681,-444.123565,995.924147
3748.615166,-8956.491898,-148.041188,383.047749
3748.615496,-9030.512492,-74.020594,-76.609550
3748.615825,-10066.800811,0.000000,-229.828649
3748.616155,-10436.903782,74.020594,76.609550
3748.616485,-10436.903782,-444.123565,536.266849
3748.616814,-8512.368333,-444.123565,459.657299
3748.617144,-7994.224174,-296.082377,76.609550
3748.617473,-9918.759623,592.164754,153.219100
3748.617803,-10732.986159,296.082377,0.000000
3748.618132,-10214.842000,148.041188,0.000000
3748.618462,-9770.718434,74.020594,842.705048
3748.618792,-10807.006753,296.082377,1072.533697
3748.619121,-10214.842000,74.020594,1608.800546
3748.619451,-9548.656652,-370.102971,1838.629195
3748.619780,-9770.718434,296.082377,1149.143247
3748.620110,-9918.759623,444.123565,612.876398
3748.620439,-9696.697840,1184.329507,0.000000
3748.620769,-10436.903782,592.164754,1149.143247
3748.621099,-11325.150913,1036.288319,1455.581446
3748.621428,-11177.109724,296.082377,1225.752797
3748.621758,-10955.047942,370.102971,153.219100
3748.622087,-9918.759623,0.000000,0.000000
3748.622417,-9326.594869,0.000000,-383.047749
3748.622746,-8882.471304,0.000000,0.000000
3748.623076,-9252.574275,0.000000,612.876398
3748.623406,-9622.677246,148.041188,153.219100
3748.623735,-9622.677246,-370.102971,0.000000
3748.624065,-10214.842000,-444.123565,0.000000
3748.624394,-9844.739029,-222.061783,612.876398
3748.624724,-9844.739029,-444.123565,229.828649
3748.625053,-9178.553681,-222.061783,-306.438199
3748.625383,-8660.409521,-740.205942,-459.657299
3748.625713,-9178.553681,-444.123565,76.609550
3748.626042,-8660.409521,-666.185348,229.828649
3748.626372,-10288.862594,0.000000,229.828649
3748.626701,-9474.636058,74.020594,0.000000
3748.627031,-9104.533087,0.000000,-689.485948
3748.627361,-8808.450710,296.082377,-842.705048
3748.627690,-9770.718434,666.185348,0.000000
3748.628020,-10955.047942,1184.329507,842.705048
3748.628350,-9992.780217,370.102971,306.438199
3748.628680,-9696.697840,740.205942,-229.828649
3748.629009,-8956.491898,444.123565,-459.657299
3748.629339,-10214.842000,518.144159,-306.438199
3748.629669,-10362.883188,740.205942,76.609550
3748.629999,-10807.006753,518.144159,536.266849
3748.630328,-9918.759623,518.144159,1455.581446
3748.630658,-9548.656652,148.041188,842.705048
3748.630988,-9622.677246,444.123565,1378.971896
3748.631318,-9400.615463,444.123565,1149.143247
3748.631647,-9548.656652,814.226536,689.485948
3748.631977,-10584.944971,740.205942,1225.752797
3748.632307,-11621.233289,740.205942,1302.362347
3748.632637,-11177.109724,518.144159,1225.752797
3748.632966,-9770.718434,148.041188,689.485948
3748.633296,-8956.491898,0.000000,766.095498
3748.633626,-9548.656652,-518.144159,0.000000
3748.633956,-9770.718434,296.082377,-383.047749
3748.634286,-9400.615463,-222.061783,-383.047749
3748.634615,-8808.450710,-148.041188,-383.047749
3748.634945,-9474.636058,74.020594,0.000000
3748.635275,-10066.800811,-296.082377,76.609550
3748.635605,-9400.615463,-296.082377,-536.266849
3748.635934,-9622.677246,-592.164754,-1685.410096
3748.636264,-9548.656652,-814.226536,-1762.019645
3748.636594,-9474.636058,-1110.308913,-1378.971896
3748.636924,-9622.677246,-962.267725,459.657299
3748.637253,-9030.512492,-1184.329507,1149.143247
3748.637583,-8734.430116,-1332.370696,459.657299
3748.637913,-9252.574275,-1110.308913,153.219100
3748.638243,-9548.656652,-814.226536,0.000000
3748.638572,-10066.800811,-370.102971,-995.924147
3748.638902,-9474.636058,-222.061783,-1378.971896
3748.639232,-10066.800811,-518.144159,-383.047749
3748.639562,-9770.718434,-888.247130,-536.266849
3748.639891,-9918.759623,-370.102971,153.219100
3748.640221,-10584.944971,444.123565,-306.438199
3748.640551,-10362.883188,0.000000,-459.657299
3748.640881,-9622.677246,148.041188,-612.876398
3748.641210,-9400.615463,-370.102971,842.705048
3748.641540,-10288.862594,814.226536,1838.629195
3748.641870,-11103.089130,-148.041188,1762.019645
3748.642200,-10732.986159,0.000000,1608.800546
3748.642529,-9770.718434,-296.082377,0.000000
3748.642859,-9622.677246,-148.041188,153.219100
3748.643189,-9400.615463,-518.144159,1072.533697
3748.643519,-10436.903782,0.000000,1072.533697
3748.643848,-10140.821405,222.061783,1225.752797
3748.644178,-10362.883188,-222.061783,1072.533697
3748.644508,-10362.883188,222.061783,153.219100
3748.644838,-9770.718434,0.000000,153.219100
3748.645167,-9548.656652,222.061783,-612.876398
3748.645497,-9326.594869,-296.082377,0.000000
3748.645827,-9770.718434,222.061783,76.609550
3748.646157,-9252.574275,-296.082377,153.219100
3748.646486,-9252.574275,-444.123565,383.047749
3748.646816,-9696.697840,0.000000,76.609550
3748.647146,-9474.636058,0.000000,-306.438199
3748.647476,-9030.512492,0.000000,0.000000
3748.647805,-9178.553681,0.000000,229.828649
3748.648135,-10436.903782,370.102971,689.485948
3748.648465,-9918.759623,74.020594,0.000000
3748.648795,-9326.594869,518.144159,-306.438199
3748.649125,-9252.574275,444.123565,0.000000
3748.649454,-9474.636058,592.164754,76.609550
3748.649784,-9622.677246,1110.308913,153.219100
3748.650114,-9030.512492,1332.370696,-459.657299
3748.650444,-9104.533087,888.247130,-536.266849
3748.650773,-9474.636058,1258.350101,0.000000
3748.651103,-9992.780217,888.247130,459.657299
3748.651433,-10140.821405,962.267725,-153.219100
3748.651763,-9844.739029,888.247130,-229.828649
3748.652092,-9992.780217,740.205942,229.828649
3748.652422,-9992.780217,592.164754,1149.143247
3748.652752,-9844.739029,740.205942,1838.629195
3748.653082,-9622.677246,518.144159,1608.800546
3748.653411,-9400.615463,1184.329507,1072.533697
3748.653741,-9696.697840,962.267725,689.485948
3748.654071,-10362.883188,1258.350101,766.095498
3748.654401,-10510.924376,1332.370696,1225.752797
3748.654730,-11769.274478,1184.329507,1072.533697
3748.655060,-11029.068536,518.144159,459.657299
3748.655390,-10140.821405,222.061783,0.000000
3748.655720,-9770.718434,814.226536,0.000000
3748.656049,-9474.636058,296.082377,-229.828649
3748.656379,-9770.718434,518.144159,-612.876398
3748.656709,-8956.491898,296.082377,-459.657299
3748.657039,-9844.739029,0.000000,76.609550
3748.657368,-10066.800811,0.000000,612.876398
3748.657698,-9844.739029,-666.185348,612.876398
3748.658028,-10066.800811,-518.144159,689.485948
3748.658358,-9474.636058,-814.226536,76.609550
3748.658687,-9474.636058,-1036.288319,0.000000
3748.659017,-9326.594869,-1258.350101,153.219100
3748.659347,-8734.430116,-962.267725,0.000000
3748.659677,-8882.471304,-740.205942,76.609550
3748.660006,-9622.677246,-592.164754,0.000000
3748.660336,-9030.512492,-592.164754,-153.219100
3748.660666,-8734.430116,-888.247130,-383.047749
3748.660996,-9030.512492,-592.164754,-306.438199
3748.661325,-10140.821405,-666.185348,0.000000
3748.661655,-10510.924376,-444.123565,76.609550
3748.661985,-9178.553681,-592.164754,459.657299
3748.662315,-9474.636058,-74.020594,229.828649
3748.662644,-10214.842000,296.082377,-153.219100
3748.662974,-10658.965565,74.020594,-1072.533697
3748.663304,-9918.759623,74.020594,0.000000
3748.663634,-9918.759623,296.082377,459.657299
3748.663964,-10955.047942,592.164754,842.705048
3748.664293,-10955.047942,74.020594,0.000000
3748.664623,-9178.553681,-148.041188,0.000000
3748.664953,-8068.244768,-370.102971,-153.219100
3748.665283,-10140.821405,0.000000,0.000000
3748.665612,-10881.027347,0.000000,1072.533697
3748.665942,-10881.027347,0.000000,1532.190996
3748.666272,-9992.780217,74.020594,1072.533697
3748.666602,-9770.718434,-592.164754,689.485948
3748.666931,-9992.780217,-444.123565,1072.533697
3748.667261,-9622.677246,-592.164754,383.047749
3748.667591,-9474.636058,-444.123565,612.876398
3748.667921,-9178.553681,0.000000,76.609550
3748.668250,-10066.800811,-370.102971,-612.876398
3748.668580,-9252.574275,-370.102971,-1608.800546
3748.668910,-9252.574275,-814.226536,-1762.019645
3748.669240,-9030.512492,-518.144159,-919.314598
3748.669569,-9326.594869,-1332.370696,-919.314598
3748.669899,-8734.430116,-666.185348,-919.314598
3748.670229,-8290.306550,-740.205942,-229.828649
3748.670559,-9474.636058,-518.144159,-536.266849
3748.670888,-9992.780217,-592.164754,153.219100
3748.671218,-10066.800811,-1036.288319,0.000000
3748.671548,-8734.430116,-666.185348,153.219100
3748.671878,-8956.491898,-740.205942,383.047749
3748.672207,-8142.265362,-518.144159,459.657299
3748.672537,-8734.430116,-222.061783,383.047749
3748.672867,-10436.903782,1628.453072,-383.047749
3748.673197,-11177.109724,888.247130,-459.657299
3748.673526,-10955.047942,1110.308913,-383.047749
3748.673856,-10510.924376,1184.329507,-842.705048
3748.674186,-9400.615463,666.185348,-842.705048
3748.674516,-9252.574275,1554.432478,229.828649
3748.674845,-10658.965565,666.185348,919.314598
3748.675175,-10807.006753,666.185348,0.000000
3748.675505,-9622.677246,814.226536,0.000000
3748.675835,-9252.574275,1036.288319,1302.362347
3748.676164,-10288.862594,1480.411884,2528.115143
3748.676494,-10881.027347,962.267725,2451.505594
3748.676824,-10658.965565,814.226536,2528.115143
3748.677154,-10436.903782,1110.308913,1378.971896
3748.677484,-10584.944971,740.205942,1072.533697
3748.677813,-10362.883188,296.082377,1762.019645
3748.678143,-9918.759623,962.267725,2068.457845
3748.678473,-9918.759623,962.267725,1225.752797
3748.678803,-9696.697840,592.164754,-229.828649
3748.679132,-9770.718434,666.185348,-766.095498
3748.679462,-9992.780217,814.226536,-842.705048
3748.679792,-9474.636058,518.144159,-306.438199
3748.680122,-9400.615463,296.082377,76.609550
3748.680451,-9622.677246,1110.308913,383.047749
3748.680781,-9104.533087,0.000000,-229.828649
3748.681111,-9252.574275,74.020594,-306.438199
3748.681441,-9104.533087,148.041188,0.000000
3748.681770,-9474.636058,0.000000,536.266849
3748.682100,-9030.512492,0.000000,1149.143247
3748.682430,-8956.491898,148.041188,919.314598
3748.682760,-9178.553681,296.082377,842.705048
3748.683089,-9548.656652,444.123565,-306.438199
3748.683419,-9770.718434,518.144159,-919.314598
3748.683749,-9622.677246,148.041188,0.000000
3748.684079,-9474.636058,592.164754,459.657299
3748.684408,-9104.533087,74.020594,383.047749
3748.684738,-9992.780217,888.247130,-459.657299
3748.685068,-10288.862594,518.144159,-306.438199
3748.685398,-10288.862594,222.061783,229.828649
3748.685727,-10362.883188,888.247130,689.485948
3748.686057,-11251.130318,962.267725,1378.971896
3748.686387,-10510.924376,962.267725,1149.143247
3748.686717,-10436.903782,888.247130,229.828649
3748.687046,-10214.842000,666.185348,459.657299
3748.687376,-10881.027347,370.102971,0.000000
3748.687706,-10881.027347,148.041188,-153.219100
3748.688036,-8882.471304,0.000000,689.485948
3748.688365,-9178.553681,-444.123565,1608.800546
3748.688695,-9844.739029,-296.082377,1225.752797
3748.689025,-10436.903782,-666.185348,612.876398
3748.689355,-10214.842000,-370.102971,459.657299
3748.689684,-9918.759623,-888.247130,-536.266849
3748.690014,-10066.800811,-814.226536,-229.828649
3748.690344,-9474.636058,-1110.308913,536.266849
3748.690674,-9992.780217,-962.267725,766.095498
3748.691003,-9400.615463,-1110.308913,153.219100
3748.691333,-9400.615463,-888.247130,-689.485948
3748.691663,-9548.656652,-222.061783,-612.876398
3748.691993,-10288.862594,-740.205942,-1225.752797
3748.692323,-9400.615463,-888.247130,-689.485948
3748.692652,-8660.409521,-1036.288319,-306.438199
3748.692982,-9326.594869,-814.226536,-842.705048
3748.693312,-8660.409521,-1258.350101,-995.924147
3748.693642,-8660.409521,-1184.329507,-76.609550
3748.693971,-9400.615463,-666.185348,153.219100
3748.694301,-10066.800811,-666.185348,153.219100
3748.694631,-9474.636058,-518.144159,0.000000
3748.694961,-9548.656652,-888.247130,306.438199
3748.695290,-9622.677246,-222.061783,1149.143247
3748.695620,-10288.862594,-370.102971,612.876398
3748.695950,-10510.924376,-444.123565,383.047749
3748.696280,-9178.553681,0.000000,229.828649
3748.696609,-9918.759623,592.164754,-383.047749
3748.696939,-9622.677246,740.205942,-536.266849
3748.697269,-10658.965565,592.164754,153.219100
3748.697599,-9770.718434,814.226536,76.609550
3748.697928,-9992.780217,814.226536,612.876398
3748.698258,-11251.130318,1110.308913,1378.971896
3748.698588,-11843.295072,1036.288319,536.266849
3748.698918,-10066.800811,74.020594,-229.828649
3748.699247,-9104.533087,592.164754,76.609550
3748.699577,-10066.800811,666.185348,1225.752797
3748.699907,-10584.944971,666.185348,1302.362347
3748.700237,-9918.759623,0.000000,1302.362347
3748.700566,-9400.615463,74.020594,842.705048
3748.700896,-10732.986159,148.041188,306.438199
3748.701226,-10807.006753,222.061783,0.000000
3748.701556,-9474.636058,-592.164754,229.828649
3748.701885,-8808.450710,0.000000,919.314598
3748.702215,-8882.471304,0.000000,995.924147
3748.702545,-9326.594869,0.000000,459.657299
3748.702875,-9474.636058,0.000000,0.000000
3748.703204,-9918.759623,-222.061783,-536.266849
3748.703534,-9992.780217,0.000000,-536.266849
3748.703864,-9548.656652,-1258.350101,0.000000
3748.704194,-9252.574275,-1110.308913,536.266849
3748.704523,-8364.327145,-888.247130,612.876398
3748.704853,-8512.368333,-444.123565,306.438199
3748.705183,-8660.409521,-222.061783,-612.876398
3748.705513,-9104.533087,0.000000,-229.828649
3748.705842,-9474.636058,666.185348,153.219100
3748.706172,-10732.986159,740.205942,842.705048
3748.706502,-11177.109724,666.185348,689.485948
3748.706832,-9326.594869,-296.082377,-229.828649
3748.707162,-8216.285956,-148.041188,-459.657299
3748.707491,-8956.491898,518.144159,0.000000
3748.707821,-10362.883188,814.226536,-842.705048
3748.708151,-10214.842000,1110.308913,-1302.362347
3748.708481,-10658.965565,666.185348,-612.876398
3748.708810,-9918.759623,1406.391290,459.657299
3748.709140,-11251.130318,1110.308913,842.705048
3748.709470,-10955.047942,666.185348,612.876398
3748.709800,-9992.780217,518.144159,0.000000
3748.710129,-9548.656652,814.226536,0.000000
3748.710459,-9770.718434,0.000000,995.924147
3748.710789,-10807.006753,296.082377,1762.019645
3748.711119,-10436.903782,444.123565,1762.019645
3748.711448,-10584.944971,296.082377,689.485948
3748.711778,-10066.800811,0.000000,153.219100
3748.712108,-10436.903782,0.000000,-383.047749
3748.712438,-10362.883188,222.061783,-76.609550
3748.712767,-9622.677246,-370.102971,383.047749
3748.713097,-9992.780217,0.000000,1302.362347
3748.713427,-9622.677246,-296.082377,689.485948
3748.713757,-10362.883188,-148.041188,229.828649
3748.714086,-9918.759623,-740.205942,-612.876398
3748.714416,-8956.491898,-666.185348,-1532.190996
3748.714746,-8660.409521,-444.123565,-1302.362347
3748.715076,-8068.244768,-518.144159,995.924147
3748.715405,-8956.491898,-444.123565,1378.971896
3748.715735,-8438.347739,-370.102971,1608.800546
3748.716065,-9252.574275,0.000000,153.219100
3748.716395,-10288.862594,148.041188,-459.657299
3748.716724,-10214.842000,-444.123565,-766.095498
3748.717054,-9622.677246,-296.082377,0.000000
3748.717384,-8882.471304,-592.164754,76.609550
3748.717714,-8808.450710,-296.082377,229.828649
3748.718043,-8290.306550,0.000000,306.438199
3748.718373,-9326.594869,592.164754,612.876398
3748.718703,-9178.553681,1036.288319,-306.438199
3748.719033,-9918.759623,1332.370696,-1225.752797
3748.719362,-10584.944971,1480.411884,-153.219100
3748.719692,-11621.233289,1184.329507,919.314598
3748.720022,-11325.150913,518.144159,689.485948
3748.720352,-10214.842000,0.000000,536.266849
3748.720682,-9548.656652,0.000000,612.876398
3748.721011,-9696.697840,740.205942,612.876398
3748.721341,-10288.862594,74.020594,689.485948
3748.721671,-10584.944971,1184.329507,1225.752797
3748.722001,-10510.924376,666.185348,1378.971896
3748.722330,-11325.150913,592.164754,1072.533697
3748.722660,-11029.068536,0.000000,306.438199
3748.722990,-9992.780217,0.000000,0.000000
3748.723320,-9474.636058,0.000000,-536.266849
3748.723649,-9696.697840,-148.041188,-76.609550
3748.723979,-9548.656652,-518.144159,306.438199
3748.724309,-9400.615463,-222.061783,0.000000
3748.724639,-9548.656652,0.000000,0.000000
3748.724968,-9770.718434,-296.082377,306.438199
3748.725298,-10288.862594,-518.144159,153.219100
3748.725628,-9992.780217,-518.144159,0.000000
3748.725958,-9400.615463,-666.185348,-766.095498
3748.726287,-8142.265362,-666.185348,0.000000
3748.726617,-9178.553681,-370.102971,-153.219100
3748.726947,-9548.656652,-444.123565,-76.609550
3748.727277,-9326.594869,-814.226536,-229.828649
3748.727606,-9400.615463,-370.102971,76.609550
3748.727936,-9474.636058,-814.226536,0.000000
3748.728266,-9474.636058,-962.267725,76.609550
3748.728596,-8956.491898,-444.123565,0.000000
3748.728925,-9104.533087,0.000000,-229.828649
3748.729255,-8882.471304,222.061783,689.485948
3748.729585,-10140.821405,74.020594,689.485948
3748.729915,-11029.068536,740.205942,0.000000
3748.730245,-10066.800811,74.020594,-1149.143247
3748.730574,-9252.574275,814.226536,-612.876398
3748.730904,-9474.636058,74.020594,229.828649
3748.731234,-10510.924376,518.144159,842.705048
3748.731564,-10436.903782,444.123565,1685.410096
3748.731894,-11399.171507,666.185348,1532.190996
3748.732223,-10584.944971,814.226536,229.828649
3748.732553,-10214.842000,518.144159,-1532.190996
3748.732883,-9844.739029,814.226536,-1225.752797
3748.733213,-10510.924376,592.164754,0.000000
3748.733543,-10362.883188,962.267725,459.657299
3748.733872,-10288.862594,0.000000,919.314598
3748.734202,-9770.718434,518.144159,689.485948
3748.734532,-10214.842000,0.000000,0.000000
3748.734862,-10510.924376,444.123565,-536.266849
3748.735192,-8956.491898,-592.164754,-612.876398
3748.735521,-9474.636058,-888.247130,0.000000
3748.735851,-9548.656652,-1036.288319,1225.752797
3748.736181,-10732.986159,-666.185348,1838.629195
3748.736511,-9770.718434,-370.102971,1762.019645
3748.736840,-8956.491898,-1110.308913,-76.609550
3748.737170,-8512.368333,-1184.329507,-1149.143247
3748.737500,-8586.388927,-1036.288319,229.828649
3748.737830,-9326.594869,-740.205942,1072.533697
3748.738160,-8808.450710,-222.061783,842.705048
3748.738489,-9252.574275,-148.041188,536.266849
3748.738819,-9326.594869,-296.082377,76.609550
3748.739149,-9326.594869,-296.082377,229.828649
3748.739479,-9474.636058,-74.020594,0.000000
3748.739809,-10288.862594,0.000000,612.876398
3748.740138,-10288.862594,-222.061783,612.876398
3748.740468,-9030.512492,-296.082377,459.657299
3748.740798,-8660.409521,296.082377,536.266849
3748.741128,-9696.697840,592.164754,536.266849
3748.741458,-10436.903782,962.267725,-612.876398
3748.741787,-9474.636058,518.144159,-1225.752797
3748.742117,-9696.697840,1110.308913,0.000000
3748.742447,-10362.883188,1110.308913,842.705048
3748.742777,-11325.150913,962.267725,1455.581446
3748.743107,-10881.027347,518.144159,1455.581446
3748.743436,-9548.656652,1110.308913,459.657299
3748.743766,-10955.047942,1036.288319,0.000000
3748.744096,-10510.924376,444.123565,459.657299
3748.744426,-10881.027347,814.226536,306.438199
3748.744756,-9474.636058,370.102971,689.485948
3748.745085,-9178.553681,370.102971,919.314598
3748.745415,-10436.903782,666.185348,1072.533697
3748.745745,-10436.903782,1110.308913,-689.485948
3748.746075,-10214.842000,518.144159,-919.314598
3748.746405,-9548.656652,296.082377,-1302.362347
3748.746734,-10288.862594,148.041188,0.000000
3748.747064,-10510.924376,222.061783,459.657299
3748.747394,-9844.739029,0.000000,459.657299
3748.747724,-9030.512492,-148.041188,306.438199
3748.748054,-9400.615463,-370.102971,-76.609550
3748.748383,-9474.636058,0.000000,-459.657299
3748.748713,-8512.368333,148.041188,-383.047749
3748.749043,-9030.512492,0.000000,153.219100
3748.749373,-8734.430116,-148.041188,306.438199
3748.749703,-9400.615463,-296.082377,612.876398
3748.750032,-9030.512492,444.123565,-229.828649
3748.750362,-9844.739029,-74.020594,306.438199
3748.750692,-9770.718434,222.061783,-689.485948
3748.751022,-8956.491898,-518.144159,-919.314598
3748.751352,-9326.594869,0.000000,0.000000
3748.751681,-9622.677246,74.020594,612.876398
3748.752011,-10584.944971,-148.041188,995.924147
3748.752341,-9622.677246,0.000000,766.095498
3748.752671,-9030.512492,0.000000,-689.485948
3748.753001,-9400.615463,814.226536,-612.876398
3748.753330,-10584.944971,74.020594,612.876398
3748.753660,-10584.944971,814.226536,1149.143247
3748.753990,-9622.677246,296.082377,536.266849
3748.754320,-9770.718434,740.205942,-153.219100
3748.754650,-10732.986159,518.144159,229.828649
3748.754979,-11177.109724,74.020594,0.000000
3748.755309,-10436.903782,0.000000,-459.657299
3748.755639,-10658.965565,0.000000,306.438199
3748.755969,-10362.883188,0.000000,919.314598
3748.756299,-9992.780217,-370.102971,919.314598
3748.756628,-9030.512492,74.020594,306.438199
3748.756958,-8956.491898,-222.061783,-229.828649
3748.757288,-9918.759623,222.061783,-995.924147
3748.757618,-10362.883188,-370.102971,-383.047749
3748.757948,-10732.986159,-518.144159,-536.266849
3748.758277,-9400.615463,-888.247130,-536.266849
3748.758607,-8734.430116,-1480.411884,-76.609550
3748.758937,-8882.471304,-962.267725,1225.752797
3748.759267,-9178.553681,-1554.432478,1072.533697
3748.759597,-9474.636058,-888.247130,153.219100
3748.759926,-8512.368333,-518.144159,0.000000
3748.760256,-10140.821405,-370.102971,-383.047749
3748.760586,-9400.615463,-444.123565,459.657299
3748.760916,-9400.615463,-962.267725,766.095498
3748.761245,-9252.574275,-370.102971,612.876398
3748.761575,-9252.574275,-444.123565,0.000000
3748.761905,-9548.656652,0.000000,-1378.971896
3748.762235,-10510.924376,-370.102971,-842.705048
3748.762565,-10214.842000,296.082377,-306.438199
3748.762894,-9918.759623,592.164754,-536.266849
3748.763224,-9622.677246,148.041188,-76.609550
3748.763554,-9474.636058,222.061783,229.828649
3748.763884,-9844.739029,148.041188,-229.828649
3748.764214,-9622.677246,518.144159,0.000000
3748.764543,-10658.965565,370.102971,536.266849
3748.764873,-11029.068536,666.185348,766.095498
3748.765203,-10288.862594,444.123565,1302.362347
3748.765533,-9844.739029,148.041188,1838.629195
3748.765863,-9770.718434,740.205942,1072.533697
3748.766192,-10362.883188,518.144159,383.047749
3748.766522,-10066.800811,518.144159,76.609550
3748.766852,-10510.924376,592.164754,459.657299
3748.767182,-10214.842000,296.082377,1225.752797
3748.767512,-10066.800811,222.061783,1072.533697
3748.767841,-9622.677246,296.082377,536.266849
3748.768171,-9104.533087,148.041188,0.000000
3748.768501,-8956.491898,0.000000,-612.876398
3748.768831,-9252.574275,222.061783,-1149.143247
3748.769161,-9474.636058,518.144159,-766.095498
3748.769490,-9992.780217,74.020594,0.000000
3748.769820,-10362.883188,-222.061783,1302.362347
3748.770150,-9844.739029,-148.041188,1532.190996
3748.770480,-9474.636058,-740.205942,229.828649
3748.770810,-8438.347739,-592.164754,-689.485948
3748.771139,-7920.203579,-1036.288319,0.000000
3748.771469,-9104.533087,74.020594,919.314598
3748.771799,-9844.739029,-444.123565,995.924147
3748.772129,-9178.553681,0.000000,229.828649
3748.772459,-9326.594869,222.061783,459.657299
3748.772788,-10214.842000,0.000000,842.705048
3748.773118,-10214.842000,148.041188,306.438199
3748.773448,-9622.677246,74.020594,766.095498
3748.773778,-9400.615463,0.000000,0.000000
3748.774108,-9178.553681,0.000000,306.438199
3748.774437,-10658.965565,148.041188,459.657299
3748.774767,-10807.006753,444.123565,1072.533697
3748.775097,-10288.862594,74.020594,383.047749
3748.775427,-9400.615463,518.144159,0.000000
3748.775757,-9400.615463,444.123565,306.438199
3748.776086,-10066.800811,1184.329507,766.095498
3748.776416,-10436.903782,666.185348,919.314598
3748.776746,-11251.130318,666.185348,689.485948
3748.777076,-10732.986159,1036.288319,383.047749
3748.777406,-10658.965565,444.123565,0.000000
3748.777735,-10214.842000,518.144159,153.219100
3748.778065,-10140.821405,0.000000,459.657299
3748.778395,-9030.512492,0.000000,76.609550
3748.778725,-9178.553681,0.000000,612.876398
3748.779055,-10066.800811,444.123565,1072.533697
3748.779384,-10732.986159,296.082377,1685.410096
3748.779714,-10288.862594,888.247130,612.876398
3748.780044,-9400.615463,0.000000,-76.609550
3748.780374,-10214.842000,444.123565,-459.657299
3748.780704,-9918.759623,0.000000,0.000000
3748.781033,-9696.697840,-222.061783,-306.438199
3748.781363,-8364.327145,-444.123565,-153.219100
3748.781693,-8734.430116,0.000000,0.000000
3748.782023,-8660.409521,0.000000,612.876398
3748.782353,-8956.491898,0.000000,689.485948
3748.782682,-9252.574275,0.000000,306.438199
3748.783012,-9178.553681,296.082377,0.000000
3748.783342,-9992.780217,-74.020594,306.438199
3748.783672,-10436.903782,444.123565,1149.143247
3748.784002,-10288.862594,0.000000,1225.752797
3748.784331,-10214.842000,666.185348,383.047749
3748.784661,-9178.553681,370.102971,-229.828649
3748.784991,-9548.656652,740.205942,-766.095498
3748.785321,-9844.739029,592.164754,-153.219100
3748.785651,-10214.842000,888.247130,919.314598
3748.785980,-10362.883188,1184.329507,459.657299
3748.786310,-10066.800811,740.205942,-536.266849
3748.786640,-8882.471304,296.082377,-919.314598
3748.786970,-9696.697840,370.102971,0.000000
3748.787299,-9992.780217,444.123565,0.000000
3748.787629,-9770.718434,222.061783,0.000000
3748.787959,-10066.800811,444.123565,1378.971896
3748.788289,-9992.780217,592.164754,2298.286494
3748.788619,-11029.068536,74.020594,1455.581446
3748.788948,-10288.862594,296.082377,536.266849
3748.789278,-10658.965565,-592.164754,-229.828649
3748.789608,-10658.965565,0.000000,-459.657299
3748.789938,-9030.512492,-370.102971,-689.485948
3748.790268,-9030.512492,-148.041188,-306.438199
3748.790597,-9622.677246,74.020594,-306.438199
3748.790927,-9992.780217,-148.041188,-995.924147
3748.791257,-10214.842000,-666.185348,-1225.752797
3748.791587,-10066.800811,-740.205942,-1608.800546
3748.791917,-9548.656652,-1036.288319,-306.438199
3748.792246,-9622.677246,-1406.391290,306.438199
3748.792576,-9770.718434,-1480.411884,995.924147
3748.792906,-9326.594869,-1850.514855,766.095498
3748.793236,-8512.368333,-1702.473667,153.219100
3748.793566,-9030.512492,-1702.473667,0.000000
3748.793895,-9178.553681,-1036.288319,536.266849
3748.794225,-9104.533087,-1480.411884,306.438199
3748.794555,-8956.491898,-1036.288319,1378.971896
3748.794885,-9474.636058,-740.205942,1608.800546
3748.795215,-10214.842000,-592.164754,612.876398
3748.795544,-10066.800811,-222.061783,-612.876398
3748.795874,-9548.656652,-518.144159,-612.876398
3748.796204,-9770.718434,296.082377,153.219100
3748.796534,-10140.821405,370.102971,76.609550
3748.796864,-9918.759623,592.164754,76.609550
3748.797193,-10066.800811,740.205942,-383.047749
3748.797523,-10214.842000,962.267725,-1302.362347
3748.797853,-10658.965565,962.267725,0.000000
3748.798183,-11177.109724,740.205942,1072.533697
3748.798513,-10510.924376,814.226536,1149.143247
3748.798842,-9918.759623,222.061783,995.924147
3748.799172,-10288.862594,518.144159,766.095498
3748.799502,-10658.965565,444.123565,1225.752797
3748.799832,-10214.842000,888.247130,612.876398
3748.800162,-9844.739029,296.082377,1225.752797
3748.800491,-10214.842000,888.247130,1685.410096
3748.800821,-10140.821405,592.164754,1532.190996
3748.801151,-9918.759623,296.082377,153.219100
3748.801481,-9622.677246,444.123565,-229.828649
3748.801811,-10288.862594,518.144159,-689.485948
3748.802140,-9474.636058,74.020594,-1072.533697
3748.802470,-8512.368333,222.061783,-766.095498
3748.802800,-8216.285956,0.000000,-459.657299
3748.803130,-9030.512492,0.000000,0.000000
3748.803460,-9252.574275,-518.144159,536.266849
3748.803789,-9696.697840,148.041188,1149.143247
3748.804119,-9844.739029,0.000000,1072.533697
3748.804449,-9548.656652,0.000000,766.095498
3748.804779,-8882.471304,-148.041188,536.266849
3748.805109,-9326.594869,74.020594,76.609550
3748.805438,-8956.491898,296.082377,0.000000
3748.805768,-8808.450710,-296.082377,153.219100
3748.806098,-9622.677246,296.082377,306.438199
3748.806428,-10288.862594,296.082377,612.876398
3748.806758,-9548.656652,74.020594,612.876398
3748.807087,-9474.636058,0.000000,0.000000
3748.807417,-9770.718434,370.102971,306.438199
3748.807747,-9400.615463,518.144159,306.438199
3748.808077,-10066.800811,518.144159,383.047749
3748.808407,-10807.006753,888.247130,612.876398
3748.808736,-10658.965565,444.123565,76.609550
3748.809066,-9770.718434,518.144159,-383.047749
3748.809396,-9770.718434,222.061783,76.609550
3748.809726,-9918.759623,444.123565,153.219100
3748.810056,-9252.574275,296.082377,536.266849
3748.810385,-9696.697840,518.144159,1302.362347
3748.810715,-10584.944971,740.205942,1149.143247
3748.811045,-11695.253884,518.144159,766.095498
3748.811375,-10955.047942,444.123565,-306.438199
3748.811705,-10807.006753,0.000000,0.000000
3748.812034,-10288.862594,0.000000,383.047749
3748.812364,-9992.780217,-1110.308913,689.485948
3748.812694,-9474.636058,-518.144159,153.219100
3748.813024,-9326.594869,-148.041188,-153.219100
3748.813353,-9474.636058,0.000000,-842.705048
3748.813683,-9400.615463,-814.226536,-383.047749
3748.814013,-10807.006753,0.000000,0.000000
3748.814343,-10362.883188,-296.082377,0.000000
3748.814673,-9326.594869,-1110.308913,-919.314598
3748.815002,-8734.430116,-1110.308913,-383.047749
3748.815332,-8734.430116,-1110.308913,383.047749
3748.815662,-8956.491898,-888.247130,689.485948
3748.815992,-9400.615463,-1110.308913,1225.752797
3748.816322,-10066.800811,-740.205942,612.876398
3748.816651,-9770.718434,0.000000,536.266849
3748.816981,-9992.780217,-592.164754,153.219100
3748.817311,-9770.718434,-518.144159,0.000000
3748.817641,-9770.718434,74.020594,76.609550
3748.817971,-8586.388927,-444.123565,153.219100
3748.818300,-8586.388927,296.082377,153.219100
3748.818630,-10436.903782,518.144159,153.219100
3748.818960,-10732.986159,666.185348,-76.609550
3748.819290,-9844.739029,370.102971,-612.876398
3748.819620,-10214.842000,518.144159,-766.095498
3748.819949,-10288.862594,444.123565,0.000000
3748.820279,-10066.800811,74.020594,536.266849
3748.820609,-9474.636058,444.123565,1149.143247
3748.820939,-9104.533087,296.082377,1072.533697
3748.821269,-9548.656652,444.123565,612.876398
3748.821598,-9992.780217,296.082377,1302.362347
3748.821928,-10362.883188,444.123565,842.705048
3748.822258,-9770.718434,74.020594,1225.752797
3748.822588,-9548.656652,0.000000,995.924147
3748.822918,-10214.842000,296.082377,1302.362347
3748.823247,-10658.965565,444.123565,536.266849
3748.823577,-10066.800811,370.102971,-459.657299
3748.823907,-9548.656652,0.000000,-1225.752797
3748.824237,-9770.718434,74.020594,-842.705048
3748.824567,-9918.759623,222.061783,-612.876398
3748.824896,-9474.636058,296.082377,-76.609550
3748.825226,-9770.718434,74.020594,-536.266849
3748.825556,-9178.553681,0.000000,-1225.752797
3748.825886,-9030.512492,-666.185348,-306.438199
3748.826216,-9474.636058,-296.082377,842.705048
3748.826545,-10140.821405,-370.102971,612.876398
3748.826875,-9770.718434,-518.144159,766.095498
3748.827205,-9548.656652,-518.144159,1072.533697
3748.827535,-10214.842000,-518.144159,1302.362347
3748.827865,-9696.697840,-740.205942,919.314598
3748.828194,-8882.471304,-370.102971,76.609550
3748.828524,-8586.388927,74.020594,76.609550
3748.828854,-9178.553681,0.000000,-459.657299
3748.829184,-9918.759623,0.000000,-766.095498
3748.829514,-9252.574275,296.082377,-76.609550
3748.829843,-9844.739029,740.205942,229.828649
3748.830173,-9918.759623,444.123565,612.876398
3748.830503,-10214.842000,148.041188,612.876398
3748.830833,-9918.759623,518.144159,76.609550
3748.831163,-9548.656652,222.061783,76.609550
3748.831492,-9400.615463,518.144159,612.876398
3748.831822,-10658.965565,740.205942,1225.752797
3748.832152,-10881.027347,888.247130,766.095498
3748.832482,-9696.697840,666.185348,153.219100
3748.832811,-10288.862594,592.164754,76.609550
3748.833141,-10955.047942,1036.288319,229.828649
3748.833471,-10807.006753,370.102971,0.000000
3748.833801,-9104.533087,0.000000,229.828649
3748.834130,-8882.471304,148.041188,612.876398
3748.834460,-9844.739029,814.226536,459.657299
3748.834790,-10214.842000,444.123565,-612.876398
3748.835120,-10214.842000,148.041188,-459.657299
3748.835449,-10807.006753,296.082377,-383.047749
3748.835779,-10436.903782,148.041188,0.000000
3748.836109,-9992.780217,-740.205942,0.000000
3748.836439,-9104.533087,-740.205942,0.000000
3748.836768,-8734.430116,-1258.350101,612.876398
3748.837098,-9400.615463,-592.164754,383.047749
3748.837428,-8882.471304,-888.247130,919.314598
3748.837758,-8956.491898,-444.123565,383.047749
3748.838087,-9104.533087,-592.164754,0.000000
3748.838417,-9104.533087,-666.185348,459.657299
3748.838747,-9178.553681,-962.267725,995.924147
3748.839077,-8364.327145,-592.164754,612.876398
3748.839406,-8882.471304,-518.144159,306.438199
3748.839736,-10066.800811,74.020594,1378.971896
3748.840066,-9992.780217,148.041188,1149.143247
3748.840396,-9918.759623,296.082377,-383.047749
3748.840725,-10066.800811,518.144159,-766.095498
3748.841055,-10881.027347,518.144159,153.219100
3748.841385,-9992.780217,444.123565,153.219100
3748.841715,-9252.574275,296.082377,153.219100
3748.842044,-9918.759623,1184.329507,76.609550
3748.842374,-10140.821405,740.205942,-842.705048
3748.842704,-9178.553681,444.123565,-1378.971896
3748.843034,-9622.677246,592.164754,-536.266849
3748.843363,-11325.150913,518.144159,1149.143247
3748.843693,-11029.068536,222.061783,2451.505594
3748.844023,-9992.780217,-74.020594,2451.505594
3748.844353,-9474.636058,0.000000,1302.362347
3748.844682,-10066.800811,0.000000,766.095498
3748.845012,-9474.636058,74.020594,1378.971896
3748.845342,-10436.903782,148.041188,1225.752797
3748.845672,-10362.883188,444.123565,1685.410096
3748.846001,-10732.986159,222.061783,1149.143247
3748.846331,-11103.089130,0.000000,383.047749
3748.846661,-9622.677246,0.000000,-919.314598
3748.846990,-8512.368333,0.000000,-1302.362347
3748.847320,-10140.821405,370.102971,-919.314598
3748.847650,-10881.027347,74.020594,-383.047749
3748.847980,-9770.718434,0.000000,-383.047749
3748.848309,-9252.574275,-370.102971,0.000000
3748.848639,-9178.553681,-444.123565,0.000000
3748.848969,-10066.800811,-444.123565,-383.047749
3748.849299,-8734.430116,-592.164754,-766.095498
3748.849628,-7624.121203,-518.144159,-459.657299
3748.849958,-9178.553681,-370.102971,995.924147
3748.850288,-9992.780217,74.020594,919.314598
3748.850618,-9844.739029,-296.082377,995.924147
3748.850947,-8808.450710,222.061783,-383.047749
3748.851277,-9178.553681,-74.020594,-766.095498
3748.851607,-10066.800811,222.061783,-842.705048
3748.851937,-9622.677246,0.000000,-689.485948
3748.852266,-8882.471304,370.102971,-995.924147
3748.852596,-9178.553681,592.164754,-459.657299
3748.852926,-10955.047942,962.267725,0.000000
3748.853256,-10658.965565,666.185348,306.438199
3748.853585,-9474.636058,0.000000,-459.657299
3748.853915,-9548.656652,222.061783,306.438199
3748.854245,-10510.924376,-296.082377,1685.410096
3748.854575,-11251.130318,74.020594,1838.629195
3748.854904,-9400.615463,-666.185348,1225.752797
3748.855234,-8734.430116,148.041188,536.266849
3748.855564,-10288.862594,1184.329507,766.095498
3748.855894,-11473.192101,370.102971,153.219100
3748.856223,-10510.924376,74.020594,-459.657299
3748.856553,-9474.636058,518.144159,0.000000
3748.856883,-9844.739029,296.082377,0.000000
3748.857213,-9696.697840,-370.102971,-306.438199
3748.857542,-10066.800811,-444.123565,76.609550
3748.857872,-9252.574275,-296.082377,612.876398
3748.858202,-9770.718434,-296.082377,0.000000
3748.858532,-10362.883188,-296.082377,-766.095498
3748.858861,-10140.821405,-962.267725,-689.485948
3748.859191,-9252.574275,-962.267725,919.314598
3748.859521,-8808.450710,-962.267725,1072.533697
3748.859851,-9104.533087,-1406.391290,842.705048
3748.860180,-8956.491898,-1406.391290,536.266849
3748.860510,-8956.491898,-1406.391290,689.485948
3748.860840,-9030.512492,-592.164754,689.485948
3748.861170,-9992.780217,-592.164754,612.876398
3748.861499,-9770.718434,-296.082377,153.219100
3748.861829,-9326.594869,-740.205942,689.485948
3748.862159,-9178.553681,-74.020594,766.095498
3748.862489,-9844.739029,296.082377,306.438199
3748.862818,-10436.903782,518.144159,-689.485948
3748.863148,-9696.697840,444.123565,-766.095498
3748.863478,-9918.759623,592.164754,0.000000
3748.863808,-9844.739029,444.123565,0.000000
3748.864137,-10732.986159,370.102971,459.657299
3748.864467,-10584.944971,592.164754,766.095498
3748.864797,-9622.677246,148.041188,842.705048
3748.865127,-9252.574275,222.061783,-459.657299
3748.865456,-9548.656652,222.061783,229.828649
3748.865786,-10807.006753,148.041188,1225.752797
3748.866116,-9844.739029,296.082377,1455.581446
3748.866446,-9474.636058,222.061783,1532.190996
3748.866775,-10510.924376,740.205942,1532.190996
3748.867105,-10362.883188,592.164754,536.266849
3748.867435,-10066.800811,740.205942,-536.266849
3748.867765,-10214.842000,888.247130,0.000000
3748.868094,-10732.986159,1332.370696,459.657299
3748.868424,-11473.192101,740.205942,842.705048
3748.868754,-10658.965565,592.164754,612.876398
3748.869084,-10066.800811,444.123565,536.266849
3748.869413,-9326.594869,518.144159,-459.657299
3748.869743,-9400.615463,592.164754,-766.095498
3748.870073,-9918.759623,296.082377,0.000000
3748.870403,-9252.574275,592.164754,0.000000
3748.870732,-9844.739029,592.164754,-689.485948
3748.871062,-10288.862594,222.061783,0.000000
3748.871392,-9474.636058,-222.061783,229.828649
3748.871722,-8956.491898,-444.123565,383.047749
3748.872051,-8660.409521,-296.082377,306.438199
3748.872381,-8956.491898,-296.082377,0.000000
3748.872711,-8734.430116,-296.082377,-306.438199
3748.873041,-8512.368333,-444.123565,689.485948
3748.873370,-9326.594869,148.041188,2451.505594
3748.873700,-9918.759623,-296.082377,689.485948
3748.874030,-9622.677246,0.000000,-383.047749
3748.874360,-8586.388927,0.000000,153.219100
3748.874689,-9918.759623,-370.102971,536.266849
3748.875019,-10288.862594,74.020594,-229.828649
3748.875349,-9770.718434,0.000000,0.000000
3748.875679,-9474.636058,962.267725,229.828649
3748.876008,-9918.759623,1184.329507,0.000000
3748.876338,-10510.924376,888.247130,-229.828649
3748.876668,-10584.944971,666.185348,-153.219100
3748.876998,-10807.006753,666.185348,0.000000
3748.877327,-9548.656652,444.123565,459.657299
3748.877657,-9844.739029,-444.123565,1149.143247
3748.877987,-10066.800811,518.144159,1991.848295
3748.878317,-10436.903782,74.020594,1608.800546
3748.878646,-10881.027347,148.041188,995.924147
3748.878976,-10807.006753,-444.123565,383.047749
3748.879306,-11473.192101,0.000000,76.609550
3748.879636,-9844.739029,-814.226536,306.438199
3748.879965,-9696.697840,-814.226536,383.047749
3748.880295,-9548.656652,-518.144159,1455.581446
3748.880625,-9178.553681,-370.102971,383.047749
3748.880955,-8660.409521,-296.082377,-536.266849
3748.881284,-8882.471304,0.000000,-1072.533697
3748.881614,-10436.903782,0.000000,-459.657299
3748.881944,-10807.006753,-740.205942,-229.828649
3748.882274,-10732.986159,-370.102971,919.314598
3748.882603,-10140.821405,-666.185348,0.000000
3748.882933,-8216.285956,-1184.329507,-536.266849
3748.883263,-7846.182985,-1332.370696,-689.485948
3748.883593,-9252.574275,-1184.329507,383.047749
3748.883922,-9474.636058,-740.205942,1685.410096
3748.884252,-8956.491898,-814.226536,1915.238745
3748.884582,-9548.656652,0.000000,1532.190996
3748.884912,-9992.780217,-222.061783,153.219100
3748.885241,-9770.718434,-222.061783,-383.047749
3748.885571,-9030.512492,-148.041188,-842.705048
3748.885901,-9992.780217,222.061783,-995.924147
3748.886230,-10140.821405,296.082377,-383.047749
3748.886560,-9622.677246,222.061783,-612.876398
3748.886890,-9844.739029,666.185348,-383.047749
3748.887220,-9918.759623,296.082377,-459.657299
3748.887549,-10584.944971,444.123565,0.000000
3748.887879,-10066.800811,0.000000,536.266849
3748.888209,-9844.739029,296.082377,842.705048
3748.888539,-9104.533087,148.041188,766.095498
3748.888868,-9696.697840,0.000000,766.095498
3748.889198,-11103.089130,962.267725,1072.533697
3748.889528,-10584.944971,814.226536,383.047749
3748.889858,-10140.821405,148.041188,-459.657299
3748.890187,-10732.986159,222.061783,-459.657299
3748.890517,-10807.006753,592.164754,0.000000
3748.890847,-9992.780217,148.041188,0.000000
3748.891177,-9992.780217,0.000000,-229.828649
3748.891506,-9844.739029,296.082377,-842.705048
3748.891836,-9918.759623,-518.144159,-842.705048
3748.892166,-9252.574275,0.000000,-1532.190996
3748.892496,-9104.533087,-444.123565,-919.314598
3748.892825,-10066.800811,148.041188,0.000000
3748.893155,-9622.677246,-296.082377,229.828649
3748.893485,-9474.636058,-740.205942,0.000000
3748.893815,-9474.636058,-592.164754,-689.485948
3748.894144,-9326.594869,-1184.329507,383.047749
3748.894474,-9474.636058,-1332.370696,1225.752797
3748.894804,-9252.574275,-1036.288319,1532.190996
3748.895134,-8734.430116,-740.205942,1455.581446
3748.895463,-8290.306550,-592.164754,689.485948
3748.895793,-9918.759623,-148.041188,383.047749
3748.896123,-9844.739029,-148.041188,306.438199
3748.896453,-9474.636058,0.000000,76.609550
3748.896782,-9178.553681,444.123565,153.219100
3748.897112,-9844.739029,592.164754,153.219100
3748.897442,-9770.718434,370.102971,0.000000
3748.897772,-9844.739029,444.123565,-612.876398
3748.898101,-10362.883188,1036.288319,-383.047749
3748.898431,-10510.924376,444.123565,-229.828649
3748.898761,-9992.780217,518.144159,306.438199
3748.899091,-9474.636058,444.123565,1225.752797
3748.899420,-10362.883188,814.226536,1762.019645
3748.899750,-9844.739029,222.061783,1149.143247
3748.900080,-9548.656652,74.020594,919.314598
3748.900410,-9770.718434,814.226536,919.314598
3748.900739,-10510.924376,1036.288319,842.705048
3748.901069,-11251.130318,1554.432478,842.705048
3748.901399,-11473.192101,444.123565,689.485948
3748.901729,-10510.924376,0.000000,-76.609550
3748.902058,-9696.697840,74.020594,-229.828649
3748.902388,-9474.636058,-74.020594,153.219100
3748.902718,-9252.574275,296.082377,766.095498
3748.903048,-9178.553681,518.144159,995.924147
3748.903377,-9474.636058,444.123565,536.266849
3748.903707,-9992.780217,222.061783,459.657299
3748.904037,-10658.965565,296.082377,229.828649
3748.904367,-10436.903782,74.020594,612.876398
3748.904696,-10510.924376,0.000000,766.095498
3748.905026,-9548.656652,-518.144159,306.438199
3748.905356,-8882.471304,-1036.288319,153.219100
3748.905686,-8660.409521,-814.226536,76.609550
3748.906015,-9474.636058,-148.041188,0.000000
3748.906345,-9474.636058,0.000000,-306.438199
3748.906675,-8956.491898,0.000000,0.000000
3748.907005,-9326.594869,0.000000,919.314598
3748.907334,-9770.718434,444.123565,1302.362347
3748.907664,-10214.842000,0.000000,383.047749
3748.907994,-9474.636058,-222.061783,-383.047749
3748.908324,-9252.574275,-296.082377,-459.657299
3748.908653,-10140.821405,0.000000,1302.362347
3748.908983,-10510.924376,0.000000,1225.752797
3748.909313,-9770.718434,74.020594,459.657299
3748.909643,-9400.615463,0.000000,-459.657299
3748.909972,-9474.636058,0.000000,-536.266849
3748.910302,-9548.656652,0.000000,0.000000
3748.910632,-10362.883188,148.041188,689.485948
3748.910962,-9252.574275,0.000000,306.438199
3748.911291,-9178.553681,0.000000,-383.047749
3748.911621,-9548.656652,518.144159,-306.438199
3748.911951,-11103.089130,148.041188,-612.876398
3748.912281,-11103.089130,444.123565,-919.314598
3748.912610,-10584.944971,0.000000,-153.219100
3748.912940,-10436.903782,0.000000,76.609550
3748.913270,-9474.636058,-74.020594,383.047749
3748.913600,-9844.739029,0.000000,383.047749
3748.913929,-10214.842000,222.061783,0.000000
3748.914259,-10732.986159,148.041188,-919.314598
3748.914589,-9770.718434,-444.123565,-995.924147
3748.914919,-9326.594869,-370.102971,-689.485948
3748.915248,-9548.656652,-444.123565,306.438199
3748.915578,-9770.718434,-666.185348,536.266849
3748.915908,-8660.409521,-1036.288319,-536.266849
3748.916238,-8660.409521,-1036.288319,-919.314598
3748.916567,-9104.533087,-592.164754,153.219100
3748.916897,-9178.553681,-370.102971,1072.533697
3748.917227,-10214.842000,-740.205942,1838.629195
3748.917557,-8956.491898,-518.144159,1762.019645
3748.917886,-8956.491898,-148.041188,1608.800546
3748.918216,-9770.718434,-222.061783,1225.752797
3748.918546,-9622.677246,74.020594,0.000000
3748.918876,-9326.594869,296.082377,-229.828649
3748.919205,-9252.574275,1110.308913,536.266849
3748.919535,-10955.047942,888.247130,919.314598
3748.919865,-10732.986159,1110.308913,229.828649
3748.920195,-9474.636058,74.020594,-1302.362347
3748.920524,-9548.656652,1110.308913,-536.266849
3748.920854,-9696.697840,296.082377,0.000000
3748.921184,-9992.780217,0.000000,1302.362347
3748.921514,-9400.615463,74.020594,1532.190996
3748.921843,-9844.739029,740.205942,1532.190996
3748.922173,-9696.697840,740.205942,1378.971896
3748.922503,-10288.862594,740.205942,842.705048
3748.922833,-11695.253884,962.267725,1149.143247
3748.923162,-11843.295072,444.123565,306.438199
3748.923492,-10584.944971,518.144159,-919.314598
3748.923822,-9622.677246,148.041188,-229.828649
3748.924151,-9252.574275,444.123565,-76.609550
3748.924481,-9400.615463,0.000000,306.438199
3748.924811,-10214.842000,296.082377,76.609550
3748.925141,-9844.739029,148.041188,-1072.533697
3748.925470,-9474.636058,74.020594,-1608.800546
3748.925800,-9844.739029,296.082377,-995.924147
3748.926130,-10436.903782,0.000000,383.047749
3748.926460,-9992.780217,-148.041188,1302.362347
3748.926789,-9252.574275,-592.164754,1225.752797
3748.927119,-10288.862594,-370.102971,1149.143247
3748.927449,-9844.739029,-592.164754,-229.828649
3748.927779,-8808.450710,-962.267725,-536.266849
3748.928108,-8216.285956,-518.144159,-76.609550
3748.928438,-9104.533087,-740.205942,766.095498
3748.928768,-9770.718434,-444.123565,1149.143247
3748.929098,-8956.491898,-592.164754,612.876398
3748.929427,-8438.347739,-370.102971,-153.219100
3748.929757,-9474.636058,0.000000,-842.705048
3748.930087,-10658.965565,296.082377,-459.657299
3748.930417,-9178.553681,-296.082377,919.314598
3748.930746,-9696.697840,370.102971,1225.752797
3748.931076,-10807.006753,814.226536,536.266849
3748.931406,-10881.027347,444.123565,153.219100
3748.931736,-10362.883188,444.123565,-536.266849
3748.932065,-9770.718434,370.102971,306.438199
3748.932395,-10288.862594,222.061783,229.828649
3748.932725,-10214.842000,74.020594,1149.143247
3748.933055,-10214.842000,444.123565,1072.533697
3748.933384,-8808.450710,370.102971,842.705048
3748.933714,-9474.636058,814.226536,0.000000
3748.934044,-11029.068536,1184.329507,-536.266849
3748.934373,-10955.047942,296.082377,-459.657299
3748.934703,-10584.944971,888.247130,-383.047749
3748.935033,-10658.965565,0.000000,766.095498
3748.935363,-11843.295072,0.000000,1455.581446
3748.935692,-9770.718434,-962.267725,1685.410096
3748.936022,-8586.388927,-1036.288319,689.485948
3748.936352,-8364.327145,-444.123565,306.438199
3748.936682,-9474.636058,-296.082377,612.876398
3748.937011,-9918.759623,0.000000,306.438199
3748.937341,-9474.636058,518.144159,0.000000
3748.937671,-9548.656652,222.061783,536.266849
3748.938001,-10510.924376,0.000000,766.095498
3748.938330,-10584.944971,-370.102971,229.828649
3748.938660,-9400.615463,-740.205942,-153.219100
3748.938990,-8364.327145,-888.247130,-919.314598
3748.939319,-8586.388927,-814.226536,-995.924147
3748.939649,-9696.697840,-518.144159,536.266849
3748.939979,-8512.368333,-444.123565,919.314598
3748.940309,-7920.203579,-666.185348,229.828649
3748.940638,-9474.636058,0.000000,1302.362347
3748.940968,-10436.903782,-74.020594,995.924147
3748.941298,-10288.862594,-518.144159,-459.657299
3748.941628,-9252.574275,-370.102971,-766.095498
3748.941957,-9474.636058,74.020594,0.000000
3748.942287,-9400.615463,296.082377,842.705048
3748.942617,-10066.800811,444.123565,842.705048
3748.942947,-10288.862594,518.144159,536.266849
3748.943276,-10140.821405,518.144159,-459.657299
3748.943606,-10288.862594,740.205942,-1762.019645
3748.943936,-10510.924376,666.185348,-842.705048
3748.944265,-10732.986159,222.061783,766.095498
3748.944595,-9252.574275,370.102971,1532.190996
3748.944925,-8882.471304,666.185348,842.705048
3748.945255,-10362.883188,1554.432478,229.828649
3748.945584,-10658.965565,518.144159,-612.876398
3748.945914,-11251.130318,1036.288319,-995.924147
3748.946244,-10732.986159,1036.288319,383.047749
3748.946574,-11991.336260,962.267725,1378.971896
3748.946903,-11029.068536,296.082377,1225.752797
3748.947233,-9770.718434,-370.102971,536.266849
3748.947563,-9474.636058,518.144159,0.000000
3748.947893,-9474.636058,0.000000,-536.266849
3748.948222,-9030.512492,-148.041188,-1532.190996
3748.948552,-9252.574275,-740.205942,-153.219100
3748.948882,-8734.430116,-296.082377,1302.362347
3748.949211,-8660.409521,-518.144159,1685.410096
3748.949541,-9770.718434,-1110.308913,0.000000
3748.949871,-8734.430116,-518.144159,-995.924147
3748.950201,-7994.224174,-1406.391290,-459.657299
3748.950530,-8734.430116,-666.185348,1225.752797
3748.950860,-10436.903782,-666.185348,2451.505594
3748.951190,-9622.677246,-148.041188,1378.971896
3748.951520,-7994.224174,-666.185348,383.047749
3748.951849,-9104.533087,-444.123565,-383.047749
3748.952179,-9770.718434,444.123565,-459.657299
3748.952509,-10066.800811,222.061783,-612.876398
3748.952838,-9326.594869,444.123565,-995.924147
3748.953168,-9252.574275,296.082377,-459.657299
3748.953498,-10214.842000,1036.288319,-229.828649
3748.953828,-10288.862594,518.144159,-229.828649
3748.954157,-10955.047942,740.205942,-1149.143247
3748.954487,-9696.697840,962.267725,-536.266849
3748.954817,-10732.986159,1036.288319,306.438199
3748.955147,-11399.171507,518.144159,1149.143247
3748.955476,-11177.109724,888.247130,1685.410096
3748.955806,-9770.718434,74.020594,1532.190996
3748.956136,-9326.594869,-74.020594,306.438199
3748.956466,-10066.800811,444.123565,536.266849
3748.956795,-10140.821405,444.123565,1225.752797
3748.957125,-10510.924376,592.164754,1455.581446
3748.957455,-9474.636058,296.082377,459.657299
3748.957784,-10807.006753,814.226536,306.438199
3748.958114,-11103.089130,74.020594,306.438199
3748.958444,-10807.006753,-148.041188,153.219100
3748.958774,-9622.677246,-444.123565,229.828649
3748.959103,-9030.512492,-814.226536,76.609550
3748.959433,-8364.327145,-518.144159,-383.047749
3748.959763,-8956.491898,-222.061783,76.609550
3748.960093,-9400.615463,-296.082377,766.095498
3748.960422,-8586.388927,-296.082377,1149.143247
3748.960752,-9622.677246,-296.082377,919.314598
3748.961082,-9474.636058,-518.144159,689.485948
3748.961412,-9326.594869,-1110.308913,612.876398
3748.961741,-8882.471304,-1036.288319,536.266849
3748.962071,-9400.615463,-1036.288319,842.705048
3748.962401,-9400.615463,-1258.350101,536.266849
3748.962730,-8216.285956,-592.164754,0.000000
3748.963060,-8364.327145,0.000000,306.438199
3748.963390,-9474.636058,1036.288319,-229.828649
3748.963720,-10288.862594,518.144159,-1455.581446
3748.964049,-9548.656652,740.205942,-1532.190996
3748.964379,-10140.821405,740.205942,-1302.362347
3748.964709,-10732.986159,814.226536,-153.219100
3748.965039,-10510.924376,666.185348,153.219100
3748.965368,-9918.759623,888.247130,459.657299
3748.965698,-9548.656652,814.226536,-306.438199
3748.966028,-10658.965565,1184.329507,-153.219100
3748.966358,-11843.295072,1480.411884,153.219100
3748.966687,-11695.253884,888.247130,842.705048
3748.967017,-10066.800811,962.267725,919.314598
3748.967347,-9992.780217,148.041188,306.438199
3748.967676,-10362.883188,222.061783,-306.438199
3748.968006,-10362.883188,296.082377,-689.485948
3748.968336,-9178.553681,444.123565,-1302.362347
3748.968666,-9474.636058,0.000000,-842.705048
3748.968995,-10140.821405,-148.041188,153.219100
3748.969325,-9548.656652,-222.061783,1302.362347
3748.969655,-9696.697840,-296.082377,1149.143247
3748.969985,-10658.965565,0.000000,229.828649
3748.970314,-10362.883188,-592.164754,76.609550
3748.970644,-9252.574275,-444.123565,-383.047749
3748.970974,-8956.491898,-1184.329507,229.828649
3748.971303,-9992.780217,-666.185348,306.438199
3748.971633,-9474.636058,-1184.329507,689.485948
3748.971963,-7772.162391,-1332.370696,383.047749
3748.972293,-7624.121203,-740.205942,0.000000
3748.972622,-8068.244768,-592.164754,-76.609550
3748.972952,-8512.368333,-666.185348,-153.219100
3748.973282,-9844.739029,-296.082377,153.219100
3748.973612,-10066.800811,0.000000,306.438199
3748.973941,-10436.903782,-666.185348,536.266849
3748.974271,-10066.800811,-1110.308913,689.485948
3748.974601,-9474.636058,-666.185348,689.485948
3748.974931,-9030.512492,-518.144159,0.000000
3748.975260,-7920.203579,-222.061783,0.000000
3748.975590,-9178.553681,518.144159,0.000000
3748.975920,-10140.821405,1258.350101,76.609550
3748.976249,-10436.903782,1184.329507,153.219100
3748.976579,-11029.068536,1406.391290,536.266849
3748.976909,-11103.089130,1110.308913,536.266849
3748.977239,-10510.924376,518.144159,-306.438199
3748.977568,-10288.862594,888.247130,-919.314598
3748.977898,-11103.089130,518.144159,0.000000
3748.978228,-10288.862594,592.164754,459.657299
3748.978558,-9326.594869,296.082377,2068.457845
3748.978887,-10066.800811,1036.288319,2374.896044
3748.979217,-10584.944971,666.185348,1608.800546
3748.979547,-10510.924376,962.267725,536.266849
3748.979877,-10436.903782,0.000000,383.047749
3748.980206,-11029.068536,518.144159,306.438199
3748.980536,-10436.903782,0.000000,919.314598
3748.980866,-9622.677246,-222.061783,1532.190996
3748.981195,-9178.553681,74.020594,766.095498
3748.981525,-9474.636058,-74.020594,153.219100
3748.981855,-10066.800811,-74.020594,-229.828649
3748.982185,-10658.965565,-148.041188,-689.485948
3748.982514,-9548.656652,-148.041188,0.000000
3748.982844,-8068.244768,-296.082377,766.095498
3748.983174,-8882.471304,-370.102971,689.485948
3748.983504,-8882.471304,-740.205942,459.657299
3748.983833,-8142.265362,-222.061783,0.000000
3748.984163,-8438.347739,-740.205942,-536.266849
3748.984493,-10140.821405,-222.061783,153.219100
3748.984823,-10362.883188,148.041188,842.705048
3748.985152,-8956.491898,-592.164754,842.705048
3748.985482,-8068.244768,0.000000,766.095498
3748.985812,-9622.677246,148.041188,229.828649
3748.986141,-10807.006753,222.061783,-1225.752797
3748.986471,-9400.615463,0.000000,-1838.629195
3748.986801,-8734.430116,370.102971,-1149.143247
3748.987131,-9844.739029,740.205942,842.705048
3748.987460,-10807.006753,1332.370696,842.705048
3748.987790,-10288.862594,666.185348,229.828649
3748.988120,-10066.800811,1184.329507,-612.876398
3748.988450,-10436.903782,888.247130,-995.924147
3748.988779,-11251.130318,888.247130,153.219100
3748.989109,-10807.006753,518.144159,229.828649
3748.989439,-9178.553681,1036.288319,383.047749
3748.989768,-9548.656652,740.205942,459.657299
3748.990098,-10881.027347,814.226536,229.828649
3748.990428,-11029.068536,814.226536,-842.705048
3748.990758,-9696.697840,666.185348,-1072.533697
3748.991087,-10214.842000,888.247130,0.000000
3748.991417,-10732.986159,518.144159,612.876398
3748.991747,-9548.656652,148.041188,153.219100
3748.992077,-9474.636058,-222.061783,0.000000
3748.992406,-10066.800811,0.000000,153.219100
3748.992736,-9992.780217,-444.123565,919.314598
3748.993066,-9178.553681,-444.123565,76.609550
3748.993396,-8734.430116,0.000000,-383.047749
3748.993725,-9622.677246,74.020594,229.828649
3748.994055,-9992.780217,-1110.308913,1149.143247
3748.994385,-9770.718434,-1480.411884,995.924147
3748.994714,-9548.656652,-962.267725,1378.971896
3748.995044,-8734.430116,-1628.453072,995.924147
3748.995374,-7994.224174,-1110.308913,842.705048
3748.995704,-8290.306550,-888.247130,766.095498
3748.996033,-9548.656652,-444.123565,306.438199
3748.996363,-9992.780217,-518.144159,153.219100
3748.996693,-10214.842000,-666.185348,306.438199
3748.997023,-9400.615463,0.000000,76.609550
3748.997352,-9474.636058,-296.082377,-306.438199
3748.997682,-9844.739029,-296.082377,-995.924147
3748.998012,-9770.718434,0.000000,-459.657299
3748.998342,-9474.636058,-370.102971,-229.828649
3748.998671,-9104.533087,-370.102971,0.000000
3748.999001,-9548.656652,222.061783,919.314598
3748.999331,-10510.924376,666.185348,995.924147
3748.999660,-10510.924376,1184.329507,612.876398
3748.999990,-10510.924376,148.041188,0.000000
3749.000320,-11843.295072,444.123565,-306.438199
3749.000650,-10584.944971,370.102971,306.438199
3749.000979,-9696.697840,444.123565,612.876398
3749.001309,-9696.697840,814.226536,229.828649
3749.001639,-10288.862594,814.226536,-459.657299
3749.001969,-10807.006753,444.123565,0.000000
3749.002298,-9992.780217,296.082377,153.219100
3749.002628,-11029.068536,296.082377,306.438199
3749.002958,-9548.656652,0.000000,1072.533697
3749.003288,-9548.656652,-148.041188,1762.019645
3749.003617,-10955.047942,518.144159,2374.896044
3749.003947,-10362.883188,-296.082377,229.828649
3749.004277,-10732.986159,0.000000,-612.876398
3749.004606,-10214.842000,-518.144159,-459.657299
3749.004936,-10214.842000,-296.082377,0.000000
3749.005266,-8364.327145,-740.205942,689.485948
3749.005596,-7698.141797,-1184.329507,842.705048
3749.005925,-8142.265362,-1036.288319,766.095498
3749.006255,-8586.388927,-740.205942,0.000000
3749.006585,-8586.388927,-666.185348,0.000000
3749.006915,-9918.759623,-222.061783,612.876398
3749.007244,-10436.903782,-148.041188,1455.581446
3749.007574,-9474.636058,-740.205942,689.485948
3749.007904,-8290.306550,-518.144159,-1149.143247
3749.008233,-8512.368333,-444.123565,-306.438199
3749.008563,-8586.388927,-592.164754,-153.219100
3749.008893,-8512.368333,370.102971,-536.266849
3749.009223,-9474.636058,1406.391290,-919.314598
3749.009552,-10436.903782,1258.350101,-689.485948
3749.009882,-9918.759623,370.102971,-842.705048
3749.010212,-9844.739029,222.061783,-153.219100
3749.010542,-9992.780217,666.185348,-459.657299
3749.010871,-10066.800811,888.247130,-459.657299
3749.011201,-9770.718434,814.226536,-459.657299
3749.011531,-10362.883188,1332.370696,-306.438199
3749.011861,-10362.883188,1480.411884,153.219100
3749.012190,-10658.965565,1554.432478,76.609550
3749.012520,-11991.336260,1628.453072,689.485948
3749.012850,-10955.047942,592.164754,612.876398
3749.013179,-10436.903782,592.164754,0.000000
3749.013509,-10066.800811,740.205942,0.000000
3749.013839,-9252.574275,222.061783,0.000000
3749.014169,-8364.327145,74.020594,612.876398
3749.014498,-9252.574275,740.205942,1149.143247
3749.014828,-10807.006753,1110.308913,1532.190996
3749.015158,-11843.295072,518.144159,1149.143247
3749.015488,-10807.006753,666.185348,383.047749
3749.015817,-9992.780217,-444.123565,-153.219100
3749.016147,-9992.780217,-370.102971,153.219100
3749.016477,-9474.636058,-740.205942,995.924147
3749.016807,-9178.553681,-666.185348,1072.533697
3749.017136,-8512.368333,-74.020594,383.047749
3749.017466,-8364.327145,-666.185348,-306.438199
3749.017796,-8290.306550,-592.164754,689.485948
3749.018125,-9992.780217,-518.144159,1225.752797
3749.018455,-10362.883188,-222.061783,919.314598
3749.018785,-8808.450710,-888.247130,842.705048
3749.019115,-8882.471304,-592.164754,383.047749
3749.019444,-9474.636058,-222.061783,842.705048
3749.019774,-9696.697840,-518.144159,612.876398
3749.020104,-8956.491898,-444.123565,229.828649
3749.020434,-9104.533087,0.000000,383.047749
3749.020763,-9622.677246,222.061783,383.047749
3749.021093,-10362.883188,148.041188,0.000000
3749.021423,-9622.677246,0.000000,-459.657299
3749.021753,-9326.594869,296.082377,-229.828649
3749.022082,-8586.388927,-148.041188,459.657299
3749.022412,-9400.615463,74.020594,0.000000
3749.022742,-10362.883188,0.000000,0.000000
3749.023071,-10140.821405,444.123565,612.876398
3749.023401,-10214.842000,518.144159,1072.533697
3749.023731,-11621.233289,592.164754,612.876398
3749.024061,-11547.212695,148.041188,459.657299
3749.024390,-9696.697840,148.041188,0.000000
3749.024720,-9178.553681,222.061783,0.000000
3749.025050,-10140.821405,666.185348,0.000000
3749.025380,-10955.047942,518.144159,0.000000
3749.025709,-10510.924376,444.123565,153.219100
3749.026039,-10510.924376,740.205942,76.609550
3749.026369,-10436.903782,-370.102971,229.828649
3749.026699,-10436.903782,-222.061783,153.219100
3749.027028,-9622.677246,-592.164754,766.095498
3749.027358,-9548.656652,-296.082377,766.095498
3749.027688,-9030.512492,-370.102971,383.047749
3749.028017,-9622.677246,-592.164754,0.000000
3749.028347,-9918.759623,-592.164754,0.000000
3749.028677,-9548.656652,-814.226536,383.047749
3749.029007,-8734.430116,-1110.308913,919.314598
3749.029336,-8586.388927,-888.247130,1072.533697
3749.029666,-8808.450710,-666.185348,459.657299
3749.029996,-8068.244768,-592.164754,-459.657299
3749.030326,-8216.285956,-592.164754,229.828649
3749.030655,-9178.553681,-148.041188,919.314598
3749.030985,-10510.924376,222.061783,1532.190996
3749.031315,-10732.986159,296.082377,0.000000
3749.031645,-10288.862594,518.144159,-689.485948
3749.031975,-9474.636058,148.041188,-689.485948
3749.032304,-9474.636058,592.164754,-383.047749
3749.032634,-9992.780217,814.226536,0.000000
3749.032964,-9548.656652,962.267725,536.266849
3749.033294,-8364.327145,592.164754,995.924147
3749.033624,-8956.491898,1110.308913,306.438199
3749.033953,-11399.171507,1406.391290,536.266849
3749.034283,-11547.212695,962.267725,76.609550
3749.034613,-10362.883188,518.144159,536.266849
3749.034943,-10584.944971,1110.308913,1378.971896
3749.035272,-11399.171507,740.205942,1991.848295
3749.035602,-11029.068536,888.247130,766.095498
3749.035932,-9030.512492,740.205942,153.219100
3749.036262,-9622.677246,1480.411884,-1072.533697
3749.036592,-9992.780217,1258.350101,383.047749
3749.036921,-10732.986159,962.267725,612.876398
3749.037251,-10288.862594,1110.308913,229.828649
3749.037581,-9696.697840,962.267725,306.438199
3749.037911,-9474.636058,222.061783,-76.609550
3749.038240,-9622.677246,0.000000,-306.438199
3749.038570,-9992.780217,0.000000,229.828649
3749.038900,-8882.471304,-370.102971,766.095498
3749.039230,-9252.574275,0.000000,995.924147
3749.039560,-11103.089130,296.082377,995.924147
3749.039889,-9918.759623,-592.164754,536.266849
3749.040219,-8734.430116,-740.205942,766.095498
3749.040549,-9104.533087,-888.247130,1225.752797
3749.040879,-9252.574275,-1332.370696,1149.143247
3749.041208,-7476.080014,-1554.432478,76.609550
3749.041538,-7624.121203,-1184.329507,-459.657299
3749.041868,-8586.388927,-444.123565,0.000000
3749.042198,-9474.636058,-666.185348,-459.657299
3749.042528,-9326.594869,-370.102971,-995.924147
3749.042857,-9474.636058,-296.082377,-842.705048
3749.043187,-10214.842000,-222.061783,-306.438199
3749.043517,-9252.574275,-814.226536,459.657299
3749.043847,-10214.842000,-1184.329507,306.438199
3749.044176,-10436.903782,0.000000,536.266849
3749.044506,-10066.800811,0.000000,-76.609550
3749.044836,-9104.533087,-814.226536,-842.705048
3749.045166,-8956.491898,0.000000,76.609550
3749.045496,-10214.842000,370.102971,383.047749
3749.045825,-11177.109724,666.185348,536.266849
3749.046155,-12213.398043,518.144159,306.438199
3749.046485,-10955.047942,370.102971,842.705048
3749.046815,-11251.130318,222.061783,-229.828649
3749.047144,-11621.233289,-444.123565,-383.047749
3749.047474,-10955.047942,-592.164754,-459.657299
3749.047804,-8216.285956,-592.164754,-76.609550
3749.048134,-8956.491898,0.000000,459.657299
3749.048464,-10881.027347,0.000000,1225.752797
3749.048793,-11325.150913,-148.041188,459.657299
3749.049123,-9104.533087,-296.082377,-383.047749
3749.049453,-8586.388927,-222.061783,0.000000
3749.049783,-11177.109724,-148.041188,306.438199
3749.050113,-10955.047942,-888.247130,995.924147
3749.050442,-9474.636058,-1480.411884,766.095498
3749.050772,-8808.450710,0.000000,612.876398
3749.051102,-9104.533087,-1036.288319,0.000000
3749.051432,-8660.409521,-666.185348,229.828649
3749.051761,-8956.491898,-592.164754,536.266849
3749.052091,-8512.368333,-148.041188,766.095498
3749.052421,-8364.327145,0.000000,766.095498
3749.052751,-9548.656652,0.000000,689.485948
3749.053081,-9918.759623,222.061783,536.266849
3749.053410,-9178.553681,0.000000,153.219100
3749.053740,-8512.368333,148.041188,-306.438199
3749.054070,-9622.677246,0.000000,-459.657299
3749.054400,-10955.047942,814.226536,459.657299
3749.054729,-10362.883188,370.102971,1302.362347
3749.055059,-9622.677246,1258.350101,1225.752797
3749.055389,-9622.677246,1258.350101,766.095498
3749.055719,-9696.697840,1184.329507,-459.657299
3749.056049,-9326.594869,592.164754,306.438199
3749.056378,-10955.047942,814.226536,459.657299
3749.056708,-9474.636058,1184.329507,766.095498
3749.057038,-8068.244768,666.185348,459.657299
3749.057368,-9844.739029,1924.535449,536.266849
3749.057697,-10955.047942,1776.494261,766.095498
3749.058027,-11695.253884,1332.370696,383.047749
3749.058357,-10732.986159,1110.308913,-1072.533697
3749.058687,-11843.295072,1036.288319,-459.657299
3749.059017,-10881.027347,814.226536,1532.190996
3749.059346,-9548.656652,222.061783,1762.019645
3749.059676,-8956.491898,444.123565,536.266849
3749.060006,-9030.512492,740.205942,-612.876398
3749.060336,-9252.574275,444.123565,-842.705048
3749.060665,-10288.862594,1184.329507,0.000000
3749.060995,-10362.883188,1110.308913,-306.438199
3749.061325,-9326.594869,370.102971,0.000000
3749.061655,-9474.636058,-296.082377,383.047749
3749.061985,-10436.903782,222.061783,459.657299
3749.062314,-10436.903782,-1110.308913,-612.876398
3749.062644,-9030.512492,-1110.308913,-842.705048
3749.062974,-8290.306550,-888.247130,-229.828649
3749.063304,-9770.718434,-296.082377,1532.190996
3749.063633,-8734.430116,-962.267725,1838.629195
3749.063963,-8216.285956,-666.185348,1149.143247
3749.064293,-9918.759623,222.061783,306.438199
3749.064623,-9918.759623,222.061783,-689.485948
3749.064953,-9178.553681,0.000000,-919.314598
3749.065282,-9474.636058,-592.164754,0.000000
3749.065612,-9844.739029,0.000000,766.095498
3749.065942,-10510.924376,-74.020594,1302.362347
3749.066272,-9992.780217,-222.061783,0.000000
3749.066602,-9548.656652,0.000000,-536.266849
3749.066931,-9918.759623,0.000000,-842.705048
3749.067261,-10362.883188,296.082377,-536.266849
3749.067591,-10881.027347,-148.041188,306.438199
3749.067921,-10288.862594,74.020594,536.266849
3749.068250,-8438.347739,-518.144159,919.314598
3749.068580,-9474.636058,74.020594,1072.533697
3749.068910,-10362.883188,296.082377,-153.219100
3749.069240,-10436.903782,296.082377,-229.828649
3749.069570,-9844.739029,74.020594,1225.752797
3749.069899,-10807.006753,0.000000,2451.505594
3749.070229,-11251.130318,222.061783,3294.210641
3749.070559,-10362.883188,-592.164754,2298.286494
3749.070889,-9992.780217,-518.144159,1302.362347
3749.071218,-9400.615463,-740.205942,919.314598
3749.071548,-9548.656652,-444.123565,306.438199
3749.071878,-9252.574275,-222.061783,383.047749
3749.072208,-9326.594869,222.061783,1838.629195
3749.072538,-9474.636058,814.226536,2528.115143
3749.072867,-9400.615463,74.020594,1915.238745
3749.073197,-9992.780217,148.041188,1532.190996
3749.073527,-10362.883188,148.041188,383.047749
3749.073857,-9844.739029,148.041188,-76.609550
3749.074186,-8956.491898,148.041188,229.828649
3749.074516,-9104.533087,148.041188,1608.800546
3749.074846,-9252.574275,1110.308913,2834.553343
3749.075176,-8512.368333,296.082377,1378.971896
3749.075506,-9178.553681,1110.308913,1225.752797
3749.075835,-9696.697840,1110.308913,1302.362347
3749.076165,-9400.615463,1406.391290,2145.067394
3749.076495,-9252.574275,1406.391290,1838.629195
3749.076825,-9474.636058,1776.494261,1532.190996
3749.077154,-9400.615463,2220.617826,1608.800546
3749.077484,-9400.615463,2294.638420,1302.362347
3749.077814,-9474.636058,2516.700203,1532.190996
3749.078144,-10362.883188,3330.926739,2681.334243
3749.078474,-11843.295072,3923.091493,2604.724693
3749.078803,-12583.501014,3701.029710,1915.238745
3749.079133,-11325.150913,3627.009116,1838.629195
3749.079463,-9844.739029,3256.906145,2221.676944
3749.079793,-9474.636058,2738.761985,1838.629195
3749.080123,-9252.574275,2590.720797,1378.971896
3749.080452,-8882.471304,2886.803174,3217.601092
3749.080782,-9918.759623,3330.926739,4903.011187
3749.081112,-10288.862594,3404.947333,3907.087040
3749.081442,-11029.068536,3034.844362,2298.286494
3749.081771,-10584.944971,2886.803174,2911.162892
3749.082101,-10288.862594,2886.803174,3370.820191
3749.082431,-10510.924376,3182.885551,2298.286494
3749.082761,-9474.636058,2812.782580,1378.971896
3749.083091,-7772.162391,2664.741391,1762.019645
3749.083420,-7254.018232,3256.906145,3830.477490
3749.083750,-10436.903782,3552.988522,4366.744339
3749.084080,-11917.315666,3775.050304,2681.334243
3749.084410,-9474.636058,2738.761985,1608.800546
3749.084739,-9252.574275,2960.823768,1378.971896
3749.085069,-9400.615463,2812.782580,1225.752797
3749.085399,-10288.862594,1924.535449,1685.410096
3749.085729,-9474.636058,2368.659014,1378.971896
3749.086059,-7105.977043,2146.597232,919.314598
3749.086388,-7994.224174,2738.761985,2145.067394
3749.086718,-9178.553681,2812.782580,2834.553343
3749.087048,-11473.192101,2738.761985,4060.306139
3749.087378,-10066.800811,2738.761985,3907.087040
3749.087707,-9252.574275,2220.617826,3294.210641
3749.088037,-9548.656652,2664.741391,2604.724693
3749.088367,-10881.027347,2146.597232,2221.676944
3749.088697,-11991.336260,2886.803174,1838.629195
3749.089027,-9770.718434,2368.659014,995.924147
3749.089356,-8808.450710,2368.659014,76.609550
3749.089686,-8586.388927,3182.885551,1072.533697
3749.090016,-10658.965565,2812.782580,2834.553343
3749.090346,-11251.130318,3404.947333,3370.820191
3749.090675,-8882.471304,2220.617826,1225.752797
3749.091005,-8882.471304,1332.370696,689.485948
3749.091335,-10362.883188,1406.391290,2451.505594
3749.091665,-11251.130318,1332.370696,4826.401637
3749.091995,-10436.903782,1480.411884,4979.620737
3749.092324,-9474.636058,1924.535449,2068.457845
3749.092654,-9030.512492,1258.350101,1149.143247
3749.092984,-10955.047942,1776.494261,2451.505594
3749.093314,-10658.965565,2516.700203,3753.867940
3749.093643,-9030.512492,1406.391290,4596.572988
3749.093973,-9400.615463,2368.659014,4366.744339
3749.094303,-10066.800811,2294.638420,2604.724693
3749.094633,-10732.986159,1110.308913,1991.848295
3749.094963,-9992.780217,1258.350101,766.095498
3749.095292,-10214.842000,666.185348,-536.266849
3749.095622,-9844.739029,518.144159,1072.533697
3749.095952,-8956.491898,1258.350101,2987.772442
3749.096282,-9400.615463,1480.411884,3907.087040
3749.096612,-8364.327145,1628.453072,3447.429741
3749.096941,-8660.409521,1554.432478,612.876398
