#time,accel_x,accel_y,accel_z
4005.819563,-9326.594869,-1554.432478,2604.724693
4005.819893,-9696.697840,-888.247130,2911.162892
4005.820223,-9696.697840,-444.123565,2528.115143
4005.820552,-10140.821405,74.020594,2068.457845
4005.820882,-10362.883188,888.247130,1991.848295
4005.821211,-10362.883188,518.144159,2145.067394
4005.821541,-9770.718434,518.144159,1608.800546
4005.821870,-8956.491898,296.082377,919.314598
4005.822200,-8438.347739,148.041188,229.828649
4005.822530,-8734.430116,0.000000,536.266849
4005.822859,-9326.594869,0.000000,0.000000
4005.823189,-9844.739029,222.061783,-306.438199
4005.823518,-10214.842000,296.082377,612.876398
4005.823848,-10658.965565,518.144159,919.314598
4005.824178,-10510.924376,0.000000,2068.457845
4005.824507,-10436.903782,0.000000,1915.238745
4005.824837,-10362.883188,-148.041188,2145.067394
4005.825166,-10066.800811,0.000000,1685.410096
4005.825496,-9844.739029,-370.102971,2604.724693
4005.825825,-10362.883188,-74.020594,3677.258390
4005.826155,-9992.780217,74.020594,3217.601092
4005.826485,-9474.636058,222.061783,1991.848295
4005.826814,-10214.842000,0.000000,1762.019645
4005.827144,-10658.965565,-370.102971,1685.410096
4005.827473,-10510.924376,-74.020594,1302.362347
4005.827803,-9622.677246,-888.247130,459.657299
4005.828132,-9400.615463,-888.247130,842.705048
4005.828462,-9548.656652,-1628.453072,1838.629195
4005.828792,-8364.327145,-2072.576638,4060.306139
4005.829121,-10066.800811,-1258.350101,3983.696590
4005.829451,-9326.594869,-1554.432478,4519.963438
4005.829780,-8216.285956,-2220.617826,4136.915689
4005.830110,-9252.574275,-2368.659014,3217.601092
4005.830439,-10362.883188,-2146.597232,3524.039291
4005.830769,-9918.759623,-1998.556043,2911.162892
4005.831099,-10140.821405,-1924.535449,1685.410096
4005.831428,-9770.718434,-1776.494261,1225.752797
4005.831758,-9474.636058,-2146.597232,1838.629195
4005.832087,-9770.718434,-1924.535449,2987.772442
4005.832417,-10362.883188,-2368.659014,3907.087040
4005.832747,-10584.944971,-2368.659014,3983.696590
4005.833076,-9770.718434,-2442.679609,2604.724693
4005.833406,-10214.842000,-2886.803174,1072.533697
4005.833735,-11029.068536,-3034.844362,1378.971896
4005.834065,-11251.130318,-3552.988522,2528.115143
4005.834394,-10362.883188,-3404.947333,3907.087040
4005.834724,-9992.780217,-3627.009116,4136.915689
4005.835054,-9548.656652,-3404.947333,3753.867940
4005.835383,-10066.800811,-3849.070898,2451.505594
4005.835713,-10066.800811,-4071.132681,1685.410096
4005.836042,-9918.759623,-4293.194464,2451.505594
4005.836372,-9548.656652,-4737.318029,4060.306139
4005.836701,-9474.636058,-4959.379811,3753.867940
4005.837031,-8882.471304,-4811.338623,2451.505594
4005.837361,-8808.450710,-4737.318029,689.485948
4005.837690,-8956.491898,-4441.235652,153.219100
4005.838020,-9548.656652,-3997.112087,1302.362347
4005.838349,-9992.780217,-3552.988522,2451.505594
4005.838679,-9548.656652,-3997.112087,2068.457845
4005.839008,-8290.306550,-4145.153275,1302.362347
4005.839338,-7994.224174,-4811.338623,995.924147
4005.839668,-9252.574275,-4367.215058,1225.752797
4005.839997,-9918.759623,-3923.091493,1225.752797
4005.840327,-9474.636058,-3627.009116,306.438199
4005.840656,-8364.327145,-2738.761985,-383.047749
4005.840986,-9474.636058,-2886.803174,-612.876398
4005.841316,-10584.944971,-2590.720797,-536.266849
4005.841645,-10584.944971,-3034.844362,-842.705048
4005.841975,-9104.533087,-2812.782580,-306.438199
4005.842304,-8142.265362,-2960.823768,612.876398
4005.842634,-8882.471304,-2220.617826,1608.800546
4005.842964,-10362.883188,-1332.370696,1532.190996
4005.843293,-11325.150913,-370.102971,229.828649
4005.843623,-11103.089130,0.000000,-766.095498
4005.843953,-11991.336260,370.102971,-612.876398
4005.844282,-12509.480420,814.226536,536.266849
4005.844612,-12065.356855,518.144159,1225.752797
4005.844941,-10436.903782,740.205942,229.828649
4005.845271,-9326.594869,222.061783,-612.876398
4005.845601,-9400.615463,444.123565,0.000000
4005.845930,-9622.677246,888.247130,842.705048
4005.846260,-10066.800811,1332.370696,842.705048
4005.846590,-9918.759623,1480.411884,766.095498
4005.846919,-9844.739029,1702.473667,76.609550
4005.847249,-10436.903782,1850.514855,153.219100
4005.847578,-10807.006753,1850.514855,383.047749
4005.847908,-10066.800811,1776.494261,1072.533697
4005.848238,-9252.574275,1850.514855,995.924147
4005.848567,-8512.368333,1628.453072,995.924147
4005.848897,-8438.347739,2072.576638,229.828649
4005.849227,-8438.347739,2516.700203,0.000000
4005.849556,-8364.327145,2442.679609,-612.876398
4005.849886,-8438.347739,3034.844362,-919.314598
4005.850215,-9326.594869,3330.926739,-153.219100
4005.850545,-9770.718434,3701.029710,76.609550
4005.850875,-9474.636058,3627.009116,-1302.362347
4005.851204,-9474.636058,3552.988522,-2374.896044
4005.851534,-10066.800811,3182.885551,-2451.505594
4005.851864,-10732.986159,3923.091493,-1991.848295
4005.852193,-10584.944971,3627.009116,-1378.971896
4005.852523,-9326.594869,3478.967927,-1838.629195
4005.852852,-8734.430116,3182.885551,-2451.505594
4005.853182,-9326.594869,3182.885551,-2451.505594
4005.853512,-10732.986159,3330.926739,-1149.143247
4005.853841,-10584.944971,3182.885551,383.047749
4005.854171,-10362.883188,3182.885551,842.705048
4005.854501,-10658.965565,2738.761985,-383.047749
4005.854830,-10732.986159,2146.597232,-766.095498
4005.855160,-10658.965565,1776.494261,-612.876398
4005.855489,-10658.965565,1924.535449,842.705048
4005.855819,-10066.800811,1702.473667,842.705048
4005.856149,-9104.533087,1406.391290,76.609550
4005.856478,-8734.430116,814.226536,-383.047749
4005.856808,-9844.739029,814.226536,689.485948
4005.857137,-11177.109724,814.226536,1532.190996
4005.857467,-11177.109724,148.041188,842.705048
4005.857797,-9252.574275,-444.123565,-306.438199
4005.858126,-8586.388927,-1184.329507,76.609550
4005.858456,-9474.636058,-1110.308913,766.095498
4005.858786,-10140.821405,-1554.432478,766.095498
4005.859115,-9622.677246,-2368.659014,766.095498
4005.859445,-8956.491898,-1998.556043,1378.971896
4005.859774,-9178.553681,-1776.494261,2068.457845
4005.860104,-9548.656652,-2146.597232,1838.629195
4005.860434,-9252.574275,-1998.556043,1072.533697
4005.860763,-9252.574275,-2442.679609,0.000000
4005.861093,-9918.759623,-2886.803174,689.485948
4005.861423,-10288.862594,-2738.761985,1532.190996
4005.861752,-9696.697840,-2442.679609,919.314598
4005.862082,-9770.718434,-2516.700203,0.000000
4005.862411,-10066.800811,-2516.700203,612.876398
4005.862741,-10510.924376,-2664.741391,1225.752797
4005.863071,-10214.842000,-2664.741391,1532.190996
4005.863400,-9992.780217,-2220.617826,536.266849
4005.863730,-9696.697840,-2886.803174,689.485948
4005.864060,-9918.759623,-2442.679609,1072.533697
4005.864389,-9844.739029,-2516.700203,842.705048
4005.864719,-9696.697840,-2664.741391,995.924147
4005.865048,-10510.924376,-2294.638420,1072.533697
4005.865378,-10732.986159,-2146.597232,1302.362347
4005.865708,-10881.027347,-1628.453072,1608.800546
4005.866037,-10140.821405,-1406.391290,842.705048
4005.866367,-10214.842000,-1258.350101,0.000000
4005.866697,-10362.883188,-1184.329507,76.609550
4005.867026,-10140.821405,-1036.288319,995.924147
4005.867356,-9844.739029,-740.205942,1072.533697
4005.867685,-9918.759623,-592.164754,1072.533697
4005.868015,-9770.718434,-296.082377,536.266849
4005.868345,-9992.780217,-444.123565,842.705048
4005.868674,-10362.883188,0.000000,459.657299
4005.869004,-9992.780217,0.000000,689.485948
4005.869334,-8808.450710,-444.123565,229.828649
4005.869663,-8808.450710,74.020594,306.438199
4005.869993,-8586.388927,74.020594,306.438199
4005.870322,-9104.533087,444.123565,153.219100
4005.870652,-9474.636058,370.102971,-306.438199
4005.870982,-8808.450710,814.226536,229.828649
4005.871311,-9178.553681,1110.308913,766.095498
4005.871641,-9178.553681,1036.288319,76.609550
4005.871971,-8438.347739,1332.370696,-306.438199
4005.872300,-9104.533087,1628.453072,-306.438199
4005.872630,-9770.718434,1776.494261,-612.876398
4005.872959,-9622.677246,2146.597232,-459.657299
4005.873289,-9474.636058,1850.514855,-919.314598
4005.873619,-9400.615463,2294.638420,-459.657299
4005.873948,-9844.739029,2368.659014,-383.047749
4005.874278,-10288.862594,2516.700203,0.000000
4005.874608,-10066.800811,2146.597232,-612.876398
4005.874937,-10140.821405,2516.700203,-1455.581446
4005.875267,-9992.780217,2368.659014,-2145.067394
4005.875596,-9918.759623,2516.700203,-1838.629195
4005.875926,-9548.656652,2590.720797,-1072.533697
4005.876256,-9622.677246,2590.720797,-766.095498
4005.876585,-10140.821405,2812.782580,-459.657299
4005.876915,-10658.965565,2664.741391,0.000000
4005.877245,-10436.903782,2886.803174,-1072.533697
4005.877574,-10140.821405,2368.659014,-1685.410096
4005.877904,-10066.800811,2368.659014,-1762.019645
4005.878233,-10658.965565,2294.638420,-153.219100
4005.878563,-10288.862594,2294.638420,459.657299
4005.878893,-9548.656652,1406.391290,0.000000
4005.879222,-9844.739029,1406.391290,-689.485948
4005.879552,-10436.903782,1184.329507,459.657299
4005.879882,-10881.027347,814.226536,1302.362347
4005.880211,-10140.821405,962.267725,995.924147
4005.880541,-9178.553681,0.000000,153.219100
4005.880870,-9252.574275,0.000000,153.219100
4005.881200,-9548.656652,0.000000,-153.219100
4005.881530,-9770.718434,-370.102971,153.219100
4005.881859,-9696.697840,-370.102971,842.705048
4005.882189,-9770.718434,0.000000,919.314598
4005.882519,-10066.800811,-518.144159,1378.971896
4005.882848,-9992.780217,-666.185348,1149.143247
4005.883178,-9844.739029,-888.247130,459.657299
4005.883507,-9918.759623,-1258.350101,76.609550
4005.883837,-10140.821405,-1554.432478,1072.533697
4005.884167,-9548.656652,-1406.391290,1378.971896
4005.884496,-8956.491898,-1184.329507,1302.362347
4005.884826,-9400.615463,-1036.288319,306.438199
4005.885156,-9844.739029,-1406.391290,1072.533697
4005.885485,-10510.924376,-1776.494261,1532.190996
4005.885815,-10066.800811,-1554.432478,1455.581446
4005.886144,-9178.553681,-1776.494261,842.705048
4005.886474,-8956.491898,-1776.494261,76.609550
4005.886804,-9030.512492,-1776.494261,76.609550
4005.887133,-9474.636058,-1850.514855,76.609550
4005.887463,-9844.739029,-1480.411884,766.095498
4005.887793,-10214.842000,-1406.391290,1685.410096
4005.888122,-10288.862594,-1480.411884,1915.238745
4005.888452,-10066.800811,-1258.350101,1302.362347
4005.888781,-9474.636058,-1628.453072,0.000000
4005.889111,-9844.739029,-1554.432478,0.000000
4005.889441,-9918.759623,-1628.453072,766.095498
4005.889770,-9992.780217,-1184.329507,1072.533697
4005.890100,-9474.636058,-1110.308913,842.705048
4005.890430,-9474.636058,-1036.288319,76.609550
4005.890759,-9696.697840,-962.267725,766.095498
4005.891089,-10881.027347,-888.247130,1455.581446
4005.891418,-10510.924376,-592.164754,842.705048
4005.891748,-9474.636058,-1110.308913,766.095498
4005.892078,-9104.533087,-1036.288319,306.438199
4005.892407,-9474.636058,-1184.329507,536.266849
4005.892737,-9918.759623,-814.226536,536.266849
4005.893067,-9992.780217,-888.247130,612.876398
4005.893396,-9918.759623,-444.123565,919.314598
4005.893726,-9696.697840,-518.144159,1915.238745
4005.894055,-9474.636058,-296.082377,995.924147
4005.894385,-9474.636058,-148.041188,0.000000
4005.894715,-9548.656652,-518.144159,-766.095498
4005.895044,-9844.739029,148.041188,-229.828649
4005.895374,-10140.821405,0.000000,766.095498
4005.895704,-9548.656652,148.041188,612.876398
4005.896033,-9474.636058,444.123565,0.000000
4005.896363,-9622.677246,518.144159,0.000000
4005.896692,-10362.883188,518.144159,153.219100
4005.897022,-10510.924376,888.247130,306.438199
4005.897352,-9400.615463,962.267725,0.000000
4005.897681,-9326.594869,1036.288319,-1378.971896
4005.898011,-9326.594869,1110.308913,-1149.143247
4005.898341,-9844.739029,962.267725,-1225.752797
4005.898670,-9770.718434,1332.370696,-459.657299
4005.899000,-9474.636058,1554.432478,-612.876398
4005.899329,-9918.759623,1332.370696,306.438199
4005.899659,-10288.862594,1628.453072,229.828649
4005.899989,-9918.759623,1702.473667,-1225.752797
4005.900318,-10066.800811,1554.432478,-1455.581446
4005.900648,-10436.903782,1924.535449,-1072.533697
4005.900978,-10140.821405,1480.411884,-383.047749
4005.901307,-9474.636058,1406.391290,0.000000
4005.901637,-8956.491898,1628.453072,-536.266849
4005.901966,-9474.636058,1776.494261,0.000000
4005.902296,-10362.883188,1554.432478,0.000000
4005.902626,-10436.903782,1480.411884,-76.609550
4005.902955,-9400.615463,1184.329507,-153.219100
4005.903285,-9326.594869,1406.391290,-1225.752797
4005.903615,-9178.553681,1184.329507,-689.485948
4005.903944,-9400.615463,1184.329507,-306.438199
4005.904274,-9622.677246,740.205942,-383.047749
4005.904603,-9844.739029,888.247130,459.657299
4005.904933,-9918.759623,518.144159,1149.143247
4005.905263,-10214.842000,740.205942,1455.581446
4005.905592,-9474.636058,666.185348,383.047749
4005.905922,-9770.718434,74.020594,-689.485948
4005.906252,-9844.739029,592.164754,-229.828649
4005.906581,-9918.759623,370.102971,459.657299
4005.906911,-9770.718434,592.164754,536.266849
4005.907240,-9548.656652,518.144159,1072.533697
4005.907570,-9918.759623,370.102971,306.438199
4005.907900,-10066.800811,0.000000,383.047749
4005.908229,-10288.862594,-592.164754,689.485948
4005.908559,-9548.656652,-518.144159,689.485948
4005.908889,-9252.574275,-444.123565,76.609550
4005.909218,-8882.471304,-666.185348,153.219100
4005.909548,-9548.656652,-666.185348,306.438199
4005.909877,-10066.800811,-518.144159,459.657299
4005.910207,-10510.924376,-666.185348,919.314598
4005.910537,-10362.883188,-888.247130,1838.629195
4005.910866,-9992.780217,-1184.329507,1838.629195
4005.911196,-9474.636058,-1184.329507,689.485948
4005.911526,-8882.471304,-1332.370696,-766.095498
4005.911855,-9326.594869,-1702.473667,-612.876398
4005.912185,-9844.739029,-1332.370696,536.266849
4005.912514,-9622.677246,-888.247130,1455.581446
4005.912844,-9474.636058,-814.226536,1378.971896
4005.913174,-9770.718434,-740.205942,689.485948
4005.913503,-10807.006753,-1184.329507,689.485948
4005.913833,-10732.986159,-1332.370696,1225.752797
4005.914163,-10140.821405,-1258.350101,1072.533697
4005.914492,-9548.656652,-1258.350101,229.828649
4005.914822,-9104.533087,-1184.329507,306.438199
4005.915151,-9400.615463,-1036.288319,459.657299
4005.915481,-9844.739029,-888.247130,612.876398
4005.915811,-10362.883188,-1110.308913,689.485948
4005.916140,-10362.883188,-740.205942,1455.581446
4005.916470,-10214.842000,-962.267725,2451.505594
4005.916800,-9770.718434,-814.226536,1149.143247
4005.917129,-9918.759623,-740.205942,-383.047749
4005.917459,-9622.677246,-814.226536,-306.438199
4005.917788,-10066.800811,-444.123565,229.828649
4005.918118,-9992.780217,222.061783,536.266849
4005.918448,-9622.677246,222.061783,689.485948
4005.918777,-9400.615463,148.041188,612.876398
4005.919107,-10288.862594,222.061783,612.876398
4005.919437,-10881.027347,0.000000,842.705048
4005.919766,-10140.821405,74.020594,459.657299
4005.920096,-8734.430116,0.000000,-842.705048
4005.920425,-8586.388927,-370.102971,-919.314598
4005.920755,-9326.594869,-74.020594,-383.047749
4005.921085,-9696.697840,296.082377,-229.828649
4005.921414,-9548.656652,370.102971,-76.609550
4005.921744,-9770.718434,370.102971,1149.143247
4005.922074,-9622.677246,518.144159,1225.752797
4005.922403,-9622.677246,444.123565,536.266849
4005.922733,-9178.553681,666.185348,-995.924147
4005.923062,-9474.636058,592.164754,-842.705048
4005.923392,-9622.677246,740.205942,-612.876398
4005.923722,-9844.739029,888.247130,-306.438199
4005.924051,-9474.636058,1110.308913,-689.485948
4005.924381,-9622.677246,1258.350101,-689.485948
4005.924710,-10066.800811,1036.288319,-76.609550
4005.925040,-10140.821405,444.123565,0.000000
4005.925370,-10066.800811,1406.391290,-306.438199
4005.925699,-9030.512492,592.164754,-766.095498
4005.926029,-9474.636058,814.226536,-842.705048
4005.926359,-9696.697840,1110.308913,-766.095498
4005.926688,-10288.862594,1258.350101,-536.266849
4005.927018,-10140.821405,1332.370696,-689.485948
4005.927347,-10436.903782,666.185348,689.485948
4005.927677,-10066.800811,592.164754,1072.533697
4005.928007,-9992.780217,518.144159,842.705048
4005.928336,-9548.656652,592.164754,-536.266849
4005.928666,-9474.636058,444.123565,-383.047749
4005.928996,-9622.677246,666.185348,-306.438199
4005.929325,-9770.718434,518.144159,306.438199
4005.929655,-9696.697840,888.247130,0.000000
4005.929984,-9548.656652,1110.308913,-536.266849
4005.930314,-10066.800811,814.226536,306.438199
4005.930644,-10510.924376,296.082377,383.047749
4005.930973,-9992.780217,518.144159,76.609550
4005.931303,-9474.636058,518.144159,-1072.533697
4005.931633,-9326.594869,148.041188,-536.266849
4005.931962,-9474.636058,74.020594,-383.047749
4005.932292,-9548.656652,0.000000,-383.047749
4005.932621,-9548.656652,0.000000,0.000000
4005.932951,-9770.718434,-296.082377,689.485948
4005.933281,-9992.780217,-370.102971,1455.581446
4005.933610,-9770.718434,-518.144159,1072.533697
4005.933940,-9178.553681,-370.102971,76.609550
4005.934270,-9474.636058,-518.144159,-383.047749
4005.934599,-10066.800811,-592.164754,766.095498
4005.934929,-10066.800811,-74.020594,1532.190996
4005.935258,-9622.677246,0.000000,1762.019645
4005.935588,-9696.697840,0.000000,995.924147
4005.935918,-10066.800811,-296.082377,229.828649
4005.936247,-10584.944971,-370.102971,536.266849
4005.936577,-10288.862594,-74.020594,153.219100
4005.936907,-9474.636058,-296.082377,153.219100
4005.937236,-9326.594869,-222.061783,-459.657299
4005.937566,-9326.594869,-296.082377,0.000000
4005.937895,-10066.800811,0.000000,0.000000
4005.938225,-10510.924376,-296.082377,153.219100
4005.938555,-10362.883188,0.000000,1149.143247
4005.938884,-10214.842000,-148.041188,1762.019645
4005.939214,-10214.842000,-370.102971,1532.190996
4005.939544,-9844.739029,-592.164754,842.705048
4005.939873,-9474.636058,-888.247130,459.657299
4005.940203,-9548.656652,-296.082377,0.000000
4005.940532,-9770.718434,-592.164754,842.705048
4005.940862,-9474.636058,-444.123565,766.095498
4005.941192,-9030.512492,-296.082377,459.657299
4005.941521,-9548.656652,-370.102971,383.047749
4005.941851,-10288.862594,-592.164754,612.876398
4005.942181,-10436.903782,-296.082377,306.438199
4005.942510,-9474.636058,-444.123565,-306.438199
4005.942840,-8882.471304,-740.205942,-383.047749
4005.943169,-8956.491898,-296.082377,-229.828649
4005.943499,-9474.636058,-518.144159,-153.219100
4005.943829,-9992.780217,-370.102971,76.609550
4005.944159,-9770.718434,-518.144159,766.095498
4005.944488,-10066.800811,-296.082377,1455.581446
4005.944818,-9992.780217,-222.061783,1302.362347
4005.945148,-9252.574275,-444.123565,229.828649
4005.945478,-8364.327145,0.000000,-153.219100
4005.945807,-9400.615463,74.020594,-612.876398
4005.946137,-9770.718434,222.061783,306.438199
4005.946467,-10140.821405,444.123565,536.266849
4005.946797,-9844.739029,296.082377,-153.219100
4005.947126,-9844.739029,148.041188,-76.609550
4005.947456,-10288.862594,370.102971,0.000000
4005.947786,-10584.944971,370.102971,536.266849
4005.948116,-9474.636058,518.144159,0.000000
4005.948445,-9104.533087,518.144159,-1072.533697
4005.948775,-9474.636058,888.247130,-919.314598
4005.949105,-10362.883188,962.267725,0.000000
4005.949435,-10510.924376,962.267725,0.000000
4005.949764,-10436.903782,814.226536,229.828649
4005.950094,-10362.883188,740.205942,919.314598
4005.950424,-10066.800811,296.082377,842.705048
4005.950754,-9474.636058,296.082377,76.609550
4005.951083,-9326.594869,370.102971,0.000000
4005.951413,-9548.656652,296.082377,-612.876398
4005.951743,-9844.739029,592.164754,383.047749
4005.952072,-9696.697840,666.185348,612.876398
4005.952402,-9770.718434,888.247130,0.000000
4005.952732,-9918.759623,740.205942,383.047749
4005.953062,-10436.903782,740.205942,-76.609550
4005.953391,-10510.924376,444.123565,459.657299
4005.953721,-9474.636058,444.123565,229.828649
4005.954051,-8586.388927,148.041188,76.609550
4005.954381,-8660.409521,222.061783,-229.828649
4005.954710,-9400.615463,296.082377,-459.657299
4005.955040,-9770.718434,370.102971,-459.657299
4005.955370,-9474.636058,666.185348,-459.657299
4005.955700,-9918.759623,222.061783,995.924147
4005.956029,-9770.718434,0.000000,1225.752797
4005.956359,-9474.636058,148.041188,153.219100
4005.956689,-9104.533087,0.000000,-612.876398
4005.957019,-9252.574275,0.000000,-612.876398
4005.957348,-9770.718434,296.082377,536.266849
4005.957678,-9992.780217,370.102971,612.876398
4005.958008,-9992.780217,592.164754,0.000000
4005.958338,-9178.553681,592.164754,-1149.143247
4005.958667,-10362.883188,592.164754,0.000000
4005.958997,-10584.944971,148.041188,153.219100
4005.959327,-10214.842000,370.102971,76.609550
4005.959657,-9400.615463,222.061783,-459.657299
4005.959986,-9548.656652,0.000000,-153.219100
4005.960316,-10140.821405,74.020594,153.219100
4005.960646,-10214.842000,-296.082377,153.219100
4005.960976,-10066.800811,0.000000,536.266849
4005.961305,-10066.800811,0.000000,1455.581446
4005.961635,-10140.821405,-74.020594,1455.581446
4005.961965,-10066.800811,-444.123565,842.705048
4005.962295,-9474.636058,-370.102971,-383.047749
4005.962624,-9696.697840,-518.144159,-229.828649
4005.962954,-10214.842000,-222.061783,383.047749
4005.963284,-10140.821405,-296.082377,1378.971896
4005.963613,-9548.656652,-222.061783,612.876398
4005.963943,-9252.574275,-370.102971,383.047749
4005.964273,-9770.718434,-370.102971,229.828649
4005.964603,-10214.842000,-740.205942,1149.143247
4005.964932,-9844.739029,-444.123565,919.314598
4005.965262,-9326.594869,-518.144159,-536.266849
4005.965592,-9030.512492,-444.123565,0.000000
4005.965922,-9400.615463,-296.082377,153.219100
4005.966251,-10066.800811,0.000000,383.047749
4005.966581,-10140.821405,-444.123565,306.438199
4005.966911,-9918.759623,-444.123565,919.314598
4005.967241,-9770.718434,-370.102971,1072.533697
4005.967570,-9696.697840,-444.123565,842.705048
4005.967900,-9252.574275,-666.185348,76.609550
4005.968230,-9474.636058,-888.247130,-459.657299
4005.968560,-10066.800811,-592.164754,459.657299
4005.968889,-9844.739029,-444.123565,1762.019645
4005.969219,-9548.656652,-444.123565,842.705048
4005.969549,-9474.636058,0.000000,153.219100
4005.969879,-10214.842000,74.020594,153.219100
4005.970208,-10881.027347,0.000000,459.657299
4005.970538,-10214.842000,0.000000,612.876398
4005.970868,-9770.718434,0.000000,306.438199
4005.971198,-9178.553681,0.000000,-306.438199
4005.971527,-9252.574275,148.041188,-153.219100
4005.971857,-9992.780217,148.041188,0.000000
4005.972187,-10140.821405,0.000000,76.609550
4005.972517,-10362.883188,296.082377,229.828649
4005.972846,-9844.739029,74.020594,842.705048
4005.973176,-9696.697840,0.000000,459.657299
4005.973506,-9326.594869,0.000000,-306.438199
4005.973835,-9474.636058,-222.061783,-306.438199
4005.974165,-9992.780217,222.061783,0.000000
4005.974495,-9770.718434,296.082377,842.705048
4005.974825,-9770.718434,814.226536,995.924147
4005.975154,-9548.656652,814.226536,689.485948
4005.975484,-10584.944971,370.102971,76.609550
4005.975814,-10807.006753,296.082377,76.609550
4005.976144,-10436.903782,370.102971,-383.047749
4005.976473,-9178.553681,370.102971,-459.657299
4005.976803,-8882.471304,296.082377,-229.828649
4005.977133,-9030.512492,296.082377,-306.438199
4005.977463,-9696.697840,370.102971,0.000000
4005.977792,-10066.800811,518.144159,-766.095498
4005.978122,-9622.677246,222.061783,-306.438199
4005.978452,-9918.759623,296.082377,919.314598
4005.978782,-9992.780217,296.082377,1149.143247
4005.979111,-9474.636058,296.082377,459.657299
4005.979441,-9622.677246,370.102971,229.828649
4005.979771,-9474.636058,222.061783,0.000000
4005.980101,-9844.739029,370.102971,766.095498
4005.980430,-10066.800811,518.144159,612.876398
4005.980760,-9696.697840,518.144159,-612.876398
4005.981090,-9400.615463,740.205942,-842.705048
4005.981420,-9992.780217,444.123565,-306.438199
4005.981749,-10214.842000,518.144159,0.000000
4005.982079,-9326.594869,592.164754,-919.314598
4005.982409,-9252.574275,370.102971,-306.438199
4005.982739,-9770.718434,296.082377,-76.609550
4005.983068,-10436.903782,148.041188,76.609550
4005.983398,-10140.821405,74.020594,0.000000
4005.983728,-9770.718434,370.102971,919.314598
4005.984057,-9844.739029,518.144159,689.485948
4005.984387,-9918.759623,148.041188,919.314598
4005.984717,-9548.656652,222.061783,229.828649
4005.985047,-9474.636058,518.144159,0.000000
4005.985376,-10066.800811,0.000000,153.219100
4005.985706,-10510.924376,444.123565,842.705048
4005.986036,-10584.944971,222.061783,1149.143247
4005.986366,-9844.739029,0.000000,229.828649
4005.986695,-9548.656652,0.000000,0.000000
4005.987025,-9844.739029,-222.061783,0.000000
4005.987355,-10510.924376,-370.102971,536.266849
4005.987685,-9474.636058,148.041188,919.314598
4005.988014,-9030.512492,0.000000,-612.876398
4005.988344,-9178.553681,0.000000,0.000000
4005.988674,-9696.697840,-296.082377,383.047749
4005.989004,-9918.759623,-444.123565,76.609550
4005.989333,-10066.800811,148.041188,1072.533697
4005.989663,-9992.780217,-222.061783,1608.800546
4005.989993,-9622.677246,-370.102971,1762.019645
4005.990323,-9252.574275,-296.082377,459.657299
4005.990652,-9474.636058,0.000000,-383.047749
4005.990982,-9918.759623,74.020594,0.000000
4005.991312,-10214.842000,74.020594,842.705048
4005.991642,-9622.677246,148.041188,1225.752797
4005.991971,-9252.574275,148.041188,-306.438199
4005.992301,-9474.636058,370.102971,-153.219100
4005.992631,-9696.697840,0.000000,-306.438199
4005.992961,-10584.944971,0.000000,0.000000
4005.993290,-10140.821405,0.000000,229.828649
4005.993620,-9770.718434,370.102971,459.657299
4005.993950,-9474.636058,-74.020594,306.438199
4005.994279,-9474.636058,-222.061783,383.047749
4005.994609,-9844.739029,-296.082377,383.047749
4005.994939,-9918.759623,-666.185348,229.828649
4005.995269,-9770.718434,-370.102971,1149.143247
4005.995598,-9992.780217,-740.205942,1838.629195
4005.995928,-9844.739029,-296.082377,1455.581446
4005.996258,-9548.656652,-296.082377,383.047749
4005.996588,-9474.636058,-666.185348,-766.095498
4005.996917,-9992.780217,-148.041188,-76.609550
4005.997247,-9918.759623,148.041188,689.485948
4005.997577,-9844.739029,296.082377,383.047749
4005.997907,-9770.718434,518.144159,0.000000
4005.998236,-10066.800811,148.041188,0.000000
4005.998566,-10362.883188,0.000000,306.438199
4005.998896,-10140.821405,222.061783,306.438199
4005.999226,-9178.553681,0.000000,536.266849
4005.999555,-8808.450710,-148.041188,-459.657299
4005.999885,-9474.636058,-74.020594,0.000000
4006.000215,-10066.800811,0.000000,229.828649
4006.000545,-10288.862594,148.041188,766.095498
4006.000874,-9918.759623,-148.041188,1149.143247
4006.001204,-9770.718434,0.000000,842.705048
4006.001534,-9474.636058,0.000000,612.876398
4006.001864,-9474.636058,148.041188,-383.047749
4006.002193,-9474.636058,222.061783,0.000000
4006.002523,-10288.862594,222.061783,76.609550
4006.002853,-10140.821405,370.102971,766.095498
4006.003183,-9474.636058,444.123565,0.000000
4006.003512,-9326.594869,444.123565,-383.047749
4006.003842,-9474.636058,444.123565,-612.876398
4006.004172,-10584.944971,370.102971,459.657299
4006.004501,-9844.739029,518.144159,383.047749
4006.004831,-9770.718434,518.144159,229.828649
4006.005161,-9474.636058,592.164754,-612.876398
4006.005491,-10140.821405,370.102971,-306.438199
4006.005820,-10140.821405,370.102971,0.000000
4006.006150,-9770.718434,222.061783,0.000000
4006.006480,-9548.656652,370.102971,536.266849
4006.006810,-9252.574275,148.041188,1302.362347
4006.007139,-9770.718434,74.020594,766.095498
4006.007469,-9400.615463,370.102971,-153.219100
4006.007799,-9696.697840,592.164754,-612.876398
4006.008129,-10362.883188,518.144159,153.219100
4006.008458,-10658.965565,444.123565,919.314598
4006.008788,-10066.800811,518.144159,612.876398
4006.009118,-9918.759623,518.144159,0.000000
4006.009448,-10066.800811,370.102971,612.876398
4006.009777,-10807.006753,0.000000,995.924147
4006.010107,-10066.800811,222.061783,919.314598
4006.010437,-9326.594869,370.102971,153.219100
4006.010767,-8808.450710,222.061783,-306.438199
4006.011096,-9030.512492,148.041188,-536.266849
4006.011426,-9548.656652,0.000000,-842.705048
4006.011756,-9844.739029,0.000000,-612.876398
4006.012086,-10140.821405,74.020594,229.828649
4006.012415,-9918.759623,-148.041188,536.266849
4006.012745,-9696.697840,-592.164754,689.485948
4006.013075,-9326.594869,-222.061783,-383.047749
4006.013405,-9548.656652,-518.144159,153.219100
4006.013734,-9992.780217,-444.123565,0.000000
4006.014064,-9918.759623,0.000000,919.314598
4006.014394,-9622.677246,0.000000,459.657299
4006.014723,-9400.615463,0.000000,229.828649
4006.015053,-9770.718434,0.000000,0.000000
4006.015383,-9992.780217,-222.061783,0.000000
4006.015713,-10436.903782,0.000000,0.000000
4006.016042,-9548.656652,-222.061783,0.000000
4006.016372,-9252.574275,-296.082377,-383.047749
4006.016702,-9252.574275,148.041188,-306.438199
4006.017032,-10066.800811,74.020594,-459.657299
4006.017361,-10362.883188,0.000000,-689.485948
4006.017691,-9622.677246,-370.102971,612.876398
4006.018021,-10214.842000,0.000000,1072.533697
4006.018351,-10436.903782,-296.082377,1302.362347
4006.018680,-9918.759623,0.000000,612.876398
4006.019010,-9770.718434,-444.123565,0.000000
4006.019340,-10066.800811,0.000000,0.000000
4006.019670,-10362.883188,296.082377,1225.752797
4006.019999,-9770.718434,444.123565,1149.143247
4006.020329,-9770.718434,370.102971,536.266849
4006.020659,-10066.800811,148.041188,306.438199
4006.020989,-10584.944971,0.000000,612.876398
4006.021318,-10732.986159,0.000000,306.438199
4006.021648,-10066.800811,0.000000,0.000000
4006.021978,-9474.636058,222.061783,0.000000
4006.022308,-8882.471304,0.000000,-612.876398
4006.022637,-9474.636058,74.020594,-383.047749
4006.022967,-9844.739029,74.020594,76.609550
4006.023297,-9770.718434,0.000000,1685.410096
4006.023627,-9844.739029,0.000000,1762.019645
4006.023956,-9696.697840,-222.061783,1455.581446
4006.024286,-9474.636058,-370.102971,459.657299
4006.024616,-9178.553681,-592.164754,-306.438199
4006.024945,-9992.780217,0.000000,-153.219100
4006.025275,-9918.759623,-74.020594,536.266849
4006.025605,-9770.718434,222.061783,459.657299
4006.025935,-9474.636058,0.000000,0.000000
4006.026264,-9622.677246,370.102971,0.000000
4006.026594,-10066.800811,74.020594,76.609550
4006.026924,-10584.944971,-74.020594,689.485948
4006.027254,-9770.718434,-74.020594,229.828649
4006.027583,-9252.574275,-370.102971,0.000000
4006.027913,-9104.533087,-370.102971,-612.876398
4006.028243,-9548.656652,-74.020594,0.000000
4006.028573,-9696.697840,-74.020594,0.000000
4006.028902,-9844.739029,0.000000,0.000000
4006.029232,-9844.739029,0.000000,766.095498
4006.029562,-10140.821405,0.000000,1302.362347
4006.029892,-10288.862594,148.041188,689.485948
4006.030221,-9770.718434,-222.061783,-153.219100
4006.030551,-9548.656652,-518.144159,-919.314598
4006.030881,-9844.739029,-148.041188,153.219100
4006.031211,-10214.842000,148.041188,842.705048
4006.031540,-9696.697840,222.061783,383.047749
4006.031870,-9696.697840,0.000000,153.219100
4006.032200,-10066.800811,296.082377,76.609550
4006.032530,-10658.965565,0.000000,919.314598
4006.032859,-9992.780217,0.000000,153.219100
4006.033189,-9474.636058,-148.041188,-842.705048
4006.033519,-9326.594869,222.061783,-459.657299
4006.033849,-9474.636058,148.041188,0.000000
4006.034178,-9992.780217,370.102971,0.000000
4006.034508,-10362.883188,444.123565,459.657299
4006.034838,-9992.780217,0.000000,1149.143247
4006.035167,-9770.718434,0.000000,842.705048
4006.035497,-9844.739029,74.020594,459.657299
4006.035827,-9548.656652,0.000000,-76.609550
4006.036157,-9474.636058,-592.164754,0.000000
4006.036486,-9326.594869,74.020594,229.828649
4006.036816,-9252.574275,370.102971,766.095498
4006.037146,-9252.574275,666.185348,229.828649
4006.037476,-9696.697840,592.164754,-689.485948
4006.037805,-10584.944971,888.247130,76.609550
4006.038135,-11103.089130,518.144159,842.705048
4006.038465,-10288.862594,592.164754,766.095498
4006.038795,-9474.636058,148.041188,229.828649
4006.039124,-9104.533087,296.082377,-689.485948
4006.039454,-9474.636058,222.061783,-383.047749
4006.039784,-9696.697840,148.041188,-612.876398
4006.040114,-9770.718434,148.041188,306.438199
4006.040443,-9474.636058,-74.020594,1302.362347
4006.040773,-9548.656652,148.041188,1532.190996
4006.041103,-9770.718434,222.061783,842.705048
4006.041433,-9252.574275,148.041188,0.000000
4006.041762,-9178.553681,0.000000,-919.314598
4006.042092,-9992.780217,444.123565,0.000000
4006.042422,-9918.759623,222.061783,766.095498
4006.042752,-9326.594869,518.144159,383.047749
4006.043081,-9474.636058,222.061783,-459.657299
4006.043411,-10140.821405,0.000000,-153.219100
4006.043741,-10732.986159,0.000000,153.219100
4006.044071,-10140.821405,0.000000,383.047749
4006.044400,-9326.594869,0.000000,0.000000
4006.044730,-8882.471304,148.041188,-536.266849
4006.045060,-9178.553681,0.000000,-459.657299
4006.045390,-9548.656652,0.000000,0.000000
4006.045719,-9844.739029,-148.041188,153.219100
4006.046049,-9844.739029,296.082377,842.705048
4006.046379,-10214.842000,-370.102971,1608.800546
4006.046709,-10214.842000,-444.123565,1302.362347
4006.047038,-9548.656652,-592.164754,153.219100
4006.047368,-9548.656652,-740.205942,-1532.190996
4006.047698,-10066.800811,-518.144159,0.000000
4006.048028,-9918.759623,-296.082377,995.924147
4006.048357,-9252.574275,0.000000,919.314598
4006.048687,-9474.636058,148.041188,153.219100
4006.049017,-10140.821405,296.082377,0.000000
4006.049347,-11251.130318,0.000000,383.047749
4006.049676,-10881.027347,148.041188,842.705048
4006.050006,-9844.739029,-296.082377,306.438199
4006.050336,-9178.553681,-222.061783,229.828649
4006.050666,-9030.512492,-518.144159,0.000000
4006.050995,-9400.615463,-740.205942,153.219100
4006.051325,-9622.677246,0.000000,0.000000
4006.051655,-9696.697840,-148.041188,459.657299
4006.051985,-10288.862594,0.000000,1608.800546
4006.052314,-10214.842000,-222.061783,1762.019645
4006.052644,-9844.739029,0.000000,612.876398
4006.052974,-9474.636058,-296.082377,-459.657299
4006.053304,-10214.842000,0.000000,-612.876398
4006.053633,-9844.739029,0.000000,0.000000
4006.053963,-9622.677246,0.000000,0.000000
4006.054293,-9474.636058,0.000000,76.609550
4006.054623,-9400.615463,444.123565,536.266849
4006.054952,-9992.780217,0.000000,689.485948
4006.055282,-10066.800811,148.041188,306.438199
4006.055612,-9474.636058,74.020594,0.000000
4006.055942,-8808.450710,222.061783,-459.657299
4006.056271,-9474.636058,148.041188,-383.047749
4006.056601,-10066.800811,296.082377,0.000000
4006.056931,-10362.883188,296.082377,0.000000
4006.057261,-10140.821405,222.061783,459.657299
4006.057590,-9918.759623,296.082377,842.705048
4006.057920,-9770.718434,0.000000,919.314598
4006.058250,-9104.533087,0.000000,0.000000
4006.058580,-9104.533087,74.020594,-689.485948
4006.058909,-9326.594869,370.102971,-306.438199
4006.059239,-9844.739029,296.082377,766.095498
4006.059569,-10214.842000,518.144159,536.266849
4006.059899,-9548.656652,0.000000,-76.609550
4006.060228,-9622.677246,296.082377,-383.047749
4006.060558,-10436.903782,0.000000,459.657299
4006.060888,-10362.883188,0.000000,995.924147
4006.061218,-9548.656652,0.000000,842.705048
4006.061547,-9178.553681,0.000000,-842.705048
4006.061877,-9104.533087,74.020594,-229.828649
4006.062207,-10066.800811,74.020594,0.000000
4006.062537,-9844.739029,0.000000,229.828649
4006.062866,-9548.656652,0.000000,383.047749
4006.063196,-9918.759623,148.041188,919.314598
4006.063526,-9770.718434,-296.082377,995.924147
4006.063856,-9548.656652,0.000000,229.828649
4006.064185,-9252.574275,-296.082377,-689.485948
4006.064515,-10066.800811,0.000000,-689.485948
4006.064845,-9918.759623,0.000000,536.266849
4006.065175,-9622.677246,0.000000,919.314598
4006.065504,-9622.677246,148.041188,766.095498
4006.065834,-9326.594869,222.061783,-76.609550
4006.066164,-10140.821405,0.000000,612.876398
4006.066494,-10881.027347,222.061783,766.095498
4006.066823,-9918.759623,222.061783,0.000000
4006.067153,-9474.636058,0.000000,-612.876398
4006.067483,-9548.656652,370.102971,-1072.533697
4006.067813,-9622.677246,0.000000,-536.266849
4006.068142,-9918.759623,518.144159,-229.828649
4006.068472,-9844.739029,296.082377,0.000000
4006.068802,-9770.718434,444.123565,919.314598
4006.069132,-10214.842000,222.061783,1072.533697
4006.069461,-9992.780217,148.041188,76.609550
4006.069791,-9918.759623,222.061783,-459.657299
4006.070121,-9844.739029,0.000000,-459.657299
4006.070451,-10436.903782,-222.061783,383.047749
4006.070780,-9622.677246,-222.061783,689.485948
4006.071110,-9326.594869,0.000000,0.000000
4006.071440,-9474.636058,0.000000,76.609550
4006.071770,-10066.800811,222.061783,766.095498
4006.072099,-10288.862594,-222.061783,1302.362347
4006.072429,-9844.739029,74.020594,536.266849
4006.072759,-9030.512492,-592.164754,-306.438199
4006.073089,-9104.533087,0.000000,-306.438199
4006.073418,-9178.553681,0.000000,-383.047749
4006.073748,-9474.636058,148.041188,-153.219100
4006.074078,-9770.718434,74.020594,383.047749
4006.074408,-9474.636058,148.041188,1455.581446
4006.074737,-9770.718434,74.020594,1072.533697
4006.075067,-9844.739029,74.020594,76.609550
4006.075397,-9474.636058,0.000000,-459.657299
4006.075727,-9252.574275,-444.123565,-919.314598
4006.076056,-9844.739029,0.000000,306.438199
4006.076386,-9992.780217,0.000000,689.485948
4006.076716,-9474.636058,0.000000,842.705048
4006.077046,-9400.615463,-74.020594,306.438199
4006.077375,-9844.739029,148.041188,153.219100
4006.077705,-10436.903782,-148.041188,689.485948
4006.078035,-10140.821405,222.061783,1072.533697
4006.078365,-9400.615463,0.000000,612.876398
4006.078694,-9474.636058,0.000000,-612.876398
4006.079024,-9770.718434,444.123565,-383.047749
4006.079354,-10362.883188,296.082377,-459.657299
4006.079684,-10288.862594,0.000000,0.000000
4006.080013,-10214.842000,370.102971,689.485948
4006.080343,-9548.656652,0.000000,1225.752797
4006.080673,-9622.677246,0.000000,842.705048
4006.081003,-9474.636058,370.102971,0.000000
4006.081332,-10288.862594,0.000000,-612.876398
4006.081662,-10510.924376,148.041188,76.609550
4006.081992,-10288.862594,296.082377,919.314598
4006.082322,-9770.718434,370.102971,842.705048
4006.082651,-9622.677246,-222.061783,229.828649
4006.082981,-9918.759623,0.000000,383.047749
4006.083311,-10362.883188,-370.102971,306.438199
4006.083641,-10214.842000,74.020594,0.000000
4006.083970,-8956.491898,-222.061783,-153.219100
4006.084300,-8438.347739,0.000000,-536.266849
4006.084630,-9400.615463,0.000000,383.047749
4006.084960,-9918.759623,-148.041188,459.657299
4006.085289,-10140.821405,-296.082377,306.438199
4006.085619,-9400.615463,-444.123565,-76.609550
4006.085949,-9770.718434,-148.041188,1072.533697
4006.086279,-9474.636058,-518.144159,766.095498
4006.086608,-9474.636058,-222.061783,0.000000
4006.086938,-9696.697840,-370.102971,-459.657299
4006.087268,-9474.636058,74.020594,459.657299
4006.087598,-9770.718434,74.020594,689.485948
4006.087927,-9622.677246,444.123565,153.219100
4006.088257,-9770.718434,296.082377,-306.438199
4006.088587,-9548.656652,296.082377,-229.828649
4006.088917,-10658.965565,148.041188,383.047749
4006.089246,-10510.924376,222.061783,306.438199
4006.089576,-9548.656652,0.000000,0.000000
4006.089906,-8882.471304,0.000000,-1072.533697
4006.090236,-9474.636058,74.020594,0.000000
4006.090565,-10066.800811,444.123565,383.047749
4006.090895,-10140.821405,444.123565,459.657299
4006.091225,-9992.780217,370.102971,306.438199
4006.091555,-10140.821405,222.061783,995.924147
4006.091884,-10140.821405,-222.061783,459.657299
4006.092214,-9696.697840,0.000000,0.000000
4006.092544,-9474.636058,-370.102971,-153.219100
4006.092874,-9178.553681,-518.144159,76.609550
4006.093203,-9696.697840,0.000000,612.876398
4006.093533,-9474.636058,148.041188,766.095498
4006.093863,-9474.636058,296.082377,459.657299
4006.094193,-10362.883188,666.185348,76.609550
4006.094522,-10732.986159,592.164754,383.047749
4006.094852,-10214.842000,0.000000,306.438199
4006.095182,-9252.574275,0.000000,0.000000
4006.095512,-8956.491898,0.000000,-766.095498
4006.095842,-9030.512492,296.082377,-76.609550
4006.096171,-9548.656652,222.061783,-229.828649
4006.096501,-9548.656652,518.144159,-536.266849
4006.096831,-9770.718434,74.020594,153.219100
4006.097161,-9844.739029,296.082377,919.314598
4006.097490,-10066.800811,0.000000,1072.533697
4006.097820,-9548.656652,0.000000,76.609550
4006.098150,-9030.512492,0.000000,-306.438199
4006.098480,-9326.594869,148.041188,229.828649
4006.098809,-9696.697840,0.000000,995.924147
4006.099139,-9844.739029,0.000000,1302.362347
4006.099469,-9992.780217,0.000000,459.657299
4006.099799,-9622.677246,0.000000,0.000000
4006.100128,-10066.800811,0.000000,459.657299
4006.100458,-10362.883188,-222.061783,306.438199
4006.100788,-9770.718434,518.144159,153.219100
4006.101118,-9474.636058,0.000000,-459.657299
4006.101447,-9622.677246,518.144159,-612.876398
4006.101777,-10214.842000,296.082377,-229.828649
4006.102107,-10658.965565,296.082377,0.000000
4006.102437,-10288.862594,-148.041188,459.657299
4006.102766,-9400.615463,0.000000,842.705048
4006.103096,-9548.656652,-444.123565,1378.971896
4006.103426,-9548.656652,-370.102971,306.438199
4006.103756,-9474.636058,-370.102971,-612.876398
4006.104085,-9326.594869,-444.123565,-459.657299
4006.104415,-9844.739029,-148.041188,1149.143247
4006.104745,-9918.759623,518.144159,1225.752797
4006.105075,-9918.759623,296.082377,766.095498
4006.105404,-9918.759623,148.041188,-229.828649
4006.105734,-9918.759623,148.041188,-229.828649
4006.106064,-10140.821405,0.000000,-229.828649
4006.106394,-9548.656652,296.082377,0.000000
4006.106723,-8956.491898,74.020594,-459.657299
4006.107053,-8882.471304,444.123565,-306.438199
4006.107383,-9548.656652,222.061783,76.609550
4006.107713,-10066.800811,148.041188,0.000000
4006.108042,-10362.883188,148.041188,229.828649
4006.108372,-9770.718434,592.164754,842.705048
4006.108702,-9844.739029,-296.082377,1455.581446
4006.109032,-9696.697840,-296.082377,612.876398
4006.109361,-9474.636058,0.000000,-689.485948
4006.109691,-9770.718434,0.000000,-1532.190996
4006.110021,-9696.697840,74.020594,229.828649
4006.110351,-10140.821405,296.082377,766.095498
4006.110680,-9548.656652,222.061783,612.876398
4006.111010,-9622.677246,148.041188,383.047749
4006.111340,-9696.697840,0.000000,306.438199
4006.111670,-10732.986159,-444.123565,612.876398
4006.111999,-10288.862594,-148.041188,536.266849
4006.112329,-9474.636058,-370.102971,536.266849
4006.112659,-8512.368333,0.000000,689.485948
4006.112989,-9252.574275,0.000000,919.314598
4006.113318,-9548.656652,370.102971,459.657299
4006.113648,-10214.842000,148.041188,306.438199
4006.113978,-9770.718434,148.041188,536.266849
4006.114308,-10140.821405,74.020594,842.705048
4006.114637,-9844.739029,-296.082377,459.657299
4006.114967,-9474.636058,0.000000,-76.609550
4006.115297,-9474.636058,-222.061783,-536.266849
4006.115627,-9474.636058,0.000000,229.828649
4006.115956,-9474.636058,148.041188,536.266849
4006.116286,-9474.636058,444.123565,0.000000
4006.116616,-9326.594869,370.102971,0.000000
4006.116946,-10140.821405,222.061783,459.657299
4006.117275,-10881.027347,0.000000,1378.971896
4006.117605,-10362.883188,518.144159,306.438199
4006.117935,-9548.656652,0.000000,-459.657299
4006.118265,-9622.677246,370.102971,-1378.971896
4006.118594,-9696.697840,0.000000,-995.924147
4006.118924,-9548.656652,444.123565,-229.828649
4006.119254,-9622.677246,444.123565,-153.219100
4006.119584,-9770.718434,296.082377,153.219100
4006.119913,-10066.800811,148.041188,1072.533697
4006.120243,-10066.800811,0.000000,536.266849
4006.120573,-9474.636058,74.020594,-383.047749
4006.120903,-9770.718434,0.000000,-612.876398
4006.121232,-9992.780217,518.144159,229.828649
4006.121562,-10214.842000,74.020594,1532.190996
4006.121892,-9696.697840,444.123565,995.924147
4006.122222,-9696.697840,370.102971,76.609550
4006.122551,-10066.800811,592.164754,-383.047749
4006.122881,-10658.965565,0.000000,995.924147
4006.123211,-10140.821405,148.041188,766.095498
4006.123541,-9474.636058,0.000000,459.657299
4006.123870,-9104.533087,-222.061783,-1302.362347
4006.124200,-9622.677246,74.020594,-689.485948
4006.124530,-9622.677246,222.061783,-689.485948
4006.124860,-9548.656652,370.102971,-612.876398
4006.125189,-9548.656652,666.185348,0.000000
4006.125519,-9622.677246,222.061783,842.705048
4006.125849,-9474.636058,222.061783,383.047749
4006.126179,-9548.656652,296.082377,153.219100
4006.126508,-9622.677246,-296.082377,-383.047749
4006.126838,-9696.697840,-74.020594,0.000000
4006.127168,-9474.636058,0.000000,919.314598
4006.127498,-9696.697840,74.020594,1072.533697
4006.127827,-9474.636058,0.000000,0.000000
4006.128157,-9696.697840,222.061783,0.000000
4006.128487,-10658.965565,370.102971,0.000000
4006.128817,-10510.924376,370.102971,536.266849
4006.129146,-9622.677246,518.144159,0.000000
4006.129476,-9178.553681,0.000000,-229.828649
4006.129806,-9252.574275,0.000000,0.000000
4006.130136,-9696.697840,-370.102971,536.266849
4006.130465,-9770.718434,0.000000,459.657299
4006.130795,-9474.636058,74.020594,536.266849
4006.131125,-9844.739029,74.020594,842.705048
4006.131455,-9474.636058,-740.205942,842.705048
4006.131784,-9622.677246,296.082377,76.609550
4006.132114,-9400.615463,0.000000,-612.876398
4006.132444,-9770.718434,296.082377,0.000000
4006.132774,-10140.821405,74.020594,1225.752797
4006.133103,-9918.759623,0.000000,842.705048
4006.133433,-9326.594869,0.000000,0.000000
4006.133763,-9770.718434,-222.061783,0.000000
4006.134093,-10214.842000,-148.041188,842.705048
4006.134422,-10362.883188,-148.041188,1149.143247
4006.134752,-9474.636058,0.000000,612.876398
4006.135082,-9326.594869,0.000000,229.828649
4006.135412,-9696.697840,444.123565,-153.219100
4006.135741,-10140.821405,0.000000,153.219100
4006.136071,-10362.883188,148.041188,0.000000
4006.136401,-9918.759623,0.000000,229.828649
4006.136731,-9918.759623,0.000000,689.485948
4006.137060,-10140.821405,-444.123565,1072.533697
4006.137390,-9844.739029,-296.082377,459.657299
4006.137720,-9326.594869,-666.185348,-612.876398
4006.138050,-9400.615463,-814.226536,0.000000
4006.138379,-9844.739029,0.000000,1378.971896
4006.138709,-9844.739029,148.041188,1532.190996
4006.139039,-9474.636058,0.000000,536.266849
4006.139369,-9548.656652,222.061783,-306.438199
4006.139698,-10214.842000,0.000000,0.000000
4006.140028,-11251.130318,222.061783,153.219100
4006.140358,-9844.739029,0.000000,459.657299
4006.140688,-9326.594869,-370.102971,-306.438199
4006.141017,-8956.491898,-592.164754,0.000000
4006.141347,-9548.656652,0.000000,919.314598
4006.141677,-9770.718434,0.000000,76.609550
4006.142007,-10066.800811,0.000000,76.609550
4006.142336,-9992.780217,296.082377,995.924147
4006.142666,-9844.739029,-444.123565,1608.800546
4006.142996,-9400.615463,74.020594,536.266849
4006.143326,-9400.615463,-222.061783,0.000000
4006.143655,-9918.759623,-296.082377,-459.657299
4006.143985,-10066.800811,74.020594,76.609550
4006.144315,-10066.800811,148.041188,229.828649
4006.144644,-9326.594869,0.000000,153.219100
4006.144974,-9252.574275,-74.020594,0.000000
4006.145304,-9696.697840,0.000000,612.876398
4006.145634,-9992.780217,74.020594,1225.752797
4006.145963,-9622.677246,148.041188,536.266849
4006.146293,-9104.533087,0.000000,-229.828649
4006.146623,-9696.697840,518.144159,-536.266849
4006.146953,-9992.780217,518.144159,0.000000
4006.147282,-10140.821405,222.061783,-383.047749
4006.147612,-10510.924376,518.144159,0.000000
4006.147942,-10066.800811,370.102971,995.924147
4006.148272,-10288.862594,222.061783,1149.143247
4006.148601,-9548.656652,0.000000,76.609550
4006.148931,-9400.615463,0.000000,-536.266849
4006.149261,-9474.636058,0.000000,-1225.752797
4006.149590,-9918.759623,222.061783,383.047749
4006.149920,-9622.677246,0.000000,1378.971896
4006.150250,-9548.656652,74.020594,689.485948
4006.150580,-9696.697840,148.041188,306.438199
4006.150909,-9844.739029,0.000000,536.266849
4006.151239,-10214.842000,-592.164754,1149.143247
4006.151569,-9992.780217,444.123565,842.705048
4006.151899,-9474.636058,148.041188,536.266849
4006.152228,-9474.636058,222.061783,76.609550
4006.152558,-9770.718434,296.082377,-383.047749
4006.152888,-9696.697840,148.041188,-459.657299
4006.153217,-9844.739029,0.000000,-229.828649
4006.153547,-9548.656652,0.000000,0.000000
4006.153877,-9474.636058,-296.082377,306.438199
4006.154207,-9178.553681,-296.082377,689.485948
4006.154536,-8882.471304,0.000000,0.000000
4006.154866,-9622.677246,0.000000,-306.438199
4006.155196,-10140.821405,0.000000,536.266849
4006.155526,-9770.718434,-296.082377,2068.457845
4006.155855,-9844.739029,370.102971,1072.533697
4006.156185,-9696.697840,148.041188,766.095498
4006.156515,-10066.800811,296.082377,689.485948
4006.156845,-10436.903782,0.000000,383.047749
4006.157174,-10140.821405,74.020594,306.438199
4006.157504,-9252.574275,370.102971,-612.876398
4006.157834,-9030.512492,370.102971,-995.924147
4006.158163,-9474.636058,518.144159,-459.657299
4006.158493,-9992.780217,148.041188,-459.657299
4006.158823,-10362.883188,518.144159,-153.219100
4006.159153,-10140.821405,444.123565,0.000000
4006.159482,-9844.739029,0.000000,766.095498
4006.159812,-10140.821405,74.020594,1225.752797
4006.160142,-9104.533087,-148.041188,612.876398
4006.160472,-9104.533087,-592.164754,76.609550
4006.160801,-9622.677246,-148.041188,459.657299
4006.161131,-10140.821405,0.000000,2374.896044
4006.161461,-9992.780217,222.061783,919.314598
4006.161791,-9548.656652,0.000000,536.266849
4006.162120,-9622.677246,0.000000,0.000000
4006.162450,-10510.924376,-370.102971,306.438199
4006.162780,-10140.821405,0.000000,306.438199
4006.163109,-9696.697840,0.000000,459.657299
4006.163439,-9548.656652,0.000000,-689.485948
4006.163769,-9252.574275,-222.061783,-536.266849
4006.164099,-10214.842000,296.082377,-306.438199
4006.164428,-9844.739029,-148.041188,229.828649
4006.164758,-9400.615463,0.000000,919.314598
4006.165088,-9548.656652,-74.020594,1302.362347
4006.165418,-9770.718434,-148.041188,1378.971896
4006.165747,-9400.615463,-444.123565,612.876398
4006.166077,-9622.677246,-444.123565,-306.438199
4006.166407,-9770.718434,-296.082377,-153.219100
4006.166736,-9918.759623,148.041188,842.705048
4006.167066,-9474.636058,296.082377,459.657299
4006.167396,-9178.553681,0.000000,-153.219100
4006.167726,-9548.656652,0.000000,153.219100
4006.168055,-10288.862594,148.041188,536.266849
4006.168385,-10362.883188,0.000000,612.876398
4006.168715,-9548.656652,0.000000,76.609550
4006.169045,-9474.636058,0.000000,-766.095498
4006.169374,-9696.697840,0.000000,-153.219100
4006.169704,-10066.800811,0.000000,459.657299
4006.170034,-10066.800811,222.061783,0.000000
4006.170364,-9844.739029,74.020594,689.485948
4006.170693,-9918.759623,0.000000,1838.629195
4006.171023,-10362.883188,-148.041188,1991.848295
4006.171353,-9992.780217,0.000000,842.705048
4006.171682,-9548.656652,-518.144159,-383.047749
4006.172012,-9548.656652,-148.041188,-76.609550
4006.172342,-9770.718434,-296.082377,842.705048
4006.172672,-9548.656652,0.000000,1072.533697
4006.173001,-9474.636058,0.000000,459.657299
4006.173331,-9696.697840,148.041188,0.000000
4006.173661,-10362.883188,0.000000,153.219100
4006.173991,-10436.903782,222.061783,459.657299
4006.174320,-9696.697840,74.020594,536.266849
4006.174650,-9104.533087,0.000000,0.000000
4006.174980,-9178.553681,0.000000,-383.047749
4006.175310,-9326.594869,74.020594,-689.485948
4006.175639,-9548.656652,0.000000,-459.657299
4006.175969,-9548.656652,0.000000,0.000000
4006.176299,-9622.677246,296.082377,842.705048
4006.176628,-9918.759623,148.041188,995.924147
4006.176958,-9696.697840,0.000000,536.266849
4006.177288,-9844.739029,148.041188,-306.438199
4006.177618,-10066.800811,0.000000,-153.219100
4006.177947,-9992.780217,0.000000,0.000000
4006.178277,-9400.615463,222.061783,306.438199
4006.178607,-9252.574275,74.020594,306.438199
4006.178937,-9474.636058,444.123565,383.047749
4006.179266,-10214.842000,370.102971,306.438199
4006.179596,-10436.903782,222.061783,1072.533697
4006.179926,-10288.862594,740.205942,0.000000
4006.180256,-9918.759623,518.144159,-842.705048
4006.180585,-9548.656652,444.123565,-612.876398
4006.180915,-9770.718434,666.185348,-383.047749
4006.181245,-9918.759623,518.144159,-459.657299
4006.181574,-9992.780217,296.082377,229.828649
4006.181904,-10214.842000,518.144159,995.924147
4006.182234,-10510.924376,222.061783,1455.581446
4006.182564,-10140.821405,370.102971,459.657299
4006.182893,-9696.697840,-148.041188,-536.266849
4006.183223,-9474.636058,-148.041188,0.000000
4006.183553,-9474.636058,0.000000,1149.143247
4006.183883,-9474.636058,518.144159,689.485948
4006.184212,-9104.533087,296.082377,536.266849
4006.184542,-9400.615463,370.102971,-306.438199
4006.184872,-10140.821405,222.061783,536.266849
4006.185201,-10584.944971,0.000000,306.438199
4006.185531,-10140.821405,222.061783,842.705048
4006.185861,-9178.553681,-222.061783,-306.438199
4006.186191,-8882.471304,74.020594,-612.876398
4006.186520,-9178.553681,0.000000,-612.876398
4006.186850,-9622.677246,222.061783,-995.924147
4006.187180,-9696.697840,296.082377,0.000000
4006.187510,-10362.883188,814.226536,1072.533697
4006.187839,-10288.862594,222.061783,1455.581446
4006.188169,-9844.739029,0.000000,995.924147
4006.188499,-9474.636058,-148.041188,-306.438199
4006.188829,-9770.718434,-296.082377,-842.705048
4006.189158,-9548.656652,0.000000,76.609550
4006.189488,-9548.656652,0.000000,766.095498
4006.189818,-9622.677246,444.123565,459.657299
4006.190147,-9844.739029,148.041188,536.266849
4006.190477,-10732.986159,222.061783,536.266849
4006.190807,-10955.047942,0.000000,1072.533697
4006.191137,-10510.924376,148.041188,689.485948
4006.191466,-9696.697840,-296.082377,383.047749
4006.191796,-9030.512492,0.000000,-383.047749
4006.192126,-9030.512492,0.000000,-306.438199
4006.192456,-9474.636058,0.000000,-536.266849
4006.192785,-10362.883188,74.020594,0.000000
4006.193115,-10288.862594,296.082377,995.924147
4006.193445,-10214.842000,74.020594,1685.410096
4006.193775,-9400.615463,0.000000,842.705048
4006.194104,-9178.553681,-444.123565,-306.438199
4006.194434,-9252.574275,-666.185348,-995.924147
4006.194764,-9326.594869,-296.082377,0.000000
4006.195093,-9474.636058,0.000000,1072.533697
4006.195423,-9326.594869,74.020594,1072.533697
4006.195753,-9548.656652,-296.082377,1149.143247
4006.196083,-10214.842000,0.000000,1455.581446
4006.196412,-10807.006753,-222.061783,995.924147
4006.196742,-10658.965565,0.000000,766.095498
4006.197072,-9252.574275,-296.082377,-229.828649
4006.197402,-8882.471304,-148.041188,-919.314598
4006.197731,-9178.553681,222.061783,-153.219100
4006.198061,-9474.636058,740.205942,0.000000
4006.198391,-9622.677246,222.061783,-536.266849
4006.198720,-10066.800811,444.123565,459.657299
4006.199050,-10584.944971,148.041188,919.314598
4006.199380,-10362.883188,0.000000,153.219100
4006.199710,-9770.718434,-222.061783,153.219100
4006.200039,-9474.636058,-444.123565,-536.266849
4006.200369,-9622.677246,-148.041188,0.000000
4006.200699,-9770.718434,0.000000,459.657299
4006.201029,-9400.615463,0.000000,306.438199
4006.201358,-9474.636058,148.041188,153.219100
4006.201688,-10066.800811,666.185348,689.485948
4006.202018,-11103.089130,222.061783,1225.752797
4006.202348,-10584.944971,296.082377,229.828649
4006.202677,-9918.759623,0.000000,0.000000
4006.203007,-9252.574275,-296.082377,-995.924147
4006.203337,-9104.533087,74.020594,-536.266849
4006.203666,-9474.636058,444.123565,0.000000
4006.203996,-9770.718434,370.102971,689.485948
4006.204326,-10214.842000,148.041188,1149.143247
4006.204656,-10140.821405,0.000000,1608.800546
4006.204985,-9992.780217,148.041188,1225.752797
4006.205315,-9178.553681,222.061783,383.047749
4006.205645,-9326.594869,-518.144159,-536.266849
4006.205975,-9474.636058,0.000000,-153.219100
4006.206304,-9844.739029,0.000000,536.266849
4006.206634,-9696.697840,222.061783,689.485948
4006.206964,-9400.615463,148.041188,0.000000
4006.207294,-9474.636058,592.164754,0.000000
4006.207623,-9992.780217,222.061783,459.657299
4006.207953,-10214.842000,148.041188,1072.533697
4006.208283,-9622.677246,370.102971,459.657299
4006.208612,-9474.636058,296.082377,-383.047749
4006.208942,-9696.697840,74.020594,-919.314598
4006.209272,-10140.821405,666.185348,-612.876398
4006.209602,-9622.677246,370.102971,-919.314598
4006.209931,-9770.718434,222.061783,0.000000
4006.210261,-9548.656652,148.041188,1072.533697
4006.210591,-9474.636058,0.000000,919.314598
4006.210921,-9326.594869,222.061783,0.000000
4006.211250,-10214.842000,370.102971,-919.314598
4006.211580,-9918.759623,0.000000,-612.876398
4006.211910,-10140.821405,0.000000,76.609550
4006.212239,-9622.677246,0.000000,306.438199
4006.212569,-9622.677246,0.000000,306.438199
4006.212899,-9326.594869,0.000000,76.609550
4006.213229,-9918.759623,74.020594,536.266849
4006.213558,-10288.862594,666.185348,919.314598
4006.213888,-10214.842000,888.247130,306.438199
4006.214218,-9622.677246,222.061783,-229.828649
4006.214548,-9400.615463,518.144159,-383.047749
4006.214877,-10066.800811,222.061783,-383.047749
4006.215207,-9992.780217,74.020594,-153.219100
4006.215537,-9992.780217,0.000000,0.000000
4006.215867,-9548.656652,74.020594,766.095498
4006.216196,-9844.739029,148.041188,995.924147
4006.216526,-9844.739029,222.061783,689.485948
4006.216856,-9622.677246,74.020594,-459.657299
4006.217185,-9844.739029,0.000000,-306.438199
4006.217515,-10214.842000,74.020594,766.095498
4006.217845,-10807.006753,222.061783,1455.581446
4006.218175,-9474.636058,0.000000,766.095498
4006.218504,-9400.615463,222.061783,306.438199
4006.218834,-9844.739029,0.000000,766.095498
4006.219164,-10288.862594,74.020594,612.876398
4006.219494,-9770.718434,296.082377,306.438199
4006.219823,-9400.615463,74.020594,-766.095498
4006.220153,-9252.574275,296.082377,-766.095498
4006.220483,-9844.739029,222.061783,-383.047749
4006.220813,-10066.800811,592.164754,0.000000
4006.221142,-9918.759623,222.061783,536.266849
4006.221472,-9770.718434,0.000000,1378.971896
4006.221802,-9474.636058,-296.082377,1838.629195
4006.222131,-9474.636058,74.020594,919.314598
4006.222461,-9474.636058,0.000000,-229.828649
4006.222791,-9622.677246,-370.102971,-842.705048
4006.223121,-10288.862594,0.000000,153.219100
4006.223450,-10140.821405,0.000000,1302.362347
4006.223780,-9400.615463,0.000000,459.657299
4006.224110,-9104.533087,74.020594,76.609550
4006.224440,-9918.759623,148.041188,383.047749
4006.224769,-10584.944971,-296.082377,459.657299
4006.225099,-10066.800811,0.000000,153.219100
4006.225429,-9474.636058,-518.144159,0.000000
4006.225759,-9252.574275,-296.082377,383.047749
4006.226088,-9474.636058,-222.061783,459.657299
4006.226418,-9844.739029,-74.020594,306.438199
4006.226748,-9696.697840,-370.102971,0.000000
4006.227077,-10066.800811,-74.020594,229.828649
4006.227407,-10362.883188,-444.123565,1149.143247
4006.227737,-9918.759623,-370.102971,1072.533697
4006.228067,-9548.656652,-222.061783,0.000000
4006.228396,-9696.697840,-444.123565,-536.266849
4006.228726,-9548.656652,-592.164754,-459.657299
4006.229056,-9548.656652,-370.102971,459.657299
4006.229386,-9474.636058,-222.061783,536.266849
4006.229715,-9844.739029,148.041188,383.047749
4006.230045,-10436.903782,0.000000,919.314598
4006.230375,-10955.047942,-518.144159,919.314598
4006.230704,-11029.068536,-222.061783,383.047749
4006.231034,-9474.636058,-518.144159,0.000000
4006.231364,-9030.512492,-370.102971,-459.657299
4006.231694,-9326.594869,-74.020594,229.828649
4006.232023,-10510.924376,148.041188,536.266849
4006.232353,-10436.903782,74.020594,536.266849
4006.232683,-10436.903782,0.000000,536.266849
4006.233013,-10140.821405,-296.082377,1225.752797
4006.233342,-9844.739029,-296.082377,1072.533697
4006.233672,-9178.553681,-296.082377,76.609550
4006.234002,-8882.471304,-370.102971,-383.047749
4006.234332,-9326.594869,0.000000,-229.828649
4006.234661,-9622.677246,148.041188,766.095498
4006.234991,-9622.677246,444.123565,306.438199
4006.235321,-9918.759623,592.164754,-153.219100
4006.235650,-9770.718434,370.102971,-689.485948
4006.235980,-10288.862594,0.000000,229.828649
4006.236310,-9844.739029,0.000000,459.657299
4006.236640,-9474.636058,222.061783,306.438199
4006.236969,-9104.533087,74.020594,-612.876398
4006.237299,-9474.636058,444.123565,-766.095498
4006.237629,-9992.780217,740.205942,536.266849
4006.237959,-10288.862594,740.205942,-306.438199
4006.238288,-10140.821405,592.164754,306.438199
4006.238618,-9770.718434,592.164754,919.314598
4006.238948,-9770.718434,592.164754,383.047749
4006.239278,-9474.636058,962.267725,-689.485948
4006.239607,-9474.636058,296.082377,-919.314598
4006.239937,-9918.759623,666.185348,-612.876398
4006.240267,-9918.759623,592.164754,306.438199
4006.240596,-9474.636058,518.144159,689.485948
4006.240926,-9326.594869,444.123565,0.000000
4006.241256,-9548.656652,592.164754,-459.657299
4006.241586,-10510.924376,296.082377,229.828649
4006.241915,-10510.924376,444.123565,1149.143247
4006.242245,-10436.903782,740.205942,689.485948
4006.242575,-9992.780217,666.185348,0.000000
4006.242905,-9918.759623,444.123565,229.828649
4006.243234,-10066.800811,592.164754,383.047749
4006.243564,-9844.739029,222.061783,0.000000
4006.243894,-9548.656652,296.082377,0.000000
4006.244224,-9548.656652,296.082377,842.705048
4006.244554,-9548.656652,296.082377,536.266849
4006.244883,-9696.697840,0.000000,-229.828649
4006.245213,-9252.574275,0.000000,-766.095498
4006.245543,-9474.636058,-222.061783,-153.219100
4006.245873,-9696.697840,0.000000,1072.533697
4006.246203,-9844.739029,148.041188,1225.752797
4006.246532,-9400.615463,-370.102971,919.314598
4006.246862,-9400.615463,-370.102971,536.266849
4006.247192,-10140.821405,0.000000,842.705048
4006.247522,-10807.006753,74.020594,536.266849
4006.247852,-10362.883188,222.061783,383.047749
4006.248181,-9474.636058,-148.041188,-229.828649
4006.248511,-9252.574275,0.000000,-919.314598
4006.248841,-9696.697840,0.000000,-153.219100
4006.249171,-10214.842000,0.000000,-536.266849
4006.249501,-9696.697840,-148.041188,-689.485948
4006.249830,-9474.636058,-74.020594,76.609550
4006.250160,-9844.739029,-740.205942,689.485948
4006.250490,-9696.697840,0.000000,306.438199
4006.250820,-9474.636058,-740.205942,76.609550
4006.251150,-9770.718434,-740.205942,153.219100
4006.251479,-10436.903782,-518.144159,995.924147
4006.251809,-10362.883188,0.000000,1762.019645
4006.252139,-10214.842000,-296.082377,766.095498
4006.252469,-10214.842000,-74.020594,612.876398
4006.252799,-10510.924376,-370.102971,766.095498
4006.253128,-10510.924376,-666.185348,842.705048
4006.253458,-9622.677246,-666.185348,0.000000
4006.253788,-9252.574275,-740.205942,-459.657299
4006.254118,-9030.512492,-296.082377,-383.047749
4006.254448,-9696.697840,-518.144159,0.000000
4006.254777,-9400.615463,-296.082377,536.266849
4006.255107,-9918.759623,-666.185348,383.047749
4006.255437,-9918.759623,-444.123565,1225.752797
4006.255767,-9918.759623,-962.267725,1149.143247
4006.256097,-9104.533087,-814.226536,536.266849
4006.256426,-9104.533087,-1036.288319,0.000000
4006.256756,-9252.574275,-592.164754,229.828649
4006.257086,-9696.697840,-222.061783,1455.581446
4006.257416,-10066.800811,444.123565,1302.362347
4006.257746,-9622.677246,222.061783,383.047749
4006.258075,-9696.697840,296.082377,-383.047749
4006.258405,-10288.862594,222.061783,-306.438199
4006.258735,-10288.862594,0.000000,153.219100
4006.259065,-9622.677246,444.123565,306.438199
4006.259395,-9326.594869,0.000000,-153.219100
4006.259725,-9474.636058,148.041188,0.000000
4006.260054,-9918.759623,222.061783,0.000000
4006.260384,-9992.780217,296.082377,0.000000
4006.260714,-10140.821405,370.102971,0.000000
4006.261044,-9918.759623,222.061783,995.924147
4006.261374,-10066.800811,222.061783,1532.190996
4006.261703,-9844.739029,148.041188,1149.143247
4006.262033,-9474.636058,370.102971,-536.266849
4006.262363,-9474.636058,222.061783,-995.924147
4006.262693,-9770.718434,518.144159,76.609550
4006.263023,-9770.718434,814.226536,383.047749
4006.263352,-9696.697840,1258.350101,0.000000
4006.263682,-9622.677246,592.164754,-229.828649
4006.264012,-9992.780217,740.205942,0.000000
4006.264342,-10881.027347,444.123565,153.219100
4006.264672,-10436.903782,888.247130,-153.219100
4006.265001,-9326.594869,74.020594,0.000000
4006.265331,-9104.533087,444.123565,-229.828649
4006.265661,-9104.533087,296.082377,-306.438199
4006.265991,-9622.677246,1036.288319,0.000000
4006.266321,-9696.697840,592.164754,-153.219100
4006.266650,-10288.862594,888.247130,689.485948
4006.266980,-10436.903782,518.144159,1149.143247
4006.267310,-9844.739029,0.000000,459.657299
4006.267640,-9104.533087,-444.123565,-689.485948
4006.267970,-9696.697840,-74.020594,-1072.533697
4006.268299,-9696.697840,0.000000,-383.047749
4006.268629,-9400.615463,0.000000,459.657299
4006.268959,-9178.553681,370.102971,76.609550
4006.269289,-9178.553681,222.061783,229.828649
4006.269619,-10362.883188,592.164754,229.828649
4006.269948,-10807.006753,222.061783,612.876398
4006.270278,-10732.986159,518.144159,612.876398
4006.270608,-9770.718434,296.082377,0.000000
4006.270938,-9400.615463,0.000000,0.000000
4006.271268,-9474.636058,0.000000,76.609550
4006.271597,-9770.718434,222.061783,0.000000
4006.271927,-9696.697840,0.000000,-306.438199
4006.272257,-10066.800811,296.082377,383.047749
4006.272587,-10066.800811,444.123565,766.095498
4006.272917,-9992.780217,0.000000,842.705048
4006.273246,-9548.656652,0.000000,306.438199
4006.273576,-9474.636058,-74.020594,-689.485948
4006.273906,-9696.697840,0.000000,0.000000
4006.274236,-10066.800811,222.061783,612.876398
4006.274566,-9992.780217,518.144159,689.485948
4006.274896,-9622.677246,370.102971,0.000000
4006.275225,-10066.800811,518.144159,229.828649
4006.275555,-10510.924376,222.061783,842.705048
4006.275885,-10436.903782,0.000000,995.924147
4006.276215,-9844.739029,74.020594,153.219100
4006.276545,-9474.636058,-296.082377,0.000000
4006.276874,-9622.677246,0.000000,0.000000
4006.277204,-10140.821405,-444.123565,306.438199
4006.277534,-9844.739029,-518.144159,383.047749
4006.277864,-9844.739029,-444.123565,536.266849
4006.278194,-10140.821405,0.000000,1455.581446
4006.278523,-9770.718434,-814.226536,1378.971896
4006.278853,-9548.656652,-518.144159,1149.143247
4006.279183,-9400.615463,-740.205942,-76.609550
4006.279513,-9770.718434,-814.226536,0.000000
4006.279843,-9622.677246,-592.164754,842.705048
4006.280172,-9844.739029,-444.123565,1302.362347
4006.280502,-9178.553681,-666.185348,0.000000
4006.280832,-9104.533087,-592.164754,-306.438199
4006.281162,-9696.697840,-666.185348,459.657299
4006.281492,-10066.800811,-592.164754,1072.533697
4006.281821,-9474.636058,-74.020594,1149.143247
4006.282151,-9474.636058,-592.164754,153.219100
4006.282481,-9548.656652,-370.102971,-153.219100
4006.282811,-9992.780217,-444.123565,-229.828649
4006.283141,-9844.739029,-296.082377,-76.609550
4006.283470,-9548.656652,0.000000,0.000000
4006.283800,-10140.821405,148.041188,842.705048
4006.284130,-10214.842000,-370.102971,1149.143247
4006.284460,-10066.800811,0.000000,459.657299
4006.284790,-9548.656652,-222.061783,-612.876398
4006.285119,-10066.800811,-74.020594,-383.047749
4006.285449,-10288.862594,-148.041188,459.657299
4006.285779,-10140.821405,-222.061783,1072.533697
4006.286109,-9400.615463,-296.082377,459.657299
4006.286439,-9326.594869,0.000000,0.000000
4006.286768,-10288.862594,-74.020594,536.266849
4006.287098,-10362.883188,-74.020594,1149.143247
4006.287428,-9918.759623,0.000000,612.876398
4006.287758,-9400.615463,0.000000,76.609550
4006.288088,-9548.656652,296.082377,153.219100
4006.288417,-10140.821405,296.082377,153.219100
4006.288747,-9770.718434,148.041188,153.219100
4006.289077,-9474.636058,0.000000,0.000000
4006.289407,-9474.636058,74.020594,383.047749
4006.289737,-9696.697840,592.164754,689.485948
4006.290067,-9918.759623,740.205942,459.657299
4006.290396,-9030.512492,444.123565,-612.876398
4006.290726,-9918.759623,592.164754,-689.485948
4006.291056,-10214.842000,814.226536,306.438199
4006.291386,-9770.718434,888.247130,612.876398
4006.291716,-9252.574275,814.226536,0.000000
4006.292045,-9696.697840,888.247130,-766.095498
4006.292375,-10066.800811,814.226536,-306.438199
4006.292705,-10807.006753,814.226536,229.828649
4006.293035,-10288.862594,740.205942,229.828649
4006.293365,-9548.656652,592.164754,0.000000
4006.293694,-9474.636058,666.185348,76.609550
4006.294024,-9696.697840,1036.288319,153.219100
4006.294354,-10436.903782,1702.473667,0.000000
4006.294684,-9992.780217,814.226536,-459.657299
4006.295014,-10288.862594,1110.308913,612.876398
4006.295343,-10436.903782,666.185348,995.924147
4006.295673,-10066.800811,518.144159,459.657299
4006.296003,-9400.615463,296.082377,-459.657299
4006.296333,-9548.656652,0.000000,-1072.533697
4006.296663,-9474.636058,222.061783,-306.438199
4006.296992,-9474.636058,444.123565,229.828649
4006.297322,-9030.512492,444.123565,306.438199
4006.297652,-9400.615463,444.123565,76.609550
4006.297982,-9844.739029,296.082377,306.438199
4006.298312,-10658.965565,-148.041188,842.705048
4006.298641,-10362.883188,0.000000,1302.362347
4006.298971,-9474.636058,-296.082377,306.438199
4006.299301,-8882.471304,-592.164754,229.828649
4006.299631,-9104.533087,-740.205942,536.266849
4006.299961,-9104.533087,0.000000,383.047749
4006.300290,-9400.615463,-518.144159,-153.219100
4006.300620,-9844.739029,74.020594,459.657299
4006.300950,-10066.800811,0.000000,919.314598
4006.301280,-9992.780217,-296.082377,306.438199
4006.301610,-9252.574275,-222.061783,-229.828649
4006.301939,-9326.594869,-740.205942,-919.314598
4006.302269,-9548.656652,-370.102971,-536.266849
4006.302599,-9548.656652,-740.205942,459.657299
4006.302929,-9622.677246,-222.061783,995.924147
4006.303259,-9252.574275,-222.061783,612.876398
4006.303588,-9918.759623,0.000000,612.876398
4006.303918,-10807.006753,-518.144159,919.314598
4006.304248,-10732.986159,-740.205942,995.924147
4006.304578,-9770.718434,-888.247130,459.657299
4006.304908,-9474.636058,-740.205942,0.000000
4006.305237,-9400.615463,-740.205942,0.000000
4006.305567,-9770.718434,-518.144159,76.609550
4006.305897,-9696.697840,-592.164754,-153.219100
4006.306227,-9844.739029,0.000000,689.485948
4006.306557,-10140.821405,0.000000,1225.752797
4006.306887,-10584.944971,-370.102971,1072.533697
4006.307216,-9992.780217,-296.082377,842.705048
4006.307546,-9696.697840,-740.205942,-459.657299
4006.307876,-9622.677246,-666.185348,0.000000
4006.308206,-9844.739029,-518.144159,766.095498
4006.308536,-9474.636058,0.000000,1072.533697
4006.308865,-8956.491898,-592.164754,459.657299
4006.309195,-9252.574275,-296.082377,689.485948
4006.309525,-10436.903782,-222.061783,1225.752797
4006.309855,-10807.006753,0.000000,2145.067394
4006.310185,-10214.842000,0.000000,842.705048
4006.310514,-9252.574275,-222.061783,-229.828649
4006.310844,-9030.512492,0.000000,-229.828649
4006.311174,-9178.553681,0.000000,-229.828649
4006.311504,-9252.574275,296.082377,-306.438199
4006.311834,-9622.677246,666.185348,0.000000
4006.312163,-10066.800811,888.247130,229.828649
4006.312493,-10436.903782,370.102971,536.266849
4006.312823,-9770.718434,370.102971,-459.657299
4006.313153,-9770.718434,74.020594,-842.705048
4006.313483,-9844.739029,-74.020594,-842.705048
4006.313812,-9696.697840,0.000000,383.047749
4006.314142,-9474.636058,148.041188,689.485948
4006.314472,-9548.656652,666.185348,76.609550
4006.314802,-9622.677246,518.144159,306.438199
4006.315132,-10362.883188,444.123565,536.266849
4006.315461,-10732.986159,296.082377,995.924147
4006.315791,-10288.862594,666.185348,612.876398
4006.316121,-9474.636058,148.041188,-383.047749
4006.316451,-8956.491898,296.082377,-689.485948
4006.316781,-9326.594869,370.102971,-766.095498
4006.317110,-9178.553681,444.123565,-383.047749
4006.317440,-9918.759623,592.164754,0.000000
4006.317770,-10066.800811,814.226536,689.485948
4006.318100,-10362.883188,296.082377,1149.143247
4006.318430,-9696.697840,444.123565,1149.143247
4006.318759,-9474.636058,222.061783,-536.266849
4006.319089,-9548.656652,74.020594,-612.876398
4006.319419,-9326.594869,74.020594,459.657299
4006.319749,-9474.636058,370.102971,536.266849
4006.320079,-9474.636058,370.102971,383.047749
4006.320408,-9474.636058,518.144159,0.000000
4006.320738,-10362.883188,0.000000,383.047749
4006.321068,-10658.965565,0.000000,536.266849
4006.321398,-9622.677246,74.020594,229.828649
4006.321728,-9326.594869,0.000000,-76.609550
4006.322058,-9104.533087,0.000000,-383.047749
4006.322387,-9770.718434,0.000000,153.219100
4006.322717,-10140.821405,148.041188,153.219100
4006.323047,-10288.862594,148.041188,612.876398
4006.323377,-10066.800811,0.000000,1149.143247
4006.323707,-10658.965565,0.000000,995.924147
4006.324036,-10140.821405,-444.123565,383.047749
4006.324366,-9992.780217,-296.082377,0.000000
4006.324696,-9474.636058,-518.144159,-612.876398
4006.325026,-9622.677246,0.000000,229.828649
4006.325356,-9548.656652,0.000000,306.438199
4006.325685,-9548.656652,0.000000,0.000000
4006.326015,-9844.739029,0.000000,-153.219100
4006.326345,-10436.903782,-222.061783,229.828649
4006.326675,-10955.047942,-370.102971,1072.533697
4006.327005,-9770.718434,-296.082377,1225.752797
4006.327334,-9400.615463,-592.164754,383.047749
4006.327664,-9104.533087,-444.123565,0.000000
4006.327994,-9696.697840,-296.082377,153.219100
4006.328324,-9770.718434,-370.102971,0.000000
4006.328654,-9696.697840,0.000000,306.438199
4006.328983,-9844.739029,296.082377,1455.581446
4006.329313,-10362.883188,0.000000,1149.143247
4006.329643,-10214.842000,74.020594,306.438199
4006.329973,-9030.512492,0.000000,-1149.143247
4006.330303,-9400.615463,-296.082377,-1378.971896
4006.330632,-9918.759623,0.000000,229.828649
4006.330962,-9992.780217,74.020594,612.876398
4006.331292,-9400.615463,74.020594,612.876398
4006.331622,-9474.636058,74.020594,0.000000
4006.331952,-10140.821405,74.020594,383.047749
4006.332281,-10140.821405,0.000000,995.924147
4006.332611,-9918.759623,666.185348,1149.143247
4006.332941,-9030.512492,0.000000,383.047749
4006.333271,-9400.615463,518.144159,383.047749
4006.333601,-9548.656652,148.041188,0.000000
4006.333930,-10140.821405,444.123565,-306.438199
4006.334260,-10214.842000,518.144159,-306.438199
4006.334590,-10066.800811,518.144159,536.266849
4006.334920,-10288.862594,518.144159,1225.752797
4006.335250,-10214.842000,296.082377,689.485948
4006.335579,-9844.739029,518.144159,-153.219100
4006.335909,-9770.718434,-74.020594,-689.485948
4006.336239,-9844.739029,370.102971,0.000000
4006.336569,-9770.718434,222.061783,842.705048
4006.336899,-8882.471304,74.020594,459.657299
4006.337229,-9104.533087,148.041188,766.095498
4006.337558,-10066.800811,444.123565,612.876398
4006.337888,-10807.006753,222.061783,919.314598
4006.338218,-10881.027347,296.082377,459.657299
4006.338548,-9844.739029,74.020594,0.000000
4006.338878,-9252.574275,0.000000,-153.219100
4006.339207,-9252.574275,0.000000,-229.828649
4006.339537,-9326.594869,0.000000,-612.876398
4006.339867,-9474.636058,148.041188,-766.095498
4006.340197,-9770.718434,74.020594,536.266849
4006.340527,-9918.759623,0.000000,1455.581446
4006.340856,-10214.842000,-370.102971,919.314598
4006.341186,-9918.759623,-444.123565,76.609550
4006.341516,-9622.677246,-740.205942,-459.657299
4006.341846,-9696.697840,-444.123565,0.000000
4006.342176,-9548.656652,-444.123565,919.314598
4006.342505,-9252.574275,0.000000,1455.581446
4006.342835,-9030.512492,0.000000,459.657299
4006.343165,-9770.718434,148.041188,766.095498
4006.343495,-10584.944971,0.000000,689.485948
4006.343825,-10732.986159,0.000000,76.609550
4006.344155,-9326.594869,-370.102971,-612.876398
4006.344485,-9252.574275,-222.061783,-919.314598
4006.344815,-9474.636058,0.000000,-229.828649
4006.345145,-9992.780217,0.000000,0.000000
4006.345475,-10066.800811,370.102971,-383.047749
4006.345805,-9548.656652,296.082377,612.876398
4006.346134,-9844.739029,222.061783,1378.971896
4006.346464,-10436.903782,74.020594,1455.581446
4006.346794,-9622.677246,370.102971,153.219100
4006.347124,-9918.759623,222.061783,-612.876398
4006.347454,-9770.718434,0.000000,-229.828649
4006.347784,-9770.718434,0.000000,459.657299
4006.348114,-9622.677246,0.000000,536.266849
4006.348444,-9178.553681,0.000000,229.828649
4006.348774,-9474.636058,0.000000,0.000000
4006.349104,-9918.759623,74.020594,306.438199
4006.349434,-10584.944971,370.102971,536.266849
4006.349763,-9696.697840,0.000000,612.876398
4006.350093,-9770.718434,0.000000,0.000000
4006.350423,-9400.615463,0.000000,383.047749
4006.350753,-9622.677246,0.000000,383.047749
4006.351083,-9622.677246,0.000000,306.438199
4006.351413,-9548.656652,-370.102971,383.047749
4006.351743,-9696.697840,-148.041188,1378.971896
4006.352073,-9548.656652,-296.082377,1225.752797
4006.352403,-9474.636058,0.000000,459.657299
4006.352733,-9548.656652,0.000000,-842.705048
4006.353063,-9548.656652,74.020594,-995.924147
4006.353392,-9696.697840,74.020594,-383.047749
4006.353722,-9770.718434,370.102971,0.000000
4006.354052,-9770.718434,370.102971,-229.828649
4006.354382,-9918.759623,74.020594,0.000000
4006.354712,-10288.862594,-148.041188,536.266849
4006.355042,-10510.924376,-74.020594,536.266849
4006.355372,-9400.615463,148.041188,-76.609550
4006.355702,-9030.512492,-222.061783,-383.047749
4006.356032,-9030.512492,0.000000,0.000000
4006.356362,-9844.739029,222.061783,0.000000
4006.356692,-10214.842000,370.102971,0.000000
4006.357021,-10436.903782,0.000000,612.876398
4006.357351,-10658.965565,0.000000,1225.752797
4006.357681,-10658.965565,-74.020594,1302.362347
4006.358011,-9918.759623,74.020594,383.047749
4006.358341,-9252.574275,-74.020594,-689.485948
4006.358671,-9178.553681,0.000000,-459.657299
4006.359001,-9770.718434,222.061783,306.438199
4006.359331,-10066.800811,370.102971,536.266849
4006.359661,-9622.677246,592.164754,0.000000
4006.359991,-9474.636058,296.082377,-306.438199
4006.360321,-9622.677246,296.082377,0.000000
4006.360650,-10436.903782,0.000000,306.438199
4006.360980,-10140.821405,74.020594,766.095498
4006.361310,-9622.677246,74.020594,-306.438199
4006.361640,-9178.553681,0.000000,-536.266849
4006.361970,-9696.697840,74.020594,0.000000
4006.362300,-9844.739029,148.041188,383.047749
4006.362630,-10066.800811,0.000000,919.314598
4006.362960,-9770.718434,74.020594,1378.971896
4006.363290,-9918.759623,-148.041188,1608.800546
4006.363620,-9696.697840,-148.041188,995.924147
4006.363950,-9326.594869,74.020594,0.000000
4006.364279,-9770.718434,0.000000,-536.266849
4006.364609,-9770.718434,148.041188,229.828649
4006.364939,-9548.656652,74.020594,689.485948
4006.365269,-9326.594869,740.205942,76.609550
4006.365599,-9770.718434,518.144159,0.000000
4006.365929,-10214.842000,592.164754,76.609550
4006.366259,-10362.883188,148.041188,0.000000
4006.366589,-9474.636058,666.185348,-306.438199
4006.366919,-9400.615463,222.061783,-689.485948
4006.367249,-9104.533087,296.082377,-612.876398
4006.367579,-9696.697840,222.061783,-229.828649
4006.367908,-10066.800811,370.102971,0.000000
4006.368238,-10066.800811,518.144159,-153.219100
4006.368568,-10066.800811,296.082377,766.095498
4006.368898,-9992.780217,74.020594,1302.362347
4006.369228,-9918.759623,74.020594,689.485948
4006.369558,-9326.594869,74.020594,0.000000
4006.369888,-9400.615463,-370.102971,-612.876398
4006.370218,-9844.739029,74.020594,76.609550
4006.370548,-9844.739029,0.000000,612.876398
4006.370878,-9918.759623,222.061783,153.219100
4006.371208,-9770.718434,222.061783,0.000000
4006.371537,-10214.842000,74.020594,0.000000
4006.371867,-10584.944971,-592.164754,536.266849
4006.372197,-9992.780217,0.000000,383.047749
4006.372527,-9252.574275,-444.123565,0.000000
4006.372857,-8882.471304,-444.123565,-229.828649
4006.373187,-9178.553681,-296.082377,76.609550
4006.373517,-9474.636058,-444.123565,76.609550
4006.373847,-9918.759623,-222.061783,153.219100
4006.374177,-9844.739029,-74.020594,842.705048
4006.374507,-9696.697840,-222.061783,1302.362347
4006.374837,-9400.615463,-666.185348,842.705048
4006.375166,-8956.491898,-222.061783,-459.657299
4006.375496,-9400.615463,-444.123565,-689.485948
4006.375826,-9918.759623,0.000000,0.000000
4006.376156,-10288.862594,444.123565,842.705048
4006.376486,-9844.739029,370.102971,689.485948
4006.376816,-9918.759623,148.041188,0.000000
4006.377146,-10140.821405,0.000000,229.828649
4006.377476,-10436.903782,0.000000,459.657299
4006.377806,-10288.862594,148.041188,459.657299
4006.378136,-9400.615463,0.000000,153.219100
4006.378466,-9178.553681,0.000000,153.219100
4006.378795,-9326.594869,222.061783,76.609550
4006.379125,-9844.739029,222.061783,306.438199
4006.379455,-9918.759623,222.061783,766.095498
4006.379785,-10140.821405,296.082377,536.266849
4006.380115,-10362.883188,296.082377,1072.533697
4006.380445,-10510.924376,0.000000,1302.362347
4006.380775,-9400.615463,222.061783,229.828649
4006.381105,-9696.697840,-148.041188,0.000000
4006.381435,-9770.718434,0.000000,0.000000
4006.381765,-9548.656652,74.020594,995.924147
4006.382095,-9622.677246,370.102971,1225.752797
4006.382424,-9400.615463,296.082377,0.000000
4006.382754,-9548.656652,518.144159,0.000000
4006.383084,-10214.842000,222.061783,383.047749
4006.383414,-10584.944971,222.061783,76.609550
4006.383744,-9474.636058,518.144159,76.609550
4006.384074,-8882.471304,370.102971,-536.266849
4006.384404,-8956.491898,444.123565,-153.219100
4006.384734,-9696.697840,296.082377,306.438199
4006.385064,-9622.677246,296.082377,-153.219100
4006.385394,-10140.821405,592.164754,919.314598
4006.385724,-9844.739029,148.041188,1532.190996
4006.386053,-10214.842000,74.020594,1149.143247
4006.386383,-9770.718434,518.144159,153.219100
4006.386713,-9326.594869,0.000000,-536.266849
4006.387043,-9770.718434,74.020594,-842.705048
4006.387373,-9918.759623,0.000000,612.876398
4006.387703,-9622.677246,148.041188,689.485948
4006.388033,-9622.677246,370.102971,536.266849
4006.388363,-9918.759623,148.041188,0.000000
4006.388693,-10214.842000,-296.082377,306.438199
4006.389023,-10584.944971,-296.082377,229.828649
4006.389353,-9474.636058,-148.041188,-153.219100
4006.389682,-9252.574275,-740.205942,153.219100
4006.390012,-8882.471304,-518.144159,536.266849
4006.390342,-9400.615463,-296.082377,536.266849
4006.390672,-9252.574275,-370.102971,0.000000
4006.391002,-9918.759623,-592.164754,153.219100
4006.391332,-10066.800811,0.000000,919.314598
4006.391662,-9918.759623,-518.144159,536.266849
4006.391992,-9770.718434,0.000000,-76.609550
4006.392322,-9474.636058,-296.082377,-689.485948
4006.392652,-9548.656652,-592.164754,-919.314598
4006.392982,-9918.759623,-370.102971,-306.438199
4006.393311,-10288.862594,-148.041188,306.438199
4006.393641,-9992.780217,-296.082377,-459.657299
4006.393971,-9474.636058,-296.082377,76.609550
4006.394301,-9992.780217,-444.123565,459.657299
4006.394631,-10658.965565,-444.123565,919.314598
4006.394961,-10362.883188,0.000000,612.876398
4006.395291,-9770.718434,-740.205942,153.219100
4006.395621,-9400.615463,-444.123565,536.266849
4006.395951,-9696.697840,0.000000,766.095498
4006.396281,-10066.800811,0.000000,536.266849
4006.396611,-10066.800811,74.020594,689.485948
4006.396940,-9918.759623,0.000000,766.095498
4006.397270,-10140.821405,0.000000,919.314598
4006.397600,-9918.759623,222.061783,229.828649
4006.397930,-9622.677246,296.082377,-229.828649
4006.398260,-9548.656652,0.000000,-153.219100
4006.398590,-9992.780217,444.123565,612.876398
4006.398920,-10140.821405,370.102971,995.924147
4006.399250,-10066.800811,1036.288319,995.924147
4006.399580,-9548.656652,592.164754,0.000000
4006.399910,-9918.759623,1036.288319,0.000000
4006.400240,-10362.883188,518.144159,536.266849
4006.400569,-9696.697840,962.267725,536.266849
4006.400899,-9252.574275,444.123565,-76.609550
4006.401229,-8956.491898,666.185348,-306.438199
4006.401559,-9474.636058,814.226536,-459.657299
4006.401889,-9548.656652,888.247130,-459.657299
4006.402219,-9918.759623,888.247130,0.000000
4006.402549,-9844.739029,962.267725,689.485948
4006.402879,-9770.718434,666.185348,459.657299
4006.403209,-9178.553681,592.164754,0.000000
4006.403539,-9104.533087,1406.391290,-1685.410096
4006.403869,-9548.656652,1110.308913,-612.876398
4006.404198,-10214.842000,1184.329507,153.219100
4006.404528,-10214.842000,666.185348,459.657299
4006.404858,-10066.800811,1554.432478,76.609550
4006.405188,-9844.739029,888.247130,-536.266849
4006.405518,-9696.697840,518.144159,-612.876398
4006.405848,-9992.780217,0.000000,0.000000
4006.406178,-9474.636058,592.164754,229.828649
4006.406508,-8882.471304,296.082377,229.828649
4006.406838,-9030.512492,444.123565,-153.219100
4006.407168,-9548.656652,296.082377,-76.609550
4006.407498,-9992.780217,444.123565,-153.219100
4006.407827,-10510.924376,222.061783,306.438199
4006.408157,-10140.821405,0.000000,919.314598
4006.408487,-9696.697840,0.000000,1455.581446
4006.408817,-9844.739029,-222.061783,1225.752797
4006.409147,-9474.636058,-592.164754,766.095498
4006.409477,-9548.656652,-962.267725,-612.876398
4006.409807,-9400.615463,-666.185348,459.657299
4006.410137,-9696.697840,-74.020594,995.924147
4006.410467,-9474.636058,0.000000,919.314598
4006.410797,-9326.594869,-814.226536,306.438199
4006.411127,-9844.739029,-666.185348,153.219100
4006.411456,-10436.903782,-1258.350101,306.438199
4006.411786,-10510.924376,-962.267725,536.266849
4006.412116,-9770.718434,-962.267725,766.095498
4006.412446,-9252.574275,-1110.308913,459.657299
4006.412776,-9104.533087,-740.205942,766.095498
4006.413106,-9770.718434,-518.144159,306.438199
4006.413436,-10066.800811,-74.020594,536.266849
4006.413766,-10288.862594,-74.020594,229.828649
4006.414096,-10436.903782,-148.041188,1072.533697
4006.414426,-10288.862594,-666.185348,536.266849
4006.414756,-9474.636058,-592.164754,-76.609550
4006.415085,-9696.697840,-1036.288319,-612.876398
4006.415415,-9696.697840,-592.164754,-306.438199
4006.415745,-9992.780217,-592.164754,612.876398
4006.416075,-9770.718434,-222.061783,1149.143247
4006.416405,-9474.636058,-296.082377,919.314598
4006.416735,-10140.821405,-444.123565,919.314598
4006.417065,-10658.965565,-592.164754,995.924147
4006.417395,-10436.903782,-740.205942,1149.143247
4006.417725,-9252.574275,-814.226536,612.876398
4006.418055,-9178.553681,-518.144159,0.000000
4006.418385,-9178.553681,-518.144159,153.219100
4006.418714,-9844.739029,-222.061783,229.828649
4006.419044,-9770.718434,0.000000,536.266849
4006.419374,-9770.718434,148.041188,383.047749
4006.419704,-10288.862594,222.061783,612.876398
4006.420034,-10362.883188,74.020594,1072.533697
4006.420364,-9992.780217,148.041188,459.657299
4006.420694,-9622.677246,0.000000,306.438199
4006.421024,-9918.759623,0.000000,459.657299
4006.421354,-9992.780217,296.082377,766.095498
4006.421684,-9474.636058,370.102971,306.438199
4006.422014,-9474.636058,148.041188,0.000000
4006.422343,-9400.615463,444.123565,0.000000
4006.422673,-9992.780217,148.041188,612.876398
4006.423003,-10436.903782,222.061783,536.266849
4006.423333,-9178.553681,518.144159,536.266849
4006.423663,-8438.347739,148.041188,-459.657299
4006.423993,-8734.430116,370.102971,-536.266849
4006.424323,-9548.656652,518.144159,-153.219100
4006.424653,-10066.800811,740.205942,-229.828649
4006.424983,-10066.800811,888.247130,0.000000
4006.425313,-10140.821405,740.205942,766.095498
4006.425643,-10288.862594,1036.288319,459.657299
4006.425972,-9548.656652,962.267725,-459.657299
4006.426302,-9696.697840,1036.288319,-1762.019645
4006.426632,-9548.656652,592.164754,-1302.362347
4006.426962,-10066.800811,1258.350101,0.000000
4006.427292,-9992.780217,1110.308913,459.657299
4006.427622,-9770.718434,1258.350101,-383.047749
4006.427952,-9918.759623,1110.308913,-919.314598
4006.428282,-10214.842000,1110.308913,-306.438199
4006.428612,-10584.944971,740.205942,0.000000
4006.428942,-9844.739029,888.247130,995.924147
4006.429272,-9326.594869,592.164754,0.000000
4006.429601,-9252.574275,444.123565,306.438199
4006.429931,-9918.759623,444.123565,229.828649
4006.430261,-9992.780217,444.123565,-76.609550
4006.430591,-9918.759623,444.123565,0.000000
4006.430921,-9992.780217,592.164754,766.095498
4006.431251,-10066.800811,222.061783,1608.800546
4006.431581,-9770.718434,148.041188,842.705048
4006.431911,-9252.574275,-222.061783,0.000000
4006.432241,-9918.759623,0.000000,-383.047749
4006.432571,-9918.759623,0.000000,459.657299
4006.432901,-9918.759623,222.061783,459.657299
4006.433230,-9104.533087,0.000000,76.609550
4006.433560,-9252.574275,-296.082377,-153.219100
4006.433890,-9992.780217,0.000000,306.438199
4006.434220,-10140.821405,-444.123565,229.828649
4006.434550,-10066.800811,0.000000,306.438199
4006.434880,-9252.574275,-370.102971,76.609550
4006.435210,-9400.615463,-222.061783,-76.609550
4006.435540,-9696.697840,-444.123565,-153.219100
4006.435870,-9770.718434,-888.247130,153.219100
4006.436200,-10140.821405,-814.226536,0.000000
4006.436530,-10288.862594,-444.123565,766.095498
4006.436859,-9918.759623,-814.226536,1455.581446
4006.437189,-9474.636058,-814.226536,689.485948
4006.437519,-9400.615463,-370.102971,0.000000
4006.437849,-9622.677246,-1332.370696,0.000000
4006.438179,-9622.677246,-1036.288319,919.314598
4006.438509,-9770.718434,-666.185348,1608.800546
4006.438839,-9622.677246,-592.164754,1072.533697
4006.439169,-9622.677246,-592.164754,612.876398
4006.439499,-9992.780217,-592.164754,306.438199
4006.439829,-10362.883188,-1036.288319,766.095498
4006.440159,-10066.800811,-370.102971,536.266849
4006.440488,-9252.574275,-962.267725,0.000000
4006.440818,-9178.553681,-518.144159,153.219100
4006.441148,-9474.636058,-666.185348,459.657299
4006.441478,-9770.718434,-444.123565,0.000000
4006.441808,-9696.697840,-518.144159,689.485948
4006.442138,-9918.759623,-222.061783,842.705048
4006.442468,-9844.739029,-296.082377,1302.362347
4006.442798,-9622.677246,-296.082377,536.266849
4006.443128,-9474.636058,-518.144159,0.000000
4006.443458,-9622.677246,-666.185348,-459.657299
4006.443788,-9696.697840,-296.082377,306.438199
4006.444117,-9844.739029,0.000000,1072.533697
4006.444447,-9548.656652,148.041188,612.876398
4006.444777,-9474.636058,444.123565,76.609550
4006.445107,-9770.718434,592.164754,0.000000
4006.445437,-10510.924376,222.061783,383.047749
4006.445767,-10732.986159,814.226536,612.876398
4006.446097,-9992.780217,814.226536,-919.314598
4006.446427,-9548.656652,296.082377,-842.705048
4006.446757,-9770.718434,444.123565,-689.485948
4006.447087,-10066.800811,740.205942,-306.438199
4006.447417,-9918.759623,962.267725,0.000000
4006.447747,-9474.636058,444.123565,383.047749
4006.448077,-9474.636058,518.144159,995.924147
4006.448406,-10066.800811,444.123565,995.924147
4006.448736,-9844.739029,666.185348,0.000000
4006.449066,-10214.842000,740.205942,-842.705048
4006.449396,-10214.842000,814.226536,-459.657299
4006.449726,-9696.697840,814.226536,229.828649
4006.450056,-9474.636058,814.226536,229.828649
4006.450386,-9400.615463,740.205942,-459.657299
4006.450716,-9622.677246,962.267725,-459.657299
4006.451046,-10288.862594,814.226536,229.828649
4006.451376,-10288.862594,1258.350101,383.047749
4006.451706,-9548.656652,1554.432478,0.000000
4006.452036,-9178.553681,740.205942,-842.705048
4006.452366,-9252.574275,888.247130,-536.266849
4006.452695,-9992.780217,888.247130,-689.485948
4006.453025,-9622.677246,666.185348,-383.047749
4006.453355,-9548.656652,370.102971,0.000000
4006.453685,-9400.615463,962.267725,689.485948
4006.454015,-9992.780217,592.164754,612.876398
4006.454345,-9696.697840,370.102971,-229.828649
4006.454675,-9622.677246,296.082377,-919.314598
4006.455005,-9770.718434,370.102971,0.000000
4006.455335,-9918.759623,222.061783,536.266849
4006.455665,-9622.677246,592.164754,766.095498
4006.455995,-9622.677246,444.123565,383.047749
4006.456325,-9992.780217,518.144159,0.000000
4006.456655,-10807.006753,148.041188,842.705048
4006.456984,-10658.965565,296.082377,459.657299
4006.457314,-9844.739029,222.061783,689.485948
4006.457644,-9252.574275,0.000000,0.000000
4006.457974,-9548.656652,0.000000,0.000000
4006.458304,-9918.759623,-444.123565,-383.047749
4006.458634,-10066.800811,0.000000,-459.657299
4006.458964,-9696.697840,-444.123565,766.095498
4006.459294,-10362.883188,0.000000,1762.019645
4006.459624,-10214.842000,-518.144159,1991.848295
4006.459954,-9770.718434,-518.144159,689.485948
4006.460284,-9474.636058,-888.247130,0.000000
4006.460614,-9918.759623,-740.205942,1072.533697
4006.460944,-10362.883188,-666.185348,995.924147
4006.461273,-9992.780217,-370.102971,919.314598
4006.461603,-9474.636058,-592.164754,612.876398
4006.461933,-9400.615463,0.000000,459.657299
4006.462263,-10066.800811,-370.102971,459.657299
4006.462593,-10658.965565,-518.144159,919.314598
4006.462923,-9548.656652,-296.082377,76.609550
4006.463253,-9326.594869,-740.205942,-306.438199
4006.463583,-8882.471304,-518.144159,-459.657299
4006.463913,-9474.636058,-962.267725,-153.219100
4006.464243,-9770.718434,-666.185348,-153.219100
4006.464573,-9918.759623,-740.205942,612.876398
4006.464903,-9696.697840,-74.020594,1378.971896
4006.465233,-10214.842000,-444.123565,1608.800546
4006.465562,-9622.677246,-444.123565,689.485948
4006.465892,-9474.636058,-888.247130,-383.047749
4006.466222,-9474.636058,-666.185348,0.000000
4006.466552,-9918.759623,-370.102971,306.438199
4006.466882,-9844.739029,0.000000,536.266849
4006.467212,-9474.636058,0.000000,-153.219100
4006.467542,-9622.677246,0.000000,-153.219100
4006.467872,-10140.821405,0.000000,229.828649
4006.468202,-10732.986159,-370.102971,1072.533697
4006.468532,-10436.903782,222.061783,612.876398
4006.468862,-9622.677246,0.000000,0.000000
4006.469192,-9474.636058,0.000000,0.000000
4006.469522,-9548.656652,0.000000,-306.438199
4006.469851,-9770.718434,0.000000,-229.828649
4006.470181,-9992.780217,296.082377,536.266849
4006.470511,-9548.656652,962.267725,919.314598
4006.470841,-10066.800811,148.041188,1685.410096
4006.471171,-9918.759623,296.082377,536.266849
4006.471501,-9696.697840,0.000000,-536.266849
4006.471831,-9696.697840,-74.020594,-229.828649
4006.472161,-9770.718434,296.082377,536.266849
4006.472491,-9474.636058,370.102971,612.876398
4006.472821,-9030.512492,296.082377,306.438199
4006.473151,-9178.553681,592.164754,76.609550
4006.473481,-9622.677246,740.205942,76.609550
4006.473811,-10807.006753,296.082377,766.095498
4006.474140,-10362.883188,592.164754,536.266849
4006.474470,-9252.574275,148.041188,-76.609550
4006.474800,-8660.409521,518.144159,-1225.752797
4006.475130,-8808.450710,74.020594,-689.485948
4006.475460,-9326.594869,888.247130,-612.876398
4006.475790,-9622.677246,666.185348,0.000000
4006.476120,-10214.842000,1554.432478,612.876398
4006.476450,-10362.883188,666.185348,1072.533697
4006.476780,-10288.862594,518.144159,306.438199
4006.477110,-9622.677246,444.123565,-995.924147
4006.477440,-9622.677246,74.020594,-1149.143247
4006.477770,-9400.615463,518.144159,-229.828649
4006.478100,-9474.636058,592.164754,0.000000
4006.478429,-9770.718434,740.205942,-612.876398
4006.478759,-9992.780217,666.185348,-919.314598
4006.479089,-10362.883188,444.123565,-536.266849
4006.479419,-11029.068536,222.061783,612.876398
4006.479749,-10510.924376,518.144159,995.924147
4006.480079,-9770.718434,74.020594,459.657299
4006.480409,-9400.615463,444.123565,229.828649
4006.480739,-9770.718434,296.082377,76.609550
4006.481069,-10214.842000,518.144159,0.000000
4006.481399,-10362.883188,370.102971,229.828649
4006.481729,-10140.821405,148.041188,1225.752797
4006.482059,-10214.842000,370.102971,1378.971896
4006.482389,-9918.759623,-370.102971,766.095498
4006.482718,-9104.533087,-666.185348,-919.314598
4006.483048,-8882.471304,-740.205942,-766.095498
4006.483378,-9030.512492,-518.144159,-306.438199
4006.483708,-9252.574275,-296.082377,766.095498
4006.484038,-9400.615463,0.000000,842.705048
4006.484368,-9622.677246,-74.020594,995.924147
4006.484698,-9474.636058,444.123565,459.657299
4006.485028,-10436.903782,-222.061783,459.657299
4006.485358,-10214.842000,0.000000,383.047749
4006.485688,-9474.636058,-148.041188,383.047749
4006.486018,-8956.491898,-74.020594,76.609550
4006.486348,-8956.491898,-296.082377,76.609550
4006.486678,-9844.739029,-370.102971,-383.047749
4006.487007,-9622.677246,0.000000,-766.095498
4006.487337,-10214.842000,0.000000,0.000000
4006.487667,-9992.780217,148.041188,995.924147
4006.487997,-9992.780217,74.020594,536.266849
4006.488327,-9474.636058,-222.061783,153.219100
4006.488657,-9548.656652,-518.144159,-383.047749
4006.488987,-9844.739029,0.000000,459.657299
4006.489317,-10288.862594,-296.082377,766.095498
4006.489647,-9770.718434,0.000000,919.314598
4006.489977,-9770.718434,74.020594,689.485948
4006.490307,-9844.739029,0.000000,995.924147
4006.490637,-10510.924376,-370.102971,1072.533697
4006.490967,-10807.006753,0.000000,536.266849
4006.491296,-10140.821405,-222.061783,0.000000
4006.491626,-9252.574275,-370.102971,-229.828649
4006.491956,-9474.636058,-370.102971,0.000000
4006.492286,-10066.800811,-592.164754,153.219100
4006.492616,-10066.800811,-666.185348,766.095498
4006.492946,-9548.656652,-888.247130,1685.410096
4006.493276,-9548.656652,-592.164754,2145.067394
4006.493606,-9844.739029,-592.164754,2221.676944
4006.493936,-9400.615463,-666.185348,766.095498
4006.494266,-9178.553681,-962.267725,0.000000
4006.494596,-9326.594869,-518.144159,383.047749
4006.494926,-9696.697840,-444.123565,612.876398
4006.495256,-9548.656652,0.000000,689.485948
4006.495585,-9252.574275,0.000000,-306.438199
4006.495915,-9474.636058,222.061783,-536.266849
4006.496245,-10362.883188,0.000000,-383.047749
4006.496575,-10362.883188,0.000000,-306.438199
4006.496905,-9548.656652,0.000000,-459.657299
4006.497235,-9104.533087,0.000000,-1072.533697
4006.497565,-8956.491898,222.061783,-459.657299
4006.497895,-9696.697840,370.102971,0.000000
4006.498225,-10955.047942,222.061783,0.000000
4006.498555,-11547.212695,666.185348,689.485948
4006.498885,-10510.924376,-296.082377,1455.581446
4006.499215,-10140.821405,-592.164754,1302.362347
4006.499545,-9400.615463,0.000000,766.095498
4006.499874,-9992.780217,-518.144159,0.000000
4006.500204,-9474.636058,-296.082377,0.000000
4006.500534,-9474.636058,222.061783,536.266849
4006.500864,-9992.780217,888.247130,1072.533697
4006.501194,-9696.697840,518.144159,153.219100
4006.501524,-10066.800811,814.226536,-536.266849
4006.501854,-10140.821405,666.185348,-229.828649
4006.502184,-10288.862594,592.164754,-612.876398
4006.502514,-9770.718434,666.185348,-383.047749
4006.502844,-8882.471304,0.000000,-995.924147
4006.503174,-8512.368333,814.226536,-766.095498
4006.503504,-9326.594869,370.102971,-536.266849
4006.503834,-10066.800811,444.123565,306.438199
4006.504163,-9844.739029,296.082377,689.485948
4006.504493,-9844.739029,444.123565,1532.190996
4006.504823,-10066.800811,74.020594,1225.752797
4006.505153,-10214.842000,74.020594,536.266849
4006.505483,-9326.594869,-370.102971,-306.438199
4006.505813,-9104.533087,74.020594,-383.047749
4006.506143,-9474.636058,148.041188,689.485948
4006.506473,-9548.656652,148.041188,1225.752797
4006.506803,-9622.677246,296.082377,306.438199
4006.507133,-9474.636058,370.102971,0.000000
4006.507463,-9918.759623,370.102971,153.219100
4006.507793,-10881.027347,666.185348,536.266849
4006.508123,-10066.800811,666.185348,0.000000
4006.508452,-9474.636058,370.102971,-612.876398
4006.508782,-9178.553681,592.164754,-459.657299
4006.509112,-10214.842000,592.164754,0.000000
4006.509442,-10510.924376,592.164754,0.000000
4006.509772,-10362.883188,592.164754,0.000000
4006.510102,-10436.903782,592.164754,766.095498
4006.510432,-9992.780217,370.102971,1455.581446
4006.510762,-9696.697840,148.041188,153.219100
4006.511092,-9326.594869,148.041188,-383.047749
4006.511422,-9474.636058,148.041188,-383.047749
4006.511752,-9696.697840,296.082377,229.828649
4006.512082,-9918.759623,222.061783,995.924147
4006.512412,-9548.656652,148.041188,229.828649
4006.512741,-9844.739029,222.061783,-459.657299
4006.513071,-10066.800811,444.123565,0.000000
4006.513401,-10510.924376,-296.082377,689.485948
4006.513731,-9770.718434,0.000000,536.266849
4006.514061,-8734.430116,-370.102971,0.000000
4006.514391,-9104.533087,0.000000,0.000000
4006.514721,-9326.594869,0.000000,0.000000
4006.515051,-9844.739029,148.041188,-383.047749
4006.515381,-9918.759623,74.020594,-689.485948
4006.515711,-9696.697840,0.000000,383.047749
4006.516041,-9992.780217,148.041188,1378.971896
4006.516371,-9844.739029,-518.144159,536.266849
4006.516701,-9474.636058,-370.102971,-383.047749
4006.517030,-9548.656652,-592.164754,-612.876398
4006.517360,-9696.697840,0.000000,612.876398
4006.517690,-9622.677246,0.000000,1455.581446
4006.518020,-9696.697840,592.164754,995.924147
4006.518350,-9844.739029,148.041188,229.828649
4006.518680,-10214.842000,74.020594,229.828649
4006.519010,-10881.027347,0.000000,153.219100
4006.519340,-10584.944971,222.061783,383.047749
4006.519670,-9474.636058,0.000000,-153.219100
4006.520000,-8512.368333,-148.041188,-919.314598
4006.520330,-8808.450710,0.000000,-459.657299
4006.520660,-9474.636058,74.020594,0.000000
4006.520990,-10214.842000,74.020594,153.219100
4006.521319,-10510.924376,444.123565,1149.143247
4006.521649,-10214.842000,148.041188,1838.629195
4006.521979,-10066.800811,0.000000,995.924147
4006.522309,-9474.636058,0.000000,-306.438199
4006.522639,-9770.718434,-592.164754,-153.219100
4006.522969,-10066.800811,-740.205942,1302.362347
4006.523299,-10288.862594,-74.020594,1608.800546
4006.523629,-9918.759623,0.000000,1149.143247
4006.523959,-9400.615463,-296.082377,1149.143247
4006.524289,-9474.636058,-74.020594,842.705048
4006.524619,-10214.842000,-666.185348,919.314598
4006.524949,-10288.862594,-148.041188,536.266849
4006.525279,-9622.677246,-444.123565,229.828649
4006.525608,-9030.512492,-740.205942,0.000000
4006.525938,-8734.430116,-444.123565,383.047749
4006.526268,-9918.759623,-296.082377,383.047749
4006.526598,-9770.718434,-222.061783,0.000000
4006.526928,-9474.636058,-296.082377,229.828649
4006.527258,-9474.636058,-518.144159,1608.800546
4006.527588,-9918.759623,-518.144159,1072.533697
4006.527918,-9400.615463,-222.061783,383.047749
4006.528248,-9252.574275,-666.185348,-383.047749
4006.528578,-9400.615463,-370.102971,0.000000
4006.528908,-10066.800811,-222.061783,459.657299
4006.529238,-9696.697840,0.000000,842.705048
4006.529568,-9548.656652,0.000000,0.000000
4006.529897,-9992.780217,222.061783,76.609550
4006.530227,-10658.965565,0.000000,0.000000
4006.530557,-10658.965565,74.020594,153.219100
4006.530887,-9548.656652,148.041188,0.000000
4006.531217,-8956.491898,74.020594,-1149.143247
4006.531547,-9400.615463,148.041188,-153.219100
4006.531877,-10140.821405,222.061783,-153.219100
4006.532207,-10140.821405,370.102971,-153.219100
4006.532537,-10288.862594,444.123565,229.828649
4006.532867,-10288.862594,444.123565,689.485948
4006.533197,-10214.842000,222.061783,842.705048
4006.533527,-9918.759623,296.082377,0.000000
4006.533857,-9474.636058,370.102971,-153.219100
4006.534186,-9844.739029,370.102971,229.828649
4006.534516,-10362.883188,740.205942,689.485948
4006.534846,-9770.718434,740.205942,919.314598
4006.535176,-9844.739029,740.205942,536.266849
4006.535506,-9622.677246,592.164754,-306.438199
4006.535836,-9844.739029,148.041188,-459.657299
4006.536166,-10066.800811,222.061783,0.000000
4006.536496,-9104.533087,518.144159,229.828649
4006.536826,-8956.491898,296.082377,-76.609550
4006.537156,-9400.615463,0.000000,0.000000
4006.537486,-9918.759623,592.164754,153.219100
4006.537816,-9548.656652,370.102971,0.000000
4006.538146,-9622.677246,444.123565,229.828649
4006.538475,-9918.759623,814.226536,1225.752797
4006.538805,-9844.739029,0.000000,1072.533697
4006.539135,-9696.697840,740.205942,76.609550
4006.539465,-9770.718434,370.102971,-689.485948
4006.539795,-9696.697840,370.102971,-612.876398
4006.540125,-9548.656652,518.144159,0.000000
4006.540455,-9474.636058,592.164754,612.876398
4006.540785,-9252.574275,592.164754,383.047749
4006.541115,-9400.615463,888.247130,0.000000
4006.541445,-9622.677246,1110.308913,383.047749
4006.541775,-10510.924376,740.205942,-459.657299
4006.542105,-10362.883188,1184.329507,-536.266849
4006.542435,-9696.697840,444.123565,-689.485948
4006.542764,-9622.677246,518.144159,0.000000
4006.543094,-9474.636058,74.020594,-153.219100
4006.543424,-9918.759623,222.061783,-459.657299
4006.543754,-9918.759623,0.000000,0.000000
4006.544084,-9696.697840,148.041188,689.485948
4006.544414,-9474.636058,222.061783,612.876398
4006.544744,-9844.739029,-148.041188,459.657299
4006.545073,-9770.718434,0.000000,0.000000
4006.545403,-9770.718434,-592.164754,-459.657299
4006.545733,-10066.800811,-444.123565,153.219100
4006.546063,-9844.739029,-370.102971,1455.581446
4006.546393,-9770.718434,-222.061783,919.314598
4006.546722,-9548.656652,-370.102971,306.438199
4006.547052,-10288.862594,-370.102971,306.438199
4006.547382,-10584.944971,-592.164754,1608.800546
4006.547712,-10288.862594,-148.041188,1072.533697
4006.548042,-9400.615463,-370.102971,612.876398
4006.548371,-9178.553681,-740.205942,0.000000
4006.548701,-9622.677246,-148.041188,-153.219100
4006.549031,-10288.862594,-518.144159,612.876398
4006.549361,-10510.924376,-370.102971,995.924147
4006.549691,-9844.739029,-592.164754,995.924147
4006.550020,-9474.636058,-666.185348,689.485948
4006.550350,-9326.594869,-814.226536,306.438199
4006.550680,-9178.553681,-518.144159,-459.657299
4006.551010,-9400.615463,-740.205942,-306.438199
4006.551340,-9548.656652,0.000000,383.047749
4006.551669,-10288.862594,-222.061783,1302.362347
4006.551999,-9548.656652,-370.102971,766.095498
4006.552329,-9770.718434,-148.041188,306.438199
4006.552659,-10140.821405,-370.102971,0.000000
4006.552989,-10807.006753,-518.144159,459.657299
4006.553318,-10362.883188,74.020594,536.266849
4006.553648,-9326.594869,-222.061783,76.609550
4006.553978,-8956.491898,-444.123565,-229.828649
4006.554308,-9252.574275,0.000000,-229.828649
4006.554638,-9918.759623,0.000000,-383.047749
4006.554967,-10140.821405,0.000000,-153.219100
4006.555297,-9770.718434,74.020594,229.828649
4006.555627,-9918.759623,-74.020594,766.095498
4006.555957,-9696.697840,-444.123565,995.924147
4006.556287,-9104.533087,-296.082377,0.000000
4006.556616,-9474.636058,-814.226536,-306.438199
4006.556946,-9326.594869,-222.061783,383.047749
4006.557276,-9844.739029,0.000000,766.095498
4006.557606,-9696.697840,74.020594,919.314598
4006.557936,-9400.615463,296.082377,76.609550
4006.558265,-10140.821405,148.041188,0.000000
4006.558595,-10436.903782,148.041188,459.657299
4006.558925,-10140.821405,0.000000,612.876398
4006.559255,-9178.553681,0.000000,-153.219100
4006.559585,-8882.471304,0.000000,-536.266849
4006.559914,-8956.491898,0.000000,919.314598
4006.560244,-9696.697840,74.020594,536.266849
4006.560574,-10288.862594,148.041188,1072.533697
4006.560904,-10288.862594,74.020594,1225.752797
4006.561234,-9992.780217,222.061783,2145.067394
4006.561563,-10066.800811,148.041188,1149.143247
4006.561893,-9474.636058,296.082377,0.000000
4006.562223,-9622.677246,148.041188,-536.266849
4006.562553,-10362.883188,666.185348,0.000000
4006.562883,-9844.739029,296.082377,612.876398
4006.563212,-9696.697840,592.164754,153.219100
4006.563542,-9548.656652,296.082377,-306.438199
4006.563872,-9918.759623,370.102971,-306.438199
4006.564202,-9992.780217,148.041188,76.609550
4006.564531,-9844.739029,0.000000,76.609550
4006.564861,-9400.615463,370.102971,153.219100
4006.565191,-9252.574275,74.020594,76.609550
4006.565521,-9178.553681,222.061783,-229.828649
4006.565851,-9918.759623,592.164754,0.000000
4006.566180,-10140.821405,444.123565,-153.219100
4006.566510,-10066.800811,444.123565,153.219100
4006.566840,-10140.821405,666.185348,689.485948
4006.567170,-9844.739029,0.000000,536.266849
4006.567500,-9326.594869,222.061783,-306.438199
4006.567829,-9178.553681,222.061783,-1149.143247
4006.568159,-9770.718434,370.102971,-459.657299
4006.568489,-10066.800811,518.144159,383.047749
4006.568819,-9992.780217,518.144159,612.876398
4006.569149,-9548.656652,444.123565,-459.657299
4006.569478,-9622.677246,592.164754,-306.438199
4006.569808,-10436.903782,666.185348,-536.266849
4006.570138,-11029.068536,296.082377,1072.533697
4006.570468,-10288.862594,518.144159,383.047749
4006.570798,-9548.656652,222.061783,0.000000
4006.571127,-9474.636058,592.164754,-153.219100
4006.571457,-10066.800811,0.000000,229.828649
4006.571787,-9622.677246,0.000000,229.828649
4006.572117,-9918.759623,148.041188,612.876398
4006.572447,-9622.677246,0.000000,1302.362347
4006.572776,-9770.718434,-518.144159,1149.143247
4006.573106,-9474.636058,-222.061783,536.266849
4006.573436,-9474.636058,-222.061783,0.000000
4006.573766,-9696.697840,-296.082377,0.000000
4006.574096,-9400.615463,0.000000,536.266849
4006.574425,-9844.739029,0.000000,1225.752797
4006.574755,-9622.677246,0.000000,459.657299
4006.575085,-9622.677246,0.000000,0.000000
4006.575415,-10140.821405,0.000000,153.219100
4006.575745,-10362.883188,-592.164754,536.266849
4006.576074,-9622.677246,0.000000,153.219100
4006.576404,-8734.430116,-666.185348,-536.266849
4006.576734,-8586.388927,-370.102971,-459.657299
4006.577064,-9474.636058,-296.082377,-229.828649
4006.577394,-9992.780217,0.000000,-306.438199
4006.577723,-9992.780217,-444.123565,0.000000
4006.578053,-9622.677246,-370.102971,919.314598
4006.578383,-9622.677246,-370.102971,1608.800546
4006.578713,-9548.656652,-740.205942,766.095498
4006.579043,-9326.594869,-518.144159,383.047749
4006.579372,-9474.636058,-222.061783,76.609550
4006.579702,-9992.780217,222.061783,995.924147
4006.580032,-10362.883188,148.041188,1149.143247
4006.580362,-9918.759623,0.000000,306.438199
4006.580692,-10066.800811,0.000000,-229.828649
4006.581021,-10288.862594,0.000000,766.095498
4006.581351,-11177.109724,-370.102971,612.876398
4006.581681,-10288.862594,0.000000,383.047749
4006.582011,-9030.512492,-444.123565,-383.047749
4006.582341,-8808.450710,-222.061783,-689.485948
4006.582670,-9622.677246,-518.144159,306.438199
4006.583000,-10288.862594,0.000000,153.219100
4006.583330,-10140.821405,-444.123565,383.047749
4006.583660,-9548.656652,-222.061783,1149.143247
4006.583990,-9844.739029,-518.144159,1225.752797
4006.584319,-9770.718434,-222.061783,536.266849
4006.584649,-9178.553681,-592.164754,0.000000
4006.584979,-9400.615463,-740.205942,0.000000
4006.585309,-9696.697840,148.041188,842.705048
4006.585639,-10214.842000,74.020594,842.705048
4006.585968,-9770.718434,444.123565,306.438199
4006.586298,-9770.718434,370.102971,0.000000
4006.586628,-10362.883188,444.123565,153.219100
4006.586958,-10584.944971,148.041188,612.876398
4006.587288,-10214.842000,592.164754,383.047749
4006.587617,-9030.512492,296.082377,-306.438199
4006.587947,-8956.491898,592.164754,-612.876398
4006.588277,-8808.450710,666.185348,-459.657299
4006.588607,-9992.780217,666.185348,-842.705048
4006.588937,-10436.903782,666.185348,-612.876398
4006.589266,-10140.821405,888.247130,229.828649
4006.589596,-10066.800811,1036.288319,1149.143247
4006.589926,-9548.656652,370.102971,766.095498
4006.590256,-9400.615463,888.247130,-306.438199
4006.590586,-9622.677246,370.102971,-919.314598
4006.590915,-9844.739029,888.247130,76.609550
4006.591245,-10362.883188,1258.350101,459.657299
4006.591575,-10214.842000,1184.329507,459.657299
4006.591905,-10140.821405,962.267725,0.000000
4006.592235,-10214.842000,740.205942,153.219100
4006.592564,-10436.903782,1036.288319,689.485948
4006.592894,-10436.903782,370.102971,766.095498
4006.593224,-9844.739029,370.102971,76.609550
4006.593554,-9104.533087,444.123565,0.000000
4006.593884,-8956.491898,370.102971,459.657299
4006.594213,-9696.697840,296.082377,459.657299
4006.594543,-9844.739029,0.000000,229.828649
4006.594873,-9400.615463,296.082377,919.314598
4006.595203,-9400.615463,296.082377,1455.581446
4006.595533,-9548.656652,0.000000,1225.752797
4006.595862,-9548.656652,74.020594,-612.876398
4006.596192,-9400.615463,-518.144159,-689.485948
4006.596522,-9474.636058,-370.102971,-383.047749
4006.596852,-9918.759623,222.061783,459.657299
4006.597182,-9696.697840,222.061783,0.000000
4006.597511,-9326.594869,0.000000,-536.266849
4006.597841,-9474.636058,222.061783,-76.609550
4006.598171,-10288.862594,-444.123565,919.314598
4006.598501,-10584.944971,74.020594,459.657299
4006.598831,-9696.697840,0.000000,153.219100
4006.599160,-9252.574275,0.000000,-306.438199
4006.599490,-9400.615463,-296.082377,-459.657299
4006.599820,-10436.903782,-222.061783,-459.657299
4006.600150,-10140.821405,-518.144159,0.000000
4006.600480,-9918.759623,-296.082377,229.828649
4006.600809,-10140.821405,0.000000,1302.362347
4006.601139,-10066.800811,-444.123565,1072.533697
4006.601469,-9770.718434,-222.061783,153.219100
4006.601799,-9844.739029,-592.164754,-153.219100
4006.602129,-10288.862594,-444.123565,229.828649
4006.602458,-10140.821405,-370.102971,919.314598
4006.602788,-10214.842000,-666.185348,919.314598
4006.603118,-9770.718434,-592.164754,459.657299
4006.603448,-9474.636058,-666.185348,766.095498
4006.603778,-10214.842000,-888.247130,1378.971896
4006.604107,-10510.924376,-666.185348,1532.190996
4006.604437,-9548.656652,-740.205942,919.314598
4006.604767,-8808.450710,-518.144159,229.828649
4006.605097,-9252.574275,-592.164754,0.000000
4006.605427,-9696.697840,-370.102971,229.828649
4006.605756,-9548.656652,-518.144159,689.485948
4006.606086,-9548.656652,-518.144159,612.876398
4006.606416,-9696.697840,222.061783,919.314598
4006.606746,-9474.636058,-148.041188,766.095498
4006.607076,-9548.656652,0.000000,0.000000
4006.607405,-9918.759623,0.000000,-612.876398
4006.607735,-10140.821405,0.000000,-153.219100
4006.608065,-9918.759623,0.000000,459.657299
4006.608395,-9400.615463,370.102971,229.828649
4006.608725,-9104.533087,148.041188,-459.657299
4006.609054,-9252.574275,296.082377,-306.438199
4006.609384,-10436.903782,888.247130,612.876398
4006.609714,-10807.006753,666.185348,919.314598
4006.610044,-10140.821405,592.164754,76.609550
4006.610374,-9326.594869,0.000000,-383.047749
4006.610703,-9326.594869,0.000000,-612.876398
4006.611033,-9770.718434,74.020594,0.000000
4006.611363,-9770.718434,740.205942,-153.219100
4006.611693,-9400.615463,370.102971,383.047749
4006.612023,-9770.718434,814.226536,919.314598
4006.612352,-10288.862594,814.226536,1378.971896
4006.612682,-10288.862594,814.226536,0.000000
4006.613012,-10066.800811,444.123565,-766.095498
4006.613342,-10214.842000,444.123565,-612.876398
4006.613672,-9844.739029,592.164754,1378.971896
4006.614001,-9178.553681,296.082377,1149.143247
4006.614331,-9178.553681,370.102971,612.876398
4006.614661,-9474.636058,222.061783,459.657299
4006.614991,-10658.965565,444.123565,612.876398
4006.615321,-11177.109724,444.123565,995.924147
4006.615650,-10140.821405,666.185348,612.876398
4006.615980,-9474.636058,222.061783,383.047749
4006.616310,-9326.594869,148.041188,0.000000
4006.616640,-10140.821405,0.000000,0.000000
4006.616970,-9400.615463,0.000000,-383.047749
4006.617299,-9474.636058,0.000000,-306.438199
4006.617629,-9178.553681,518.144159,766.095498
4006.617959,-9696.697840,222.061783,1991.848295
4006.618289,-9992.780217,370.102971,306.438199
4006.618619,-9696.697840,-74.020594,-689.485948
4006.618948,-9992.780217,-296.082377,-689.485948
4006.619278,-9992.780217,0.000000,0.000000
4006.619608,-9548.656652,222.061783,306.438199
4006.619938,-9252.574275,222.061783,0.000000
4006.620268,-9622.677246,222.061783,-306.438199
4006.620597,-10436.903782,296.082377,229.828649
4006.620927,-10955.047942,0.000000,383.047749
4006.621257,-10436.903782,0.000000,306.438199
4006.621587,-9548.656652,-296.082377,-229.828649
4006.621917,-9474.636058,-222.061783,-612.876398
4006.622246,-9548.656652,-370.102971,0.000000
4006.622576,-9696.697840,-296.082377,-229.828649
4006.622906,-9992.780217,-74.020594,0.000000
4006.623236,-9770.718434,74.020594,766.095498
4006.623566,-10214.842000,0.000000,1532.190996
4006.623895,-10436.903782,-74.020594,1608.800546
4006.624225,-9844.739029,-148.041188,76.609550
4006.624555,-9918.759623,-518.144159,-383.047749
4006.624885,-9770.718434,-370.102971,383.047749
4006.625215,-9474.636058,-444.123565,1225.752797
4006.625544,-9326.594869,-296.082377,766.095498
4006.625874,-9400.615463,-148.041188,536.266849
4006.626204,-9992.780217,-148.041188,842.705048
4006.626534,-10214.842000,-1110.308913,1149.143247
4006.626864,-10436.903782,0.000000,995.924147
4006.627193,-9548.656652,-592.164754,76.609550
4006.627523,-8734.430116,-740.205942,-689.485948
4006.627853,-9178.553681,-370.102971,-153.219100
4006.628183,-9696.697840,-222.061783,536.266849
4006.628513,-9622.677246,0.000000,459.657299
4006.628842,-9474.636058,0.000000,1072.533697
4006.629172,-9770.718434,0.000000,1532.190996
4006.629502,-9918.759623,0.000000,536.266849
4006.629832,-9548.656652,-296.082377,-383.047749
4006.630162,-9474.636058,-370.102971,-919.314598
4006.630491,-9548.656652,0.000000,-383.047749
4006.630821,-9770.718434,222.061783,766.095498
4006.631151,-9992.780217,222.061783,76.609550
4006.631481,-9474.636058,74.020594,0.000000
4006.631811,-9770.718434,148.041188,153.219100
4006.632140,-10288.862594,0.000000,1225.752797
4006.632470,-9918.759623,0.000000,766.095498
4006.632800,-9474.636058,222.061783,0.000000
4006.633130,-9104.533087,296.082377,-689.485948
4006.633460,-9696.697840,74.020594,-383.047749
4006.633789,-10140.821405,296.082377,229.828649
4006.634119,-10066.800811,222.061783,76.609550
4006.634449,-9992.780217,0.000000,766.095498
4006.634779,-10214.842000,0.000000,1225.752797
4006.635109,-9770.718434,-296.082377,995.924147
4006.635438,-9622.677246,-148.041188,-612.876398
4006.635768,-9104.533087,-370.102971,-1072.533697
4006.636098,-9474.636058,0.000000,0.000000
4006.636428,-9474.636058,222.061783,383.047749
4006.636758,-9474.636058,444.123565,536.266849
4006.637087,-9474.636058,148.041188,-383.047749
4006.637417,-9992.780217,444.123565,-383.047749
4006.637747,-10436.903782,444.123565,536.266849
4006.638077,-10510.924376,296.082377,766.095498
4006.638407,-9474.636058,222.061783,229.828649
4006.638736,-9030.512492,-222.061783,-459.657299
4006.639066,-9474.636058,74.020594,0.000000
4006.639396,-9696.697840,222.061783,-306.438199
4006.639726,-10214.842000,444.123565,76.609550
4006.640056,-10214.842000,888.247130,536.266849
4006.640385,-9992.780217,740.205942,1149.143247
4006.640715,-9770.718434,296.082377,153.219100
4006.641045,-9400.615463,370.102971,-766.095498
4006.641375,-9622.677246,0.000000,-919.314598
4006.641705,-9992.780217,222.061783,-306.438199
4006.642034,-9770.718434,370.102971,919.314598
4006.642364,-9178.553681,666.185348,766.095498
4006.642694,-9326.594869,370.102971,306.438199
4006.643024,-10066.800811,814.226536,0.000000
4006.643354,-10658.965565,518.144159,76.609550
4006.643683,-10955.047942,814.226536,459.657299
4006.644013,-9918.759623,666.185348,229.828649
4006.644343,-9474.636058,296.082377,-459.657299
4006.644673,-9252.574275,444.123565,-612.876398
4006.645003,-9104.533087,0.000000,-383.047749
4006.645332,-9548.656652,0.000000,-229.828649
4006.645662,-9548.656652,0.000000,689.485948
4006.645992,-9844.739029,296.082377,1762.019645
4006.646322,-9252.574275,0.000000,2068.457845
4006.646651,-9252.574275,0.000000,306.438199
4006.646981,-9548.656652,-148.041188,-689.485948
4006.647311,-9770.718434,0.000000,-306.438199
4006.647640,-9918.759623,-74.020594,459.657299
4006.647970,-9548.656652,0.000000,919.314598
4006.648300,-9474.636058,0.000000,76.609550
4006.648629,-9548.656652,222.061783,229.828649
4006.648959,-10362.883188,222.061783,76.609550
4006.649289,-10732.986159,518.144159,383.047749
4006.649619,-10140.821405,222.061783,-306.438199
4006.649948,-9252.574275,-444.123565,-612.876398
4006.650278,-9326.594869,-148.041188,-229.828649
4006.650608,-9770.718434,-222.061783,229.828649
4006.650937,-9918.759623,-148.041188,689.485948
4006.651267,-9992.780217,-296.082377,383.047749
4006.651597,-9844.739029,-296.082377,612.876398
4006.651926,-9918.759623,-370.102971,919.314598
4006.652256,-9844.739029,0.000000,0.000000
4006.652586,-9844.739029,0.000000,-306.438199
4006.652916,-9844.739029,-296.082377,-612.876398
4006.653245,-10140.821405,0.000000,153.219100
4006.653575,-10288.862594,148.041188,612.876398
4006.653905,-9844.739029,-148.041188,153.219100
4006.654234,-9474.636058,-592.164754,0.000000
4006.654564,-9622.677246,-296.082377,689.485948
4006.654894,-10510.924376,-148.041188,1455.581446
