#time,accel_x,accel_y,accel_z
4231.266357,-9696.697840,0.000000,459.657299
4231.266687,-9844.739029,0.000000,153.219100
4231.267017,-9770.718434,0.000000,-76.609550
4231.267347,-9770.718434,0.000000,229.828649
4231.267677,-9770.718434,222.061783,0.000000
4231.268007,-9474.636058,74.020594,76.609550
4231.268337,-9770.718434,74.020594,76.609550
4231.268666,-10140.821405,222.061783,0.000000
4231.268996,-9918.759623,0.000000,153.219100
4231.269326,-9918.759623,74.020594,76.609550
4231.269656,-9770.718434,148.041188,383.047749
4231.269986,-9548.656652,0.000000,-229.828649
4231.270316,-9844.739029,148.041188,76.609550
4231.270646,-9992.780217,0.000000,383.047749
4231.270976,-9548.656652,0.000000,229.828649
4231.271306,-9548.656652,-74.020594,536.266849
4231.271636,-9770.718434,-74.020594,383.047749
4231.271966,-9474.636058,-444.123565,459.657299
4231.272296,-9622.677246,-444.123565,306.438199
4231.272626,-9622.677246,74.020594,229.828649
4231.272956,-9844.739029,0.000000,612.876398
4231.273286,-9918.759623,370.102971,229.828649
4231.273616,-9918.759623,0.000000,612.876398
4231.273946,-9844.739029,-74.020594,995.924147
4231.274276,-9474.636058,-740.205942,1608.800546
4231.274606,-9918.759623,-296.082377,1762.019645
4231.274936,-9844.739029,-814.226536,2298.286494
4231.275266,-10066.800811,-444.123565,1302.362347
4231.275596,-9918.759623,-148.041188,0.000000
4231.275926,-9474.636058,-592.164754,0.000000
4231.276256,-9696.697840,-74.020594,0.000000
4231.276586,-9622.677246,-518.144159,766.095498
4231.276916,-10066.800811,-222.061783,1838.629195
4231.277246,-9622.677246,-370.102971,2068.457845
4231.277576,-9326.594869,-740.205942,1915.238745
4231.277906,-9696.697840,-1110.308913,2145.067394
4231.278236,-10140.821405,-1036.288319,1838.629195
4231.278566,-9918.759623,-1554.432478,2298.286494
4231.278896,-9844.739029,-1480.411884,2757.943793
4231.279226,-10066.800811,-1406.391290,3217.601092
4231.279556,-9992.780217,-1258.350101,3524.039291
4231.279886,-9770.718434,-1184.329507,3064.381992
4231.280216,-10066.800811,-814.226536,2451.505594
4231.280546,-10214.842000,-814.226536,1608.800546
4231.280876,-10214.842000,-962.267725,1608.800546
4231.281206,-10140.821405,-1258.350101,1608.800546
4231.281536,-9918.759623,-1924.535449,2528.115143
4231.281866,-10362.883188,-2442.679609,2451.505594
4231.282196,-9918.759623,-3256.906145,2451.505594
4231.282526,-8956.491898,-3701.029710,2374.896044
4231.282856,-8512.368333,-3923.091493,2681.334243
4231.283186,-8290.306550,-3552.988522,3140.991542
4231.283516,-8586.388927,-3034.844362,3983.696590
4231.283846,-9474.636058,-3108.864956,3983.696590
4231.284176,-10362.883188,-3108.864956,3830.477490
4231.284506,-10955.047942,-2960.823768,3447.429741
4231.284836,-11103.089130,-2738.761985,2451.505594
4231.285166,-10658.965565,-2960.823768,1532.190996
4231.285496,-9770.718434,-2738.761985,76.609550
4231.285826,-9178.553681,-2960.823768,919.314598
4231.286156,-8956.491898,-2738.761985,1455.581446
4231.286486,-8956.491898,-3108.864956,1532.190996
4231.286816,-8660.409521,-3330.926739,2451.505594
4231.287146,-9770.718434,-3552.988522,3294.210641
4231.287476,-9622.677246,-4145.153275,3217.601092
4231.287806,-9918.759623,-4441.235652,3140.991542
4231.288136,-9918.759623,-4515.256246,3370.820191
4231.288466,-9992.780217,-4145.153275,4519.963438
4231.288796,-10362.883188,-2664.741391,4443.353888
4231.289126,-11029.068536,-2072.576638,3217.601092
4231.289456,-10955.047942,-1776.494261,1608.800546
4231.289785,-10140.821405,-2072.576638,229.828649
4231.290115,-10140.821405,-2368.659014,1455.581446
4231.290445,-10288.862594,-2886.803174,3064.381992
4231.290775,-9548.656652,-3034.844362,3217.601092
4231.291105,-8882.471304,-3182.885551,1608.800546
4231.291435,-8734.430116,-3256.906145,919.314598
4231.291765,-8808.450710,-2812.782580,995.924147
4231.292095,-10436.903782,-2294.638420,3294.210641
4231.292425,-11325.150913,-1332.370696,4366.744339
4231.292755,-10288.862594,-1258.350101,3677.258390
4231.293085,-9696.697840,-1776.494261,2145.067394
4231.293415,-9548.656652,-1924.535449,1991.848295
4231.293745,-9844.739029,-2220.617826,2298.286494
4231.294075,-9696.697840,-2146.597232,2451.505594
4231.294405,-9770.718434,-1776.494261,2757.943793
4231.294735,-9400.615463,-1480.411884,2757.943793
4231.295065,-9474.636058,-1480.411884,2145.067394
4231.295395,-9992.780217,-1258.350101,1608.800546
4231.295725,-9918.759623,-1406.391290,1378.971896
4231.296055,-9548.656652,-1036.288319,1455.581446
4231.296385,-9104.533087,-814.226536,2451.505594
4231.296715,-8882.471304,-1258.350101,3217.601092
4231.297045,-9474.636058,-962.267725,2834.553343
4231.297375,-10436.903782,-1258.350101,1685.410096
4231.297705,-9844.739029,-1110.308913,766.095498
4231.298035,-10288.862594,-962.267725,1685.410096
4231.298365,-9844.739029,-888.247130,2145.067394
4231.298695,-9548.656652,-1110.308913,2911.162892
4231.299025,-9474.636058,-888.247130,3140.991542
4231.299355,-10214.842000,-888.247130,1762.019645
4231.299685,-9844.739029,-814.226536,0.000000
4231.300015,-9474.636058,-1036.288319,612.876398
4231.300345,-9474.636058,-666.185348,1608.800546
4231.300675,-9844.739029,-1184.329507,2604.724693
4231.301005,-9474.636058,-962.267725,2681.334243
4231.301335,-9548.656652,-1332.370696,2451.505594
4231.301665,-10140.821405,-1480.411884,1838.629195
4231.301995,-10214.842000,-1406.391290,1225.752797
4231.302325,-10140.821405,-1554.432478,1378.971896
4231.302655,-9918.759623,-1184.329507,2451.505594
4231.302985,-10658.965565,-1480.411884,3753.867940
4231.303315,-10288.862594,-1924.535449,3140.991542
4231.303645,-9918.759623,-1702.473667,2221.676944
4231.303975,-8660.409521,-1554.432478,1149.143247
4231.304305,-8808.450710,-2294.638420,1302.362347
4231.304635,-10288.862594,-1332.370696,2987.772442
4231.304965,-10362.883188,-1998.556043,3064.381992
4231.305295,-9548.656652,-2146.597232,2604.724693
4231.305625,-9178.553681,-2442.679609,2068.457845
4231.305955,-9844.739029,-2960.823768,2145.067394
4231.306285,-10584.944971,-2886.803174,3140.991542
4231.306615,-9326.594869,-3182.885551,3524.039291
4231.306945,-8882.471304,-3108.864956,3370.820191
4231.307275,-9252.574275,-3034.844362,3677.258390
4231.307605,-9474.636058,-2886.803174,3524.039291
4231.307935,-10881.027347,-2442.679609,2911.162892
4231.308265,-10658.965565,-2294.638420,1915.238745
4231.308595,-10436.903782,-2368.659014,1838.629195
4231.308925,-9770.718434,-2590.720797,2145.067394
4231.309255,-9474.636058,-2960.823768,2451.505594
4231.309585,-9770.718434,-2516.700203,3600.648841
4231.309915,-9992.780217,-3330.926739,2911.162892
4231.310245,-9992.780217,-3034.844362,1838.629195
4231.310574,-9844.739029,-3404.947333,3064.381992
4231.310904,-10436.903782,-3552.988522,3753.867940
4231.311234,-10066.800811,-2886.803174,4136.915689
4231.311564,-9622.677246,-2590.720797,3524.039291
4231.311894,-9622.677246,-2960.823768,2451.505594
4231.312224,-10288.862594,-2442.679609,1915.238745
4231.312554,-10436.903782,-1998.556043,2451.505594
4231.312884,-11103.089130,-2664.741391,2911.162892
4231.313214,-10288.862594,-2368.659014,3524.039291
4231.313544,-10066.800811,-2960.823768,2528.115143
4231.313874,-9474.636058,-2590.720797,1991.848295
4231.314204,-9030.512492,-3182.885551,1838.629195
4231.314534,-9400.615463,-2664.741391,1838.629195
4231.314864,-9178.553681,-2960.823768,2451.505594
4231.315194,-9178.553681,-2146.597232,2757.943793
4231.315524,-10066.800811,-2146.597232,3140.991542
4231.315854,-10362.883188,-1998.556043,2681.334243
4231.316184,-10584.944971,-1998.556043,2068.457845
4231.316514,-10214.842000,-2368.659014,2374.896044
4231.316844,-9844.739029,-1332.370696,2068.457845
4231.317174,-9770.718434,-2072.576638,2757.943793
4231.317504,-9844.739029,-1628.453072,2757.943793
4231.317834,-9696.697840,-1702.473667,2604.724693
4231.318164,-9178.553681,-1184.329507,1149.143247
4231.318494,-9326.594869,-2072.576638,995.924147
4231.318824,-9622.677246,-1332.370696,1378.971896
4231.319154,-9474.636058,-1554.432478,2374.896044
4231.319484,-9400.615463,-1110.308913,1915.238745
4231.319814,-8956.491898,-1850.514855,2221.676944
4231.320144,-9178.553681,-1406.391290,2221.676944
4231.320474,-10658.965565,-1110.308913,2298.286494
4231.320804,-10436.903782,-1184.329507,2451.505594
4231.321134,-9918.759623,-1332.370696,1838.629195
4231.321464,-9696.697840,-1406.391290,2068.457845
4231.321793,-9474.636058,-1110.308913,2451.505594
4231.322123,-9622.677246,-1628.453072,1991.848295
4231.322452,-9844.739029,-1184.329507,2374.896044
4231.322782,-9770.718434,-1702.473667,1608.800546
4231.323111,-9474.636058,-1258.350101,1915.238745
4231.323441,-9770.718434,-1332.370696,1991.848295
4231.323770,-10066.800811,-962.267725,2221.676944
4231.324100,-9844.739029,-1406.391290,1685.410096
4231.324430,-9992.780217,-1110.308913,1455.581446
4231.324759,-9400.615463,-1480.411884,1838.629195
4231.325089,-9770.718434,-1332.370696,2145.067394
4231.325418,-10140.821405,-1480.411884,2298.286494
4231.325748,-10214.842000,-1998.556043,2145.067394
4231.326077,-9770.718434,-1776.494261,2528.115143
4231.326407,-9622.677246,-1924.535449,2757.943793
4231.326736,-10436.903782,-1184.329507,2987.772442
4231.327066,-10807.006753,-1110.308913,1991.848295
4231.327396,-9992.780217,-1924.535449,1149.143247
4231.327725,-9400.615463,-2146.597232,1455.581446
4231.328055,-9474.636058,-1850.514855,2221.676944
4231.328384,-9918.759623,-1702.473667,2911.162892
4231.328714,-10140.821405,-1850.514855,2528.115143
4231.329043,-9844.739029,-1850.514855,2145.067394
4231.329373,-9696.697840,-2220.617826,2451.505594
4231.329702,-10362.883188,-1554.432478,2221.676944
4231.330032,-9696.697840,-2368.659014,2834.553343
4231.330361,-9178.553681,-2368.659014,3217.601092
4231.330691,-9104.533087,-1702.473667,2911.162892
4231.331021,-9400.615463,-2072.576638,2451.505594
4231.331350,-10658.965565,-1702.473667,1378.971896
4231.331680,-9770.718434,-1776.494261,1072.533697
4231.332009,-9992.780217,-1480.411884,2221.676944
4231.332339,-9918.759623,-1924.535449,2451.505594
4231.332668,-9400.615463,-1702.473667,3064.381992
4231.332998,-10066.800811,-1850.514855,3064.381992
4231.333327,-10881.027347,-1924.535449,1685.410096
4231.333657,-10658.965565,-2368.659014,1378.971896
4231.333987,-9400.615463,-2368.659014,1685.410096
4231.334316,-8216.285956,-2220.617826,1455.581446
4231.334646,-8586.388927,-1776.494261,2681.334243
4231.334975,-10288.862594,-1184.329507,2528.115143
4231.335305,-10658.965565,-1998.556043,1225.752797
4231.335634,-9696.697840,-1850.514855,1149.143247
4231.335964,-9844.739029,-1702.473667,1685.410096
4231.336293,-10140.821405,-1998.556043,2987.772442
4231.336623,-9918.759623,-2442.679609,3830.477490
4231.336953,-9474.636058,-2590.720797,3370.820191
4231.337282,-9918.759623,-2664.741391,2834.553343
4231.337612,-10066.800811,-2738.761985,2374.896044
4231.337941,-10362.883188,-2072.576638,2757.943793
4231.338271,-9844.739029,-1554.432478,2374.896044
4231.338600,-8956.491898,-1110.308913,1225.752797
4231.338930,-9326.594869,-1110.308913,153.219100
4231.339259,-10584.944971,-1258.350101,1149.143247
4231.339589,-10732.986159,-1924.535449,1685.410096
4231.339919,-9844.739029,-1998.556043,3064.381992
4231.340248,-9474.636058,-2664.741391,1685.410096
4231.340578,-9178.553681,-2146.597232,766.095498
4231.340907,-8734.430116,-2220.617826,229.828649
4231.341237,-9474.636058,-2146.597232,612.876398
4231.341566,-10362.883188,-1480.411884,1302.362347
4231.341896,-10510.924376,-888.247130,2604.724693
4231.342225,-10140.821405,-1406.391290,2451.505594
4231.342555,-9252.574275,-1332.370696,2298.286494
4231.342885,-9548.656652,-1702.473667,2145.067394
4231.343214,-10436.903782,-962.267725,1532.190996
4231.343544,-10214.842000,-962.267725,0.000000
4231.343873,-9548.656652,-1110.308913,-383.047749
4231.344203,-9918.759623,-1258.350101,-153.219100
4231.344532,-10140.821405,-222.061783,-306.438199
4231.344862,-10214.842000,-592.164754,-1302.362347
4231.345191,-9474.636058,0.000000,-1915.238745
4231.345521,-8734.430116,-518.144159,-1532.190996
4231.345850,-8660.409521,-1184.329507,229.828649
4231.346180,-8734.430116,-740.205942,995.924147
4231.346510,-9696.697840,0.000000,3370.820191
4231.346839,-10066.800811,0.000000,2298.286494
4231.347169,-11103.089130,-222.061783,0.000000
4231.347498,-11029.068536,74.020594,-306.438199
4231.347828,-11103.089130,0.000000,0.000000
4231.348157,-9918.759623,74.020594,153.219100
4231.348487,-9104.533087,74.020594,1532.190996
4231.348816,-9474.636058,740.205942,1225.752797
4231.349146,-8438.347739,666.185348,0.000000
4231.349476,-9030.512492,1110.308913,-2451.505594
4231.349805,-9030.512492,814.226536,-3600.648841
4231.350135,-10288.862594,814.226536,-2451.505594
4231.350464,-9992.780217,1480.411884,-842.705048
4231.350794,-10807.006753,1480.411884,-459.657299
4231.351123,-10955.047942,2146.597232,-383.047749
4231.351453,-10140.821405,1036.288319,-842.705048
4231.351782,-10288.862594,1406.391290,-1608.800546
4231.352112,-9400.615463,666.185348,0.000000
4231.352442,-9030.512492,962.267725,1915.238745
4231.352771,-8290.306550,444.123565,3064.381992
4231.353101,-8882.471304,962.267725,919.314598
4231.353430,-10436.903782,1184.329507,0.000000
4231.353760,-11177.109724,740.205942,-536.266849
4231.354089,-10510.924376,1480.411884,-689.485948
4231.354419,-9030.512492,1036.288319,-842.705048
4231.354748,-8586.388927,1924.535449,-689.485948
4231.355078,-9770.718434,592.164754,919.314598
4231.355408,-10436.903782,1998.556043,76.609550
4231.355737,-9844.739029,666.185348,-612.876398
4231.356067,-10140.821405,1406.391290,-2298.286494
4231.356396,-8216.285956,592.164754,-1762.019645
4231.356726,-8586.388927,666.185348,383.047749
4231.357055,-9326.594869,1036.288319,1378.971896
4231.357385,-10362.883188,296.082377,689.485948
4231.357714,-10288.862594,1258.350101,0.000000
4231.358044,-10214.842000,814.226536,-612.876398
4231.358374,-11251.130318,1036.288319,-842.705048
4231.358703,-9918.759623,666.185348,842.705048
4231.359033,-10140.821405,888.247130,1072.533697
4231.359362,-10140.821405,740.205942,1149.143247
4231.359692,-9474.636058,-1776.494261,-1455.581446
4231.360021,-8734.430116,1110.308913,459.657299
4231.360351,-8808.450710,74.020594,1302.362347
4231.360680,-10214.842000,592.164754,766.095498
4231.361010,-9770.718434,-962.267725,842.705048
4231.361339,-9548.656652,296.082377,1225.752797
4231.361669,-9474.636058,-370.102971,766.095498
4231.361999,-11251.130318,148.041188,1455.581446
4231.362328,-11917.315666,-1036.288319,1149.143247
4231.362658,-9178.553681,-666.185348,0.000000
4231.362987,-8216.285956,-296.082377,766.095498
4231.363317,-10362.883188,74.020594,689.485948
4231.363646,-10955.047942,-296.082377,383.047749
4231.363976,-9696.697840,-222.061783,0.000000
4231.364305,-8438.347739,-814.226536,-689.485948
4231.364635,-9474.636058,-888.247130,0.000000
4231.364965,-11103.089130,-518.144159,383.047749
4231.365294,-10214.842000,-1480.411884,1532.190996
4231.365624,-9252.574275,-1406.391290,612.876398
4231.365953,-9400.615463,-1702.473667,766.095498
4231.366283,-9622.677246,-1628.453072,612.876398
4231.366612,-10066.800811,-1702.473667,153.219100
4231.366942,-8068.244768,-888.247130,306.438199
4231.367271,-8956.491898,-592.164754,1455.581446
4231.367601,-9696.697840,74.020594,1532.190996
4231.367931,-11177.109724,-1036.288319,1685.410096
4231.368260,-11843.295072,-592.164754,612.876398
4231.368590,-11177.109724,-444.123565,766.095498
4231.368919,-9548.656652,-1924.535449,-153.219100
4231.369249,-8512.368333,-1554.432478,229.828649
4231.369578,-8734.430116,-1036.288319,306.438199
4231.369908,-9326.594869,-444.123565,306.438199
4231.370237,-9326.594869,0.000000,-1072.533697
4231.370567,-8882.471304,666.185348,-2374.896044
4231.370897,-9474.636058,814.226536,-536.266849
4231.371226,-11103.089130,888.247130,842.705048
4231.371556,-11177.109724,444.123565,1608.800546
4231.371885,-9918.759623,518.144159,76.609550
4231.372215,-9030.512492,-518.144159,-2068.457845
4231.372544,-9548.656652,-592.164754,-2451.505594
4231.372874,-9474.636058,-444.123565,-153.219100
4231.373203,-8068.244768,74.020594,842.705048
4231.373533,-8216.285956,962.267725,995.924147
4231.373863,-9622.677246,1184.329507,842.705048
4231.374192,-11991.336260,1110.308913,153.219100
4231.374522,-11325.150913,592.164754,76.609550
4231.374851,-9844.739029,962.267725,536.266849
4231.375181,-10140.821405,666.185348,689.485948
4231.375510,-9548.656652,518.144159,1149.143247
4231.375840,-9696.697840,444.123565,-612.876398
4231.376169,-8882.471304,962.267725,-1072.533697
4231.376499,-9844.739029,962.267725,-842.705048
4231.376828,-10732.986159,1036.288319,76.609550
4231.377158,-10288.862594,740.205942,1378.971896
4231.377488,-9252.574275,814.226536,1608.800546
4231.377817,-8660.409521,592.164754,536.266849
4231.378147,-9844.739029,592.164754,-612.876398
4231.378476,-10658.965565,0.000000,-1302.362347
4231.378806,-10214.842000,888.247130,153.219100
4231.379135,-9178.553681,1036.288319,536.266849
4231.379465,-9770.718434,1258.350101,-76.609550
4231.379794,-9622.677246,666.185348,-1225.752797
4231.380124,-10436.903782,814.226536,-536.266849
4231.380454,-9622.677246,222.061783,229.828649
4231.380783,-8808.450710,0.000000,229.828649
4231.381113,-8438.347739,222.061783,612.876398
4231.381442,-8956.491898,222.061783,919.314598
4231.381772,-9400.615463,-222.061783,995.924147
4231.382101,-11029.068536,666.185348,612.876398
4231.382431,-11251.130318,518.144159,0.000000
4231.382760,-11103.089130,222.061783,459.657299
4231.383090,-9104.533087,444.123565,306.438199
4231.383420,-8882.471304,1036.288319,612.876398
4231.383749,-9474.636058,1036.288319,-1072.533697
4231.384079,-9770.718434,814.226536,-2757.943793
4231.384408,-10658.965565,888.247130,-2221.676944
4231.384738,-9992.780217,740.205942,-689.485948
4231.385067,-9770.718434,296.082377,-76.609550
4231.385397,-9992.780217,962.267725,229.828649
4231.385726,-9696.697840,0.000000,-842.705048
4231.386056,-10214.842000,74.020594,-612.876398
4231.386386,-10362.883188,0.000000,0.000000
4231.386715,-10436.903782,0.000000,995.924147
4231.387045,-10214.842000,518.144159,1838.629195
4231.387374,-10658.965565,222.061783,1149.143247
4231.387704,-10214.842000,-74.020594,-536.266849
4231.388033,-9104.533087,-740.205942,-995.924147
4231.388363,-9252.574275,-518.144159,-383.047749
4231.388692,-10140.821405,-666.185348,1225.752797
4231.389022,-8956.491898,-296.082377,2451.505594
4231.389352,-8586.388927,-814.226536,2145.067394
4231.389681,-9030.512492,-666.185348,2068.457845
4231.390011,-9992.780217,-962.267725,689.485948
4231.390340,-10881.027347,-1036.288319,0.000000
4231.390670,-10658.965565,-814.226536,1378.971896
4231.390999,-9178.553681,-1332.370696,1378.971896
4231.391329,-8142.265362,-1406.391290,1532.190996
4231.391658,-8364.327145,-666.185348,1072.533697
4231.391988,-9992.780217,-1184.329507,1455.581446
4231.392317,-10658.965565,-148.041188,1302.362347
4231.392647,-10955.047942,-74.020594,1149.143247
4231.392977,-10140.821405,-444.123565,153.219100
4231.393306,-8364.327145,-1332.370696,-459.657299
4231.393636,-9252.574275,-740.205942,-383.047749
4231.393965,-9622.677246,-1258.350101,-536.266849
4231.394295,-9104.533087,-666.185348,-459.657299
4231.394624,-8512.368333,-888.247130,0.000000
4231.394954,-9178.553681,-740.205942,-306.438199
4231.395283,-10436.903782,74.020594,459.657299
4231.395613,-11177.109724,-296.082377,1838.629195
4231.395943,-11769.274478,-444.123565,2068.457845
4231.396272,-9844.739029,-1332.370696,1149.143247
4231.396602,-9178.553681,-962.267725,1072.533697
4231.396931,-9104.533087,-518.144159,459.657299
4231.397261,-9992.780217,0.000000,153.219100
4231.397590,-10288.862594,296.082377,153.219100
4231.397920,-10362.883188,740.205942,-459.657299
4231.398249,-10288.862594,518.144159,-1225.752797
4231.398579,-10140.821405,370.102971,-2145.067394
4231.398909,-9696.697840,666.185348,-1378.971896
4231.399238,-9918.759623,518.144159,-459.657299
4231.399568,-9326.594869,0.000000,-612.876398
4231.399897,-9622.677246,-666.185348,-766.095498
4231.400227,-9918.759623,666.185348,612.876398
4231.400556,-10214.842000,74.020594,612.876398
4231.400886,-9918.759623,148.041188,229.828649
4231.401215,-9326.594869,-444.123565,153.219100
4231.401545,-9400.615463,518.144159,459.657299
4231.401875,-9548.656652,962.267725,306.438199
4231.402204,-9474.636058,444.123565,-1149.143247
4231.402534,-9104.533087,518.144159,-612.876398
4231.402863,-9474.636058,518.144159,229.828649
4231.403193,-10436.903782,962.267725,1302.362347
4231.403522,-10362.883188,370.102971,842.705048
4231.403852,-10288.862594,888.247130,229.828649
4231.404181,-9474.636058,296.082377,306.438199
4231.404511,-8956.491898,222.061783,842.705048
4231.404841,-9918.759623,518.144159,1455.581446
4231.405170,-9770.718434,962.267725,1225.752797
4231.405500,-9178.553681,666.185348,76.609550
4231.405829,-8660.409521,888.247130,-536.266849
4231.406159,-10436.903782,1184.329507,-383.047749
4231.406488,-11177.109724,1110.308913,-842.705048
4231.406818,-9326.594869,1480.411884,-383.047749
4231.407147,-8956.491898,740.205942,-459.657299
4231.407477,-9696.697840,148.041188,76.609550
4231.407806,-9770.718434,592.164754,229.828649
4231.408136,-10214.842000,296.082377,-995.924147
4231.408466,-9770.718434,666.185348,-995.924147
4231.408795,-9844.739029,-296.082377,229.828649
4231.409125,-10140.821405,74.020594,842.705048
4231.409454,-9326.594869,-74.020594,1608.800546
4231.409784,-9918.759623,444.123565,1455.581446
4231.410113,-9844.739029,148.041188,612.876398
4231.410443,-9918.759623,0.000000,-459.657299
4231.410772,-9844.739029,0.000000,-612.876398
4231.411102,-9696.697840,0.000000,536.266849
4231.411432,-10140.821405,148.041188,1149.143247
4231.411761,-9326.594869,-296.082377,0.000000
4231.412091,-9770.718434,0.000000,-766.095498
4231.412420,-9770.718434,0.000000,-306.438199
4231.412750,-9548.656652,-148.041188,-536.266849
4231.413079,-9474.636058,-74.020594,-229.828649
4231.413409,-9474.636058,-962.267725,383.047749
4231.413738,-10066.800811,-962.267725,1762.019645
4231.414068,-9474.636058,-888.247130,1762.019645
4231.414398,-9326.594869,-592.164754,995.924147
4231.414727,-9992.780217,-666.185348,-383.047749
4231.415057,-10140.821405,-740.205942,153.219100
4231.415386,-9696.697840,-444.123565,1149.143247
4231.415716,-9696.697840,0.000000,1149.143247
4231.416045,-10436.903782,-148.041188,383.047749
4231.416375,-10066.800811,-666.185348,0.000000
4231.416704,-9030.512492,-296.082377,-1225.752797
4231.417034,-9104.533087,-666.185348,-995.924147
4231.417364,-9326.594869,-592.164754,0.000000
4231.417693,-9474.636058,-592.164754,842.705048
4231.418023,-9178.553681,-1258.350101,995.924147
4231.418352,-9622.677246,-370.102971,1149.143247
4231.418682,-10214.842000,-888.247130,153.219100
4231.419011,-10807.006753,-74.020594,995.924147
4231.419341,-9844.739029,-444.123565,689.485948
4231.419670,-9474.636058,-592.164754,689.485948
4231.420000,-9918.759623,-518.144159,1532.190996
4231.420330,-10066.800811,0.000000,995.924147
4231.420659,-10140.821405,592.164754,306.438199
4231.420989,-9918.759623,370.102971,-1838.629195
4231.421318,-9252.574275,0.000000,-2374.896044
4231.421648,-9696.697840,296.082377,-1685.410096
4231.421977,-9918.759623,444.123565,0.000000
4231.422307,-9844.739029,592.164754,229.828649
4231.422636,-9104.533087,888.247130,-536.266849
4231.422966,-10066.800811,592.164754,-1149.143247
4231.423295,-9696.697840,444.123565,0.000000
4231.423625,-10362.883188,518.144159,995.924147
4231.423955,-10732.986159,592.164754,1149.143247
4231.424284,-9918.759623,444.123565,1532.190996
4231.424614,-9770.718434,814.226536,536.266849
4231.424943,-9474.636058,740.205942,229.828649
4231.425273,-9844.739029,148.041188,-76.609550
4231.425602,-9548.656652,962.267725,766.095498
4231.425932,-9622.677246,74.020594,1378.971896
4231.426261,-10288.862594,1036.288319,306.438199
4231.426591,-9548.656652,74.020594,-306.438199
4231.426920,-9474.636058,666.185348,-1455.581446
4231.427250,-9252.574275,0.000000,-995.924147
4231.427580,-9918.759623,1110.308913,-306.438199
4231.427909,-10140.821405,1110.308913,919.314598
4231.428239,-9992.780217,1036.288319,306.438199
4231.428568,-9326.594869,962.267725,-766.095498
4231.428898,-10214.842000,0.000000,-919.314598
4231.429227,-10436.903782,592.164754,-153.219100
4231.429557,-9326.594869,-296.082377,919.314598
4231.429886,-8808.450710,370.102971,1532.190996
4231.430216,-8586.388927,-222.061783,1762.019645
4231.430545,-10066.800811,148.041188,995.924147
4231.430875,-10584.944971,296.082377,0.000000
4231.431205,-9918.759623,518.144159,-1455.581446
4231.431534,-9992.780217,666.185348,153.219100
4231.431864,-9548.656652,0.000000,612.876398
4231.432193,-9400.615463,-296.082377,2221.676944
4231.432523,-9400.615463,296.082377,1838.629195
4231.432852,-9770.718434,0.000000,229.828649
4231.433182,-9844.739029,0.000000,-1455.581446
4231.433511,-9474.636058,444.123565,-1225.752797
4231.433841,-10214.842000,222.061783,-459.657299
4231.434170,-10584.944971,222.061783,842.705048
4231.434500,-9696.697840,74.020594,995.924147
4231.434830,-9696.697840,0.000000,459.657299
4231.435159,-10140.821405,0.000000,-536.266849
4231.435489,-10214.842000,296.082377,-536.266849
4231.435818,-10584.944971,-148.041188,229.828649
4231.436148,-9696.697840,-148.041188,689.485948
4231.436477,-10436.903782,-740.205942,1225.752797
4231.436807,-10362.883188,0.000000,1149.143247
4231.437136,-9696.697840,-1628.453072,-76.609550
4231.437466,-9622.677246,-666.185348,-1149.143247
4231.437795,-7994.224174,-962.267725,-689.485948
4231.438125,-9400.615463,-888.247130,766.095498
4231.438455,-9548.656652,-962.267725,1838.629195
4231.438784,-9992.780217,-740.205942,1762.019645
4231.439114,-9844.739029,-962.267725,1225.752797
4231.439443,-10214.842000,-518.144159,76.609550
4231.439773,-11251.130318,-444.123565,0.000000
4231.440102,-9622.677246,-814.226536,612.876398
4231.440432,-8808.450710,-444.123565,1378.971896
4231.440761,-9696.697840,148.041188,919.314598
4231.441091,-10066.800811,-222.061783,-1072.533697
4231.441420,-9992.780217,666.185348,-1072.533697
4231.441750,-10140.821405,74.020594,-1685.410096
4231.442080,-10140.821405,518.144159,-1685.410096
4231.442409,-9400.615463,-296.082377,-766.095498
4231.442739,-8808.450710,0.000000,0.000000
4231.443068,-8882.471304,296.082377,-383.047749
4231.443398,-9844.739029,-148.041188,-766.095498
4231.443727,-9770.718434,-296.082377,-1608.800546
4231.444057,-9622.677246,-444.123565,0.000000
4231.444386,-9326.594869,-222.061783,1455.581446
4231.444716,-10510.924376,74.020594,2528.115143
4231.445045,-11473.192101,518.144159,2298.286494
4231.445375,-9400.615463,0.000000,689.485948
4231.445705,-8882.471304,444.123565,-1455.581446
4231.446034,-10288.862594,814.226536,-612.876398
4231.446364,-11621.233289,1110.308913,536.266849
4231.446693,-10510.924376,1110.308913,842.705048
4231.447023,-8364.327145,518.144159,-842.705048
4231.447352,-9326.594869,444.123565,-842.705048
4231.447682,-9770.718434,-296.082377,0.000000
4231.448011,-10140.821405,296.082377,689.485948
4231.448341,-8808.450710,518.144159,536.266849
4231.448670,-9178.553681,518.144159,383.047749
4231.449000,-10436.903782,1036.288319,459.657299
4231.449330,-10436.903782,814.226536,536.266849
4231.449659,-9548.656652,222.061783,306.438199
4231.449989,-8956.491898,-296.082377,612.876398
4231.450318,-9400.615463,0.000000,842.705048
4231.450648,-9770.718434,296.082377,842.705048
4231.450977,-9474.636058,592.164754,-842.705048
4231.451307,-9474.636058,370.102971,-1991.848295
4231.451636,-9474.636058,592.164754,-1378.971896
4231.451966,-9548.656652,222.061783,-306.438199
4231.452295,-8438.347739,148.041188,689.485948
4231.452625,-9548.656652,148.041188,459.657299
4231.452955,-9622.677246,-222.061783,459.657299
4231.453284,-9770.718434,-222.061783,306.438199
4231.453614,-9918.759623,296.082377,229.828649
4231.453943,-10436.903782,74.020594,1455.581446
4231.454273,-9622.677246,888.247130,1378.971896
4231.454602,-10140.821405,666.185348,766.095498
4231.454932,-10955.047942,0.000000,-612.876398
4231.455261,-9844.739029,296.082377,0.000000
4231.455591,-9770.718434,814.226536,-383.047749
4231.455920,-10066.800811,74.020594,-536.266849
4231.456250,-9104.533087,0.000000,-306.438199
4231.456580,-9252.574275,74.020594,383.047749
4231.456909,-9844.739029,-444.123565,0.000000
4231.457239,-10510.924376,0.000000,-306.438199
4231.457568,-9844.739029,74.020594,-459.657299
4231.457898,-10140.821405,0.000000,-612.876398
4231.458227,-10066.800811,-148.041188,536.266849
4231.458557,-10140.821405,-296.082377,2528.115143
4231.458886,-10955.047942,296.082377,1915.238745
4231.459216,-10140.821405,-148.041188,919.314598
4231.459545,-9696.697840,-296.082377,229.828649
4231.459875,-9178.553681,-1554.432478,0.000000
4231.460205,-8882.471304,-444.123565,306.438199
4231.460534,-9326.594869,-1036.288319,536.266849
4231.460864,-9992.780217,-518.144159,229.828649
4231.461193,-9770.718434,0.000000,0.000000
4231.461523,-8586.388927,-444.123565,-842.705048
4231.461852,-9474.636058,-592.164754,-842.705048
4231.462182,-9844.739029,0.000000,383.047749
4231.462511,-9844.739029,-1036.288319,536.266849
4231.462841,-9178.553681,74.020594,459.657299
4231.463170,-8956.491898,-296.082377,1072.533697
4231.463500,-9918.759623,-222.061783,919.314598
4231.463830,-10510.924376,0.000000,306.438199
4231.464159,-9696.697840,-518.144159,-689.485948
4231.464489,-9400.615463,-592.164754,-612.876398
4231.464818,-8586.388927,-740.205942,-536.266849
4231.465148,-9474.636058,296.082377,153.219100
4231.465477,-9622.677246,74.020594,689.485948
4231.465807,-9474.636058,0.000000,-229.828649
4231.466136,-10584.944971,740.205942,306.438199
4231.466466,-11399.171507,370.102971,612.876398
4231.466795,-11473.192101,0.000000,76.609550
4231.467125,-9548.656652,0.000000,689.485948
4231.467455,-9844.739029,74.020594,689.485948
4231.467784,-10510.924376,-370.102971,919.314598
4231.468114,-9622.677246,296.082377,1225.752797
4231.468443,-9252.574275,0.000000,0.000000
4231.468773,-9622.677246,1258.350101,153.219100
4231.469102,-10732.986159,222.061783,0.000000
4231.469432,-11103.089130,0.000000,383.047749
4231.469761,-9030.512492,74.020594,229.828649
4231.470091,-9770.718434,222.061783,842.705048
4231.470421,-10510.924376,296.082377,459.657299
4231.470750,-9992.780217,148.041188,76.609550
4231.471080,-9474.636058,-518.144159,0.000000
4231.471409,-8142.265362,74.020594,1225.752797
4231.471739,-9252.574275,-222.061783,766.095498
4231.472068,-10362.883188,0.000000,229.828649
4231.472398,-9326.594869,148.041188,229.828649
4231.472727,-9770.718434,0.000000,306.438199
4231.473057,-9252.574275,370.102971,0.000000
4231.473386,-9178.553681,-222.061783,-383.047749
4231.473716,-9104.533087,222.061783,-459.657299
4231.474046,-8808.450710,-222.061783,0.000000
4231.474375,-9548.656652,296.082377,306.438199
4231.474705,-9992.780217,-222.061783,919.314598
4231.475034,-9918.759623,0.000000,383.047749
4231.475364,-9474.636058,-222.061783,1378.971896
4231.475693,-9400.615463,0.000000,1149.143247
4231.476023,-9548.656652,0.000000,995.924147
4231.476352,-10288.862594,444.123565,1072.533697
4231.476682,-10510.924376,518.144159,0.000000
4231.477011,-10066.800811,592.164754,-383.047749
4231.477341,-9844.739029,1036.288319,-766.095498
4231.477671,-10288.862594,592.164754,-689.485948
4231.478000,-10732.986159,740.205942,-306.438199
4231.478330,-10066.800811,222.061783,-766.095498
4231.478659,-9992.780217,0.000000,-383.047749
4231.478989,-9252.574275,0.000000,-612.876398
4231.479318,-9474.636058,148.041188,0.000000
4231.479648,-9474.636058,-592.164754,1072.533697
4231.479977,-9548.656652,-148.041188,1149.143247
4231.480307,-9844.739029,-222.061783,842.705048
4231.480636,-10658.965565,740.205942,842.705048
4231.480966,-10658.965565,74.020594,153.219100
4231.481296,-10288.862594,-370.102971,689.485948
4231.481625,-9474.636058,518.144159,536.266849
4231.481955,-10436.903782,-740.205942,306.438199
4231.482284,-10140.821405,-222.061783,-153.219100
4231.482614,-8512.368333,-1332.370696,0.000000
4231.482943,-8216.285956,-444.123565,-153.219100
4231.483273,-8882.471304,-370.102971,-306.438199
4231.483602,-10436.903782,74.020594,-383.047749
4231.483932,-10288.862594,-370.102971,-612.876398
4231.484261,-9548.656652,0.000000,306.438199
4231.484591,-8808.450710,0.000000,306.438199
4231.484921,-9696.697840,0.000000,612.876398
4231.485250,-9622.677246,1110.308913,1225.752797
4231.485580,-8364.327145,0.000000,-153.219100
4231.485909,-10807.006753,1110.308913,-1532.190996
4231.486239,-11769.274478,666.185348,-995.924147
4231.486568,-10732.986159,-518.144159,-689.485948
4231.486898,-8290.306550,444.123565,0.000000
4231.487227,-8586.388927,148.041188,0.000000
4231.487557,-9696.697840,148.041188,0.000000
4231.487886,-8734.430116,518.144159,-1838.629195
4231.488216,-8586.388927,518.144159,-1072.533697
4231.488546,-9696.697840,1110.308913,459.657299
4231.488875,-12435.459826,1036.288319,1762.019645
4231.489205,-11473.192101,0.000000,2145.067394
4231.489534,-9548.656652,0.000000,1762.019645
4231.489864,-8586.388927,74.020594,1225.752797
4231.490193,-9474.636058,-370.102971,536.266849
4231.490523,-10362.883188,148.041188,383.047749
4231.490852,-9474.636058,222.061783,1149.143247
4231.491182,-9770.718434,814.226536,842.705048
4231.491511,-10288.862594,444.123565,-612.876398
4231.491841,-10214.842000,296.082377,-919.314598
4231.492171,-9474.636058,222.061783,-1225.752797
4231.492500,-8660.409521,148.041188,-612.876398
4231.492830,-8808.450710,370.102971,76.609550
4231.493159,-9992.780217,222.061783,612.876398
4231.493489,-11103.089130,518.144159,1072.533697
4231.493818,-11103.089130,0.000000,1302.362347
4231.494148,-10807.006753,-74.020594,153.219100
4231.494477,-8882.471304,-740.205942,-842.705048
4231.494807,-7846.182985,-444.123565,229.828649
4231.495136,-7994.224174,-1036.288319,1378.971896
4231.495466,-9252.574275,-296.082377,1608.800546
4231.495796,-10066.800811,-370.102971,1532.190996
4231.496125,-9696.697840,0.000000,995.924147
4231.496455,-9918.759623,-370.102971,153.219100
4231.496784,-9326.594869,0.000000,76.609550
4231.497114,-9252.574275,0.000000,229.828649
4231.497443,-10436.903782,-296.082377,995.924147
4231.497773,-9770.718434,-222.061783,1072.533697
4231.498102,-10066.800811,0.000000,1532.190996
4231.498432,-9992.780217,74.020594,536.266849
4231.498761,-10362.883188,-222.061783,153.219100
4231.499091,-9622.677246,-296.082377,-229.828649
4231.499421,-10066.800811,740.205942,-229.828649
4231.499750,-10584.944971,0.000000,-229.828649
4231.500080,-10807.006753,222.061783,612.876398
4231.500409,-10066.800811,148.041188,0.000000
4231.500739,-9844.739029,370.102971,-612.876398
4231.501068,-10288.862594,222.061783,-919.314598
4231.501398,-10066.800811,0.000000,-689.485948
4231.501727,-10288.862594,74.020594,-459.657299
4231.502057,-9770.718434,148.041188,-306.438199
4231.502386,-8586.388927,-444.123565,-383.047749
4231.502716,-8734.430116,-740.205942,689.485948
4231.503046,-9918.759623,-592.164754,1762.019645
4231.503375,-11103.089130,370.102971,1915.238745
4231.503705,-10140.821405,0.000000,306.438199
4231.504034,-9474.636058,222.061783,-306.438199
4231.504364,-9104.533087,74.020594,-153.219100
4231.504693,-10436.903782,1332.370696,612.876398
4231.505023,-11103.089130,444.123565,-689.485948
4231.505352,-9622.677246,74.020594,-766.095498
4231.505682,-9104.533087,0.000000,-459.657299
4231.506011,-9918.759623,-370.102971,383.047749
4231.506341,-9696.697840,-962.267725,536.266849
4231.506671,-9326.594869,-444.123565,995.924147
4231.507000,-8586.388927,0.000000,459.657299
4231.507330,-9252.574275,740.205942,76.609550
4231.507659,-9622.677246,370.102971,0.000000
4231.507989,-10955.047942,888.247130,76.609550
4231.508318,-10658.965565,1480.411884,459.657299
4231.508648,-10066.800811,518.144159,-459.657299
4231.508977,-9918.759623,888.247130,-1072.533697
4231.509307,-9400.615463,0.000000,-766.095498
4231.509636,-9178.553681,-370.102971,-1608.800546
4231.509966,-9326.594869,814.226536,-689.485948
4231.510296,-9326.594869,370.102971,-306.438199
4231.510625,-9548.656652,-592.164754,0.000000
4231.510955,-8068.244768,0.000000,0.000000
4231.511284,-9844.739029,0.000000,2068.457845
4231.511614,-10732.986159,666.185348,1838.629195
4231.511943,-10658.965565,370.102971,1149.143247
4231.512273,-9918.759623,0.000000,153.219100
4231.512602,-9622.677246,740.205942,536.266849
4231.512932,-10510.924376,222.061783,689.485948
4231.513261,-10214.842000,0.000000,995.924147
4231.513591,-9104.533087,-370.102971,-766.095498
4231.513921,-8734.430116,518.144159,-306.438199
4231.514250,-9474.636058,592.164754,-1608.800546
4231.514580,-10362.883188,74.020594,-1762.019645
4231.514909,-9622.677246,222.061783,-612.876398
4231.515239,-9992.780217,296.082377,1378.971896
4231.515568,-10807.006753,148.041188,1838.629195
4231.515898,-10066.800811,-592.164754,842.705048
4231.516227,-9474.636058,-296.082377,-459.657299
4231.516557,-9252.574275,-518.144159,-995.924147
4231.516886,-10510.924376,0.000000,995.924147
4231.517216,-10955.047942,444.123565,2528.115143
4231.517546,-10288.862594,148.041188,1762.019645
4231.517875,-8956.491898,74.020594,-459.657299
4231.518205,-8956.491898,-296.082377,-1378.971896
4231.518534,-10214.842000,-444.123565,-689.485948
4231.518864,-9770.718434,-592.164754,-229.828649
4231.519193,-9252.574275,-592.164754,306.438199
4231.519523,-8808.450710,-444.123565,1072.533697
4231.519852,-9992.780217,0.000000,1225.752797
4231.520182,-10140.821405,-370.102971,306.438199
4231.520511,-10658.965565,74.020594,0.000000
4231.520841,-10584.944971,0.000000,612.876398
4231.521171,-10584.944971,-148.041188,766.095498
4231.521500,-9992.780217,-222.061783,1302.362347
4231.521830,-8808.450710,-666.185348,1072.533697
4231.522159,-8734.430116,-1110.308913,229.828649
4231.522489,-8882.471304,-296.082377,-536.266849
4231.522818,-9622.677246,-666.185348,-842.705048
4231.523148,-9844.739029,-518.144159,-306.438199
4231.523477,-9104.533087,-296.082377,689.485948
4231.523807,-9918.759623,0.000000,306.438199
4231.524136,-10362.883188,0.000000,153.219100
4231.524466,-10955.047942,222.061783,0.000000
4231.524796,-10214.842000,0.000000,0.000000
4231.525125,-9178.553681,-518.144159,383.047749
4231.525455,-9696.697840,-222.061783,612.876398
4231.525784,-9548.656652,-518.144159,1149.143247
4231.526114,-9474.636058,-666.185348,612.876398
4231.526443,-9252.574275,-148.041188,153.219100
4231.526773,-9178.553681,-592.164754,229.828649
4231.527102,-9918.759623,-370.102971,536.266849
4231.527432,-9844.739029,-74.020594,1455.581446
4231.527761,-10288.862594,0.000000,1455.581446
4231.528091,-9474.636058,0.000000,612.876398
4231.528420,-9844.739029,148.041188,-229.828649
4231.528750,-9992.780217,0.000000,-383.047749
4231.529080,-9474.636058,1036.288319,-459.657299
4231.529409,-10362.883188,962.267725,0.000000
4231.529739,-11103.089130,1184.329507,-689.485948
4231.530068,-9622.677246,814.226536,-766.095498
4231.530398,-9326.594869,444.123565,-536.266849
4231.530727,-9622.677246,148.041188,-919.314598
4231.531057,-10807.006753,296.082377,229.828649
4231.531386,-9844.739029,148.041188,229.828649
4231.531716,-9474.636058,296.082377,-306.438199
4231.532045,-8512.368333,0.000000,-229.828649
4231.532375,-10066.800811,518.144159,1149.143247
4231.532704,-11177.109724,1036.288319,995.924147
4231.533034,-10362.883188,222.061783,383.047749
4231.533364,-8956.491898,888.247130,-689.485948
4231.533693,-9326.594869,296.082377,-1072.533697
4231.534023,-11029.068536,814.226536,-459.657299
4231.534352,-9474.636058,0.000000,383.047749
4231.534682,-8956.491898,-296.082377,153.219100
4231.535011,-8512.368333,444.123565,383.047749
4231.535341,-9622.677246,370.102971,-612.876398
4231.535670,-10510.924376,74.020594,-1378.971896
4231.536000,-9178.553681,0.000000,-383.047749
4231.536329,-10510.924376,666.185348,689.485948
4231.536659,-10214.842000,444.123565,1762.019645
4231.536988,-10807.006753,518.144159,689.485948
4231.537318,-9548.656652,444.123565,995.924147
4231.537648,-9844.739029,444.123565,-306.438199
4231.537977,-9992.780217,0.000000,-306.438199
4231.538307,-9548.656652,-444.123565,0.000000
4231.538636,-9252.574275,148.041188,1225.752797
4231.538966,-8956.491898,0.000000,919.314598
4231.539295,-9400.615463,444.123565,0.000000
4231.539625,-9992.780217,0.000000,0.000000
4231.539954,-10955.047942,370.102971,76.609550
4231.540284,-10140.821405,444.123565,383.047749
4231.540613,-9770.718434,222.061783,0.000000
4231.540943,-9030.512492,-370.102971,766.095498
4231.541272,-9474.636058,222.061783,919.314598
4231.541602,-10288.862594,222.061783,1762.019645
4231.541932,-10584.944971,-444.123565,536.266849
4231.542261,-9622.677246,0.000000,-306.438199
4231.542591,-9030.512492,-296.082377,-612.876398
4231.542920,-9548.656652,0.000000,76.609550
4231.543250,-9030.512492,0.000000,919.314598
4231.543579,-9474.636058,370.102971,1532.190996
4231.543909,-9326.594869,-592.164754,766.095498
4231.544238,-9770.718434,148.041188,306.438199
4231.544568,-11177.109724,0.000000,536.266849
4231.544897,-10362.883188,0.000000,76.609550
4231.545227,-9548.656652,0.000000,76.609550
4231.545556,-9844.739029,444.123565,0.000000
4231.545886,-9548.656652,-962.267725,-1149.143247
4231.546216,-8660.409521,-370.102971,-229.828649
4231.546545,-8068.244768,222.061783,0.000000
4231.546875,-10140.821405,0.000000,0.000000
4231.547204,-10807.006753,-962.267725,459.657299
4231.547534,-9622.677246,-962.267725,1608.800546
4231.547863,-9326.594869,-592.164754,1225.752797
4231.548193,-9992.780217,-888.247130,1149.143247
4231.548522,-9918.759623,-1554.432478,1072.533697
4231.548852,-9548.656652,-888.247130,1915.238745
4231.549181,-9474.636058,0.000000,995.924147
4231.549511,-10881.027347,444.123565,919.314598
4231.549840,-11547.212695,666.185348,383.047749
4231.550170,-10510.924376,518.144159,-995.924147
4231.550500,-9770.718434,370.102971,-1608.800546
4231.550829,-9770.718434,814.226536,-1455.581446
4231.551159,-9252.574275,-740.205942,-1455.581446
4231.551488,-8512.368333,-666.185348,-459.657299
4231.551818,-8808.450710,-666.185348,0.000000
4231.552147,-10584.944971,-222.061783,306.438199
4231.552477,-10807.006753,-370.102971,76.609550
4231.552806,-9622.677246,-148.041188,306.438199
4231.553136,-9252.574275,-592.164754,1532.190996
4231.553465,-9474.636058,-296.082377,2757.943793
4231.553795,-10362.883188,0.000000,3064.381992
4231.554125,-10140.821405,0.000000,1608.800546
4231.554454,-8956.491898,-444.123565,-1302.362347
4231.554784,-8586.388927,-370.102971,-1991.848295
4231.555113,-9474.636058,-148.041188,-1838.629195
4231.555443,-9696.697840,-222.061783,153.219100
4231.555772,-8586.388927,-518.144159,919.314598
4231.556102,-7550.100608,-444.123565,-306.438199
4231.556431,-8808.450710,0.000000,-2374.896044
4231.556761,-10214.842000,592.164754,-1149.143247
4231.557090,-11621.233289,444.123565,459.657299
4231.557420,-11621.233289,1036.288319,1762.019645
4231.557749,-9474.636058,1184.329507,1302.362347
4231.558079,-10214.842000,592.164754,306.438199
4231.558409,-10362.883188,592.164754,-995.924147
4231.558738,-9548.656652,518.144159,-1302.362347
4231.559068,-9548.656652,148.041188,-1302.362347
4231.559397,-9400.615463,518.144159,0.000000
4231.559727,-9992.780217,296.082377,842.705048
4231.560056,-9104.533087,592.164754,383.047749
4231.560386,-9622.677246,1258.350101,-842.705048
4231.560715,-10510.924376,518.144159,-1608.800546
4231.561045,-10584.944971,444.123565,-459.657299
4231.561374,-9918.759623,296.082377,1302.362347
4231.561704,-10584.944971,296.082377,2987.772442
4231.562033,-10288.862594,370.102971,1838.629195
4231.562363,-10214.842000,222.061783,-306.438199
4231.562693,-9030.512492,370.102971,-1455.581446
4231.563022,-9178.553681,-296.082377,-1149.143247
4231.563352,-9918.759623,444.123565,536.266849
4231.563681,-9918.759623,148.041188,2374.896044
4231.564011,-8808.450710,0.000000,1762.019645
4231.564340,-8364.327145,-296.082377,0.000000
4231.564670,-9474.636058,518.144159,-1072.533697
4231.564999,-10140.821405,0.000000,-919.314598
4231.565329,-10436.903782,1258.350101,-1149.143247
4231.565658,-9400.615463,0.000000,306.438199
4231.565988,-8956.491898,814.226536,2221.676944
4231.566317,-10066.800811,666.185348,1762.019645
4231.566647,-10584.944971,370.102971,76.609550
4231.566977,-10140.821405,74.020594,-1991.848295
4231.567306,-9474.636058,0.000000,-1685.410096
4231.567636,-9548.656652,0.000000,536.266849
4231.567965,-9992.780217,74.020594,1608.800546
4231.568295,-9622.677246,518.144159,766.095498
4231.568624,-9400.615463,0.000000,-612.876398
4231.568954,-9844.739029,370.102971,-1455.581446
4231.569283,-9696.697840,0.000000,-383.047749
4231.569613,-10214.842000,0.000000,459.657299
4231.569942,-10436.903782,444.123565,2068.457845
4231.570272,-10066.800811,-148.041188,2221.676944
4231.570601,-9252.574275,-444.123565,842.705048
4231.570931,-9918.759623,-814.226536,-459.657299
4231.571261,-10288.862594,-296.082377,-153.219100
4231.571590,-10510.924376,-518.144159,0.000000
4231.571920,-8660.409521,148.041188,306.438199
4231.572249,-9178.553681,-518.144159,919.314598
4231.572579,-9992.780217,1184.329507,306.438199
4231.572908,-9844.739029,-592.164754,-1225.752797
4231.573238,-9918.759623,0.000000,-2528.115143
4231.573567,-9844.739029,592.164754,-2221.676944
4231.573897,-10214.842000,-74.020594,459.657299
4231.574226,-10288.862594,-740.205942,1915.238745
4231.574556,-10214.842000,-814.226536,1608.800546
4231.574885,-10140.821405,-666.185348,1149.143247
4231.575215,-9400.615463,-1036.288319,-612.876398
4231.575545,-9770.718434,-592.164754,-383.047749
4231.575874,-8734.430116,-518.144159,1149.143247
4231.576204,-9400.615463,0.000000,1838.629195
4231.576533,-9918.759623,-148.041188,919.314598
4231.576863,-10658.965565,148.041188,153.219100
4231.577192,-11103.089130,-296.082377,306.438199
4231.577522,-9844.739029,-444.123565,-919.314598
4231.577851,-9548.656652,-74.020594,-689.485948
4231.578181,-9474.636058,-444.123565,-153.219100
4231.578510,-9474.636058,-74.020594,919.314598
4231.578840,-9622.677246,0.000000,1302.362347
4231.579169,-9844.739029,148.041188,612.876398
4231.579499,-9696.697840,0.000000,76.609550
4231.579829,-9326.594869,370.102971,76.609550
4231.580158,-10140.821405,-74.020594,153.219100
4231.580488,-10732.986159,0.000000,536.266849
4231.580817,-9918.759623,-814.226536,459.657299
4231.581147,-8660.409521,-370.102971,229.828649
4231.581476,-8512.368333,0.000000,0.000000
4231.581806,-10362.883188,592.164754,153.219100
4231.582135,-11103.089130,370.102971,306.438199
4231.582465,-10066.800811,888.247130,306.438199
4231.582794,-10362.883188,666.185348,919.314598
4231.583124,-10140.821405,444.123565,689.485948
4231.583453,-10066.800811,666.185348,1762.019645
4231.583783,-9474.636058,148.041188,842.705048
4231.584113,-8808.450710,74.020594,0.000000
4231.584442,-10140.821405,148.041188,-229.828649
4231.584772,-10362.883188,-148.041188,919.314598
4231.585101,-9918.759623,740.205942,1608.800546
4231.585431,-9992.780217,1332.370696,536.266849
4231.585760,-9696.697840,444.123565,-689.485948
4231.586090,-9474.636058,518.144159,-459.657299
4231.586419,-10140.821405,740.205942,536.266849
4231.586749,-11769.274478,1332.370696,995.924147
4231.587078,-10362.883188,444.123565,76.609550
4231.587408,-7402.059420,592.164754,-995.924147
4231.587737,-7402.059420,666.185348,-1225.752797
4231.588067,-9104.533087,666.185348,-1532.190996
4231.588397,-11029.068536,518.144159,-229.828649
4231.588726,-10732.986159,222.061783,76.609550
4231.589056,-9104.533087,370.102971,1072.533697
4231.589385,-9104.533087,444.123565,1532.190996
4231.589715,-10140.821405,592.164754,1149.143247
4231.590044,-10066.800811,888.247130,306.438199
4231.590374,-10288.862594,1110.308913,-995.924147
4231.590703,-10288.862594,296.082377,-995.924147
4231.591033,-10732.986159,74.020594,459.657299
4231.591362,-9548.656652,962.267725,995.924147
4231.591692,-9104.533087,962.267725,-766.095498
4231.592021,-10658.965565,592.164754,-2451.505594
4231.592351,-9770.718434,0.000000,-1532.190996
4231.592681,-9696.697840,74.020594,0.000000
4231.593010,-9622.677246,222.061783,612.876398
4231.593340,-10288.862594,370.102971,995.924147
4231.593669,-9400.615463,-296.082377,1225.752797
4231.593999,-9178.553681,0.000000,919.314598
4231.594328,-9844.739029,-296.082377,995.924147
4231.594658,-10510.924376,-740.205942,612.876398
4231.594987,-9844.739029,-444.123565,-383.047749
4231.595317,-9252.574275,-962.267725,0.000000
4231.595646,-8882.471304,0.000000,612.876398
4231.595976,-10066.800811,74.020594,995.924147
4231.596305,-11547.212695,-444.123565,995.924147
4231.596635,-10066.800811,-740.205942,-536.266849
4231.596965,-8808.450710,-888.247130,-612.876398
4231.597294,-9252.574275,-962.267725,229.828649
4231.597624,-9400.615463,-592.164754,1455.581446
4231.597953,-9400.615463,-962.267725,842.705048
4231.598283,-9252.574275,-1110.308913,0.000000
4231.598612,-9474.636058,-518.144159,0.000000
4231.598942,-10362.883188,-666.185348,-689.485948
4231.599271,-9178.553681,-740.205942,306.438199
4231.599601,-9030.512492,-888.247130,536.266849
4231.599930,-9770.718434,-1036.288319,0.000000
4231.600260,-10288.862594,-1036.288319,0.000000
4231.600589,-9696.697840,-962.267725,383.047749
4231.600919,-8438.347739,-518.144159,842.705048
4231.601249,-9696.697840,-370.102971,459.657299
4231.601578,-10362.883188,-740.205942,-306.438199
4231.601908,-9770.718434,-1332.370696,-153.219100
4231.602237,-9104.533087,-296.082377,383.047749
4231.602567,-10436.903782,-148.041188,919.314598
4231.602896,-10436.903782,-814.226536,536.266849
4231.603226,-9178.553681,-518.144159,306.438199
4231.603555,-9104.533087,-666.185348,919.314598
4231.603885,-10066.800811,0.000000,1838.629195
4231.604214,-11399.171507,0.000000,995.924147
4231.604544,-9918.759623,296.082377,459.657299
4231.604873,-9844.739029,666.185348,536.266849
4231.605203,-10955.047942,1554.432478,689.485948
4231.605533,-11843.295072,296.082377,995.924147
4231.605862,-10658.965565,888.247130,0.000000
4231.606192,-8438.347739,592.164754,-459.657299
4231.606521,-9696.697840,962.267725,-995.924147
4231.606851,-9548.656652,370.102971,-612.876398
4231.607180,-9622.677246,370.102971,229.828649
4231.607510,-8808.450710,518.144159,-612.876398
4231.607839,-9104.533087,0.000000,-919.314598
4231.608169,-10140.821405,592.164754,689.485948
4231.608498,-8882.471304,0.000000,1225.752797
4231.608828,-9104.533087,222.061783,1455.581446
4231.609157,-9252.574275,518.144159,919.314598
4231.609487,-9992.780217,888.247130,76.609550
4231.609817,-10658.965565,1184.329507,0.000000
4231.610146,-9178.553681,814.226536,-612.876398
4231.610476,-10140.821405,814.226536,0.000000
4231.610805,-10066.800811,1554.432478,0.000000
4231.611135,-9178.553681,518.144159,-383.047749
4231.611464,-8512.368333,740.205942,-1532.190996
4231.611794,-8882.471304,1480.411884,-2451.505594
4231.612123,-10362.883188,370.102971,-612.876398
4231.612453,-10288.862594,888.247130,383.047749
4231.612782,-9918.759623,888.247130,76.609550
4231.613112,-9252.574275,222.061783,-612.876398
4231.613442,-9326.594869,1184.329507,-459.657299
4231.613771,-10140.821405,1110.308913,-153.219100
4231.614101,-11399.171507,296.082377,459.657299
4231.614430,-10584.944971,1554.432478,229.828649
4231.614760,-9844.739029,518.144159,995.924147
4231.615089,-9696.697840,666.185348,0.000000
4231.615419,-8882.471304,222.061783,-459.657299
4231.615748,-9992.780217,74.020594,-229.828649
4231.616078,-10362.883188,740.205942,-383.047749
4231.616407,-10288.862594,518.144159,-919.314598
4231.616737,-9474.636058,296.082377,-612.876398
4231.617066,-8734.430116,814.226536,-383.047749
4231.617396,-10066.800811,222.061783,612.876398
4231.617726,-9770.718434,370.102971,459.657299
4231.618055,-9918.759623,74.020594,153.219100
4231.618385,-9622.677246,370.102971,689.485948
4231.618714,-9548.656652,-592.164754,689.485948
4231.619044,-10214.842000,-592.164754,536.266849
4231.619373,-9844.739029,0.000000,1455.581446
4231.619703,-10214.842000,-592.164754,1302.362347
4231.620032,-9844.739029,-444.123565,612.876398
4231.620362,-9844.739029,-740.205942,612.876398
4231.620691,-9770.718434,-370.102971,459.657299
4231.621021,-9548.656652,-888.247130,153.219100
4231.621351,-9104.533087,74.020594,76.609550
4231.621680,-9104.533087,-370.102971,459.657299
4231.622010,-9918.759623,370.102971,153.219100
4231.622340,-10288.862594,-592.164754,-76.609550
4231.622670,-10955.047942,-370.102971,-612.876398
4231.623000,-9918.759623,-370.102971,-459.657299
4231.623329,-9992.780217,-814.226536,383.047749
4231.623659,-8956.491898,-1702.473667,459.657299
4231.623989,-8364.327145,-1406.391290,1149.143247
4231.624319,-8956.491898,-370.102971,383.047749
4231.624648,-9178.553681,-814.226536,-536.266849
4231.624978,-10140.821405,0.000000,-459.657299
4231.625308,-10140.821405,-444.123565,306.438199
4231.625638,-10732.986159,-444.123565,1685.410096
4231.625968,-9992.780217,-518.144159,1991.848295
4231.626297,-8882.471304,-888.247130,0.000000
4231.626627,-8734.430116,-962.267725,-383.047749
4231.626957,-8956.491898,-1184.329507,306.438199
4231.627287,-9252.574275,-444.123565,1378.971896
4231.627617,-9622.677246,-888.247130,1762.019645
4231.627946,-9770.718434,0.000000,2451.505594
4231.628276,-10140.821405,-888.247130,2451.505594
4231.628606,-10066.800811,222.061783,536.266849
4231.628936,-10214.842000,0.000000,-1455.581446
4231.629265,-11029.068536,0.000000,-1532.190996
4231.629595,-9474.636058,0.000000,76.609550
4231.629925,-9696.697840,444.123565,2374.896044
4231.630255,-10732.986159,444.123565,1915.238745
4231.630585,-10140.821405,148.041188,-229.828649
4231.630914,-9400.615463,-222.061783,-919.314598
4231.631244,-9622.677246,0.000000,-689.485948
4231.631574,-10881.027347,0.000000,995.924147
4231.631904,-10807.006753,-222.061783,2451.505594
4231.632233,-9326.594869,-74.020594,2451.505594
4231.632563,-8734.430116,222.061783,1225.752797
4231.632893,-9326.594869,0.000000,306.438199
4231.633223,-10362.883188,148.041188,-76.609550
4231.633553,-10955.047942,222.061783,0.000000
4231.633882,-8956.491898,0.000000,153.219100
4231.634212,-8438.347739,222.061783,0.000000
4231.634542,-9622.677246,888.247130,0.000000
4231.634872,-9992.780217,296.082377,-459.657299
4231.635201,-9178.553681,0.000000,-1302.362347
4231.635531,-8068.244768,0.000000,-919.314598
4231.635861,-9622.677246,814.226536,76.609550
4231.636191,-11177.109724,444.123565,1072.533697
4231.636521,-10436.903782,296.082377,1149.143247
4231.636850,-9400.615463,370.102971,766.095498
4231.637180,-9992.780217,74.020594,76.609550
4231.637510,-10881.027347,370.102971,306.438199
4231.637840,-9696.697840,0.000000,229.828649
4231.638169,-8290.306550,592.164754,153.219100
4231.638499,-9178.553681,888.247130,-306.438199
4231.638829,-10807.006753,888.247130,-919.314598
4231.639159,-10881.027347,666.185348,-995.924147
4231.639489,-10140.821405,592.164754,-995.924147
4231.639818,-9474.636058,518.144159,-612.876398
4231.640148,-9770.718434,-666.185348,0.000000
4231.640478,-9252.574275,592.164754,536.266849
4231.640808,-8808.450710,444.123565,459.657299
4231.641137,-9770.718434,222.061783,-153.219100
4231.641467,-10288.862594,444.123565,0.000000
4231.641797,-10066.800811,1036.288319,0.000000
4231.642127,-10362.883188,888.247130,0.000000
4231.642457,-10066.800811,0.000000,0.000000
4231.642786,-9696.697840,518.144159,306.438199
4231.643116,-9326.594869,370.102971,229.828649
4231.643446,-9252.574275,666.185348,-612.876398
4231.643776,-10066.800811,740.205942,-919.314598
4231.644106,-11177.109724,296.082377,0.000000
4231.644435,-10658.965565,296.082377,153.219100
4231.644765,-9548.656652,0.000000,0.000000
4231.645095,-9696.697840,-148.041188,0.000000
4231.645425,-9104.533087,-814.226536,0.000000
4231.645754,-8734.430116,222.061783,306.438199
4231.646084,-10066.800811,592.164754,766.095498
4231.646414,-10362.883188,444.123565,229.828649
4231.646744,-10066.800811,444.123565,919.314598
4231.647074,-9326.594869,0.000000,383.047749
4231.647403,-9844.739029,-518.144159,153.219100
4231.647733,-9696.697840,-148.041188,459.657299
4231.648063,-9918.759623,-1184.329507,842.705048
4231.648393,-9474.636058,0.000000,1608.800546
4231.648722,-8956.491898,-370.102971,1455.581446
4231.649052,-9770.718434,0.000000,766.095498
4231.649382,-10214.842000,296.082377,0.000000
4231.649712,-10066.800811,592.164754,0.000000
4231.650042,-9548.656652,-592.164754,-229.828649
4231.650371,-9548.656652,148.041188,306.438199
4231.650701,-9548.656652,-518.144159,612.876398
4231.651031,-10140.821405,-444.123565,306.438199
4231.651361,-9474.636058,0.000000,-766.095498
4231.651690,-9252.574275,-962.267725,-766.095498
4231.652020,-9400.615463,-370.102971,229.828649
4231.652350,-10066.800811,-296.082377,919.314598
4231.652680,-10658.965565,0.000000,2451.505594
4231.653010,-9474.636058,0.000000,2298.286494
4231.653339,-9030.512492,-222.061783,842.705048
4231.653669,-9918.759623,-222.061783,-459.657299
4231.653999,-10807.006753,222.061783,-536.266849
4231.654329,-10214.842000,-2220.617826,-153.219100
4231.654658,-8882.471304,-296.082377,459.657299
4231.654988,-8956.491898,-1258.350101,1532.190996
4231.655318,-10214.842000,0.000000,842.705048
4231.655648,-10066.800811,74.020594,-153.219100
4231.655978,-10436.903782,-222.061783,-459.657299
4231.656307,-9844.739029,0.000000,-766.095498
4231.656637,-9622.677246,0.000000,-612.876398
4231.656967,-9696.697840,0.000000,536.266849
4231.657297,-9474.636058,-296.082377,689.485948
4231.657627,-9548.656652,0.000000,76.609550
4231.657956,-9844.739029,-296.082377,-383.047749
4231.658286,-10436.903782,74.020594,-612.876398
4231.658616,-10288.862594,-74.020594,-229.828649
4231.658946,-9844.739029,222.061783,919.314598
4231.659275,-9918.759623,148.041188,153.219100
4231.659605,-9178.553681,592.164754,-383.047749
4231.659935,-8882.471304,592.164754,0.000000
4231.660265,-10288.862594,0.000000,76.609550
4231.660595,-10066.800811,592.164754,0.000000
4231.660924,-10288.862594,888.247130,-612.876398
4231.661254,-9474.636058,0.000000,-1149.143247
4231.661584,-8956.491898,-74.020594,0.000000
4231.661914,-9548.656652,74.020594,612.876398
4231.662243,-9622.677246,-74.020594,459.657299
4231.662573,-9252.574275,222.061783,76.609550
4231.662903,-9400.615463,592.164754,459.657299
4231.663233,-10807.006753,592.164754,995.924147
4231.663563,-11547.212695,444.123565,1378.971896
4231.663892,-9400.615463,0.000000,0.000000
4231.664222,-8734.430116,518.144159,-536.266849
4231.664552,-9178.553681,740.205942,153.219100
4231.664882,-9548.656652,-370.102971,-76.609550
4231.665211,-10214.842000,296.082377,-612.876398
4231.665541,-10362.883188,1110.308913,-689.485948
4231.665871,-10732.986159,666.185348,0.000000
4231.666201,-8512.368333,592.164754,-1149.143247
4231.666531,-8512.368333,296.082377,-612.876398
4231.666860,-10584.944971,1332.370696,153.219100
4231.667190,-11769.274478,296.082377,536.266849
4231.667520,-11325.150913,296.082377,0.000000
4231.667850,-8734.430116,74.020594,-383.047749
4231.668179,-8290.306550,148.041188,229.828649
4231.668509,-9474.636058,0.000000,1149.143247
4231.668839,-10214.842000,0.000000,612.876398
4231.669169,-9622.677246,-148.041188,153.219100
4231.669499,-9622.677246,-444.123565,-76.609550
4231.669828,-9770.718434,-148.041188,0.000000
4231.670158,-9770.718434,-370.102971,689.485948
4231.670488,-8364.327145,0.000000,76.609550
4231.670818,-8882.471304,-222.061783,536.266849
4231.671148,-10584.944971,-74.020594,0.000000
4231.671477,-10066.800811,-370.102971,76.609550
4231.671807,-9474.636058,296.082377,-306.438199
4231.672137,-9696.697840,444.123565,-306.438199
4231.672467,-11399.171507,222.061783,0.000000
4231.672796,-9474.636058,222.061783,0.000000
4231.673126,-8586.388927,0.000000,-153.219100
4231.673456,-9548.656652,444.123565,-306.438199
4231.673786,-11029.068536,-222.061783,383.047749
4231.674116,-10584.944971,222.061783,229.828649
4231.674445,-9400.615463,-296.082377,0.000000
4231.674775,-9474.636058,-148.041188,459.657299
4231.675105,-10288.862594,-444.123565,689.485948
4231.675435,-10214.842000,-148.041188,383.047749
4231.675764,-8808.450710,-592.164754,766.095498
4231.676094,-9030.512492,-296.082377,689.485948
4231.676424,-10732.986159,148.041188,1608.800546
4231.676754,-11325.150913,-370.102971,1302.362347
4231.677084,-9918.759623,148.041188,995.924147
4231.677413,-9474.636058,-888.247130,153.219100
4231.677743,-10214.842000,74.020594,459.657299
4231.678073,-9770.718434,-592.164754,459.657299
4231.678403,-8808.450710,0.000000,-536.266849
4231.678732,-8586.388927,0.000000,76.609550
4231.679062,-9696.697840,-296.082377,306.438199
4231.679392,-9770.718434,0.000000,766.095498
4231.679722,-9844.739029,518.144159,1225.752797
4231.680052,-9844.739029,296.082377,-153.219100
4231.680381,-9992.780217,0.000000,-459.657299
4231.680711,-10066.800811,666.185348,-689.485948
4231.681041,-9178.553681,-518.144159,-689.485948
4231.681371,-9104.533087,148.041188,0.000000
4231.681700,-9696.697840,-518.144159,1532.190996
4231.682030,-10510.924376,0.000000,919.314598
4231.682360,-8586.388927,0.000000,536.266849
4231.682690,-9178.553681,-370.102971,383.047749
4231.683020,-10881.027347,222.061783,1302.362347
4231.683349,-10214.842000,-296.082377,229.828649
4231.683679,-9030.512492,0.000000,-459.657299
4231.684009,-8438.347739,296.082377,-919.314598
4231.684339,-9992.780217,296.082377,-383.047749
4231.684669,-10807.006753,0.000000,612.876398
4231.684998,-9844.739029,222.061783,536.266849
4231.685328,-8882.471304,-370.102971,0.000000
4231.685658,-9548.656652,444.123565,153.219100
4231.685988,-10436.903782,-518.144159,459.657299
4231.686317,-9770.718434,-222.061783,1072.533697
4231.686647,-9844.739029,-740.205942,1532.190996
4231.686977,-10510.924376,0.000000,1149.143247
4231.687307,-10362.883188,518.144159,536.266849
4231.687637,-9474.636058,222.061783,-1149.143247
4231.687966,-9400.615463,370.102971,-1378.971896
4231.688296,-10881.027347,518.144159,536.266849
4231.688626,-11547.212695,518.144159,919.314598
4231.688956,-9548.656652,444.123565,306.438199
4231.689285,-9178.553681,296.082377,-1149.143247
4231.689615,-9844.739029,444.123565,-766.095498
4231.689945,-10214.842000,0.000000,-306.438199
4231.690275,-9548.656652,-518.144159,76.609550
4231.690605,-8438.347739,-518.144159,842.705048
4231.690934,-10288.862594,0.000000,1608.800546
4231.691264,-10140.821405,-518.144159,919.314598
4231.691594,-9252.574275,0.000000,-383.047749
4231.691924,-8734.430116,74.020594,-842.705048
4231.692253,-9992.780217,0.000000,76.609550
4231.692583,-10510.924376,518.144159,1455.581446
4231.692913,-9918.759623,666.185348,1532.190996
4231.693243,-9474.636058,740.205942,306.438199
4231.693573,-9474.636058,-148.041188,-1455.581446
4231.693902,-9400.615463,0.000000,-1532.190996
4231.694232,-9696.697840,-444.123565,-1149.143247
4231.694562,-9326.594869,-518.144159,612.876398
4231.694892,-8882.471304,74.020594,842.705048
4231.695221,-8586.388927,148.041188,919.314598
4231.695551,-9770.718434,148.041188,1455.581446
4231.695881,-10658.965565,518.144159,76.609550
4231.696211,-11029.068536,74.020594,-919.314598
4231.696541,-10140.821405,666.185348,-612.876398
4231.696870,-9104.533087,0.000000,76.609550
4231.697200,-9622.677246,148.041188,76.609550
4231.697530,-10140.821405,814.226536,-306.438199
4231.697860,-10362.883188,740.205942,-689.485948
4231.698189,-9474.636058,148.041188,-1915.238745
4231.698519,-9178.553681,666.185348,-1838.629195
4231.698849,-10510.924376,-296.082377,612.876398
4231.699179,-10436.903782,-222.061783,2681.334243
4231.699509,-9400.615463,0.000000,1685.410096
4231.699838,-9696.697840,-370.102971,-76.609550
4231.700168,-10214.842000,222.061783,-919.314598
4231.700498,-10140.821405,0.000000,-153.219100
4231.700828,-10214.842000,74.020594,766.095498
4231.701158,-9918.759623,148.041188,1455.581446
4231.701487,-9992.780217,1036.288319,1225.752797
4231.701817,-9918.759623,74.020594,76.609550
4231.702147,-8660.409521,0.000000,-2298.286494
4231.702477,-10066.800811,0.000000,-919.314598
4231.702806,-10362.883188,740.205942,0.000000
4231.703136,-10140.821405,-148.041188,1762.019645
4231.703466,-9548.656652,1110.308913,1608.800546
4231.703796,-9474.636058,666.185348,689.485948
4231.704126,-9696.697840,0.000000,-1072.533697
4231.704455,-9622.677246,370.102971,-689.485948
4231.704785,-10436.903782,-370.102971,766.095498
4231.705115,-10658.965565,74.020594,2145.067394
4231.705445,-9770.718434,296.082377,1608.800546
4231.705774,-8882.471304,-740.205942,229.828649
4231.706104,-8290.306550,-370.102971,-536.266849
4231.706434,-9178.553681,-370.102971,0.000000
4231.706764,-10584.944971,-814.226536,306.438199
4231.707094,-10584.944971,148.041188,1455.581446
4231.707423,-9326.594869,-222.061783,1225.752797
4231.707753,-9178.553681,-296.082377,306.438199
4231.708083,-9696.697840,-222.061783,-229.828649
4231.708413,-10807.006753,296.082377,-153.219100
4231.708742,-9548.656652,0.000000,229.828649
4231.709072,-9326.594869,222.061783,0.000000
4231.709402,-9696.697840,-222.061783,536.266849
4231.709732,-10362.883188,222.061783,995.924147
4231.710062,-10288.862594,-74.020594,-383.047749
4231.710391,-9474.636058,-740.205942,-842.705048
4231.710721,-9400.615463,0.000000,0.000000
4231.711051,-9474.636058,-296.082377,995.924147
4231.711381,-9918.759623,0.000000,2068.457845
4231.711710,-10288.862594,592.164754,995.924147
4231.712040,-10510.924376,74.020594,-689.485948
4231.712370,-10214.842000,0.000000,-1225.752797
4231.712700,-10066.800811,0.000000,0.000000
4231.713030,-10436.903782,-148.041188,1838.629195
4231.713359,-10214.842000,0.000000,1685.410096
4231.713689,-9326.594869,74.020594,842.705048
4231.714019,-8882.471304,-518.144159,-1378.971896
4231.714349,-9030.512492,666.185348,-1838.629195
4231.714679,-9252.574275,0.000000,-536.266849
4231.715008,-9770.718434,0.000000,612.876398
4231.715338,-10510.924376,296.082377,1225.752797
4231.715668,-9474.636058,-148.041188,0.000000
4231.715998,-9178.553681,-370.102971,-1225.752797
4231.716327,-9252.574275,-296.082377,-1915.238745
4231.716657,-9548.656652,-370.102971,-306.438199
4231.716987,-9770.718434,0.000000,1608.800546
4231.717317,-8734.430116,0.000000,2451.505594
4231.717647,-9252.574275,-370.102971,2221.676944
4231.717976,-10584.944971,592.164754,229.828649
4231.718306,-11621.233289,222.061783,-1608.800546
4231.718636,-10510.924376,222.061783,-1455.581446
4231.718966,-8438.347739,148.041188,-536.266849
4231.719295,-8512.368333,74.020594,1072.533697
4231.719625,-9252.574275,148.041188,766.095498
4231.719955,-10140.821405,370.102971,-76.609550
4231.720285,-9918.759623,-148.041188,-536.266849
4231.720615,-10436.903782,296.082377,383.047749
4231.720944,-10066.800811,74.020594,1991.848295
4231.721274,-10214.842000,-518.144159,2374.896044
4231.721604,-9104.533087,0.000000,1838.629195
4231.721934,-8882.471304,-148.041188,383.047749
4231.722263,-9844.739029,296.082377,0.000000
4231.722593,-10066.800811,518.144159,-1072.533697
4231.722923,-9918.759623,296.082377,-383.047749
4231.723253,-8956.491898,370.102971,229.828649
4231.723582,-10066.800811,592.164754,153.219100
4231.723912,-10732.986159,444.123565,306.438199
4231.724242,-10362.883188,0.000000,-536.266849
4231.724571,-9474.636058,666.185348,-536.266849
4231.724901,-8956.491898,-296.082377,306.438199
4231.725231,-10140.821405,-296.082377,1225.752797
4231.725561,-9548.656652,-666.185348,2068.457845
4231.725890,-9400.615463,74.020594,1225.752797
4231.726220,-9992.780217,74.020594,-153.219100
4231.726550,-10288.862594,296.082377,-1072.533697
4231.726879,-10214.842000,0.000000,0.000000
4231.727209,-9548.656652,518.144159,612.876398
4231.727539,-9326.594869,592.164754,383.047749
4231.727868,-10288.862594,814.226536,-689.485948
4231.728198,-9474.636058,0.000000,-2757.943793
4231.728528,-8364.327145,-444.123565,-2298.286494
4231.728857,-9400.615463,296.082377,-306.438199
4231.729187,-10140.821405,-592.164754,1072.533697
4231.729517,-9844.739029,-444.123565,1532.190996
4231.729846,-8882.471304,-1036.288319,995.924147
4231.730176,-9918.759623,-592.164754,689.485948
4231.730506,-10658.965565,0.000000,689.485948
4231.730835,-9474.636058,-592.164754,306.438199
4231.731165,-9400.615463,0.000000,306.438199
4231.731495,-9622.677246,0.000000,995.924147
4231.731824,-10881.027347,74.020594,842.705048
4231.732154,-10288.862594,370.102971,76.609550
4231.732484,-9030.512492,0.000000,-766.095498
4231.732813,-9104.533087,296.082377,-1302.362347
4231.733143,-9844.739029,518.144159,-229.828649
4231.733473,-10066.800811,0.000000,229.828649
4231.733802,-9400.615463,-592.164754,536.266849
4231.734132,-9918.759623,444.123565,612.876398
4231.734462,-10288.862594,-296.082377,153.219100
4231.734791,-10140.821405,296.082377,229.828649
4231.735121,-8660.409521,-148.041188,919.314598
4231.735451,-10140.821405,0.000000,612.876398
4231.735780,-10732.986159,222.061783,1302.362347
4231.736110,-10214.842000,74.020594,919.314598
4231.736440,-9400.615463,444.123565,229.828649
4231.736769,-9400.615463,74.020594,-229.828649
4231.737099,-9548.656652,0.000000,-612.876398
4231.737429,-9622.677246,0.000000,-612.876398
4231.737758,-9770.718434,0.000000,-306.438199
4231.738088,-9474.636058,0.000000,229.828649
4231.738418,-9252.574275,592.164754,689.485948
4231.738747,-9178.553681,666.185348,76.609550
4231.739077,-10066.800811,222.061783,-842.705048
4231.739407,-9918.759623,0.000000,-536.266849
4231.739736,-9992.780217,-222.061783,1072.533697
4231.740066,-10066.800811,-518.144159,1378.971896
4231.740396,-9770.718434,-444.123565,1149.143247
4231.740725,-9474.636058,-222.061783,2068.457845
4231.741055,-9252.574275,0.000000,1225.752797
4231.741385,-9474.636058,222.061783,-612.876398
4231.741714,-10658.965565,222.061783,-766.095498
4231.742044,-10362.883188,370.102971,689.485948
4231.742374,-10584.944971,222.061783,1302.362347
4231.742704,-10214.842000,444.123565,919.314598
4231.743033,-9622.677246,0.000000,-766.095498
4231.743363,-9696.697840,-222.061783,-1762.019645
4231.743693,-9252.574275,-444.123565,-995.924147
4231.744022,-9992.780217,-962.267725,689.485948
4231.744352,-9918.759623,-666.185348,2451.505594
4231.744682,-9400.615463,-518.144159,2528.115143
4231.745011,-10140.821405,148.041188,842.705048
4231.745341,-9030.512492,0.000000,-1378.971896
4231.745671,-10510.924376,-74.020594,-1149.143247
4231.746000,-10584.944971,148.041188,306.438199
4231.746330,-10362.883188,148.041188,1378.971896
4231.746660,-9178.553681,74.020594,306.438199
4231.746989,-8808.450710,0.000000,-1149.143247
4231.747319,-9548.656652,-666.185348,-2221.676944
4231.747649,-9400.615463,-444.123565,-766.095498
4231.747978,-9400.615463,-740.205942,766.095498
4231.748308,-9770.718434,-740.205942,2298.286494
4231.748638,-9622.677246,296.082377,2221.676944
4231.748967,-10288.862594,222.061783,995.924147
4231.749297,-9918.759623,222.061783,-689.485948
4231.749627,-10584.944971,444.123565,-1455.581446
4231.749956,-10658.965565,888.247130,-536.266849
4231.750286,-10658.965565,666.185348,536.266849
4231.750616,-9474.636058,370.102971,766.095498
4231.750945,-9474.636058,-296.082377,0.000000
4231.751275,-9474.636058,-148.041188,-842.705048
4231.751605,-9992.780217,-74.020594,-383.047749
4231.751934,-10288.862594,296.082377,1072.533697
4231.752264,-8734.430116,-962.267725,1302.362347
4231.752594,-9252.574275,0.000000,2068.457845
4231.752923,-9992.780217,666.185348,1762.019645
4231.753253,-11177.109724,740.205942,229.828649
4231.753583,-11177.109724,888.247130,-536.266849
4231.753912,-10066.800811,222.061783,0.000000
4231.754242,-9696.697840,222.061783,766.095498
4231.754572,-9252.574275,0.000000,1378.971896
4231.754901,-8808.450710,0.000000,76.609550
4231.755231,-8808.450710,-444.123565,459.657299
4231.755561,-9030.512492,-370.102971,-459.657299
4231.755890,-9622.677246,-592.164754,153.219100
4231.756220,-10510.924376,0.000000,919.314598
4231.756550,-10362.883188,0.000000,1915.238745
4231.756879,-10510.924376,-296.082377,1532.190996
4231.757209,-9844.739029,0.000000,0.000000
4231.757539,-9104.533087,444.123565,-1455.581446
4231.757868,-9992.780217,592.164754,-1149.143247
4231.758198,-9770.718434,296.082377,-689.485948
4231.758528,-9474.636058,592.164754,-612.876398
4231.758857,-9252.574275,0.000000,-383.047749
4231.759187,-9474.636058,370.102971,-1608.800546
4231.759517,-9474.636058,0.000000,-1608.800546
4231.759847,-9696.697840,148.041188,-1532.190996
4231.760176,-10288.862594,0.000000,-1225.752797
4231.760506,-10140.821405,-148.041188,689.485948
4231.760836,-9400.615463,222.061783,1608.800546
4231.761165,-9474.636058,962.267725,1455.581446
4231.761495,-10584.944971,666.185348,-383.047749
4231.761825,-11621.233289,518.144159,-919.314598
4231.762154,-10584.944971,592.164754,-612.876398
4231.762484,-10066.800811,444.123565,-383.047749
4231.762814,-9104.533087,0.000000,-766.095498
4231.763143,-8956.491898,74.020594,-306.438199
4231.763473,-9178.553681,592.164754,-842.705048
4231.763803,-8586.388927,296.082377,-1608.800546
4231.764132,-9400.615463,370.102971,-1455.581446
4231.764462,-10955.047942,814.226536,-919.314598
4231.764792,-10362.883188,814.226536,1149.143247
4231.765121,-9622.677246,666.185348,2374.896044
4231.765451,-9548.656652,370.102971,1532.190996
4231.765781,-10584.944971,592.164754,1072.533697
4231.766110,-11473.192101,592.164754,306.438199
4231.766440,-10658.965565,74.020594,153.219100
4231.766770,-9474.636058,0.000000,-153.219100
4231.767099,-9178.553681,888.247130,1455.581446
4231.767429,-9178.553681,0.000000,1149.143247
4231.767759,-9104.533087,-148.041188,229.828649
4231.768088,-9104.533087,74.020594,-306.438199
4231.768418,-10510.924376,0.000000,459.657299
4231.768748,-10584.944971,-444.123565,383.047749
4231.769077,-9474.636058,-592.164754,153.219100
4231.769407,-9474.636058,222.061783,995.924147
4231.769737,-9548.656652,0.000000,612.876398
4231.770066,-9918.759623,74.020594,0.000000
4231.770396,-8956.491898,0.000000,-995.924147
4231.770726,-9400.615463,-296.082377,229.828649
4231.771055,-10288.862594,0.000000,995.924147
4231.771385,-10362.883188,-296.082377,689.485948
4231.771715,-9548.656652,-518.144159,76.609550
4231.772044,-8438.347739,-518.144159,-306.438199
4231.772374,-9696.697840,-1332.370696,-612.876398
4231.772704,-9918.759623,-740.205942,-153.219100
4231.773033,-9474.636058,444.123565,536.266849
4231.773363,-9252.574275,1110.308913,383.047749
4231.773693,-10510.924376,-296.082377,-1838.629195
4231.774022,-10066.800811,1480.411884,-842.705048
4231.774352,-10881.027347,666.185348,0.000000
4231.774682,-10732.986159,0.000000,0.000000
4231.775011,-9252.574275,-518.144159,76.609550
4231.775341,-8660.409521,-1036.288319,995.924147
4231.775671,-8512.368333,-296.082377,306.438199
4231.776000,-9548.656652,0.000000,-766.095498
4231.776330,-10510.924376,-370.102971,-459.657299
4231.776660,-9770.718434,518.144159,0.000000
4231.776989,-10658.965565,814.226536,842.705048
4231.777319,-10288.862594,370.102971,1302.362347
4231.777649,-10436.903782,518.144159,459.657299
4231.777979,-9992.780217,740.205942,-76.609550
4231.778308,-9178.553681,-666.185348,-306.438199
4231.778638,-9622.677246,222.061783,0.000000
4231.778968,-9030.512492,0.000000,1225.752797
4231.779297,-9696.697840,370.102971,1915.238745
4231.779627,-9178.553681,-444.123565,919.314598
4231.779957,-9918.759623,0.000000,306.438199
4231.780286,-9696.697840,444.123565,383.047749
4231.780616,-9844.739029,74.020594,229.828649
4231.780946,-9844.739029,888.247130,842.705048
4231.781275,-9992.780217,1036.288319,1225.752797
4231.781605,-10288.862594,1184.329507,0.000000
4231.781935,-9844.739029,1184.329507,-1302.362347
4231.782264,-10214.842000,1258.350101,-2068.457845
4231.782594,-10881.027347,370.102971,-995.924147
4231.782924,-10214.842000,222.061783,-383.047749
4231.783253,-9548.656652,296.082377,0.000000
4231.783583,-8734.430116,-148.041188,-1302.362347
4231.783913,-8734.430116,222.061783,-1532.190996
4231.784242,-9104.533087,222.061783,-383.047749
4231.784572,-10066.800811,1258.350101,0.000000
4231.784902,-9622.677246,1628.453072,-842.705048
4231.785231,-10510.924376,1110.308913,0.000000
4231.785561,-11325.150913,1258.350101,459.657299
4231.785891,-10436.903782,0.000000,-459.657299
4231.786220,-9326.594869,148.041188,-1532.190996
4231.786550,-8660.409521,-518.144159,-1532.190996
4231.786880,-8734.430116,518.144159,-229.828649
4231.787209,-9992.780217,740.205942,1149.143247
4231.787539,-10510.924376,814.226536,-1685.410096
4231.787869,-9622.677246,1332.370696,-1762.019645
4231.788198,-9622.677246,2220.617826,-995.924147
4231.788528,-11029.068536,2516.700203,0.000000
4231.788858,-10955.047942,1406.391290,0.000000
4231.789187,-9770.718434,1110.308913,-1302.362347
4231.789517,-8734.430116,962.267725,-2374.896044
4231.789847,-10066.800811,1184.329507,-2451.505594
4231.790176,-10807.006753,1480.411884,-1991.848295
4231.790506,-9548.656652,592.164754,-2374.896044
4231.790836,-8438.347739,740.205942,-1685.410096
4231.791165,-7698.141797,962.267725,-459.657299
4231.791495,-9770.718434,518.144159,-1072.533697
4231.791825,-9696.697840,1628.453072,-1532.190996
4231.792154,-9104.533087,1480.411884,-2298.286494
4231.792484,-9622.677246,2664.741391,-2528.115143
4231.792814,-9548.656652,2368.659014,-3217.601092
4231.793143,-10510.924376,2812.782580,-2451.505594
4231.793473,-10510.924376,2368.659014,-2911.162892
4231.793803,-10140.821405,1554.432478,-3140.991542
4231.794132,-9030.512492,2146.597232,-3524.039291
4231.794462,-7920.203579,2368.659014,-2987.772442
4231.794792,-8660.409521,2960.823768,-1991.848295
4231.795122,-10214.842000,2960.823768,-1149.143247
4231.795451,-12139.377449,3997.112087,-1302.362347
4231.795781,-11251.130318,3404.947333,-2068.457845
4231.796111,-10288.862594,3182.885551,-2604.724693
4231.796440,-10436.903782,3552.988522,-1762.019645
4231.796770,-11177.109724,2664.741391,-1455.581446
4231.797100,-10510.924376,2220.617826,-1762.019645
4231.797429,-7846.182985,1998.556043,-2145.067394
4231.797759,-7920.203579,2368.659014,-2145.067394
4231.798089,-8068.244768,2368.659014,-2145.067394
4231.798418,-8956.491898,3182.885551,-1991.848295
4231.798748,-9474.636058,3182.885551,-2757.943793
4231.799078,-9992.780217,3256.906145,-1991.848295
4231.799407,-11399.171507,3627.009116,-2604.724693
4231.799737,-11251.130318,3182.885551,-2528.115143
4231.800067,-10510.924376,3256.906145,-1991.848295
4231.800396,-9474.636058,2442.679609,-2145.067394
4231.800726,-9326.594869,2664.741391,-2681.334243
4231.801056,-9030.512492,2220.617826,-2604.724693
4231.801385,-9252.574275,2886.803174,-2911.162892
4231.801715,-8882.471304,2664.741391,-2451.505594
4231.802045,-9844.739029,2664.741391,-612.876398
4231.802374,-10214.842000,2516.700203,-919.314598
4231.802704,-10510.924376,1998.556043,-1838.629195
4231.803034,-9918.759623,2960.823768,-3447.429741
4231.803363,-9252.574275,1480.411884,-3907.087040
4231.803693,-8882.471304,1702.473667,-2528.115143
4231.804023,-8512.368333,1776.494261,-995.924147
4231.804352,-9326.594869,2516.700203,383.047749
4231.804682,-10066.800811,1702.473667,-383.047749
4231.805012,-10066.800811,2146.597232,-2221.676944
4231.805341,-9770.718434,1776.494261,-3447.429741
4231.805671,-9252.574275,2072.576638,-3677.258390
4231.806001,-9622.677246,2960.823768,-2298.286494
4231.806330,-10436.903782,888.247130,-2145.067394
4231.806660,-10955.047942,1998.556043,-2604.724693
4231.806990,-9178.553681,2516.700203,-2604.724693
4231.807319,-8660.409521,2072.576638,-3753.867940
4231.807649,-11399.171507,2294.638420,-3140.991542
4231.807979,-8586.388927,1036.288319,-306.438199
4231.808308,-8882.471304,1258.350101,-153.219100
4231.808638,-10214.842000,1480.411884,-995.924147
4231.808968,-10658.965565,1554.432478,-1149.143247
4231.809297,-9474.636058,2146.597232,-1838.629195
4231.809627,-9918.759623,1924.535449,-2911.162892
4231.809957,-10510.924376,1924.535449,-2451.505594
4231.810286,-10362.883188,1998.556043,-2374.896044
4231.810616,-9474.636058,1702.473667,-2221.676944
4231.810946,-8512.368333,962.267725,-2068.457845
4231.811275,-9696.697840,1628.453072,-2145.067394
4231.811605,-8956.491898,1258.350101,-2757.943793
4231.811935,-9474.636058,1406.391290,-2681.334243
4231.812265,-9918.759623,1702.473667,-2221.676944
4231.812594,-9622.677246,2220.617826,-1072.533697
4231.812924,-10436.903782,2220.617826,0.000000
4231.813254,-10807.006753,1850.514855,-383.047749
4231.813583,-10140.821405,1924.535449,-1455.581446
4231.813913,-10288.862594,1702.473667,-2068.457845
4231.814243,-9622.677246,1554.432478,-1915.238745
4231.814572,-9252.574275,2220.617826,-1608.800546
4231.814902,-8660.409521,1850.514855,-1685.410096
4231.815232,-8734.430116,1776.494261,-1838.629195
4231.815561,-9326.594869,2294.638420,-1838.629195
4231.815891,-9918.759623,2590.720797,-3140.991542
4231.816221,-9252.574275,2294.638420,-3140.991542
4231.816550,-9622.677246,2664.741391,-1455.581446
4231.816880,-9548.656652,2146.597232,-1072.533697
4231.817210,-9844.739029,2442.679609,-1302.362347
4231.817539,-10288.862594,2220.617826,-1838.629195
4231.817869,-9696.697840,1776.494261,-2298.286494
4231.818199,-9548.656652,2368.659014,-1685.410096
4231.818528,-9622.677246,1850.514855,-919.314598
4231.818858,-9400.615463,2738.761985,-995.924147
4231.819188,-9548.656652,3108.864956,-1608.800546
4231.819517,-9696.697840,2886.803174,-2451.505594
4231.819847,-11325.150913,2960.823768,-2987.772442
4231.820177,-10732.986159,2960.823768,-2834.553343
4231.820506,-9622.677246,1998.556043,-2987.772442
4231.820836,-8660.409521,2072.576638,-2911.162892
4231.821166,-9252.574275,1776.494261,-1915.238745
4231.821495,-9400.615463,1998.556043,-1225.752797
4231.821825,-9326.594869,2072.576638,-1302.362347
4231.822155,-10140.821405,2590.720797,-1685.410096
4231.822484,-10066.800811,2368.659014,-1685.410096
4231.822814,-10140.821405,2886.803174,-919.314598
4231.823144,-10436.903782,2368.659014,-1225.752797
4231.823474,-10066.800811,2146.597232,-2298.286494
4231.823804,-9622.677246,2294.638420,-2451.505594
4231.824133,-8882.471304,1924.535449,-2528.115143
4231.824463,-9252.574275,1776.494261,-1685.410096
4231.824793,-9474.636058,1776.494261,-1302.362347
4231.825123,-9696.697840,1998.556043,-1225.752797
4231.825452,-9178.553681,2072.576638,-1915.238745
4231.825782,-9030.512492,1702.473667,-2221.676944
4231.826112,-9918.759623,1998.556043,-2451.505594
4231.826442,-10362.883188,2220.617826,-1455.581446
4231.826771,-9918.759623,2442.679609,-1378.971896
4231.827101,-9622.677246,1776.494261,-1532.190996
4231.827431,-9992.780217,2590.720797,-2987.772442
4231.827761,-10214.842000,2294.638420,-2834.553343
4231.828091,-10436.903782,2368.659014,-2298.286494
4231.828420,-9992.780217,2146.597232,-2298.286494
4231.828750,-9548.656652,1776.494261,-2604.724693
4231.829080,-8956.491898,1702.473667,-2374.896044
4231.829410,-9030.512492,1628.453072,-2451.505594
4231.829739,-9030.512492,1628.453072,-2298.286494
4231.830069,-9844.739029,1998.556043,-2834.553343
4231.830399,-10066.800811,2368.659014,-1991.848295
4231.830729,-10288.862594,1998.556043,-1225.752797
4231.831058,-10807.006753,2368.659014,-995.924147
4231.831388,-9770.718434,2368.659014,-1608.800546
4231.831718,-10288.862594,2294.638420,-2221.676944
4231.832048,-10288.862594,2146.597232,-2604.724693
4231.832378,-9548.656652,1850.514855,-2374.896044
4231.832707,-9622.677246,2072.576638,-689.485948
4231.833037,-9770.718434,1554.432478,-766.095498
4231.833367,-9622.677246,1628.453072,-2068.457845
4231.833697,-9252.574275,1554.432478,-2528.115143
4231.834026,-9030.512492,1998.556043,-2757.943793
4231.834356,-9548.656652,1924.535449,-1991.848295
4231.834686,-10066.800811,1776.494261,-1378.971896
4231.835016,-9918.759623,1702.473667,0.000000
4231.835345,-9326.594869,1628.453072,0.000000
4231.835675,-9474.636058,1850.514855,-689.485948
4231.836005,-9844.739029,1480.411884,-1225.752797
4231.836335,-10214.842000,1924.535449,-1532.190996
4231.836665,-9548.656652,1776.494261,-1608.800546
4231.836994,-9252.574275,2368.659014,-1378.971896
4231.837324,-9918.759623,2590.720797,-1455.581446
4231.837654,-9992.780217,2590.720797,-2757.943793
4231.837984,-9474.636058,2294.638420,-3983.696590
4231.838313,-9326.594869,2220.617826,-3753.867940
4231.838643,-9844.739029,2146.597232,-2068.457845
4231.838973,-9844.739029,1850.514855,-383.047749
4231.839303,-10362.883188,1850.514855,-612.876398
4231.839633,-8734.430116,1628.453072,-2221.676944
4231.839962,-8586.388927,1184.329507,-2834.553343
4231.840292,-9696.697840,1628.453072,-2757.943793
4231.840622,-9992.780217,2072.576638,-1685.410096
4231.840952,-10214.842000,2294.638420,-919.314598
4231.841281,-9622.677246,2738.761985,-1225.752797
4231.841611,-9548.656652,2516.700203,-1915.238745
4231.841941,-9770.718434,2220.617826,-3447.429741
4231.842271,-10140.821405,2294.638420,-3830.477490
4231.842600,-9844.739029,2294.638420,-2987.772442
4231.842930,-9326.594869,1850.514855,-1608.800546
4231.843260,-8956.491898,1998.556043,-919.314598
4231.843590,-9252.574275,1702.473667,-1225.752797
4231.843920,-9918.759623,1702.473667,-2068.457845
4231.844249,-9918.759623,1702.473667,-3064.381992
4231.844579,-9844.739029,2220.617826,-2757.943793
4231.844909,-9622.677246,2294.638420,-1685.410096
4231.845239,-9992.780217,2590.720797,-842.705048
4231.845568,-10510.924376,2664.741391,-383.047749
4231.845898,-10140.821405,2146.597232,-1532.190996
4231.846228,-9622.677246,1628.453072,-2681.334243
4231.846558,-9696.697840,1480.411884,-2374.896044
4231.846887,-9696.697840,1924.535449,-1685.410096
4231.847217,-9400.615463,1850.514855,-1225.752797
4231.847547,-8512.368333,1702.473667,-1991.848295
4231.847877,-8660.409521,1850.514855,-2145.067394
4231.848207,-10214.842000,2442.679609,-2145.067394
4231.848536,-10955.047942,2812.782580,-2068.457845
4231.848866,-10658.965565,2812.782580,-1608.800546
4231.849196,-9918.759623,2294.638420,-1991.848295
4231.849526,-9770.718434,2294.638420,-2145.067394
4231.849855,-10362.883188,2442.679609,-1838.629195
4231.850185,-10066.800811,1776.494261,-2298.286494
4231.850515,-9400.615463,1480.411884,-2221.676944
4231.850845,-8438.347739,1332.370696,-1915.238745
4231.851174,-8586.388927,1332.370696,-1762.019645
4231.851504,-9178.553681,1480.411884,-1455.581446
4231.851834,-10140.821405,2220.617826,-1455.581446
4231.852164,-10732.986159,2072.576638,-1685.410096
4231.852494,-10288.862594,1628.453072,-1378.971896
4231.852823,-10214.842000,1998.556043,-1072.533697
4231.853153,-9770.718434,1406.391290,0.000000
4231.853483,-9696.697840,1480.411884,76.609550
4231.853813,-9400.615463,962.267725,-995.924147
4231.854142,-8882.471304,814.226536,-1225.752797
4231.854472,-9326.594869,1110.308913,-1608.800546
4231.854802,-9474.636058,1258.350101,-1532.190996
4231.855132,-9252.574275,1110.308913,-2145.067394
4231.855461,-8734.430116,1554.432478,-2987.772442
4231.855791,-8882.471304,1110.308913,-2145.067394
4231.856121,-9918.759623,1184.329507,-1302.362347
4231.856451,-10362.883188,1332.370696,-1302.362347
4231.856781,-9474.636058,1554.432478,-2221.676944
4231.857110,-8956.491898,1184.329507,-2757.943793
4231.857440,-9400.615463,1184.329507,-2987.772442
4231.857770,-9770.718434,1036.288319,-1608.800546
4231.858100,-10140.821405,1332.370696,-1378.971896
4231.858429,-9474.636058,1036.288319,-1608.800546
4231.858759,-9252.574275,1184.329507,-1991.848295
4231.859089,-9770.718434,1628.453072,-2451.505594
4231.859419,-10066.800811,1998.556043,-3064.381992
4231.859748,-10510.924376,2220.617826,-2604.724693
4231.860078,-10066.800811,2442.679609,-3140.991542
4231.860408,-9696.697840,2220.617826,-2451.505594
4231.860738,-10510.924376,2368.659014,-2068.457845
4231.861068,-10362.883188,2294.638420,-1762.019645
4231.861397,-10510.924376,2146.597232,-2451.505594
4231.861727,-10436.903782,2072.576638,-2604.724693
4231.862057,-9696.697840,2368.659014,-2221.676944
4231.862387,-9696.697840,2368.659014,-2221.676944
4231.862716,-9696.697840,2886.803174,-1991.848295
4231.863046,-9400.615463,2590.720797,-2374.896044
4231.863376,-9622.677246,2886.803174,-2374.896044
4231.863706,-10140.821405,3182.885551,-2221.676944
4231.864035,-10214.842000,3552.988522,-1685.410096
4231.864365,-10510.924376,3404.947333,-2451.505594
4231.864695,-9548.656652,3256.906145,-2451.505594
4231.865025,-9474.636058,3034.844362,-3217.601092
4231.865355,-9474.636058,2960.823768,-1762.019645
4231.865684,-10066.800811,3256.906145,-995.924147
4231.866014,-9326.594869,3330.926739,-2068.457845
4231.866344,-8660.409521,3182.885551,-3140.991542
4231.866674,-8512.368333,3256.906145,-3370.820191
4231.867003,-9622.677246,3849.070898,-2757.943793
4231.867333,-10362.883188,4145.153275,-1378.971896
4231.867663,-9548.656652,3552.988522,-1225.752797
4231.867993,-8734.430116,3404.947333,-1378.971896
4231.868322,-9030.512492,2812.782580,-1378.971896
4231.868652,-10140.821405,3108.864956,-1378.971896
4231.868982,-10584.944971,2960.823768,-1991.848295
4231.869312,-9474.636058,3182.885551,-2528.115143
4231.869642,-8438.347739,3404.947333,-2374.896044
4231.869971,-8808.450710,3034.844362,-2145.067394
4231.870301,-9992.780217,3256.906145,-2145.067394
4231.870631,-10140.821405,3627.009116,-2374.896044
4231.870961,-9770.718434,3182.885551,-2604.724693
4231.871290,-9548.656652,3108.864956,-2221.676944
4231.871620,-10066.800811,2960.823768,-1149.143247
4231.871950,-10436.903782,2072.576638,-459.657299
4231.872280,-10066.800811,2442.679609,-1378.971896
4231.872610,-8956.491898,1702.473667,-2757.943793
4231.872939,-9326.594869,1554.432478,-2681.334243
4231.873269,-9844.739029,1628.453072,-1378.971896
4231.873599,-9918.759623,1850.514855,0.000000
4231.873929,-9400.615463,1998.556043,-383.047749
4231.874258,-9844.739029,1850.514855,-1838.629195
4231.874588,-10436.903782,2072.576638,-2528.115143
4231.874918,-10362.883188,1554.432478,-2757.943793
4231.875248,-10362.883188,1776.494261,-1685.410096
4231.875577,-10362.883188,740.205942,-842.705048
4231.875907,-9622.677246,814.226536,-689.485948
4231.876237,-9178.553681,666.185348,-2145.067394
4231.876567,-8882.471304,0.000000,-2528.115143
4231.876897,-9400.615463,0.000000,-2068.457845
4231.877226,-9326.594869,148.041188,-1225.752797
4231.877556,-9918.759623,0.000000,0.000000
4231.877886,-9844.739029,592.164754,383.047749
4231.878216,-10436.903782,1110.308913,-76.609550
4231.878545,-10214.842000,592.164754,-2451.505594
4231.878875,-10362.883188,1110.308913,-3140.991542
4231.879205,-10584.944971,1258.350101,-2528.115143
4231.879535,-10436.903782,1258.350101,-612.876398
4231.879864,-9696.697840,1036.288319,-1608.800546
4231.880194,-9104.533087,962.267725,-2834.553343
4231.880524,-8438.347739,0.000000,-2911.162892
4231.880854,-9474.636058,370.102971,-2451.505594
4231.881184,-9770.718434,888.247130,-995.924147
4231.881513,-9474.636058,740.205942,-383.047749
4231.881843,-9252.574275,1258.350101,-1072.533697
4231.882173,-10140.821405,1998.556043,-1149.143247
4231.882503,-11769.274478,2072.576638,-1608.800546
4231.882832,-11843.295072,2368.659014,-2068.457845
4231.883162,-10288.862594,1776.494261,-2528.115143
4231.883492,-8882.471304,1850.514855,-2757.943793
4231.883822,-9622.677246,2368.659014,-1532.190996
4231.884151,-9474.636058,1554.432478,-2298.286494
4231.884481,-9252.574275,1998.556043,-3447.429741
4231.884811,-8882.471304,1850.514855,-4060.306139
4231.885141,-8512.368333,1702.473667,-3140.991542
4231.885471,-9030.512492,2590.720797,-1455.581446
4231.885800,-9400.615463,2664.741391,-612.876398
4231.886130,-10436.903782,2886.803174,-1072.533697
4231.886460,-9696.697840,2812.782580,-1991.848295
4231.886790,-10732.986159,2738.761985,-1991.848295
4231.887119,-11029.068536,3182.885551,-2145.067394
4231.887449,-10140.821405,2812.782580,-1455.581446
4231.887779,-8512.368333,2960.823768,-1532.190996
4231.888109,-8068.244768,2072.576638,-2374.896044
4231.888438,-9252.574275,3256.906145,-2451.505594
4231.888768,-9548.656652,2812.782580,-2528.115143
4231.889098,-10436.903782,3849.070898,-2681.334243
4231.889428,-9400.615463,3552.988522,-3064.381992
4231.889758,-9400.615463,3404.947333,-2834.553343
4231.890087,-9918.759623,3404.947333,-2834.553343
4231.890417,-9770.718434,3034.844362,-3064.381992
4231.890747,-9104.533087,2738.761985,-2374.896044
4231.891077,-9326.594869,2368.659014,-1608.800546
4231.891406,-10288.862594,2812.782580,-689.485948
4231.891736,-9696.697840,2516.700203,-689.485948
4231.892066,-9548.656652,2664.741391,-1762.019645
4231.892396,-9326.594869,2368.659014,-2604.724693
4231.892725,-10214.842000,2960.823768,-2604.724693
4231.893055,-9548.656652,2442.679609,-2681.334243
4231.893385,-9770.718434,2960.823768,-1762.019645
4231.893715,-9992.780217,2812.782580,-1685.410096
4231.894045,-9918.759623,3330.926739,-1762.019645
4231.894374,-9770.718434,3256.906145,-2834.553343
4231.894704,-10066.800811,2442.679609,-3447.429741
4231.895034,-10955.047942,2738.761985,-2451.505594
4231.895364,-10140.821405,1702.473667,-2528.115143
4231.895693,-8808.450710,1924.535449,-2528.115143
4231.896023,-8438.347739,1850.514855,-2298.286494
4231.896353,-9252.574275,2146.597232,-1991.848295
4231.896683,-9918.759623,2738.761985,-1915.238745
4231.897012,-10510.924376,2590.720797,-2374.896044
4231.897342,-10732.986159,2590.720797,-2298.286494
4231.897672,-10658.965565,2294.638420,-1532.190996
4231.898002,-10955.047942,2368.659014,-306.438199
4231.898332,-9918.759623,1406.391290,-612.876398
4231.898661,-8882.471304,1258.350101,-1838.629195
4231.898991,-8660.409521,962.267725,-2451.505594
4231.899321,-8882.471304,814.226536,-2451.505594
4231.899651,-8956.491898,962.267725,-2298.286494
4231.899980,-9400.615463,1406.391290,-1225.752797
4231.900310,-9326.594869,2072.576638,-842.705048
4231.900640,-9844.739029,1776.494261,-995.924147
4231.900970,-10436.903782,2664.741391,-1455.581446
4231.901299,-10658.965565,2072.576638,-2451.505594
4231.901629,-11103.089130,1924.535449,-2221.676944
4231.901959,-11029.068536,2294.638420,-1378.971896
4231.902289,-9548.656652,1850.514855,-2068.457845
4231.902619,-8438.347739,814.226536,-1915.238745
4231.902948,-8364.327145,1258.350101,-2451.505594
4231.903278,-9992.780217,888.247130,-2068.457845
4231.903608,-9178.553681,592.164754,-2604.724693
4231.903938,-8216.285956,888.247130,-1072.533697
4231.904267,-8586.388927,1628.453072,76.609550
4231.904597,-10584.944971,2072.576638,76.609550
4231.904927,-11177.109724,1554.432478,-1915.238745
4231.905257,-9992.780217,1184.329507,-2911.162892
4231.905587,-10362.883188,1554.432478,-2374.896044
4231.905916,-10881.027347,1924.535449,-1378.971896
4231.906246,-9400.615463,1480.411884,-1072.533697
4231.906576,-8512.368333,1702.473667,-1302.362347
4231.906906,-8290.306550,1332.370696,-1608.800546
4231.907235,-9918.759623,888.247130,-1378.971896
4231.907565,-9918.759623,962.267725,-2834.553343
4231.907895,-8438.347739,1628.453072,-4060.306139
4231.908225,-9326.594869,2072.576638,-2757.943793
4231.908554,-10584.944971,2442.679609,-2221.676944
4231.908884,-10066.800811,1924.535449,-1762.019645
4231.909214,-9474.636058,2368.659014,0.000000
4231.909544,-10807.006753,2368.659014,-842.705048
4231.909874,-10732.986159,2072.576638,-1149.143247
4231.910203,-10214.842000,2368.659014,-1991.848295
4231.910533,-10140.821405,1332.370696,-2911.162892
4231.910863,-9400.615463,962.267725,-2911.162892
4231.911193,-8586.388927,1184.329507,-2451.505594
4231.911522,-8142.265362,888.247130,-1838.629195
4231.911852,-7846.182985,1480.411884,-1225.752797
4231.912182,-9474.636058,1480.411884,-1225.752797
4231.912512,-10732.986159,2738.761985,-995.924147
4231.912841,-11843.295072,2960.823768,-2451.505594
4231.913171,-10288.862594,3034.844362,-2451.505594
4231.913501,-10362.883188,2072.576638,-2068.457845
4231.913831,-11621.233289,2368.659014,0.000000
4231.914161,-10066.800811,1480.411884,-229.828649
4231.914490,-9178.553681,1480.411884,-1991.848295
4231.914820,-8290.306550,1184.329507,-3830.477490
4231.915150,-8660.409521,1184.329507,-2451.505594
4231.915480,-9030.512492,1998.556043,-1302.362347
4231.915809,-8660.409521,1480.411884,-459.657299
4231.916139,-9104.533087,2368.659014,76.609550
4231.916469,-10807.006753,2220.617826,-383.047749
4231.916799,-11843.295072,1702.473667,-1608.800546
4231.917128,-11029.068536,1554.432478,-536.266849
4231.917458,-10066.800811,1480.411884,0.000000
4231.917788,-10066.800811,1406.391290,459.657299
4231.918118,-7920.203579,1554.432478,612.876398
4231.918448,-8808.450710,592.164754,-153.219100
4231.918777,-9178.553681,814.226536,-842.705048
4231.919107,-9770.718434,370.102971,612.876398
4231.919437,-9696.697840,666.185348,383.047749
4231.919767,-9474.636058,1036.288319,1302.362347
4231.920096,-9844.739029,1332.370696,1532.190996
4231.920426,-9696.697840,1480.411884,383.047749
4231.920756,-10362.883188,2368.659014,-1225.752797
4231.921086,-10362.883188,1480.411884,-1838.629195
4231.921415,-10732.986159,1776.494261,-1685.410096
4231.921745,-10214.842000,1554.432478,76.609550
4231.922075,-10362.883188,1184.329507,1072.533697
4231.922405,-9474.636058,74.020594,76.609550
4231.922735,-9104.533087,-1258.350101,919.314598
4231.923064,-8808.450710,-888.247130,612.876398
4231.923394,-8956.491898,-444.123565,383.047749
4231.923724,-9696.697840,-148.041188,0.000000
4231.924054,-9622.677246,-222.061783,-229.828649
4231.924383,-10066.800811,370.102971,306.438199
4231.924713,-10510.924376,222.061783,459.657299
4231.925043,-10955.047942,-222.061783,306.438199
4231.925373,-9918.759623,-1184.329507,612.876398
4231.925702,-9474.636058,-1184.329507,1225.752797
4231.926032,-9252.574275,-1332.370696,1072.533697
4231.926362,-8216.285956,-2516.700203,612.876398
4231.926691,-8586.388927,-1628.453072,383.047749
4231.927021,-9252.574275,-1776.494261,1838.629195
4231.927351,-11029.068536,-666.185348,1915.238745
4231.927680,-10955.047942,-1406.391290,919.314598
4231.928010,-11177.109724,222.061783,612.876398
4231.928340,-10140.821405,-740.205942,612.876398
4231.928669,-10881.027347,-666.185348,306.438199
4231.928999,-10436.903782,-592.164754,459.657299
4231.929328,-9622.677246,-1332.370696,76.609550
4231.929658,-9178.553681,-740.205942,-306.438199
4231.929988,-9400.615463,-1998.556043,0.000000
4231.930317,-10140.821405,-1702.473667,306.438199
4231.930647,-9252.574275,-2442.679609,383.047749
4231.930977,-8734.430116,-1628.453072,306.438199
4231.931306,-9548.656652,-1776.494261,1532.190996
4231.931636,-10510.924376,-962.267725,1838.629195
4231.931966,-10140.821405,-814.226536,1455.581446
4231.932295,-9696.697840,-222.061783,1608.800546
4231.932625,-10584.944971,370.102971,536.266849
4231.932955,-10807.006753,222.061783,0.000000
4231.933284,-10955.047942,-296.082377,-919.314598
4231.933614,-9548.656652,-814.226536,-1225.752797
4231.933944,-9326.594869,222.061783,-1378.971896
4231.934273,-8882.471304,-74.020594,-1455.581446
4231.934603,-8808.450710,-370.102971,-1149.143247
4231.934933,-9844.739029,296.082377,0.000000
4231.935262,-9400.615463,222.061783,0.000000
4231.935592,-10066.800811,74.020594,766.095498
4231.935922,-9918.759623,444.123565,0.000000
4231.936251,-9400.615463,444.123565,-306.438199
4231.936581,-9770.718434,222.061783,536.266849
4231.936911,-9622.677246,1184.329507,229.828649
4231.937240,-9400.615463,518.144159,-459.657299
4231.937570,-9770.718434,1258.350101,-306.438199
4231.937900,-9622.677246,666.185348,0.000000
4231.938229,-10362.883188,888.247130,-995.924147
4231.938559,-8660.409521,2072.576638,-459.657299
4231.938889,-9844.739029,666.185348,-766.095498
4231.939218,-9696.697840,370.102971,-1149.143247
4231.939548,-9400.615463,1480.411884,0.000000
4231.939878,-9548.656652,1184.329507,459.657299
4231.940207,-9844.739029,1628.453072,-229.828649
4231.940537,-9918.759623,2442.679609,229.828649
4231.940867,-11251.130318,2294.638420,383.047749
4231.941196,-10066.800811,1924.535449,-306.438199
4231.941526,-10807.006753,1406.391290,459.657299
4231.941855,-10288.862594,1702.473667,919.314598
4231.942185,-10214.842000,1036.288319,306.438199
4231.942515,-8734.430116,1184.329507,-1532.190996
4231.942844,-7698.141797,592.164754,-2068.457845
4231.943174,-9548.656652,1406.391290,-459.657299
4231.943504,-10140.821405,518.144159,919.314598
4231.943833,-10362.883188,222.061783,1149.143247
4231.944163,-8808.450710,888.247130,689.485948
4231.944493,-10066.800811,1036.288319,919.314598
4231.944822,-11399.171507,1110.308913,459.657299
4231.945152,-10658.965565,0.000000,306.438199
4231.945482,-9326.594869,518.144159,383.047749
4231.945811,-9252.574275,0.000000,1532.190996
4231.946141,-10436.903782,740.205942,1378.971896
4231.946471,-9992.780217,296.082377,766.095498
4231.946800,-9326.594869,666.185348,-1455.581446
4231.947130,-9104.533087,0.000000,-1685.410096
4231.947460,-10510.924376,148.041188,-995.924147
4231.947789,-10510.924376,592.164754,0.000000
4231.948119,-9474.636058,-666.185348,1072.533697
4231.948449,-8956.491898,0.000000,995.924147
4231.948778,-9622.677246,-1036.288319,995.924147
4231.949108,-10584.944971,74.020594,459.657299
4231.949438,-10584.944971,-1036.288319,995.924147
4231.949767,-10955.047942,-444.123565,766.095498
4231.950097,-9770.718434,-1184.329507,1455.581446
4231.950427,-10140.821405,-814.226536,842.705048
4231.950756,-9548.656652,-888.247130,0.000000
4231.951086,-9326.594869,-1110.308913,-76.609550
4231.951416,-9104.533087,-1480.411884,76.609550
4231.951745,-9252.574275,-1480.411884,766.095498
4231.952075,-9030.512492,-740.205942,383.047749
4231.952405,-9326.594869,-1258.350101,0.000000
4231.952734,-10584.944971,-370.102971,0.000000
4231.953064,-10436.903782,-1554.432478,306.438199
4231.953394,-10066.800811,-1258.350101,0.000000
4231.953723,-9548.656652,-962.267725,1455.581446
4231.954053,-9548.656652,-666.185348,1991.848295
4231.954383,-9326.594869,-222.061783,1532.190996
4231.954712,-10140.821405,296.082377,76.609550
4231.955042,-10584.944971,-666.185348,-1378.971896
4231.955371,-10214.842000,-740.205942,-842.705048
4231.955701,-9252.574275,-592.164754,-153.219100
4231.956031,-8734.430116,-1258.350101,306.438199
4231.956360,-8586.388927,-1332.370696,612.876398
4231.956690,-8512.368333,-1480.411884,76.609550
4231.957020,-9400.615463,-592.164754,229.828649
4231.957349,-10881.027347,-222.061783,1149.143247
4231.957679,-11917.315666,0.000000,2145.067394
4231.958009,-10436.903782,-444.123565,2757.943793
4231.958338,-9178.553681,444.123565,1685.410096
4231.958668,-9326.594869,0.000000,76.609550
4231.958998,-10510.924376,148.041188,-1915.238745
4231.959327,-9178.553681,-370.102971,-2451.505594
4231.959657,-7772.162391,0.000000,-536.266849
4231.959987,-8586.388927,0.000000,689.485948
4231.960316,-10362.883188,-592.164754,1455.581446
4231.960646,-9622.677246,-814.226536,919.314598
4231.960976,-9030.512492,-592.164754,536.266849
4231.961305,-8438.347739,-370.102971,0.000000
4231.961635,-10214.842000,296.082377,1608.800546
4231.961965,-10955.047942,888.247130,2451.505594
4231.962294,-9918.759623,592.164754,1762.019645
4231.962624,-9178.553681,1406.391290,-306.438199
4231.962954,-10436.903782,1554.432478,-995.924147
4231.963283,-10881.027347,740.205942,-1455.581446
4231.963613,-9474.636058,888.247130,-842.705048
4231.963943,-9178.553681,592.164754,-766.095498
4231.964272,-9252.574275,370.102971,306.438199
4231.964602,-10066.800811,666.185348,689.485948
4231.964932,-9844.739029,740.205942,76.609550
4231.965261,-9252.574275,740.205942,-1149.143247
4231.965591,-10066.800811,1258.350101,-766.095498
4231.965921,-11399.171507,1924.535449,-306.438199
4231.966250,-10732.986159,1554.432478,153.219100
4231.966580,-9770.718434,1258.350101,-689.485948
4231.966910,-9992.780217,1850.514855,-229.828649
4231.967239,-10732.986159,1258.350101,-689.485948
4231.967569,-10510.924376,444.123565,-919.314598
4231.967898,-9252.574275,444.123565,-1149.143247
4231.968228,-8438.347739,0.000000,-536.266849
4231.968558,-8586.388927,0.000000,0.000000
4231.968887,-8142.265362,-518.144159,612.876398
4231.969217,-8882.471304,666.185348,1378.971896
4231.969547,-10732.986159,518.144159,1762.019645
4231.969876,-10807.006753,1332.370696,612.876398
4231.970206,-10288.862594,666.185348,-306.438199
4231.970536,-9474.636058,962.267725,-1378.971896
4231.970865,-10066.800811,1406.391290,76.609550
4231.971195,-11177.109724,962.267725,536.266849
4231.971525,-10066.800811,962.267725,-1072.533697
4231.971854,-8290.306550,0.000000,-1685.410096
4231.972184,-8734.430116,-592.164754,0.000000
4231.972514,-9622.677246,0.000000,1378.971896
4231.972843,-9326.594869,0.000000,1378.971896
4231.973173,-8364.327145,0.000000,612.876398
4231.973503,-9474.636058,1184.329507,-1302.362347
4231.973832,-10807.006753,296.082377,-766.095498
4231.974162,-11399.171507,148.041188,383.047749
4231.974492,-9770.718434,0.000000,2298.286494
4231.974821,-9622.677246,-148.041188,1991.848295
4231.975151,-10288.862594,-222.061783,995.924147
4231.975481,-8808.450710,-1628.453072,-459.657299
4231.975810,-8882.471304,-1554.432478,-995.924147
4231.976140,-9474.636058,-1554.432478,919.314598
4231.976470,-10066.800811,-1998.556043,2528.115143
4231.976799,-9400.615463,-1480.411884,3524.039291
4231.977129,-8956.491898,-1332.370696,1991.848295
4231.977459,-8586.388927,-1554.432478,0.000000
4231.977788,-10510.924376,-370.102971,0.000000
4231.978118,-11547.212695,-888.247130,306.438199
4231.978448,-11029.068536,-962.267725,919.314598
4231.978777,-9844.739029,-592.164754,995.924147
4231.979107,-9400.615463,-814.226536,306.438199
4231.979437,-10214.842000,-1036.288319,536.266849
4231.979766,-10362.883188,-2368.659014,-612.876398
4231.980096,-9548.656652,-1924.535449,229.828649
4231.980425,-9400.615463,-1776.494261,2528.115143
4231.980755,-9326.594869,-1554.432478,2757.943793
4231.981085,-8660.409521,-1628.453072,919.314598
4231.981414,-9178.553681,-1184.329507,-383.047749
4231.981744,-10288.862594,-888.247130,-612.876398
4231.982074,-11399.171507,-370.102971,766.095498
4231.982403,-10584.944971,0.000000,1225.752797
4231.982733,-9400.615463,-518.144159,689.485948
4231.983063,-9104.533087,-518.144159,-306.438199
4231.983392,-9400.615463,-518.144159,-306.438199
4231.983722,-10214.842000,-148.041188,-1225.752797
4231.984052,-9474.636058,0.000000,-1915.238745
4231.984381,-8512.368333,0.000000,-919.314598
4231.984711,-9104.533087,0.000000,1225.752797
4231.985041,-10584.944971,444.123565,1838.629195
4231.985370,-10584.944971,296.082377,306.438199
4231.985700,-10584.944971,148.041188,-995.924147
4231.986030,-9770.718434,814.226536,-1455.581446
4231.986359,-9474.636058,592.164754,-995.924147
4231.986689,-9474.636058,1332.370696,0.000000
4231.987019,-10510.924376,888.247130,383.047749
4231.987348,-9992.780217,1480.411884,-536.266849
4231.987678,-8660.409521,740.205942,-1915.238745
4231.988008,-9548.656652,1184.329507,-1149.143247
4231.988337,-9992.780217,592.164754,536.266849
4231.988667,-10436.903782,1110.308913,2221.676944
4231.988997,-9622.677246,370.102971,1378.971896
4231.989326,-8808.450710,444.123565,612.876398
4231.989656,-8956.491898,1036.288319,0.000000
4231.989986,-9844.739029,1036.288319,229.828649
4231.990315,-10288.862594,1702.473667,766.095498
4231.990645,-9918.759623,1406.391290,612.876398
4231.990975,-10214.842000,2072.576638,0.000000
4231.991304,-10066.800811,888.247130,-459.657299
4231.991634,-10362.883188,1480.411884,-1378.971896
4231.991964,-9326.594869,740.205942,-459.657299
4231.992293,-9548.656652,962.267725,76.609550
4231.992623,-9178.553681,740.205942,612.876398
4231.992953,-9918.759623,222.061783,229.828649
4231.993282,-9030.512492,666.185348,-842.705048
4231.993612,-9104.533087,518.144159,-1149.143247
4231.993941,-10140.821405,1628.453072,0.000000
4231.994271,-11029.068536,740.205942,1225.752797
4231.994601,-9992.780217,1184.329507,229.828649
4231.994930,-8956.491898,0.000000,-536.266849
4231.995260,-9992.780217,814.226536,-1608.800546
4231.995590,-9474.636058,-444.123565,-842.705048
4231.995919,-9252.574275,444.123565,306.438199
4231.996249,-9326.594869,-814.226536,689.485948
4231.996579,-9178.553681,-74.020594,306.438199
4231.996908,-9992.780217,-814.226536,536.266849
4231.997238,-10510.924376,-888.247130,459.657299
4231.997568,-9696.697840,74.020594,306.438199
4231.997897,-10436.903782,148.041188,1225.752797
4231.998227,-11177.109724,444.123565,1302.362347
4231.998557,-10362.883188,0.000000,1072.533697
4231.998886,-9918.759623,222.061783,612.876398
4231.999216,-11177.109724,74.020594,919.314598
4231.999546,-11399.171507,222.061783,306.438199
4231.999875,-9474.636058,-1258.350101,-995.924147
4232.000205,-8808.450710,-296.082377,-1378.971896
4232.000535,-9548.656652,-1110.308913,0.000000
4232.000864,-10955.047942,-740.205942,1072.533697
4232.001194,-9622.677246,-814.226536,1149.143247
4232.001524,-8808.450710,-1480.411884,536.266849
4232.001853,-8808.450710,148.041188,1455.581446
4232.002183,-11029.068536,-740.205942,1532.190996
4232.002513,-10955.047942,-592.164754,842.705048
4232.002842,-9474.636058,-666.185348,0.000000
4232.003172,-9548.656652,222.061783,459.657299
4232.003502,-10584.944971,-444.123565,1455.581446
4232.003831,-11325.150913,-148.041188,383.047749
4232.004161,-8586.388927,-592.164754,-689.485948
4232.004491,-7772.162391,-222.061783,-1072.533697
4232.004820,-8216.285956,-592.164754,-1455.581446
4232.005150,-9474.636058,-740.205942,0.000000
4232.005480,-9474.636058,-740.205942,536.266849
4232.005809,-9474.636058,-296.082377,842.705048
4232.006139,-9030.512492,74.020594,536.266849
4232.006468,-9252.574275,-592.164754,0.000000
4232.006798,-9696.697840,74.020594,383.047749
4232.007128,-10510.924376,296.082377,1685.410096
4232.007457,-11621.233289,444.123565,1685.410096
4232.007787,-10436.903782,-296.082377,612.876398
4232.008117,-8068.244768,518.144159,153.219100
4232.008446,-8734.430116,148.041188,689.485948
4232.008776,-10510.924376,-592.164754,0.000000
4232.009106,-9918.759623,444.123565,-1302.362347
4232.009435,-9104.533087,740.205942,-1378.971896
4232.009765,-9992.780217,296.082377,-612.876398
4232.010095,-9622.677246,-296.082377,536.266849
4232.010424,-9400.615463,1110.308913,1532.190996
4232.010754,-9252.574275,518.144159,0.000000
4232.011084,-10066.800811,740.205942,-383.047749
4232.011413,-10584.944971,370.102971,76.609550
4232.011743,-10362.883188,296.082377,919.314598
4232.012073,-9622.677246,-296.082377,1302.362347
4232.012402,-9104.533087,148.041188,1838.629195
4232.012732,-9918.759623,296.082377,1532.190996
4232.013062,-10732.986159,296.082377,-229.828649
4232.013391,-9400.615463,370.102971,-1072.533697
4232.013721,-9474.636058,740.205942,-1532.190996
4232.014051,-10955.047942,1702.473667,-689.485948
4232.014380,-10510.924376,814.226536,995.924147
4232.014710,-9992.780217,1332.370696,1225.752797
4232.015040,-9992.780217,888.247130,-1149.143247
4232.015369,-10955.047942,148.041188,-1991.848295
4232.015699,-10214.842000,74.020594,-1762.019645
4232.016029,-8734.430116,-148.041188,-229.828649
4232.016358,-8216.285956,-370.102971,1915.238745
4232.016688,-9474.636058,296.082377,3140.991542
4232.017018,-10436.903782,148.041188,1838.629195
4232.017347,-8882.471304,-370.102971,-459.657299
4232.017677,-9252.574275,740.205942,-2145.067394
4232.018007,-10807.006753,888.247130,-229.828649
4232.018336,-11547.212695,1332.370696,1455.581446
4232.018666,-9844.739029,444.123565,1608.800546
4232.018995,-9474.636058,592.164754,306.438199
4232.019325,-10140.821405,592.164754,-459.657299
4232.019655,-10510.924376,0.000000,-1532.190996
4232.019984,-9178.553681,222.061783,-1608.800546
4232.020314,-8956.491898,148.041188,0.000000
4232.020644,-9400.615463,370.102971,1302.362347
4232.020973,-9992.780217,740.205942,1455.581446
4232.021303,-10214.842000,296.082377,459.657299
4232.021633,-9548.656652,0.000000,-689.485948
4232.021962,-10066.800811,74.020594,-459.657299
4232.022292,-11251.130318,518.144159,306.438199
4232.022622,-10955.047942,0.000000,2374.896044
4232.022951,-9252.574275,0.000000,2528.115143
4232.023281,-9400.615463,-148.041188,919.314598
4232.023611,-9474.636058,-296.082377,-689.485948
4232.023940,-9770.718434,-148.041188,-1762.019645
4232.024270,-9030.512492,-740.205942,-995.924147
4232.024600,-9548.656652,-444.123565,842.705048
4232.024929,-9844.739029,-296.082377,1915.238745
4232.025259,-9844.739029,-518.144159,1455.581446
4232.025589,-9178.553681,-740.205942,842.705048
4232.025918,-9474.636058,0.000000,842.705048
4232.026248,-9548.656652,0.000000,229.828649
4232.026578,-9622.677246,-444.123565,459.657299
4232.026907,-9474.636058,-370.102971,1532.190996
4232.027237,-9326.594869,148.041188,2068.457845
4232.027567,-10066.800811,222.061783,766.095498
4232.027897,-9992.780217,-370.102971,-1532.190996
4232.028226,-9474.636058,0.000000,-2681.334243
4232.028556,-9326.594869,-296.082377,-1072.533697
4232.028886,-10288.862594,-222.061783,0.000000
4232.029216,-9474.636058,0.000000,1455.581446
4232.029545,-8956.491898,-814.226536,995.924147
4232.029875,-9844.739029,0.000000,306.438199
4232.030205,-10732.986159,148.041188,0.000000
4232.030535,-11325.150913,-222.061783,-153.219100
4232.030864,-9992.780217,74.020594,766.095498
4232.031194,-9770.718434,-444.123565,2145.067394
4232.031524,-10066.800811,222.061783,2911.162892
4232.031854,-9770.718434,-740.205942,459.657299
4232.032183,-9918.759623,-296.082377,-766.095498
4232.032513,-10288.862594,0.000000,-1455.581446
4232.032843,-10214.842000,296.082377,0.000000
4232.033173,-10807.006753,-370.102971,1378.971896
4232.033503,-9548.656652,74.020594,1762.019645
4232.033832,-9474.636058,-296.082377,1225.752797
4232.034162,-10510.924376,148.041188,229.828649
4232.034492,-10436.903782,-592.164754,-612.876398
4232.034822,-10510.924376,-518.144159,-612.876398
4232.035151,-9844.739029,222.061783,919.314598
4232.035481,-8808.450710,74.020594,689.485948
4232.035811,-8660.409521,0.000000,-459.657299
4232.036141,-8882.471304,-222.061783,-1608.800546
4232.036470,-10288.862594,0.000000,383.047749
4232.036800,-10288.862594,0.000000,1072.533697
4232.037130,-9400.615463,-222.061783,459.657299
4232.037460,-8512.368333,-740.205942,0.000000
4232.037789,-9252.574275,592.164754,0.000000
4232.038119,-10436.903782,74.020594,0.000000
4232.038449,-10066.800811,296.082377,-229.828649
4232.038779,-9400.615463,444.123565,-995.924147
4232.039108,-9474.636058,962.267725,-842.705048
4232.039438,-9992.780217,740.205942,153.219100
4232.039768,-9474.636058,222.061783,-383.047749
4232.040098,-9622.677246,148.041188,-1302.362347
4232.040427,-9104.533087,740.205942,-842.705048
4232.040757,-9178.553681,740.205942,689.485948
4232.041087,-9622.677246,222.061783,689.485948
4232.041417,-9696.697840,666.185348,-153.219100
4232.041746,-9622.677246,1110.308913,-919.314598
4232.042076,-10807.006753,888.247130,-1302.362347
4232.042406,-10288.862594,444.123565,-612.876398
4232.042736,-9548.656652,222.061783,1072.533697
4232.043065,-9252.574275,444.123565,1225.752797
4232.043395,-9548.656652,0.000000,842.705048
4232.043725,-10510.924376,518.144159,0.000000
4232.044055,-10214.842000,518.144159,-612.876398
4232.044384,-8882.471304,222.061783,-1378.971896
4232.044714,-8808.450710,592.164754,-1455.581446
4232.045044,-9622.677246,222.061783,306.438199
4232.045374,-9696.697840,370.102971,995.924147
4232.045704,-10066.800811,666.185348,229.828649
4232.046033,-9770.718434,814.226536,-1685.410096
4232.046363,-9474.636058,-1036.288319,-689.485948
4232.046693,-9178.553681,-370.102971,1608.800546
4232.047023,-9622.677246,0.000000,2451.505594
4232.047352,-9696.697840,0.000000,1149.143247
4232.047682,-9548.656652,-888.247130,1225.752797
4232.048012,-9622.677246,-740.205942,766.095498
4232.048342,-9622.677246,-518.144159,689.485948
4232.048671,-9992.780217,0.000000,766.095498
4232.049001,-9696.697840,-148.041188,919.314598
4232.049331,-9178.553681,-370.102971,459.657299
4232.049661,-9178.553681,518.144159,0.000000
4232.049990,-10510.924376,-592.164754,76.609550
4232.050320,-10362.883188,444.123565,383.047749
4232.050650,-10288.862594,0.000000,995.924147
4232.050980,-10807.006753,74.020594,842.705048
4232.051309,-10140.821405,-592.164754,383.047749
4232.051639,-10066.800811,0.000000,0.000000
4232.051969,-10584.944971,-74.020594,766.095498
4232.052299,-10807.006753,74.020594,229.828649
4232.052628,-9844.739029,0.000000,689.485948
4232.052958,-9400.615463,-370.102971,76.609550
4232.053288,-9844.739029,-222.061783,229.828649
4232.053618,-10066.800811,0.000000,306.438199
4232.053947,-10955.047942,-1110.308913,689.485948
4232.054277,-9696.697840,-814.226536,459.657299
4232.054607,-8734.430116,-222.061783,1455.581446
4232.054937,-10288.862594,-444.123565,1072.533697
4232.055266,-9548.656652,-888.247130,-306.438199
4232.055596,-8882.471304,-370.102971,0.000000
4232.055926,-9252.574275,518.144159,1149.143247
4232.056256,-10510.924376,74.020594,459.657299
4232.056585,-9918.759623,222.061783,612.876398
4232.056915,-9400.615463,222.061783,689.485948
4232.057245,-10066.800811,0.000000,-229.828649
4232.057575,-10140.821405,0.000000,-995.924147
4232.057905,-9918.759623,-518.144159,-1225.752797
4232.058234,-9326.594869,-444.123565,-229.828649
4232.058564,-9030.512492,0.000000,0.000000
4232.058894,-9326.594869,222.061783,459.657299
4232.059224,-9696.697840,296.082377,229.828649
4232.059553,-9178.553681,444.123565,229.828649
4232.059883,-9474.636058,-370.102971,-306.438199
4232.060213,-10436.903782,518.144159,612.876398
4232.060543,-10140.821405,-296.082377,536.266849
4232.060872,-10436.903782,518.144159,689.485948
4232.061202,-10658.965565,0.000000,766.095498
4232.061532,-10140.821405,148.041188,383.047749
4232.061862,-8734.430116,148.041188,-689.485948
4232.062191,-8586.388927,740.205942,-1302.362347
4232.062521,-8882.471304,74.020594,-383.047749
4232.062851,-10362.883188,740.205942,459.657299
4232.063181,-10584.944971,814.226536,612.876398
4232.063510,-10732.986159,296.082377,383.047749
4232.063840,-10140.821405,592.164754,-306.438199
4232.064170,-10362.883188,962.267725,-612.876398
4232.064500,-9992.780217,962.267725,0.000000
4232.064829,-9696.697840,444.123565,-306.438199
4232.065159,-10436.903782,1184.329507,689.485948
4232.065489,-10584.944971,296.082377,1838.629195
4232.065819,-10584.944971,666.185348,612.876398
4232.066148,-9326.594869,222.061783,-766.095498
4232.066478,-9992.780217,666.185348,-1608.800546
4232.066808,-10140.821405,444.123565,-1149.143247
4232.067138,-9326.594869,0.000000,-842.705048
4232.067467,-8512.368333,-370.102971,0.000000
4232.067797,-9104.533087,-222.061783,536.266849
4232.068127,-10066.800811,962.267725,1455.581446
4232.068457,-10584.944971,0.000000,1072.533697
4232.068786,-9844.739029,74.020594,-229.828649
4232.069116,-9474.636058,444.123565,-153.219100
4232.069446,-10066.800811,666.185348,612.876398
4232.069776,-10066.800811,222.061783,1991.848295
4232.070105,-9326.594869,1036.288319,1915.238745
4232.070435,-8808.450710,666.185348,-536.266849
4232.070765,-9252.574275,1184.329507,-1915.238745
4232.071095,-10362.883188,1480.411884,-2221.676944
4232.071425,-10881.027347,888.247130,-1608.800546
4232.071754,-9918.759623,962.267725,0.000000
4232.072084,-8660.409521,-296.082377,229.828649
4232.072414,-9992.780217,666.185348,459.657299
4232.072744,-9992.780217,0.000000,153.219100
4232.073073,-9696.697840,0.000000,-306.438199
4232.073403,-9548.656652,-444.123565,-766.095498
4232.073733,-10066.800811,222.061783,229.828649
4232.074063,-10510.924376,-148.041188,842.705048
4232.074392,-11029.068536,444.123565,2298.286494
4232.074722,-9992.780217,-296.082377,1532.190996
4232.075052,-9992.780217,-814.226536,1532.190996
4232.075382,-9252.574275,0.000000,0.000000
4232.075711,-9770.718434,-962.267725,0.000000
4232.076041,-9622.677246,370.102971,459.657299
4232.076371,-8956.491898,-592.164754,689.485948
4232.076701,-9770.718434,0.000000,306.438199
4232.077030,-10288.862594,-592.164754,766.095498
4232.077360,-10140.821405,0.000000,459.657299
4232.077690,-9252.574275,-1036.288319,842.705048
4232.078020,-9326.594869,-370.102971,-459.657299
4232.078349,-9770.718434,-518.144159,1072.533697
4232.078679,-9548.656652,-1184.329507,2145.067394
4232.079009,-10510.924376,0.000000,1685.410096
4232.079339,-9548.656652,-518.144159,766.095498
4232.079668,-9918.759623,-222.061783,0.000000
4232.079998,-9474.636058,-888.247130,-306.438199
4232.080328,-9770.718434,-296.082377,0.000000
4232.080658,-9770.718434,-1110.308913,153.219100
4232.080987,-9474.636058,-888.247130,383.047749
4232.081317,-8068.244768,-1332.370696,153.219100
4232.081647,-9178.553681,-592.164754,-229.828649
4232.081977,-9918.759623,-518.144159,0.000000
4232.082306,-11177.109724,-1036.288319,-306.438199
4232.082636,-10362.883188,-370.102971,-383.047749
4232.082966,-9104.533087,-1110.308913,383.047749
4232.083296,-9548.656652,-1184.329507,76.609550
