#time,accel_x,accel_y,accel_z
3652.609794,-8882.471304,-2812.782580,-3064.381992
3652.610124,-8808.450710,-2368.659014,-1838.629195
3652.610454,-9992.780217,-1628.453072,-153.219100
3652.610784,-10584.944971,-1924.535449,153.219100
3652.611115,-9474.636058,-1406.391290,-766.095498
3652.611445,-9326.594869,-1184.329507,-1762.019645
3652.611775,-9548.656652,-962.267725,-1532.190996
3652.612105,-10214.842000,-740.205942,-766.095498
3652.612435,-10732.986159,-74.020594,0.000000
3652.612765,-10066.800811,0.000000,-383.047749
3652.613095,-10288.862594,444.123565,-842.705048
3652.613426,-9104.533087,370.102971,-459.657299
3652.613756,-10066.800811,-518.144159,-306.438199
3652.614086,-10066.800811,-666.185348,-766.095498
3652.614416,-7476.080014,-1036.288319,689.485948
3652.614746,-9548.656652,296.082377,459.657299
3652.615076,-10436.903782,222.061783,-229.828649
3652.615407,-9400.615463,1036.288319,-1455.581446
3652.615737,-9622.677246,888.247130,-2298.286494
3652.616067,-10362.883188,518.144159,-2298.286494
3652.616397,-10658.965565,888.247130,0.000000
3652.616727,-9992.780217,962.267725,0.000000
3652.617057,-9696.697840,592.164754,-1685.410096
3652.617387,-9474.636058,74.020594,-2374.896044
3652.617718,-9178.553681,222.061783,-2298.286494
3652.618048,-9474.636058,222.061783,-1225.752797
3652.618378,-9548.656652,666.185348,76.609550
3652.618708,-9622.677246,1184.329507,76.609550
3652.619038,-9844.739029,814.226536,-1532.190996
3652.619368,-10807.006753,1184.329507,-1915.238745
3652.619698,-11177.109724,962.267725,-2528.115143
3652.620029,-11547.212695,740.205942,-2528.115143
3652.620359,-11177.109724,74.020594,-3983.696590
3652.620689,-9918.759623,-814.226536,-4673.182538
3652.621019,-8364.327145,-1702.473667,-4136.915689
3652.621349,-7994.224174,-1850.514855,-3064.381992
3652.621679,-8660.409521,-1480.411884,-2068.457845
3652.622009,-8808.450710,-1406.391290,-1685.410096
3652.622340,-9104.533087,-888.247130,-1915.238745
3652.622670,-9844.739029,-666.185348,-2145.067394
3652.623000,-10807.006753,-1184.329507,-2604.724693
3652.623330,-11473.192101,-1406.391290,-2374.896044
3652.623660,-10510.924376,-2590.720797,-1991.848295
3652.623990,-10214.842000,-2886.803174,-2451.505594
3652.624321,-9844.739029,-3404.947333,-2911.162892
3652.624651,-9030.512492,-3849.070898,-3983.696590
3652.624981,-9474.636058,-3404.947333,-4290.134789
3652.625311,-9474.636058,-3775.050304,-4749.792088
3652.625641,-8734.430116,-3552.988522,-4519.963438
3652.625971,-9326.594869,-3552.988522,-3064.381992
3652.626301,-9252.574275,-3478.967927,-2145.067394
3652.626632,-9104.533087,-4367.215058,-2451.505594
3652.626962,-9178.553681,-4737.318029,-2221.676944
3652.627292,-9548.656652,-5033.400406,-1149.143247
3652.627622,-11251.130318,-4885.359217,-383.047749
3652.627952,-11843.295072,-5329.482782,-229.828649
3652.628282,-10584.944971,-5773.606348,-1838.629195
3652.628612,-9326.594869,-5921.647536,-2757.943793
3652.628943,-8586.388927,-5847.626942,-2681.334243
3652.629273,-9770.718434,-5551.544565,-1608.800546
3652.629603,-8882.471304,-5107.421000,-612.876398
3652.629933,-7698.141797,-4959.379811,0.000000
3652.630263,-7846.182985,-4145.153275,536.266849
3652.630593,-10140.821405,-4071.132681,536.266849
3652.630924,-12287.418637,-3775.050304,-1072.533697
3652.631254,-12509.480420,-4219.173869,-2681.334243
3652.631584,-11473.192101,-5181.441594,-3447.429741
3652.631914,-10807.006753,-6143.709319,-1532.190996
3652.632243,-10214.842000,-6365.771101,1225.752797
3652.632573,-8882.471304,-5995.668130,1991.848295
3652.632903,-7254.018232,-5033.400406,612.876398
3652.633233,-7550.100608,-3627.009116,-1838.629195
3652.633563,-8290.306550,-2812.782580,-2451.505594
3652.633892,-9474.636058,-2590.720797,-766.095498
3652.634222,-10658.965565,-2368.659014,1608.800546
3652.634552,-11029.068536,-2960.823768,2757.943793
3652.634882,-10732.986159,-3552.988522,1991.848295
3652.635212,-10807.006753,-3330.926739,1072.533697
3652.635541,-10362.883188,-3330.926739,1225.752797
3652.635871,-11325.150913,-1924.535449,1149.143247
3652.636201,-10807.006753,-1406.391290,229.828649
3652.636531,-9474.636058,-666.185348,-689.485948
3652.636861,-8882.471304,74.020594,0.000000
3652.637190,-8438.347739,296.082377,766.095498
3652.637520,-8808.450710,148.041188,1225.752797
3652.637850,-9622.677246,962.267725,766.095498
3652.638180,-9474.636058,814.226536,-383.047749
3652.638510,-10288.862594,592.164754,-383.047749
3652.638839,-10658.965565,1110.308913,612.876398
3652.639169,-11325.150913,888.247130,1532.190996
3652.639499,-11029.068536,1184.329507,1608.800546
3652.639829,-10066.800811,1332.370696,2221.676944
3652.640159,-9104.533087,2442.679609,3140.991542
3652.640488,-9400.615463,2960.823768,1762.019645
3652.640818,-10732.986159,3182.885551,0.000000
3652.641148,-10436.903782,3330.926739,-1455.581446
3652.641478,-10140.821405,3701.029710,-1378.971896
3652.641808,-8438.347739,2886.803174,-919.314598
3652.642137,-8586.388927,3256.906145,-229.828649
3652.642467,-9104.533087,3627.009116,-1455.581446
3652.642797,-9548.656652,3849.070898,-3064.381992
3652.643127,-9696.697840,3849.070898,-3217.601092
3652.643457,-10066.800811,3330.926739,-1608.800546
3652.643786,-10658.965565,3478.967927,1072.533697
3652.644116,-9992.780217,3108.864956,2528.115143
3652.644446,-8808.450710,2812.782580,2221.676944
3652.644776,-8808.450710,2886.803174,1378.971896
3652.645106,-9844.739029,3256.906145,-229.828649
3652.645435,-9474.636058,3552.988522,-1915.238745
3652.645765,-8882.471304,3627.009116,-2757.943793
3652.646095,-9030.512492,4071.132681,-1838.629195
3652.646425,-9474.636058,4367.215058,0.000000
3652.646755,-11325.150913,5033.400406,76.609550
3652.647084,-11621.233289,4367.215058,-1915.238745
3652.647414,-10584.944971,3775.050304,-4213.525239
3652.647744,-9252.574275,2664.741391,-2681.334243
3652.648074,-9918.759623,2220.617826,76.609550
3652.648404,-9622.677246,1628.453072,3524.039291
3652.648733,-9252.574275,1554.432478,3753.867940
3652.649063,-7846.182985,1036.288319,2987.772442
3652.649393,-8882.471304,1628.453072,1378.971896
3652.649723,-11029.068536,1776.494261,612.876398
3652.650053,-11991.336260,1258.350101,1455.581446
3652.650382,-11991.336260,962.267725,1762.019645
3652.650712,-9696.697840,370.102971,1915.238745
3652.651042,-9178.553681,-888.247130,1608.800546
3652.651372,-9104.533087,-1110.308913,919.314598
3652.651701,-9326.594869,-1776.494261,306.438199
3652.652031,-8808.450710,-1628.453072,-459.657299
3652.652361,-8438.347739,-1554.432478,-536.266849
3652.652691,-9474.636058,-1258.350101,1991.848295
3652.653021,-10881.027347,-1332.370696,3907.087040
3652.653350,-11103.089130,-1184.329507,3983.696590
3652.653680,-10214.842000,-2072.576638,2145.067394
3652.654010,-9252.574275,-2220.617826,153.219100
3652.654340,-10658.965565,-2146.597232,0.000000
3652.654670,-12139.377449,-2146.597232,306.438199
3652.654999,-11103.089130,-2146.597232,689.485948
3652.655329,-9474.636058,-3034.844362,76.609550
3652.655659,-9252.574275,-2664.741391,229.828649
3652.655989,-9474.636058,-2664.741391,76.609550
3652.656319,-9326.594869,-2442.679609,-459.657299
3652.656648,-7994.224174,-2738.761985,-1838.629195
3652.656978,-8734.430116,-2738.761985,-1532.190996
3652.657308,-10362.883188,-2516.700203,612.876398
3652.657638,-11473.192101,-2368.659014,2374.896044
3652.657968,-10658.965565,-2738.761985,1991.848295
3652.658297,-9400.615463,-3034.844362,995.924147
3652.658627,-9918.759623,-2590.720797,153.219100
3652.658957,-10510.924376,-2442.679609,0.000000
3652.659287,-10436.903782,-1924.535449,383.047749
3652.659617,-9770.718434,-1924.535449,-383.047749
3652.659946,-9400.615463,-1184.329507,-1149.143247
3652.660276,-9252.574275,-1332.370696,-1225.752797
3652.660606,-9326.594869,-666.185348,-689.485948
3652.660936,-9474.636058,-592.164754,-1225.752797
3652.661266,-9178.553681,-740.205942,-2451.505594
3652.661595,-9030.512492,-1184.329507,-2451.505594
3652.661925,-9548.656652,-888.247130,-612.876398
3652.662255,-10881.027347,-444.123565,1608.800546
3652.662585,-10066.800811,-518.144159,2145.067394
3652.662915,-9326.594869,-370.102971,383.047749
3652.663244,-9474.636058,-74.020594,-1378.971896
3652.663574,-9696.697840,0.000000,-1762.019645
3652.663904,-9918.759623,296.082377,-306.438199
3652.664234,-9474.636058,444.123565,76.609550
3652.664564,-8808.450710,444.123565,0.000000
3652.664893,-8734.430116,370.102971,153.219100
3652.665223,-9252.574275,814.226536,459.657299
3652.665553,-10140.821405,1332.370696,-1225.752797
3652.665883,-10140.821405,1258.350101,-2604.724693
3652.666213,-9400.615463,518.144159,-2374.896044
3652.666542,-9844.739029,444.123565,153.219100
3652.666872,-9770.718434,518.144159,2145.067394
3652.667202,-9030.512492,296.082377,2145.067394
3652.667532,-8290.306550,962.267725,0.000000
3652.667862,-8808.450710,1332.370696,-1225.752797
3652.668191,-9992.780217,1850.514855,-1072.533697
3652.668521,-10584.944971,1924.535449,0.000000
3652.668851,-10362.883188,1480.411884,1072.533697
3652.669181,-9548.656652,1184.329507,1838.629195
3652.669511,-10066.800811,1480.411884,1608.800546
3652.669840,-9992.780217,1480.411884,229.828649
3652.670170,-9400.615463,1110.308913,-1608.800546
3652.670500,-8438.347739,962.267725,-2451.505594
3652.670830,-8956.491898,1036.288319,-153.219100
3652.671160,-10066.800811,1110.308913,2145.067394
3652.671489,-9844.739029,1776.494261,3677.258390
3652.671819,-9474.636058,1628.453072,2451.505594
3652.672149,-9178.553681,1850.514855,536.266849
3652.672479,-9622.677246,1480.411884,-459.657299
3652.672809,-11325.150913,2072.576638,229.828649
3652.673138,-11251.130318,1776.494261,1608.800546
3652.673468,-10807.006753,2072.576638,2145.067394
3652.673798,-10140.821405,1850.514855,1685.410096
3652.674128,-10436.903782,1998.556043,459.657299
3652.674458,-10288.862594,2146.597232,-995.924147
3652.674787,-10066.800811,2294.638420,-1455.581446
3652.675117,-9252.574275,2072.576638,-1072.533697
3652.675447,-9696.697840,1702.473667,919.314598
3652.675777,-10658.965565,1480.411884,2451.505594
3652.676107,-10510.924376,666.185348,3600.648841
3652.676436,-9474.636058,444.123565,1762.019645
3652.676766,-10066.800811,74.020594,459.657299
3652.677096,-10140.821405,0.000000,153.219100
3652.677426,-10140.821405,0.000000,1378.971896
3652.677756,-9696.697840,-222.061783,2221.676944
3652.678085,-9696.697840,-148.041188,2528.115143
3652.678415,-9622.677246,-370.102971,2068.457845
3652.678745,-9844.739029,-518.144159,1532.190996
3652.679075,-9992.780217,74.020594,0.000000
3652.679405,-9400.615463,0.000000,-1455.581446
3652.679734,-9252.574275,0.000000,-1608.800546
3652.680064,-9696.697840,-370.102971,-306.438199
3652.680394,-10214.842000,-740.205942,919.314598
3652.680724,-9918.759623,-592.164754,0.000000
3652.681054,-8734.430116,-1036.288319,-689.485948
3652.681383,-9326.594869,-666.185348,-1455.581446
3652.681713,-10214.842000,-666.185348,-1225.752797
3652.682043,-10584.944971,-1184.329507,-459.657299
3652.682373,-9548.656652,-1480.411884,383.047749
3652.682702,-9104.533087,-1628.453072,383.047749
3652.683032,-9400.615463,-1480.411884,0.000000
3652.683362,-9622.677246,-1480.411884,0.000000
3652.683692,-9622.677246,-1332.370696,-536.266849
3652.684022,-9178.553681,-1332.370696,-1915.238745
3652.684351,-9326.594869,-1258.350101,-1991.848295
3652.684681,-10510.924376,-962.267725,-842.705048
3652.685011,-10732.986159,-1258.350101,459.657299
3652.685341,-10140.821405,-1480.411884,306.438199
3652.685671,-9400.615463,-1850.514855,0.000000
3652.686000,-9770.718434,-1036.288319,-842.705048
3652.686330,-10288.862594,-1776.494261,-1378.971896
3652.686660,-9918.759623,-1850.514855,-383.047749
3652.686990,-9918.759623,-1554.432478,459.657299
3652.687320,-9844.739029,-1332.370696,919.314598
3652.687649,-9548.656652,-1406.391290,1149.143247
3652.687979,-9918.759623,-1554.432478,612.876398
3652.688309,-10214.842000,-1480.411884,306.438199
3652.688639,-9844.739029,-1406.391290,-919.314598
3652.688969,-9622.677246,-1332.370696,-919.314598
3652.689298,-9548.656652,-1332.370696,76.609550
3652.689628,-10214.842000,-1258.350101,766.095498
3652.689958,-9474.636058,-1110.308913,689.485948
3652.690288,-8660.409521,-1924.535449,229.828649
3652.690618,-9030.512492,-1036.288319,-612.876398
3652.690947,-9770.718434,-740.205942,0.000000
3652.691277,-9844.739029,-740.205942,536.266849
3652.691607,-9770.718434,-666.185348,919.314598
3652.691937,-9326.594869,-296.082377,919.314598
3652.692267,-9844.739029,-148.041188,1072.533697
3652.692596,-9992.780217,0.000000,842.705048
3652.692926,-10066.800811,444.123565,-306.438199
3652.693256,-9622.677246,296.082377,-1225.752797
3652.693586,-9474.636058,296.082377,-842.705048
3652.693916,-9992.780217,296.082377,766.095498
3652.694245,-9918.759623,740.205942,1072.533697
3652.694575,-9030.512492,814.226536,1225.752797
3652.694905,-8734.430116,1036.288319,153.219100
3652.695235,-9326.594869,1480.411884,229.828649
3652.695565,-10510.924376,1628.453072,536.266849
3652.695894,-11251.130318,1554.432478,1072.533697
3652.696224,-10658.965565,1480.411884,1072.533697
3652.696554,-10140.821405,1406.391290,1762.019645
3652.696884,-9992.780217,1480.411884,1838.629195
3652.697214,-9696.697840,1628.453072,1302.362347
3652.697543,-9548.656652,1850.514855,76.609550
3652.697873,-9104.533087,2146.597232,-1072.533697
3652.698203,-9474.636058,1924.535449,0.000000
3652.698533,-10510.924376,1998.556043,1149.143247
3652.698863,-10881.027347,1924.535449,2145.067394
3652.699192,-9844.739029,1406.391290,1991.848295
3652.699522,-9252.574275,1554.432478,689.485948
3652.699852,-10066.800811,1554.432478,-459.657299
3652.700182,-10214.842000,1258.350101,-383.047749
3652.700512,-10214.842000,1480.411884,-229.828649
3652.700841,-9770.718434,1258.350101,689.485948
3652.701171,-9326.594869,1406.391290,1225.752797
3652.701501,-9252.574275,1184.329507,1685.410096
3652.701831,-9178.553681,1480.411884,766.095498
3652.702161,-9474.636058,1258.350101,-689.485948
3652.702490,-9326.594869,1184.329507,-1762.019645
3652.702820,-10214.842000,814.226536,-689.485948
3652.703150,-10881.027347,814.226536,1072.533697
3652.703480,-9770.718434,148.041188,1225.752797
3652.703810,-8660.409521,0.000000,612.876398
3652.704139,-8956.491898,148.041188,-459.657299
3652.704469,-10066.800811,518.144159,-1149.143247
3652.704799,-10436.903782,296.082377,-1302.362347
3652.705129,-10288.862594,296.082377,-383.047749
3652.705459,-10066.800811,222.061783,306.438199
3652.705788,-9548.656652,74.020594,1532.190996
3652.706118,-9844.739029,0.000000,612.876398
3652.706448,-10066.800811,-148.041188,0.000000
3652.706778,-9548.656652,0.000000,-1225.752797
3652.707108,-9770.718434,0.000000,-1685.410096
3652.707437,-10881.027347,-74.020594,-306.438199
3652.707767,-11029.068536,-370.102971,766.095498
3652.708097,-10288.862594,-740.205942,995.924147
3652.708427,-9844.739029,-962.267725,536.266849
3652.708757,-9696.697840,-740.205942,-766.095498
3652.709086,-10140.821405,-1110.308913,-689.485948
3652.709416,-10140.821405,-666.185348,-536.266849
3652.709746,-9844.739029,-1110.308913,383.047749
3652.710076,-9548.656652,-1036.288319,1225.752797
3652.710406,-9548.656652,-1184.329507,689.485948
3652.710735,-9918.759623,-962.267725,1225.752797
3652.711065,-10214.842000,-962.267725,766.095498
3652.711395,-10066.800811,-1110.308913,-612.876398
3652.711725,-9400.615463,-1480.411884,-766.095498
3652.712054,-9918.759623,-1480.411884,0.000000
3652.712384,-10658.965565,-1258.350101,995.924147
3652.712714,-10066.800811,-1554.432478,689.485948
3652.713044,-9030.512492,-1480.411884,383.047749
3652.713374,-8808.450710,-1628.453072,-153.219100
3652.713703,-9474.636058,-1480.411884,-383.047749
3652.714033,-9474.636058,-1184.329507,0.000000
3652.714363,-9548.656652,-1258.350101,766.095498
3652.714693,-9548.656652,-666.185348,2145.067394
3652.715023,-9474.636058,-1110.308913,1685.410096
3652.715352,-9548.656652,-1480.411884,1532.190996
3652.715682,-9548.656652,-1332.370696,229.828649
3652.716012,-9104.533087,-1110.308913,-842.705048
3652.716342,-9178.553681,-814.226536,-612.876398
3652.716672,-9918.759623,-370.102971,1072.533697
3652.717001,-10658.965565,74.020594,1762.019645
3652.717331,-9622.677246,0.000000,1072.533697
3652.717661,-9326.594869,0.000000,-459.657299
3652.717991,-9400.615463,222.061783,-1225.752797
3652.718321,-10140.821405,518.144159,-995.924147
3652.718650,-10066.800811,148.041188,-306.438199
3652.718980,-9992.780217,444.123565,919.314598
3652.719310,-9474.636058,222.061783,1072.533697
3652.719640,-9696.697840,222.061783,1838.629195
3652.719970,-9992.780217,666.185348,1915.238745
3652.720299,-10140.821405,1258.350101,1378.971896
3652.720629,-9770.718434,1184.329507,-612.876398
3652.720959,-10140.821405,1110.308913,-383.047749
3652.721289,-11251.130318,1332.370696,306.438199
3652.721619,-10955.047942,1110.308913,995.924147
3652.721948,-9992.780217,1110.308913,612.876398
3652.722278,-8586.388927,740.205942,76.609550
3652.722608,-8882.471304,1110.308913,-995.924147
3652.722938,-9548.656652,1480.411884,-919.314598
3652.723268,-10140.821405,1702.473667,-536.266849
3652.723597,-10362.883188,1406.391290,0.000000
3652.723927,-10066.800811,1332.370696,459.657299
3652.724257,-9918.759623,1184.329507,1455.581446
3652.724587,-9992.780217,962.267725,2145.067394
3652.724917,-9548.656652,1258.350101,229.828649
3652.725246,-9474.636058,1184.329507,-1455.581446
3652.725576,-9474.636058,1036.288319,-1225.752797
3652.725906,-10140.821405,1332.370696,153.219100
3652.726236,-10362.883188,1184.329507,1225.752797
3652.726566,-9252.574275,1110.308913,1072.533697
3652.726895,-9474.636058,1110.308913,0.000000
3652.727225,-9696.697840,740.205942,-1455.581446
3652.727555,-9696.697840,888.247130,-2068.457845
3652.727885,-9474.636058,888.247130,-1225.752797
3652.728215,-9400.615463,740.205942,306.438199
3652.728544,-9400.615463,888.247130,1072.533697
3652.728874,-9918.759623,962.267725,1915.238745
3652.729204,-10140.821405,888.247130,689.485948
3652.729534,-10214.842000,592.164754,-919.314598
3652.729864,-10140.821405,888.247130,-1302.362347
3652.730193,-9992.780217,592.164754,0.000000
3652.730523,-10140.821405,444.123565,1762.019645
3652.730853,-10066.800811,148.041188,1915.238745
3652.731183,-9548.656652,0.000000,1149.143247
3652.731513,-9548.656652,222.061783,-459.657299
3652.731843,-10214.842000,74.020594,-1915.238745
3652.732173,-10436.903782,-148.041188,-1762.019645
3652.732503,-10066.800811,-666.185348,153.219100
3652.732833,-9622.677246,-888.247130,1532.190996
3652.733163,-9252.574275,-1332.370696,2145.067394
3652.733493,-9326.594869,-1332.370696,2221.676944
3652.733823,-9696.697840,-1184.329507,919.314598
3652.734153,-10066.800811,-814.226536,0.000000
3652.734483,-10066.800811,-1036.288319,0.000000
3652.734813,-10584.944971,-1036.288319,536.266849
3652.735143,-10807.006753,-1110.308913,1915.238745
3652.735472,-10436.903782,-1332.370696,1915.238745
3652.735802,-9104.533087,-1850.514855,383.047749
3652.736132,-9104.533087,-1258.350101,-1762.019645
3652.736462,-9030.512492,-1480.411884,-2451.505594
3652.736792,-9400.615463,-1406.391290,-1455.581446
3652.737122,-9548.656652,-1628.453072,-306.438199
3652.737452,-9844.739029,-1480.411884,1072.533697
3652.737782,-9474.636058,-1702.473667,1455.581446
3652.738112,-9696.697840,-1554.432478,1685.410096
3652.738442,-9770.718434,-1406.391290,1455.581446
3652.738772,-9844.739029,-1036.288319,0.000000
3652.739102,-9696.697840,-1110.308913,-229.828649
3652.739432,-9992.780217,-962.267725,612.876398
3652.739762,-10658.965565,-1036.288319,919.314598
3652.740092,-10436.903782,-666.185348,919.314598
3652.740422,-9400.615463,-666.185348,0.000000
3652.740752,-8956.491898,-518.144159,-1225.752797
3652.741082,-9178.553681,-444.123565,-2145.067394
3652.741412,-9474.636058,-74.020594,-1302.362347
3652.741742,-9474.636058,-370.102971,0.000000
3652.742072,-9770.718434,0.000000,1149.143247
3652.742402,-9844.739029,0.000000,1915.238745
3652.742731,-10288.862594,74.020594,1838.629195
3652.743061,-10807.006753,592.164754,995.924147
3652.743391,-10288.862594,222.061783,-536.266849
3652.743721,-9548.656652,222.061783,-306.438199
3652.744051,-10362.883188,222.061783,995.924147
3652.744381,-11029.068536,1036.288319,2451.505594
3652.744711,-9770.718434,592.164754,1838.629195
3652.745041,-9178.553681,444.123565,383.047749
3652.745371,-9474.636058,962.267725,-1225.752797
3652.745701,-9992.780217,888.247130,-2221.676944
3652.746031,-9918.759623,962.267725,-1302.362347
3652.746361,-9474.636058,666.185348,153.219100
3652.746691,-8956.491898,666.185348,995.924147
3652.747021,-9104.533087,962.267725,1762.019645
3652.747351,-9252.574275,1036.288319,1302.362347
3652.747681,-10066.800811,1184.329507,153.219100
3652.748011,-9992.780217,1406.391290,-1072.533697
3652.748341,-9992.780217,962.267725,-383.047749
3652.748671,-9918.759623,1554.432478,1072.533697
3652.749001,-10436.903782,1258.350101,1838.629195
3652.749331,-9622.677246,1258.350101,1225.752797
3652.749661,-8660.409521,1184.329507,-766.095498
3652.749990,-8956.491898,1184.329507,-2451.505594
3652.750320,-9474.636058,1480.411884,-2374.896044
3652.750650,-9696.697840,1184.329507,-1532.190996
3652.750980,-9696.697840,962.267725,0.000000
3652.751310,-9030.512492,518.144159,766.095498
3652.751640,-9030.512492,444.123565,689.485948
3652.751970,-9326.594869,1184.329507,689.485948
3652.752300,-10140.821405,1110.308913,0.000000
3652.752630,-9918.759623,1036.288319,-919.314598
3652.752960,-10066.800811,666.185348,0.000000
3652.753290,-10881.027347,1184.329507,1149.143247
3652.753620,-11251.130318,814.226536,2374.896044
3652.753950,-10140.821405,148.041188,1302.362347
3652.754280,-9030.512492,0.000000,-459.657299
3652.754610,-8734.430116,518.144159,-2604.724693
3652.754940,-10362.883188,148.041188,-1762.019645
3652.755270,-10510.924376,222.061783,-689.485948
3652.755600,-9622.677246,-592.164754,229.828649
3652.755930,-9400.615463,-444.123565,1225.752797
3652.756260,-9326.594869,-666.185348,1378.971896
3652.756590,-9770.718434,-518.144159,1072.533697
3652.756920,-9844.739029,-740.205942,-229.828649
3652.757249,-9844.739029,-592.164754,-76.609550
3652.757579,-10658.965565,-592.164754,536.266849
3652.757909,-11177.109724,-740.205942,2374.896044
3652.758239,-10881.027347,-1036.288319,2681.334243
3652.758569,-9770.718434,-1110.308913,1532.190996
3652.758899,-8734.430116,-1258.350101,-1225.752797
3652.759229,-9326.594869,-1258.350101,-2221.676944
3652.759559,-9326.594869,-1480.411884,-2068.457845
3652.759889,-9622.677246,-1184.329507,-306.438199
3652.760219,-9178.553681,-1036.288319,-76.609550
3652.760549,-8956.491898,-1480.411884,689.485948
3652.760879,-9104.533087,-1480.411884,1149.143247
3652.761209,-9474.636058,-1036.288319,536.266849
3652.761539,-10214.842000,-592.164754,0.000000
3652.761869,-9918.759623,-1036.288319,-383.047749
3652.762199,-9918.759623,-888.247130,1072.533697
3652.762529,-10510.924376,-962.267725,2221.676944
3652.762859,-10584.944971,-888.247130,2221.676944
3652.763189,-9548.656652,-518.144159,459.657299
3652.763519,-9548.656652,-740.205942,-1072.533697
3652.763849,-9622.677246,-666.185348,-2068.457845
3652.764179,-9400.615463,-444.123565,-1378.971896
3652.764508,-9400.615463,-296.082377,-306.438199
3652.764838,-9104.533087,-222.061783,1225.752797
3652.765168,-8956.491898,-222.061783,1302.362347
3652.765498,-9474.636058,-148.041188,1149.143247
3652.765828,-10510.924376,148.041188,536.266849
3652.766158,-10807.006753,74.020594,0.000000
3652.766488,-10510.924376,74.020594,383.047749
3652.766818,-10807.006753,370.102971,2068.457845
3652.767148,-10658.965565,74.020594,2757.943793
3652.767478,-9474.636058,444.123565,1685.410096
3652.767808,-9252.574275,592.164754,766.095498
3652.768138,-9696.697840,814.226536,-995.924147
3652.768468,-10140.821405,962.267725,-2068.457845
3652.768798,-10214.842000,666.185348,-1991.848295
3652.769128,-9696.697840,296.082377,-306.438199
3652.769458,-9178.553681,74.020594,842.705048
3652.769788,-8586.388927,0.000000,1149.143247
3652.770118,-8438.347739,74.020594,766.095498
3652.770448,-8956.491898,148.041188,306.438199
3652.770778,-9918.759623,666.185348,153.219100
3652.771108,-10140.821405,740.205942,919.314598
3652.771438,-10732.986159,666.185348,1915.238745
3652.771767,-10881.027347,1036.288319,2068.457845
3652.772097,-10140.821405,888.247130,1225.752797
3652.772427,-9400.615463,592.164754,-229.828649
3652.772757,-9104.533087,814.226536,-2451.505594
3652.773087,-9104.533087,1332.370696,-4060.306139
3652.773417,-9400.615463,888.247130,-2604.724693
3652.773747,-9622.677246,1184.329507,-842.705048
3652.774077,-9252.574275,962.267725,-153.219100
3652.774407,-9474.636058,1258.350101,153.219100
3652.774737,-9474.636058,814.226536,0.000000
3652.775067,-9696.697840,444.123565,-229.828649
3652.775397,-9992.780217,518.144159,-383.047749
3652.775727,-10214.842000,370.102971,689.485948
3652.776057,-10658.965565,444.123565,1762.019645
3652.776387,-10732.986159,592.164754,2374.896044
3652.776717,-10362.883188,370.102971,1762.019645
3652.777047,-10066.800811,518.144159,0.000000
3652.777377,-9474.636058,740.205942,-2221.676944
3652.777707,-9992.780217,518.144159,-2298.286494
3652.778037,-9770.718434,370.102971,-1532.190996
3652.778367,-8956.491898,370.102971,-536.266849
3652.778697,-8956.491898,0.000000,-459.657299
3652.779026,-9474.636058,148.041188,383.047749
3652.779356,-9474.636058,0.000000,0.000000
3652.779686,-9696.697840,74.020594,-306.438199
3652.780016,-9770.718434,0.000000,-536.266849
3652.780346,-9992.780217,-370.102971,1378.971896
3652.780676,-10362.883188,-518.144159,2834.553343
3652.781006,-10584.944971,-370.102971,3294.210641
3652.781336,-10140.821405,-592.164754,1685.410096
3652.781666,-9696.697840,-74.020594,-459.657299
3652.781996,-9622.677246,-592.164754,-2145.067394
3652.782326,-9622.677246,-592.164754,-2681.334243
3652.782656,-9474.636058,-518.144159,-1762.019645
3652.782986,-8734.430116,-296.082377,-842.705048
3652.783316,-8364.327145,-962.267725,153.219100
3652.783646,-8364.327145,-888.247130,153.219100
3652.783976,-9326.594869,-518.144159,0.000000
3652.784306,-9844.739029,0.000000,0.000000
3652.784636,-10066.800811,-444.123565,0.000000
3652.784966,-10066.800811,-592.164754,1915.238745
3652.785296,-10732.986159,-666.185348,3370.820191
3652.785626,-10732.986159,-444.123565,2757.943793
3652.785956,-9548.656652,-518.144159,1685.410096
3652.786285,-9252.574275,0.000000,-306.438199
3652.786615,-9770.718434,0.000000,-1532.190996
3652.786945,-10436.903782,0.000000,-919.314598
3652.787275,-9770.718434,222.061783,-1302.362347
3652.787605,-9474.636058,-148.041188,459.657299
3652.787935,-8956.491898,-444.123565,612.876398
3652.788265,-9622.677246,-592.164754,229.828649
3652.788595,-9696.697840,-518.144159,229.828649
3652.788925,-9622.677246,-444.123565,0.000000
3652.789255,-9252.574275,-222.061783,919.314598
3652.789585,-10362.883188,0.000000,2451.505594
3652.789915,-11177.109724,296.082377,3064.381992
3652.790245,-10881.027347,222.061783,2604.724693
3652.790575,-10214.842000,518.144159,919.314598
3652.790905,-10436.903782,444.123565,-766.095498
3652.791235,-10658.965565,222.061783,-1915.238745
3652.791565,-10066.800811,0.000000,-1302.362347
3652.791895,-9252.574275,-370.102971,-459.657299
3652.792225,-8364.327145,-370.102971,-229.828649
3652.792555,-8216.285956,0.000000,0.000000
3652.792885,-8956.491898,148.041188,306.438199
3652.793215,-9474.636058,888.247130,383.047749
3652.793544,-9844.739029,740.205942,-229.828649
3652.793874,-9696.697840,222.061783,-76.609550
3652.794204,-10066.800811,296.082377,1072.533697
3652.794534,-10881.027347,296.082377,1762.019645
3652.794864,-10066.800811,148.041188,1149.143247
3652.795194,-9326.594869,222.061783,0.000000
3652.795524,-9104.533087,444.123565,-1455.581446
3652.795854,-9918.759623,962.267725,-1685.410096
3652.796184,-10584.944971,1036.288319,-1302.362347
3652.796514,-10214.842000,740.205942,-536.266849
3652.796844,-8956.491898,518.144159,-612.876398
3652.797174,-8290.306550,222.061783,-536.266849
3652.797504,-9104.533087,888.247130,306.438199
3652.797834,-9474.636058,444.123565,-383.047749
3652.798164,-9178.553681,370.102971,-766.095498
3652.798494,-9400.615463,222.061783,0.000000
3652.798824,-10584.944971,666.185348,1532.190996
3652.799154,-11251.130318,222.061783,2604.724693
3652.799484,-10658.965565,222.061783,1685.410096
3652.799814,-9548.656652,0.000000,76.609550
3652.800144,-9474.636058,296.082377,-1225.752797
3652.800474,-9918.759623,592.164754,-1608.800546
3652.800803,-10362.883188,518.144159,-995.924147
3652.801133,-9400.615463,444.123565,-612.876398
3652.801463,-9030.512492,74.020594,-459.657299
3652.801793,-9252.574275,-296.082377,76.609550
3652.802123,-9474.636058,0.000000,306.438199
3652.802453,-9992.780217,-148.041188,153.219100
3652.802783,-9474.636058,-74.020594,-383.047749
3652.803113,-9844.739029,-518.144159,-459.657299
3652.803443,-10658.965565,-296.082377,1915.238745
3652.803773,-11399.171507,-370.102971,2528.115143
3652.804103,-10066.800811,-518.144159,2068.457845
3652.804433,-8882.471304,-666.185348,306.438199
3652.804763,-9400.615463,-592.164754,-995.924147
3652.805093,-9992.780217,0.000000,-1378.971896
3652.805423,-10140.821405,0.000000,-1072.533697
3652.805753,-9474.636058,-148.041188,-766.095498
3652.806083,-9622.677246,-74.020594,-1072.533697
3652.806413,-9030.512492,-592.164754,-306.438199
3652.806743,-9622.677246,-518.144159,306.438199
3652.807073,-9252.574275,0.000000,76.609550
3652.807403,-9030.512492,148.041188,-383.047749
3652.807732,-9770.718434,74.020594,306.438199
3652.808062,-10881.027347,-222.061783,2221.676944
3652.808392,-11177.109724,0.000000,3294.210641
3652.808722,-10436.903782,-148.041188,2451.505594
3652.809052,-10066.800811,-74.020594,919.314598
3652.809382,-9918.759623,-148.041188,-689.485948
3652.809712,-9918.759623,-148.041188,-536.266849
3652.810042,-10066.800811,-148.041188,0.000000
3652.810372,-9400.615463,-222.061783,536.266849
3652.810702,-9104.533087,-148.041188,1072.533697
3652.811032,-9104.533087,-370.102971,1455.581446
3652.811362,-9918.759623,0.000000,1072.533697
3652.811692,-9992.780217,0.000000,-459.657299
3652.812022,-9548.656652,-296.082377,-306.438199
3652.812352,-10066.800811,-148.041188,919.314598
3652.812682,-10436.903782,-74.020594,2451.505594
3652.813012,-10362.883188,148.041188,2911.162892
3652.813342,-9696.697840,148.041188,2068.457845
3652.813672,-9844.739029,740.205942,0.000000
3652.814002,-10214.842000,518.144159,-1455.581446
3652.814332,-10881.027347,296.082377,-1455.581446
3652.814662,-10436.903782,518.144159,-766.095498
3652.814991,-9474.636058,0.000000,0.000000
3652.815321,-8882.471304,-74.020594,0.000000
3652.815651,-8734.430116,-296.082377,0.000000
3652.815981,-8586.388927,518.144159,0.000000
3652.816311,-9178.553681,444.123565,-689.485948
3652.816641,-9326.594869,222.061783,-919.314598
3652.816971,-10066.800811,518.144159,383.047749
3652.817301,-10955.047942,592.164754,2068.457845
3652.817631,-10362.883188,518.144159,1685.410096
3652.817961,-9992.780217,518.144159,766.095498
3652.818291,-9696.697840,370.102971,-919.314598
3652.818621,-9918.759623,592.164754,-2298.286494
3652.818951,-9992.780217,518.144159,-1915.238745
3652.819281,-9622.677246,518.144159,-1225.752797
3652.819611,-9844.739029,740.205942,-919.314598
3652.819941,-9400.615463,444.123565,-612.876398
3652.820271,-8808.450710,814.226536,-919.314598
3652.820601,-9400.615463,296.082377,-536.266849
3652.820931,-9400.615463,222.061783,-1149.143247
3652.821261,-9770.718434,0.000000,-536.266849
3652.821591,-10288.862594,444.123565,995.924147
3652.821921,-10732.986159,-444.123565,1991.848295
3652.822250,-10214.842000,-296.082377,2221.676944
3652.822580,-9548.656652,0.000000,1838.629195
3652.822910,-9918.759623,0.000000,383.047749
3652.823240,-10214.842000,74.020594,-612.876398
3652.823570,-10140.821405,0.000000,-766.095498
3652.823900,-9548.656652,0.000000,-766.095498
3652.824230,-9400.615463,0.000000,-383.047749
3652.824560,-9178.553681,0.000000,-306.438199
3652.824890,-9030.512492,-222.061783,0.000000
3652.825220,-9030.512492,0.000000,-689.485948
3652.825550,-9252.574275,-592.164754,-689.485948
3652.825880,-9622.677246,148.041188,459.657299
3652.826210,-10288.862594,-296.082377,1915.238745
3652.826540,-11103.089130,-370.102971,2757.943793
3652.826870,-10362.883188,-444.123565,2451.505594
3652.827200,-10066.800811,-370.102971,1302.362347
3652.827530,-9548.656652,-518.144159,-153.219100
3652.827860,-10140.821405,-148.041188,-1149.143247
3652.828190,-9918.759623,-222.061783,-1225.752797
3652.828520,-9178.553681,-370.102971,-383.047749
3652.828850,-8882.471304,-74.020594,229.828649
3652.829180,-9030.512492,-444.123565,0.000000
3652.829509,-9548.656652,-370.102971,153.219100
3652.829839,-9696.697840,-370.102971,-153.219100
3652.830169,-9696.697840,74.020594,-612.876398
3652.830499,-9696.697840,-518.144159,689.485948
3652.830829,-10288.862594,-518.144159,2068.457845
3652.831159,-10658.965565,-222.061783,3217.601092
3652.831489,-9918.759623,-222.061783,3140.991542
3652.831819,-9622.677246,0.000000,1915.238745
3652.832149,-10436.903782,444.123565,306.438199
3652.832479,-11029.068536,814.226536,-842.705048
3652.832809,-10658.965565,370.102971,-689.485948
3652.833139,-9474.636058,222.061783,-229.828649
3652.833469,-9252.574275,444.123565,383.047749
3652.833799,-9178.553681,0.000000,536.266849
3652.834129,-9474.636058,444.123565,-383.047749
3652.834459,-9252.574275,370.102971,-766.095498
3652.834789,-9104.533087,0.000000,-459.657299
3652.835119,-10066.800811,370.102971,1149.143247
3652.835449,-11029.068536,0.000000,2911.162892
3652.835779,-10881.027347,518.144159,3753.867940
3652.836108,-9326.594869,0.000000,2145.067394
3652.836438,-9104.533087,148.041188,842.705048
3652.836768,-10362.883188,888.247130,-459.657299
3652.837098,-11177.109724,962.267725,-612.876398
3652.837428,-10955.047942,888.247130,-383.047749
3652.837758,-9992.780217,888.247130,-383.047749
3652.838088,-9252.574275,370.102971,-306.438199
3652.838418,-9252.574275,518.144159,-76.609550
3652.838748,-9400.615463,296.082377,-536.266849
3652.839078,-8882.471304,518.144159,-1991.848295
3652.839408,-8438.347739,370.102971,-1455.581446
3652.839738,-9474.636058,666.185348,153.219100
3652.840068,-11251.130318,666.185348,2374.896044
3652.840398,-10732.986159,518.144159,2451.505594
3652.840728,-9844.739029,296.082377,1762.019645
3652.841058,-9622.677246,370.102971,306.438199
3652.841388,-9844.739029,592.164754,-612.876398
3652.841718,-10214.842000,814.226536,-995.924147
3652.842048,-10288.862594,666.185348,-995.924147
3652.842377,-9474.636058,370.102971,-1225.752797
3652.842707,-9326.594869,592.164754,-995.924147
3652.843037,-9696.697840,444.123565,-76.609550
3652.843367,-9696.697840,444.123565,-459.657299
3652.843697,-9252.574275,148.041188,-1991.848295
3652.844027,-8808.450710,518.144159,-1762.019645
3652.844357,-9844.739029,74.020594,383.047749
3652.844687,-11251.130318,592.164754,2298.286494
3652.845017,-10881.027347,0.000000,2528.115143
3652.845347,-10140.821405,-222.061783,2374.896044
3652.845677,-9844.739029,-370.102971,1149.143247
3652.846007,-10436.903782,74.020594,0.000000
3652.846337,-10510.924376,-296.082377,-383.047749
3652.846667,-9622.677246,-592.164754,-459.657299
3652.846997,-8734.430116,-370.102971,306.438199
3652.847327,-9104.533087,0.000000,0.000000
3652.847657,-9474.636058,0.000000,383.047749
3652.847987,-9992.780217,0.000000,-459.657299
3652.848317,-9548.656652,-370.102971,-1455.581446
3652.848646,-9474.636058,-148.041188,-842.705048
3652.848976,-9992.780217,-740.205942,766.095498
3652.849306,-10436.903782,-740.205942,3064.381992
3652.849636,-9992.780217,-592.164754,3140.991542
3652.849966,-9622.677246,-370.102971,2451.505594
3652.850296,-9770.718434,-222.061783,0.000000
3652.850626,-10732.986159,0.000000,-1072.533697
3652.850956,-10955.047942,74.020594,-995.924147
3652.851286,-10658.965565,-74.020594,-306.438199
3652.851616,-9030.512492,-592.164754,-383.047749
3652.851946,-8660.409521,-740.205942,-459.657299
3652.852276,-9400.615463,-592.164754,-612.876398
3652.852606,-9548.656652,-370.102971,-766.095498
3652.852936,-9104.533087,-370.102971,-1455.581446
3652.853266,-9030.512492,-444.123565,-689.485948
3652.853596,-10362.883188,-222.061783,1302.362347
3652.853926,-11325.150913,74.020594,3217.601092
3652.854256,-10362.883188,-592.164754,3524.039291
3652.854586,-9548.656652,-666.185348,1915.238745
3652.854915,-9474.636058,0.000000,459.657299
3652.855245,-10658.965565,148.041188,-459.657299
3652.855575,-10288.862594,296.082377,153.219100
3652.855905,-9696.697840,74.020594,-153.219100
3652.856235,-8882.471304,74.020594,76.609550
3652.856565,-8956.491898,0.000000,153.219100
3652.856895,-9474.636058,296.082377,306.438199
3652.857225,-9474.636058,518.144159,-76.609550
3652.857555,-9178.553681,444.123565,-1225.752797
3652.857885,-9326.594869,148.041188,-306.438199
3652.858215,-10362.883188,370.102971,1915.238745
3652.858545,-10510.924376,148.041188,2911.162892
3652.858875,-10214.842000,74.020594,2834.553343
3652.859205,-9770.718434,370.102971,1302.362347
3652.859535,-10288.862594,444.123565,0.000000
3652.859865,-10436.903782,592.164754,-689.485948
3652.860195,-10436.903782,592.164754,-306.438199
3652.860525,-9918.759623,592.164754,383.047749
3652.860854,-9178.553681,296.082377,612.876398
3652.861184,-9104.533087,222.061783,229.828649
3652.861514,-9400.615463,296.082377,76.609550
3652.861844,-9178.553681,444.123565,-919.314598
3652.862174,-8882.471304,740.205942,-1915.238745
3652.862504,-9548.656652,222.061783,-919.314598
3652.862834,-10658.965565,444.123565,1608.800546
3652.863164,-10658.965565,296.082377,2298.286494
3652.863494,-10214.842000,222.061783,2068.457845
3652.863824,-9326.594869,222.061783,0.000000
3652.864154,-9770.718434,740.205942,-1225.752797
3652.864484,-10066.800811,814.226536,-1455.581446
3652.864814,-10362.883188,518.144159,-1072.533697
3652.865144,-10288.862594,444.123565,-766.095498
3652.865474,-9918.759623,296.082377,0.000000
3652.865804,-9474.636058,0.000000,536.266849
3652.866134,-9252.574275,222.061783,-306.438199
3652.866464,-8956.491898,222.061783,-1991.848295
3652.866794,-8512.368333,0.000000,-2298.286494
3652.867123,-9400.615463,74.020594,-1225.752797
3652.867453,-11029.068536,444.123565,1378.971896
3652.867783,-10881.027347,-148.041188,2528.115143
3652.868113,-9548.656652,-518.144159,1991.848295
3652.868443,-9918.759623,74.020594,689.485948
3652.868773,-10436.903782,0.000000,-689.485948
3652.869103,-10807.006753,-148.041188,-842.705048
3652.869433,-10881.027347,-296.082377,383.047749
3652.869763,-9992.780217,-370.102971,1378.971896
3652.870093,-9770.718434,-148.041188,1225.752797
3652.870423,-9474.636058,-296.082377,1072.533697
3652.870753,-9844.739029,-148.041188,-153.219100
3652.871083,-9548.656652,-296.082377,-1991.848295
3652.871413,-9252.574275,-518.144159,-2298.286494
3652.871743,-9844.739029,-740.205942,-536.266849
3652.872073,-10955.047942,-666.185348,2221.676944
3652.872403,-10066.800811,-666.185348,3294.210641
3652.872733,-8956.491898,-962.267725,2145.067394
3652.873063,-8882.471304,-592.164754,0.000000
3652.873392,-9918.759623,0.000000,-1302.362347
3652.873722,-10584.944971,-222.061783,-842.705048
3652.874052,-10732.986159,-74.020594,995.924147
3652.874382,-9844.739029,0.000000,1225.752797
3652.874712,-9178.553681,-888.247130,612.876398
3652.875042,-9548.656652,-592.164754,-306.438199
3652.875372,-9474.636058,-666.185348,-1302.362347
3652.875702,-8956.491898,-518.144159,-2451.505594
3652.876032,-7994.224174,-370.102971,-919.314598
3652.876362,-9252.574275,0.000000,1149.143247
3652.876692,-10955.047942,296.082377,3217.601092
3652.877022,-10732.986159,74.020594,2451.505594
3652.877352,-9918.759623,-370.102971,842.705048
3652.877682,-9770.718434,-444.123565,-842.705048
3652.878012,-9992.780217,0.000000,-1149.143247
3652.878342,-10140.821405,74.020594,1149.143247
3652.878672,-9548.656652,0.000000,1378.971896
3652.879002,-9474.636058,296.082377,1225.752797
3652.879332,-9548.656652,74.020594,612.876398
3652.879661,-10436.903782,518.144159,689.485948
3652.879991,-10658.965565,666.185348,-766.095498
3652.880321,-9992.780217,370.102971,-1072.533697
3652.880651,-9400.615463,148.041188,-383.047749
3652.880981,-9622.677246,0.000000,1225.752797
3652.881311,-10214.842000,148.041188,2528.115143
3652.881641,-9696.697840,0.000000,2145.067394
3652.881971,-9474.636058,296.082377,919.314598
3652.882301,-9770.718434,444.123565,0.000000
3652.882631,-10732.986159,1036.288319,-306.438199
3652.882961,-10658.965565,518.144159,306.438199
3652.883291,-10510.924376,222.061783,689.485948
3652.883621,-9548.656652,0.000000,766.095498
3652.883951,-8882.471304,-222.061783,612.876398
3652.884281,-9104.533087,0.000000,383.047749
3652.884611,-9030.512492,222.061783,-766.095498
3652.884941,-8882.471304,222.061783,-1838.629195
3652.885271,-9326.594869,0.000000,-689.485948
3652.885600,-9992.780217,74.020594,1225.752797
3652.885930,-10066.800811,518.144159,2298.286494
3652.886260,-9178.553681,0.000000,2221.676944
3652.886590,-9030.512492,518.144159,536.266849
3652.886920,-9622.677246,592.164754,-995.924147
3652.887250,-10436.903782,592.164754,-1685.410096
3652.887580,-10807.006753,592.164754,-1302.362347
3652.887910,-10140.821405,222.061783,0.000000
3652.888240,-9400.615463,592.164754,306.438199
3652.888570,-9474.636058,444.123565,689.485948
3652.888900,-9474.636058,370.102971,0.000000
3652.889230,-9548.656652,740.205942,-1225.752797
3652.889560,-9400.615463,888.247130,-1762.019645
3652.889890,-9918.759623,740.205942,-689.485948
3652.890220,-11103.089130,888.247130,1149.143247
3652.890550,-11103.089130,370.102971,2068.457845
3652.890880,-10436.903782,0.000000,2068.457845
3652.891210,-9326.594869,0.000000,153.219100
3652.891540,-9770.718434,0.000000,-1072.533697
3652.891869,-10140.821405,0.000000,-536.266849
3652.892199,-9992.780217,148.041188,229.828649
3652.892529,-9252.574275,518.144159,0.000000
3652.892859,-9474.636058,370.102971,536.266849
3652.893189,-9770.718434,222.061783,153.219100
3652.893519,-10510.924376,296.082377,-459.657299
3652.893849,-10066.800811,444.123565,-1915.238745
3652.894179,-9474.636058,-222.061783,-2068.457845
3652.894509,-9104.533087,-518.144159,-536.266849
3652.894839,-9770.718434,-296.082377,1608.800546
3652.895169,-9770.718434,-74.020594,2145.067394
3652.895499,-9178.553681,-740.205942,1762.019645
3652.895829,-9400.615463,-592.164754,153.219100
3652.896159,-10436.903782,0.000000,-919.314598
3652.896489,-10510.924376,-296.082377,-536.266849
3652.896819,-9474.636058,-666.185348,-383.047749
3652.897149,-8882.471304,-444.123565,1378.971896
3652.897479,-9030.512492,-666.185348,995.924147
3652.897809,-9474.636058,-370.102971,689.485948
3652.898138,-9696.697840,222.061783,-383.047749
3652.898468,-9770.718434,0.000000,-1762.019645
3652.898798,-9030.512492,-370.102971,-1608.800546
3652.899128,-9696.697840,-296.082377,612.876398
3652.899458,-10807.006753,0.000000,2451.505594
3652.899788,-9918.759623,-370.102971,2451.505594
3652.900118,-9178.553681,-222.061783,1302.362347
3652.900448,-9474.636058,0.000000,-229.828649
3652.900778,-10584.944971,222.061783,-689.485948
3652.901108,-10807.006753,74.020594,536.266849
3652.901438,-10732.986159,-370.102971,1915.238745
3652.901768,-9622.677246,-222.061783,1915.238745
3652.902098,-9030.512492,-370.102971,1685.410096
3652.902428,-8882.471304,0.000000,1072.533697
3652.902758,-9622.677246,222.061783,-153.219100
3652.903088,-9844.739029,296.082377,-919.314598
3652.903418,-9474.636058,296.082377,-459.657299
3652.903748,-10362.883188,962.267725,1378.971896
3652.904078,-10955.047942,444.123565,2298.286494
3652.904407,-9918.759623,0.000000,1532.190996
3652.904737,-8882.471304,0.000000,689.485948
3652.905067,-9400.615463,444.123565,0.000000
3652.905397,-10436.903782,444.123565,0.000000
3652.905727,-10658.965565,666.185348,689.485948
3652.906057,-10288.862594,592.164754,1072.533697
3652.906387,-9696.697840,222.061783,842.705048
3652.906717,-9770.718434,666.185348,383.047749
3652.907047,-9844.739029,370.102971,0.000000
3652.907377,-9252.574275,444.123565,-919.314598
3652.907707,-9030.512492,444.123565,-1302.362347
3652.908037,-8882.471304,370.102971,-842.705048
3652.908367,-10140.821405,444.123565,1302.362347
3652.908697,-10362.883188,666.185348,1685.410096
3652.909027,-9696.697840,74.020594,1072.533697
3652.909357,-9474.636058,518.144159,0.000000
3652.909687,-9474.636058,666.185348,-689.485948
3652.910017,-10066.800811,814.226536,-766.095498
3652.910346,-10140.821405,592.164754,-153.219100
3652.910676,-9474.636058,814.226536,0.000000
3652.911006,-9326.594869,592.164754,153.219100
3652.911336,-10140.821405,518.144159,383.047749
3652.911666,-9992.780217,296.082377,0.000000
3652.911996,-9696.697840,518.144159,-842.705048
3652.912326,-8808.450710,0.000000,-2145.067394
3652.912656,-9474.636058,0.000000,-995.924147
3652.912986,-10436.903782,148.041188,459.657299
3652.913316,-10362.883188,74.020594,1838.629195
3652.913646,-9696.697840,0.000000,1838.629195
3652.913976,-9474.636058,-74.020594,459.657299
3652.914306,-10288.862594,0.000000,-536.266849
3652.914636,-10436.903782,0.000000,-1225.752797
3652.914966,-9770.718434,-296.082377,-536.266849
3652.915296,-9326.594869,-74.020594,0.000000
3652.915626,-9326.594869,-444.123565,689.485948
3652.915956,-9474.636058,-296.082377,842.705048
3652.916286,-9844.739029,-148.041188,0.000000
3652.916615,-10214.842000,222.061783,-1225.752797
3652.916945,-9992.780217,-444.123565,-2145.067394
3652.917275,-9992.780217,-518.144159,-383.047749
3652.917605,-10066.800811,-592.164754,1378.971896
3652.917935,-10066.800811,0.000000,2451.505594
3652.918265,-8734.430116,-740.205942,1608.800546
3652.918595,-9030.512492,-444.123565,153.219100
3652.918925,-10066.800811,-74.020594,-766.095498
3652.919255,-11325.150913,74.020594,-766.095498
3652.919585,-10732.986159,-518.144159,153.219100
3652.919915,-9918.759623,-296.082377,536.266849
3652.920245,-9400.615463,-740.205942,383.047749
3652.920575,-9326.594869,-814.226536,153.219100
3652.920905,-9104.533087,-296.082377,-383.047749
3652.921235,-9474.636058,-148.041188,-842.705048
3652.921565,-9326.594869,-370.102971,-1378.971896
3652.921895,-9918.759623,-222.061783,229.828649
3652.922225,-10066.800811,296.082377,1225.752797
3652.922555,-10066.800811,0.000000,2145.067394
3652.922884,-9252.574275,-296.082377,1532.190996
3652.923214,-9326.594869,-222.061783,842.705048
3652.923544,-9992.780217,0.000000,0.000000
3652.923874,-10214.842000,148.041188,0.000000
3652.924204,-9918.759623,222.061783,536.266849
3652.924534,-9992.780217,296.082377,919.314598
3652.924864,-9770.718434,0.000000,1072.533697
3652.925194,-10140.821405,518.144159,842.705048
3652.925524,-10066.800811,370.102971,612.876398
3652.925854,-9474.636058,370.102971,-1225.752797
3652.926184,-9178.553681,370.102971,-1072.533697
3652.926514,-9918.759623,740.205942,-306.438199
3652.926844,-11029.068536,518.144159,1302.362347
3652.927174,-10066.800811,0.000000,1838.629195
3652.927504,-9252.574275,74.020594,1072.533697
3652.927834,-9178.553681,148.041188,-842.705048
3652.928164,-10584.944971,592.164754,-383.047749
3652.928494,-10066.800811,148.041188,-383.047749
3652.928824,-9992.780217,666.185348,306.438199
3652.929153,-9770.718434,518.144159,919.314598
3652.929483,-9770.718434,296.082377,842.705048
3652.929813,-9770.718434,296.082377,919.314598
3652.930143,-9770.718434,222.061783,-383.047749
3652.930473,-9400.615463,296.082377,-1762.019645
3652.930803,-8956.491898,148.041188,-1455.581446
3652.931133,-9992.780217,518.144159,76.609550
3652.931463,-10362.883188,296.082377,1455.581446
3652.931793,-9696.697840,74.020594,919.314598
3652.932123,-8586.388927,-222.061783,383.047749
3652.932453,-9548.656652,74.020594,-842.705048
3652.932783,-10140.821405,296.082377,-1532.190996
3652.933112,-10140.821405,444.123565,-995.924147
3652.933442,-9474.636058,0.000000,-306.438199
3652.933772,-9474.636058,222.061783,229.828649
3652.934102,-9548.656652,-148.041188,612.876398
3652.934432,-9400.615463,0.000000,383.047749
3652.934761,-9474.636058,74.020594,-1149.143247
3652.935091,-9030.512492,222.061783,-1455.581446
3652.935421,-9400.615463,-148.041188,-1149.143247
3652.935751,-10510.924376,74.020594,766.095498
3652.936081,-10732.986159,296.082377,1915.238745
3652.936411,-9696.697840,0.000000,1225.752797
3652.936740,-9326.594869,0.000000,0.000000
3652.937070,-9622.677246,0.000000,-766.095498
3652.937400,-10362.883188,222.061783,-689.485948
3652.937730,-9992.780217,148.041188,0.000000
3652.938060,-9696.697840,0.000000,766.095498
3652.938390,-9696.697840,0.000000,919.314598
3652.938719,-10214.842000,0.000000,1302.362347
3652.939049,-10510.924376,-370.102971,919.314598
3652.939379,-9770.718434,-148.041188,-459.657299
3652.939709,-9622.677246,-148.041188,-1302.362347
3652.940039,-9474.636058,-518.144159,0.000000
3652.940369,-10362.883188,-370.102971,1455.581446
3652.940698,-10214.842000,-666.185348,1838.629195
3652.941028,-9104.533087,-444.123565,1378.971896
3652.941358,-8882.471304,-370.102971,306.438199
3652.941688,-9474.636058,-74.020594,-842.705048
3652.942018,-10066.800811,0.000000,-1225.752797
3652.942348,-9844.739029,-444.123565,0.000000
3652.942677,-9844.739029,-444.123565,612.876398
3652.943007,-9474.636058,-740.205942,919.314598
3652.943337,-9474.636058,-518.144159,1762.019645
3652.943667,-9252.574275,-370.102971,766.095498
3652.943997,-9178.553681,-370.102971,-536.266849
3652.944327,-9326.594869,222.061783,-1302.362347
3652.944656,-9622.677246,74.020594,229.828649
3652.944986,-11103.089130,370.102971,919.314598
3652.945316,-10436.903782,0.000000,1762.019645
3652.945646,-9400.615463,0.000000,1072.533697
3652.945976,-8734.430116,-444.123565,459.657299
3652.946306,-9770.718434,444.123565,-689.485948
3652.946635,-10362.883188,222.061783,-306.438199
3652.946965,-10362.883188,370.102971,306.438199
3652.947295,-9770.718434,666.185348,1455.581446
3652.947625,-10140.821405,518.144159,1762.019645
3652.947955,-10510.924376,814.226536,2145.067394
3652.948284,-10362.883188,666.185348,383.047749
3652.948614,-9474.636058,888.247130,-1072.533697
3652.948944,-9474.636058,518.144159,-1532.190996
3652.949274,-10436.903782,888.247130,-383.047749
3652.949604,-10436.903782,444.123565,1838.629195
3652.949934,-9770.718434,148.041188,1608.800546
3652.950263,-8808.450710,0.000000,1225.752797
3652.950593,-8660.409521,0.000000,306.438199
3652.950923,-9696.697840,296.082377,-459.657299
3652.951253,-9992.780217,370.102971,-229.828649
3652.951583,-9548.656652,222.061783,612.876398
3652.951913,-9696.697840,444.123565,1072.533697
3652.952242,-9326.594869,370.102971,1608.800546
3652.952572,-9770.718434,518.144159,1378.971896
3652.952902,-10140.821405,666.185348,0.000000
3652.953232,-9992.780217,740.205942,-1838.629195
3652.953562,-9548.656652,888.247130,-2451.505594
3652.953892,-10066.800811,592.164754,-1072.533697
3652.954221,-10066.800811,370.102971,306.438199
3652.954551,-9474.636058,444.123565,536.266849
3652.954881,-8290.306550,370.102971,-229.828649
3652.955211,-9178.553681,370.102971,-1378.971896
3652.955541,-10214.842000,370.102971,-1762.019645
3652.955871,-10584.944971,444.123565,-995.924147
3652.956200,-9770.718434,0.000000,153.219100
3652.956530,-9474.636058,0.000000,689.485948
3652.956860,-9474.636058,-296.082377,1302.362347
3652.957190,-10066.800811,0.000000,1685.410096
3652.957520,-10214.842000,0.000000,-383.047749
3652.957850,-9696.697840,0.000000,-1915.238745
3652.958179,-9400.615463,-296.082377,-1532.190996
3652.958509,-10362.883188,148.041188,153.219100
3652.958839,-10955.047942,0.000000,1608.800546
3652.959169,-9696.697840,-444.123565,612.876398
3652.959499,-9030.512492,-814.226536,-153.219100
3652.959829,-9252.574275,-814.226536,-1302.362347
3652.960158,-10140.821405,-518.144159,-766.095498
3652.960488,-10066.800811,-1406.391290,0.000000
3652.960818,-9548.656652,-740.205942,1072.533697
3652.961148,-9548.656652,-962.267725,1378.971896
3652.961478,-9844.739029,-1036.288319,1685.410096
3652.961807,-9918.759623,-1036.288319,1225.752797
3652.962137,-9622.677246,-888.247130,0.000000
3652.962467,-9400.615463,-962.267725,-1532.190996
3652.962797,-9252.574275,-1258.350101,-919.314598
3652.963127,-9844.739029,-1110.308913,383.047749
3652.963457,-9844.739029,-962.267725,1302.362347
3652.963786,-9622.677246,-814.226536,766.095498
3652.964116,-9326.594869,-740.205942,-612.876398
3652.964446,-9326.594869,-1036.288319,-1378.971896
3652.964776,-9400.615463,-1036.288319,-1455.581446
3652.965106,-9844.739029,-592.164754,0.000000
3652.965436,-9548.656652,-444.123565,919.314598
3652.965765,-8808.450710,-814.226536,1838.629195
3652.966095,-9104.533087,-370.102971,995.924147
3652.966425,-9622.677246,0.000000,1455.581446
3652.966755,-10362.883188,518.144159,383.047749
3652.967085,-10214.842000,148.041188,-689.485948
3652.967415,-10288.862594,0.000000,76.609550
3652.967744,-10584.944971,-518.144159,1762.019645
3652.968074,-10510.924376,-148.041188,2145.067394
3652.968404,-9770.718434,222.061783,1608.800546
3652.968734,-8956.491898,148.041188,76.609550
3652.969064,-9326.594869,74.020594,-612.876398
3652.969394,-10214.842000,592.164754,-459.657299
3652.969723,-10140.821405,518.144159,766.095498
3652.970053,-10214.842000,592.164754,1455.581446
3652.970383,-10140.821405,666.185348,2987.772442
3652.970713,-10066.800811,518.144159,1532.190996
3652.971043,-9918.759623,370.102971,1149.143247
3652.971373,-9400.615463,296.082377,-459.657299
3652.971702,-9474.636058,666.185348,-766.095498
3652.972032,-9548.656652,740.205942,536.266849
3652.972362,-10288.862594,888.247130,1991.848295
3652.972692,-10288.862594,814.226536,2681.334243
3652.973022,-9844.739029,666.185348,1378.971896
3652.973351,-10214.842000,962.267725,-536.266849
3652.973681,-9844.739029,962.267725,-1762.019645
3652.974011,-9622.677246,814.226536,-1532.190996
3652.974341,-9548.656652,666.185348,-306.438199
3652.974671,-9326.594869,370.102971,919.314598
3652.975001,-9104.533087,740.205942,995.924147
3652.975330,-9474.636058,888.247130,842.705048
3652.975660,-9474.636058,1036.288319,0.000000
3652.975990,-9844.739029,1110.308913,-1378.971896
3652.976320,-9696.697840,888.247130,-1991.848295
3652.976650,-9844.739029,814.226536,-612.876398
3652.976980,-10214.842000,888.247130,995.924147
3652.977309,-9992.780217,296.082377,1532.190996
3652.977639,-9104.533087,74.020594,919.314598
3652.977969,-9104.533087,592.164754,-459.657299
3652.978299,-9474.636058,740.205942,-1838.629195
3652.978629,-10510.924376,962.267725,-1302.362347
3652.978959,-10362.883188,518.144159,-383.047749
3652.979288,-10214.842000,518.144159,689.485948
3652.979618,-9548.656652,0.000000,1302.362347
3652.979948,-9548.656652,0.000000,995.924147
3652.980278,-9400.615463,-148.041188,0.000000
3652.980608,-9326.594869,74.020594,-1685.410096
3652.980938,-9622.677246,222.061783,-1455.581446
3652.981267,-10362.883188,74.020594,153.219100
3652.981597,-11029.068536,444.123565,1762.019645
3652.981927,-10288.862594,148.041188,1838.629195
3652.982257,-9548.656652,-296.082377,306.438199
3652.982587,-9696.697840,-666.185348,-1072.533697
3652.982917,-10214.842000,-592.164754,-1532.190996
3652.983246,-9696.697840,-740.205942,-919.314598
3652.983576,-9844.739029,-666.185348,536.266849
3652.983906,-9474.636058,-666.185348,1532.190996
3652.984236,-9400.615463,-1036.288319,1685.410096
3652.984566,-9844.739029,-666.185348,1762.019645
3652.984896,-9918.759623,-296.082377,-229.828649
3652.985225,-9844.739029,-666.185348,-1302.362347
3652.985555,-9548.656652,-814.226536,-919.314598
3652.985885,-10288.862594,-296.082377,689.485948
3652.986215,-10436.903782,-666.185348,1915.238745
3652.986545,-9770.718434,-1036.288319,919.314598
3652.986874,-9030.512492,-962.267725,153.219100
3652.987204,-9104.533087,-592.164754,-919.314598
3652.987534,-9918.759623,-666.185348,-1532.190996
3652.987864,-9622.677246,-888.247130,-1072.533697
3652.988194,-9548.656652,-592.164754,766.095498
3652.988524,-9178.553681,-592.164754,1532.190996
3652.988853,-9474.636058,-814.226536,2068.457845
3652.989183,-10140.821405,-296.082377,995.924147
3652.989513,-10066.800811,-370.102971,-229.828649
3652.989843,-9400.615463,-444.123565,-842.705048
3652.990173,-9548.656652,-296.082377,536.266849
3652.990503,-10066.800811,-148.041188,1685.410096
3652.990832,-10214.842000,74.020594,2221.676944
3652.991162,-9548.656652,0.000000,1838.629195
3652.991492,-9622.677246,518.144159,0.000000
3652.991822,-10140.821405,370.102971,-1149.143247
3652.992152,-10510.924376,666.185348,-1532.190996
3652.992482,-9918.759623,148.041188,-383.047749
3652.992811,-9400.615463,444.123565,919.314598
3652.993141,-9030.512492,0.000000,1608.800546
3652.993471,-9400.615463,74.020594,2068.457845
3652.993801,-9696.697840,444.123565,1455.581446
3652.994131,-10140.821405,518.144159,153.219100
3652.994461,-9918.759623,0.000000,153.219100
3652.994790,-9844.739029,148.041188,995.924147
3652.995120,-10436.903782,592.164754,2451.505594
3652.995450,-10362.883188,518.144159,2757.943793
3652.995780,-9474.636058,740.205942,1378.971896
3652.996110,-9030.512492,666.185348,-612.876398
3652.996440,-9770.718434,962.267725,-1685.410096
3652.996769,-10584.944971,1184.329507,-1455.581446
3652.997099,-10214.842000,592.164754,-689.485948
3652.997429,-9844.739029,592.164754,0.000000
3652.997759,-9178.553681,370.102971,612.876398
3652.998089,-8882.471304,148.041188,459.657299
3652.998419,-9696.697840,592.164754,76.609550
3652.998748,-9622.677246,222.061783,-689.485948
3652.999078,-9252.574275,370.102971,-1072.533697
3652.999408,-9770.718434,518.144159,306.438199
3652.999738,-10584.944971,592.164754,1991.848295
3653.000068,-10140.821405,444.123565,1532.190996
3653.000397,-9252.574275,0.000000,536.266849
3653.000727,-9104.533087,222.061783,-1149.143247
3653.001057,-9474.636058,444.123565,-2068.457845
3653.001387,-9696.697840,666.185348,-1838.629195
3653.001717,-10214.842000,740.205942,-842.705048
3653.002047,-9474.636058,296.082377,0.000000
3653.002376,-9400.615463,222.061783,-306.438199
3653.002706,-9474.636058,518.144159,459.657299
3653.003036,-9992.780217,666.185348,0.000000
3653.003366,-10066.800811,666.185348,-1225.752797
3653.003696,-9696.697840,0.000000,-612.876398
3653.004026,-10140.821405,74.020594,153.219100
3653.004355,-11251.130318,592.164754,2451.505594
3653.004685,-10955.047942,370.102971,1915.238745
3653.005015,-10066.800811,-148.041188,612.876398
3653.005345,-9326.594869,-148.041188,-919.314598
3653.005675,-9770.718434,0.000000,-1149.143247
3653.006005,-10436.903782,74.020594,-459.657299
3653.006334,-9992.780217,0.000000,306.438199
3653.006664,-9104.533087,-592.164754,689.485948
3653.006994,-9030.512492,-518.144159,1072.533697
3653.007324,-10066.800811,74.020594,1378.971896
3653.007654,-10436.903782,-296.082377,0.000000
3653.007984,-10214.842000,-370.102971,-1072.533697
3653.008313,-9548.656652,-1036.288319,-612.876398
3653.008643,-9770.718434,-814.226536,1532.190996
3653.008973,-10436.903782,-1036.288319,2604.724693
3653.009303,-9622.677246,-1110.308913,2374.896044
3653.009633,-8364.327145,-1184.329507,919.314598
3653.009963,-8660.409521,-814.226536,-842.705048
3653.010292,-9622.677246,-370.102971,-1838.629195
3653.010622,-9622.677246,-592.164754,-1149.143247
3653.010952,-9622.677246,-74.020594,0.000000
3653.011282,-9474.636058,-444.123565,766.095498
3653.011612,-9474.636058,-1036.288319,459.657299
3653.011942,-10066.800811,-592.164754,229.828649
3653.012271,-9844.739029,-592.164754,-76.609550
3653.012601,-9474.636058,-666.185348,-766.095498
3653.012931,-9622.677246,-296.082377,-383.047749
3653.013261,-9992.780217,-370.102971,1378.971896
3653.013591,-10807.006753,-148.041188,2528.115143
3653.013920,-10140.821405,-222.061783,1838.629195
3653.014250,-9622.677246,-222.061783,1302.362347
3653.014580,-9844.739029,0.000000,-995.924147
3653.014910,-10436.903782,74.020594,-842.705048
3653.015240,-10362.883188,-222.061783,-306.438199
3653.015570,-9696.697840,-296.082377,612.876398
3653.015899,-9696.697840,-370.102971,842.705048
3653.016229,-9622.677246,-370.102971,1149.143247
3653.016559,-10066.800811,0.000000,1072.533697
3653.016889,-10140.821405,0.000000,459.657299
3653.017219,-10140.821405,296.082377,153.219100
3653.017549,-9622.677246,0.000000,1149.143247
3653.017878,-10436.903782,370.102971,2528.115143
3653.018208,-10658.965565,296.082377,2834.553343
3653.018538,-10214.842000,592.164754,2911.162892
3653.018868,-9696.697840,222.061783,76.609550
3653.019198,-10436.903782,888.247130,-1149.143247
3653.019528,-10881.027347,666.185348,-1378.971896
3653.019857,-10140.821405,444.123565,-229.828649
3653.020187,-9474.636058,148.041188,0.000000
3653.020517,-8660.409521,222.061783,76.609550
3653.020847,-8808.450710,370.102971,229.828649
3653.021177,-9400.615463,1110.308913,153.219100
3653.021507,-9992.780217,1110.308913,-842.705048
3653.021836,-9844.739029,962.267725,-1225.752797
3653.022166,-10140.821405,518.144159,0.000000
3653.022496,-10584.944971,666.185348,1302.362347
3653.022826,-10807.006753,962.267725,1838.629195
3653.023156,-9252.574275,444.123565,459.657299
3653.023486,-8734.430116,814.226536,-919.314598
3653.023815,-9474.636058,1036.288319,-1378.971896
3653.024145,-10362.883188,1332.370696,-995.924147
3653.024475,-9992.780217,1110.308913,-1072.533697
3653.024805,-9400.615463,888.247130,-689.485948
3653.025135,-9030.512492,666.185348,-306.438199
3653.025464,-9400.615463,814.226536,0.000000
3653.025794,-10288.862594,1184.329507,0.000000
3653.026124,-9622.677246,888.247130,-1225.752797
3653.026454,-9104.533087,666.185348,-1072.533697
3653.026784,-9918.759623,666.185348,0.000000
3653.027114,-11029.068536,1036.288319,2221.676944
3653.027443,-10807.006753,444.123565,2145.067394
3653.027773,-9770.718434,148.041188,1302.362347
3653.028103,-9474.636058,0.000000,0.000000
3653.028433,-10288.862594,148.041188,-306.438199
3653.028763,-10658.965565,370.102971,-842.705048
3653.029093,-9770.718434,222.061783,-383.047749
3653.029422,-9178.553681,0.000000,0.000000
3653.029752,-8808.450710,0.000000,612.876398
3653.030082,-9696.697840,222.061783,919.314598
3653.030412,-10140.821405,148.041188,153.219100
3653.030742,-10140.821405,-74.020594,-766.095498
3653.031072,-9770.718434,-518.144159,-612.876398
3653.031401,-10510.924376,-444.123565,383.047749
3653.031731,-11177.109724,-666.185348,2298.286494
3653.032061,-9918.759623,-1036.288319,2374.896044
3653.032391,-8882.471304,-962.267725,766.095498
3653.032721,-8290.306550,-740.205942,-459.657299
3653.033051,-9918.759623,-444.123565,-842.705048
3653.033380,-10362.883188,-370.102971,-459.657299
3653.033710,-9770.718434,-592.164754,0.000000
3653.034040,-9252.574275,-666.185348,153.219100
3653.034370,-9104.533087,-1184.329507,153.219100
3653.034700,-9622.677246,-1110.308913,383.047749
3653.035029,-9770.718434,-1406.391290,229.828649
3653.035359,-9326.594869,-1258.350101,-459.657299
3653.035689,-9326.594869,-1184.329507,0.000000
3653.036019,-10066.800811,-666.185348,1532.190996
3653.036349,-10732.986159,0.000000,2987.772442
3653.036678,-10214.842000,-296.082377,2068.457845
3653.037008,-9252.574275,-148.041188,995.924147
3653.037338,-9918.759623,0.000000,-459.657299
3653.037668,-10807.006753,0.000000,-842.705048
3653.037997,-10584.944971,-222.061783,-612.876398
3653.038327,-10140.821405,-148.041188,0.000000
3653.038657,-9030.512492,-666.185348,0.000000
3653.038987,-8882.471304,-666.185348,383.047749
3653.039317,-9400.615463,-518.144159,1149.143247
3653.039646,-9548.656652,0.000000,842.705048
3653.039976,-9178.553681,0.000000,306.438199
3653.040306,-9770.718434,370.102971,612.876398
3653.040636,-10955.047942,74.020594,1762.019645
3653.040966,-11251.130318,0.000000,2451.505594
3653.041295,-9548.656652,74.020594,1762.019645
3653.041625,-9252.574275,296.082377,76.609550
3653.041955,-9474.636058,222.061783,-995.924147
3653.042285,-10288.862594,444.123565,-1532.190996
3653.042614,-10288.862594,518.144159,-1532.190996
3653.042944,-8882.471304,740.205942,-1225.752797
3653.043274,-8734.430116,222.061783,-1072.533697
3653.043604,-8882.471304,0.000000,-229.828649
3653.043934,-9474.636058,222.061783,383.047749
3653.044263,-8808.450710,444.123565,383.047749
3653.044593,-8882.471304,296.082377,-766.095498
3653.044923,-9622.677246,740.205942,-306.438199
3653.045253,-10436.903782,666.185348,1149.143247
3653.045583,-10807.006753,962.267725,2068.457845
3653.045912,-9770.718434,814.226536,1915.238745
3653.046242,-9474.636058,740.205942,76.609550
3653.046572,-10066.800811,888.247130,-1072.533697
3653.046902,-10436.903782,962.267725,-1838.629195
3653.047231,-9474.636058,814.226536,-1302.362347
3653.047561,-9548.656652,1036.288319,-1302.362347
3653.047891,-9030.512492,296.082377,-842.705048
3653.048221,-9178.553681,222.061783,0.000000
3653.048551,-8808.450710,370.102971,612.876398
3653.048880,-9326.594869,444.123565,-383.047749
3653.049210,-9400.615463,296.082377,-1149.143247
3653.049540,-9770.718434,222.061783,306.438199
3653.049870,-11029.068536,444.123565,2528.115143
3653.050200,-11177.109724,148.041188,3677.258390
3653.050529,-10288.862594,-148.041188,2528.115143
3653.050859,-9474.636058,0.000000,689.485948
3653.051189,-9696.697840,-74.020594,-995.924147
3653.051519,-9918.759623,148.041188,-1225.752797
3653.051848,-10214.842000,148.041188,-1302.362347
3653.052178,-9474.636058,370.102971,-1072.533697
3653.052508,-8808.450710,0.000000,-306.438199
3653.052838,-9326.594869,0.000000,0.000000
3653.053168,-9696.697840,-296.082377,0.000000
3653.053497,-9474.636058,-370.102971,-1072.533697
3653.053827,-9178.553681,-296.082377,-1149.143247
3653.054157,-9622.677246,-518.144159,76.609550
3653.054487,-11177.109724,-444.123565,2911.162892
3653.054817,-11177.109724,-518.144159,3294.210641
3653.055146,-9770.718434,-814.226536,2068.457845
3653.055476,-9178.553681,-592.164754,76.609550
3653.055806,-10066.800811,0.000000,-1072.533697
3653.056136,-10658.965565,0.000000,-919.314598
3653.056465,-10362.883188,-222.061783,-612.876398
3653.056795,-9474.636058,-296.082377,-536.266849
3653.057125,-9252.574275,-444.123565,-536.266849
3653.057455,-9326.594869,-740.205942,-383.047749
3653.057785,-9400.615463,-518.144159,0.000000
3653.058114,-9104.533087,-666.185348,-306.438199
3653.058444,-9104.533087,-444.123565,-919.314598
3653.058774,-9548.656652,-666.185348,1072.533697
3653.059104,-10732.986159,-296.082377,2681.334243
3653.059434,-10288.862594,0.000000,3294.210641
3653.059763,-9844.739029,0.000000,2374.896044
3653.060093,-9696.697840,0.000000,459.657299
3653.060423,-10362.883188,0.000000,-612.876398
3653.060753,-10584.944971,296.082377,-383.047749
3653.061082,-10214.842000,222.061783,-459.657299
3653.061412,-8882.471304,370.102971,-383.047749
3653.061742,-8660.409521,0.000000,0.000000
3653.062072,-9474.636058,74.020594,459.657299
3653.062402,-9622.677246,148.041188,229.828649
3653.062731,-8808.450710,-148.041188,-1072.533697
3653.063061,-9030.512492,74.020594,-689.485948
3653.063391,-10066.800811,518.144159,1302.362347
3653.063721,-11547.212695,592.164754,3294.210641
3653.064051,-10955.047942,444.123565,2681.334243
3653.064380,-9918.759623,296.082377,1762.019645
3653.064710,-9548.656652,296.082377,306.438199
3653.065040,-10214.842000,592.164754,-766.095498
3653.065370,-9844.739029,666.185348,-766.095498
3653.065699,-9844.739029,1184.329507,-229.828649
3653.066029,-9548.656652,1110.308913,-536.266849
3653.066359,-10140.821405,444.123565,-536.266849
3653.066689,-9844.739029,592.164754,-919.314598
3653.067019,-9474.636058,370.102971,-1455.581446
3653.067348,-8586.388927,0.000000,-1608.800546
3653.067678,-8956.491898,0.000000,-766.095498
3653.068008,-10140.821405,0.000000,1378.971896
3653.068338,-10658.965565,0.000000,2528.115143
3653.068668,-10140.821405,0.000000,2757.943793
3653.068997,-9474.636058,0.000000,1762.019645
3653.069327,-9992.780217,74.020594,76.609550
3653.069657,-10510.924376,148.041188,-766.095498
3653.069987,-9548.656652,0.000000,-766.095498
3653.070316,-9252.574275,296.082377,-383.047749
3653.070646,-8956.491898,222.061783,-306.438199
3653.070976,-9104.533087,0.000000,-842.705048
3653.071306,-8956.491898,148.041188,-612.876398
3653.071636,-9030.512492,148.041188,-1762.019645
3653.071965,-9104.533087,222.061783,-2374.896044
3653.072295,-9178.553681,0.000000,-1225.752797
3653.072625,-10140.821405,0.000000,1072.533697
3653.072955,-10288.862594,0.000000,2528.115143
3653.073285,-9696.697840,-370.102971,1991.848295
3653.073614,-9548.656652,0.000000,995.924147
3653.073944,-10362.883188,296.082377,0.000000
3653.074274,-11029.068536,222.061783,-842.705048
3653.074604,-10584.944971,0.000000,-459.657299
3653.074933,-9622.677246,74.020594,-153.219100
3653.075263,-9178.553681,-148.041188,0.000000
3653.075593,-8734.430116,-444.123565,153.219100
3653.075923,-9844.739029,0.000000,306.438199
3653.076253,-9770.718434,-148.041188,-1149.143247
3653.076582,-9104.533087,0.000000,-1838.629195
3653.076912,-9548.656652,74.020594,0.000000
3653.077242,-10658.965565,-222.061783,1685.410096
3653.077572,-10658.965565,-74.020594,2451.505594
3653.077902,-9770.718434,-814.226536,2298.286494
3653.078231,-9030.512492,-296.082377,1378.971896
3653.078561,-9844.739029,0.000000,76.609550
3653.078891,-10510.924376,-296.082377,-536.266849
3653.079221,-9918.759623,0.000000,0.000000
3653.079550,-9548.656652,0.000000,0.000000
3653.079880,-8660.409521,-444.123565,459.657299
3653.080210,-8808.450710,-444.123565,612.876398
3653.080540,-9474.636058,-74.020594,229.828649
3653.080870,-9474.636058,74.020594,-1532.190996
3653.081199,-9178.553681,0.000000,-1532.190996
3653.081529,-9918.759623,-444.123565,229.828649
3653.081859,-11029.068536,0.000000,2374.896044
3653.082189,-10362.883188,-370.102971,3140.991542
3653.082519,-9104.533087,-592.164754,1991.848295
3653.082848,-8882.471304,0.000000,689.485948
3653.083178,-10066.800811,444.123565,-383.047749
3653.083508,-11177.109724,666.185348,76.609550
3653.083838,-10955.047942,518.144159,612.876398
3653.084167,-9696.697840,222.061783,689.485948
3653.084497,-9400.615463,148.041188,766.095498
3653.084827,-9178.553681,148.041188,383.047749
3653.085157,-9696.697840,74.020594,-229.828649
3653.085487,-9178.553681,222.061783,-1685.410096
3653.085816,-8882.471304,370.102971,-1302.362347
3653.086146,-9918.759623,740.205942,459.657299
3653.086476,-11029.068536,888.247130,2374.896044
3653.086806,-10732.986159,888.247130,2451.505594
3653.087136,-9844.739029,592.164754,1302.362347
3653.087465,-10214.842000,814.226536,-306.438199
3653.087795,-11029.068536,666.185348,-689.485948
3653.088125,-10510.924376,592.164754,-1149.143247
3653.088455,-9844.739029,814.226536,0.000000
3653.088784,-9400.615463,666.185348,0.000000
3653.089114,-9252.574275,370.102971,0.000000
3653.089444,-9548.656652,148.041188,153.219100
3653.089774,-9474.636058,518.144159,-919.314598
3653.090104,-9178.553681,666.185348,-1991.848295
3653.090433,-8660.409521,0.000000,-1532.190996
3653.090763,-9474.636058,148.041188,689.485948
3653.091093,-10066.800811,74.020594,1915.238745
3653.091423,-9548.656652,0.000000,2221.676944
3653.091752,-8586.388927,0.000000,919.314598
3653.092082,-9622.677246,592.164754,0.000000
3653.092412,-9992.780217,666.185348,-383.047749
3653.092742,-10140.821405,518.144159,-612.876398
3653.093072,-10214.842000,740.205942,-689.485948
3653.093401,-9474.636058,296.082377,0.000000
3653.093731,-9474.636058,0.000000,0.000000
3653.094061,-9696.697840,74.020594,0.000000
3653.094391,-9622.677246,296.082377,-766.095498
3653.094721,-8660.409521,0.000000,-2145.067394
3653.095050,-8586.388927,-296.082377,-1532.190996
3653.095380,-10066.800811,0.000000,842.705048
3653.095710,-10732.986159,148.041188,2757.943793
3653.096040,-9992.780217,0.000000,2604.724693
3653.096369,-9400.615463,74.020594,842.705048
3653.096699,-9918.759623,0.000000,-612.876398
3653.097029,-11547.212695,74.020594,-612.876398
3653.097359,-11621.233289,-148.041188,-306.438199
3653.097689,-10362.883188,0.000000,536.266849
3653.098018,-9104.533087,-740.205942,766.095498
3653.098348,-9104.533087,-592.164754,842.705048
3653.098678,-9548.656652,-444.123565,995.924147
3653.099008,-9622.677246,0.000000,-459.657299
3653.099338,-9400.615463,0.000000,-1608.800546
3653.099667,-9400.615463,-74.020594,-1378.971896
3653.099997,-10584.944971,0.000000,459.657299
3653.100327,-10288.862594,-592.164754,1991.848295
3653.100657,-9474.636058,-666.185348,1915.238745
3653.100986,-8660.409521,-592.164754,229.828649
3653.101316,-9844.739029,-592.164754,-383.047749
3653.101646,-10436.903782,-592.164754,-383.047749
3653.101976,-10066.800811,-296.082377,229.828649
3653.102306,-9252.574275,-518.144159,1225.752797
3653.102635,-9030.512492,-592.164754,1838.629195
3653.102965,-9548.656652,-592.164754,1225.752797
3653.103295,-10066.800811,-444.123565,459.657299
3653.103625,-9474.636058,-444.123565,-1455.581446
3653.103955,-8956.491898,-518.144159,-2068.457845
3653.104284,-9178.553681,-592.164754,-383.047749
3653.104614,-10140.821405,0.000000,2298.286494
3653.104944,-10140.821405,0.000000,3217.601092
3653.105274,-9696.697840,-518.144159,1532.190996
3653.105603,-9770.718434,148.041188,0.000000
3653.105933,-10510.924376,148.041188,-536.266849
3653.106263,-11103.089130,296.082377,0.000000
3653.106593,-10362.883188,148.041188,995.924147
3653.106923,-9326.594869,0.000000,1532.190996
3653.107252,-9252.574275,0.000000,1149.143247
3653.107582,-9918.759623,370.102971,306.438199
3653.107912,-10658.965565,592.164754,-383.047749
3653.108242,-10140.821405,518.144159,-1608.800546
3653.108572,-9474.636058,0.000000,-919.314598
3653.108901,-9548.656652,-74.020594,689.485948
3653.109231,-10214.842000,148.041188,2757.943793
3653.109561,-10066.800811,-296.082377,2451.505594
3653.109891,-9178.553681,-74.020594,1072.533697
3653.110220,-9400.615463,148.041188,-306.438199
3653.110550,-10584.944971,444.123565,-766.095498
3653.110880,-11251.130318,814.226536,-153.219100
3653.111210,-10436.903782,370.102971,536.266849
3653.111540,-9326.594869,74.020594,459.657299
3653.111869,-8882.471304,0.000000,229.828649
3653.112199,-9252.574275,0.000000,0.000000
3653.112529,-9770.718434,296.082377,-612.876398
3653.112859,-9844.739029,444.123565,-1608.800546
3653.113189,-9252.574275,222.061783,-1762.019645
3653.113518,-9548.656652,0.000000,-383.047749
3653.113848,-9844.739029,148.041188,1225.752797
3653.114178,-9326.594869,0.000000,1225.752797
3653.114508,-9104.533087,0.000000,229.828649
3653.114837,-9474.636058,74.020594,-842.705048
3653.115167,-9918.759623,148.041188,-1225.752797
3653.115497,-10066.800811,518.144159,-306.438199
3653.115827,-10288.862594,296.082377,766.095498
3653.116157,-9548.656652,296.082377,612.876398
3653.116486,-9696.697840,296.082377,919.314598
3653.116816,-9548.656652,74.020594,0.000000
3653.117146,-10066.800811,222.061783,-766.095498
3653.117476,-9844.739029,370.102971,-1532.190996
3653.117806,-9622.677246,444.123565,-995.924147
3653.118135,-10140.821405,592.164754,229.828649
3653.118465,-10510.924376,370.102971,1608.800546
3653.118795,-9474.636058,222.061783,1302.362347
3653.119125,-9400.615463,370.102971,689.485948
3653.119454,-9622.677246,592.164754,0.000000
3653.119784,-10881.027347,666.185348,-459.657299
3653.120114,-10436.903782,444.123565,383.047749
3653.120444,-10066.800811,296.082377,383.047749
3653.120774,-9178.553681,370.102971,842.705048
3653.121103,-9474.636058,-444.123565,766.095498
3653.121433,-9622.677246,-222.061783,1149.143247
3653.121763,-9622.677246,74.020594,459.657299
3653.122093,-9474.636058,-74.020594,-766.095498
3653.122423,-9326.594869,-370.102971,-306.438199
3653.122752,-10140.821405,-148.041188,919.314598
3653.123082,-10362.883188,148.041188,2068.457845
3653.123412,-9474.636058,-296.082377,1608.800546
3653.123742,-8660.409521,-296.082377,153.219100
3653.124071,-9252.574275,-296.082377,-229.828649
3653.124401,-10066.800811,0.000000,-612.876398
3653.124731,-10436.903782,-148.041188,0.000000
3653.125061,-9474.636058,74.020594,612.876398
3653.125391,-9400.615463,0.000000,842.705048
3653.125720,-9548.656652,-444.123565,1149.143247
3653.126050,-9992.780217,0.000000,1149.143247
3653.126380,-10214.842000,0.000000,-459.657299
3653.126710,-9326.594869,0.000000,-1685.410096
3653.127040,-9474.636058,-74.020594,-689.485948
3653.127369,-10436.903782,74.020594,842.705048
3653.127699,-10214.842000,0.000000,1762.019645
3653.128029,-9030.512492,-148.041188,1455.581446
3653.128359,-8734.430116,148.041188,689.485948
3653.128688,-9918.759623,370.102971,-306.438199
3653.129018,-11029.068536,74.020594,-383.047749
3653.129348,-10140.821405,222.061783,153.219100
3653.129678,-9918.759623,148.041188,612.876398
3653.130008,-9326.594869,-148.041188,1302.362347
3653.130337,-9548.656652,-148.041188,995.924147
3653.130667,-9622.677246,370.102971,-153.219100
3653.130997,-9548.656652,74.020594,-919.314598
3653.131327,-9400.615463,74.020594,-1532.190996
3653.131657,-9770.718434,0.000000,383.047749
3653.131986,-10732.986159,148.041188,2451.505594
3653.132316,-10510.924376,0.000000,2834.553343
3653.132646,-9548.656652,-518.144159,1762.019645
3653.132976,-9400.615463,-74.020594,459.657299
3653.133306,-10140.821405,0.000000,-459.657299
3653.133635,-10436.903782,296.082377,-919.314598
3653.133965,-10140.821405,0.000000,229.828649
3653.134295,-9548.656652,0.000000,612.876398
3653.134625,-9696.697840,-148.041188,306.438199
3653.134955,-9474.636058,-444.123565,-536.266849
3653.135285,-9474.636058,-370.102971,-383.047749
3653.135615,-8956.491898,-370.102971,-1532.190996
3653.135944,-8734.430116,-296.082377,-995.924147
3653.136274,-9548.656652,-296.082377,0.000000
3653.136604,-10214.842000,0.000000,1915.238745
3653.136934,-9918.759623,0.000000,1532.190996
3653.137264,-9474.636058,-222.061783,459.657299
3653.137594,-9770.718434,74.020594,-612.876398
3653.137924,-9992.780217,296.082377,-1532.190996
3653.138254,-10066.800811,0.000000,-383.047749
3653.138583,-9770.718434,0.000000,306.438199
3653.138913,-9474.636058,296.082377,383.047749
3653.139243,-8956.491898,518.144159,-306.438199
3653.139573,-9696.697840,444.123565,-76.609550
3653.139903,-9696.697840,592.164754,-689.485948
3653.140233,-9770.718434,296.082377,-1991.848295
3653.140563,-9548.656652,814.226536,-1915.238745
3653.140892,-9770.718434,74.020594,-229.828649
3653.141222,-10362.883188,74.020594,919.314598
3653.141552,-10140.821405,0.000000,1608.800546
3653.141882,-9770.718434,74.020594,1072.533697
3653.142212,-9844.739029,296.082377,229.828649
3653.142542,-10288.862594,0.000000,0.000000
3653.142872,-10658.965565,370.102971,0.000000
3653.143202,-9992.780217,0.000000,459.657299
3653.143531,-9104.533087,370.102971,459.657299
3653.143861,-9178.553681,0.000000,919.314598
3653.144191,-9844.739029,592.164754,842.705048
3653.144521,-10140.821405,222.061783,-229.828649
3653.144851,-9992.780217,296.082377,-2221.676944
3653.145181,-9252.574275,148.041188,-1608.800546
3653.145511,-9918.759623,0.000000,383.047749
3653.145841,-10436.903782,0.000000,2068.457845
3653.146170,-9622.677246,-296.082377,1991.848295
3653.146500,-8586.388927,-296.082377,1455.581446
3653.146830,-9252.574275,0.000000,536.266849
3653.147160,-9992.780217,74.020594,-153.219100
3653.147490,-10066.800811,0.000000,0.000000
3653.147820,-9400.615463,222.061783,919.314598
3653.148150,-9696.697840,0.000000,1685.410096
3653.148479,-9622.677246,74.020594,1838.629195
3653.148809,-9622.677246,74.020594,766.095498
3653.149139,-9622.677246,518.144159,-229.828649
3653.149469,-9104.533087,148.041188,-1149.143247
3653.149799,-9252.574275,74.020594,-612.876398
3653.150129,-10066.800811,962.267725,689.485948
3653.150459,-10510.924376,888.247130,1915.238745
3653.150789,-9696.697840,296.082377,1685.410096
3653.151118,-9104.533087,148.041188,153.219100
3653.151448,-9844.739029,740.205942,-536.266849
3653.151778,-10288.862594,592.164754,-229.828649
3653.152108,-10066.800811,592.164754,919.314598
3653.152438,-9770.718434,518.144159,1455.581446
3653.152768,-9770.718434,296.082377,1838.629195
3653.153098,-9918.759623,74.020594,1225.752797
3653.153427,-9992.780217,888.247130,0.000000
3653.153757,-9548.656652,518.144159,-306.438199
3653.154087,-9326.594869,370.102971,-995.924147
3653.154417,-9326.594869,296.082377,-229.828649
3653.154747,-10362.883188,740.205942,1608.800546
3653.155077,-10584.944971,666.185348,1378.971896
3653.155407,-9696.697840,444.123565,536.266849
3653.155737,-9474.636058,444.123565,-383.047749
3653.156066,-10214.842000,370.102971,-766.095498
3653.156396,-10807.006753,0.000000,-536.266849
3653.156726,-10066.800811,0.000000,459.657299
3653.157056,-9474.636058,0.000000,766.095498
3653.157386,-9326.594869,-148.041188,842.705048
3653.157716,-9104.533087,74.020594,1149.143247
3653.158046,-9622.677246,74.020594,306.438199
3653.158375,-9400.615463,222.061783,-383.047749
3653.158705,-9474.636058,74.020594,-919.314598
3653.159035,-9770.718434,370.102971,0.000000
3653.159365,-10807.006753,296.082377,995.924147
3653.159695,-10732.986159,296.082377,766.095498
3653.160025,-9622.677246,0.000000,-229.828649
3653.160355,-9400.615463,0.000000,-919.314598
3653.160685,-9844.739029,0.000000,-919.314598
3653.161014,-9696.697840,0.000000,-689.485948
3653.161344,-9548.656652,-222.061783,0.000000
3653.161674,-9252.574275,-444.123565,306.438199
3653.162004,-9252.574275,74.020594,766.095498
3653.162334,-9474.636058,-444.123565,1072.533697
3653.162664,-9918.759623,0.000000,766.095498
3653.162994,-9844.739029,0.000000,-459.657299
3653.163324,-10066.800811,222.061783,-995.924147
3653.163653,-10066.800811,0.000000,-459.657299
3653.163983,-10807.006753,0.000000,76.609550
3653.164313,-9844.739029,-222.061783,229.828649
3653.164643,-9030.512492,0.000000,612.876398
3653.164973,-9474.636058,222.061783,-612.876398
3653.165303,-9844.739029,74.020594,-766.095498
3653.165633,-10362.883188,74.020594,-766.095498
3653.165962,-10362.883188,-74.020594,-306.438199
3653.166292,-9622.677246,-296.082377,0.000000
3653.166622,-9104.533087,-740.205942,766.095498
3653.166952,-9474.636058,-592.164754,1685.410096
3653.167282,-10288.862594,-370.102971,1378.971896
3653.167612,-9918.759623,-740.205942,0.000000
3653.167942,-9252.574275,-296.082377,-995.924147
3653.168272,-10214.842000,-222.061783,153.219100
3653.168601,-10881.027347,-222.061783,1685.410096
3653.168931,-10214.842000,-592.164754,2068.457845
3653.169261,-8734.430116,-814.226536,536.266849
3653.169591,-8882.471304,-518.144159,-1225.752797
3653.169921,-9770.718434,-518.144159,-1838.629195
3653.170251,-9844.739029,-444.123565,-1072.533697
3653.170581,-9696.697840,-518.144159,689.485948
3653.170910,-9474.636058,-222.061783,1378.971896
3653.171240,-9696.697840,-518.144159,1608.800546
3653.171570,-9992.780217,-148.041188,1762.019645
3653.171900,-10140.821405,0.000000,1302.362347
3653.172230,-9844.739029,0.000000,-153.219100
3653.172560,-9252.574275,148.041188,-383.047749
3653.172890,-9622.677246,0.000000,1149.143247
3653.173220,-10807.006753,740.205942,2298.286494
3653.173549,-10066.800811,296.082377,1225.752797
3653.173879,-9326.594869,148.041188,-76.609550
3653.174209,-9770.718434,444.123565,-919.314598
3653.174539,-10066.800811,592.164754,-1072.533697
3653.174869,-9474.636058,370.102971,153.219100
3653.175199,-9622.677246,666.185348,995.924147
3653.175529,-9548.656652,296.082377,1302.362347
3653.175858,-9548.656652,370.102971,1532.190996
3653.176188,-9844.739029,370.102971,1455.581446
3653.176518,-10214.842000,592.164754,1072.533697
3653.176848,-10066.800811,444.123565,153.219100
3653.177178,-9918.759623,222.061783,383.047749
3653.177508,-10214.842000,592.164754,1532.190996
3653.177838,-10288.862594,222.061783,1685.410096
3653.178168,-9178.553681,296.082377,766.095498
3653.178497,-8734.430116,370.102971,0.000000
3653.178827,-9326.594869,666.185348,0.000000
3653.179157,-10140.821405,1036.288319,-842.705048
3653.179487,-10510.924376,814.226536,-306.438199
3653.179817,-10066.800811,740.205942,-229.828649
3653.180147,-9400.615463,370.102971,-229.828649
3653.180477,-9104.533087,74.020594,229.828649
3653.180807,-9400.615463,518.144159,306.438199
3653.181136,-9474.636058,518.144159,0.000000
3653.181466,-9252.574275,518.144159,-1302.362347
3653.181796,-9326.594869,444.123565,-1302.362347
3653.182126,-10584.944971,888.247130,0.000000
3653.182456,-10584.944971,296.082377,1149.143247
3653.182786,-10140.821405,74.020594,919.314598
3653.183116,-9326.594869,0.000000,612.876398
3653.183445,-9474.636058,-370.102971,-766.095498
3653.183775,-9252.574275,-370.102971,-1532.190996
3653.184105,-9030.512492,-296.082377,-1149.143247
3653.184435,-9400.615463,148.041188,-306.438199
3653.184765,-9622.677246,74.020594,383.047749
3653.185095,-9696.697840,296.082377,1455.581446
3653.185425,-10066.800811,148.041188,1455.581446
3653.185755,-10362.883188,222.061783,-229.828649
3653.186084,-10510.924376,222.061783,-1378.971896
3653.186414,-9992.780217,-296.082377,-995.924147
3653.186744,-10510.924376,-444.123565,842.705048
3653.187074,-10362.883188,-518.144159,1838.629195
3653.187404,-9474.636058,-666.185348,1685.410096
3653.187734,-9178.553681,-296.082377,76.609550
3653.188064,-9622.677246,-444.123565,-1302.362347
3653.188393,-9918.759623,-370.102971,-1608.800546
3653.188723,-10214.842000,-444.123565,-383.047749
3653.189053,-9622.677246,-962.267725,536.266849
3653.189383,-9178.553681,-814.226536,1378.971896
3653.189713,-9770.718434,-814.226536,1838.629195
3653.190043,-9992.780217,-666.185348,1302.362347
3653.190373,-10288.862594,-962.267725,0.000000
3653.190703,-10362.883188,-370.102971,-1072.533697
3653.191032,-10510.924376,-666.185348,229.828649
3653.191362,-10732.986159,-444.123565,1991.848295
3653.191692,-10362.883188,-592.164754,2145.067394
3653.192022,-8734.430116,-888.247130,689.485948
3653.192352,-8734.430116,-518.144159,-383.047749
3653.192682,-9400.615463,-296.082377,-1838.629195
3653.193012,-9770.718434,-444.123565,-1149.143247
3653.193341,-10140.821405,-518.144159,76.609550
3653.193671,-9770.718434,-296.082377,1072.533697
3653.194001,-9474.636058,-740.205942,995.924147
3653.194331,-9622.677246,-444.123565,1455.581446
3653.194661,-9622.677246,-370.102971,612.876398
3653.194991,-9252.574275,0.000000,-459.657299
3653.195321,-9104.533087,0.000000,-842.705048
3653.195651,-10288.862594,518.144159,766.095498
3653.195980,-10881.027347,370.102971,1838.629195
3653.196310,-10140.821405,370.102971,1685.410096
3653.196640,-9104.533087,74.020594,306.438199
3653.196970,-9104.533087,148.041188,-689.485948
3653.197300,-9622.677246,962.267725,-2068.457845
3653.197630,-10066.800811,592.164754,-1685.410096
3653.197960,-9770.718434,518.144159,-383.047749
3653.198290,-9474.636058,592.164754,766.095498
3653.198619,-9770.718434,592.164754,1915.238745
3653.198949,-9474.636058,740.205942,2068.457845
3653.199279,-9696.697840,666.185348,1149.143247
3653.199609,-9548.656652,888.247130,0.000000
3653.199939,-10140.821405,740.205942,-76.609550
3653.200269,-10955.047942,1110.308913,1225.752797
3653.200599,-11103.089130,1036.288319,1991.848295
3653.200928,-10288.862594,1036.288319,1608.800546
3653.201258,-9474.636058,740.205942,0.000000
3653.201588,-8956.491898,740.205942,-1532.190996
3653.201918,-9400.615463,592.164754,-2451.505594
3653.202248,-9104.533087,444.123565,-1302.362347
3653.202578,-9474.636058,518.144159,76.609550
3653.202908,-9178.553681,444.123565,1532.190996
3653.203238,-9252.574275,370.102971,1455.581446
3653.203567,-9400.615463,518.144159,1072.533697
3653.203897,-9770.718434,444.123565,0.000000
3653.204227,-9918.759623,518.144159,-1302.362347
3653.204557,-10214.842000,592.164754,-306.438199
3653.204887,-10732.986159,296.082377,1685.410096
3653.205217,-11029.068536,296.082377,2298.286494
3653.205547,-9770.718434,-74.020594,1608.800546
3653.205876,-8586.388927,222.061783,-1302.362347
3653.206206,-9030.512492,0.000000,-1991.848295
3653.206536,-9400.615463,518.144159,-1991.848295
3653.206866,-9918.759623,370.102971,-1302.362347
3653.207196,-9992.780217,1036.288319,0.000000
3653.207526,-9770.718434,592.164754,459.657299
3653.207856,-9918.759623,74.020594,229.828649
3653.208186,-10214.842000,0.000000,0.000000
3653.208515,-9844.739029,-444.123565,-536.266849
3653.208845,-9474.636058,74.020594,-1072.533697
3653.209175,-9918.759623,-518.144159,0.000000
3653.209505,-10955.047942,0.000000,1455.581446
3653.209835,-11103.089130,-444.123565,2451.505594
3653.210165,-10140.821405,-592.164754,1378.971896
3653.210495,-9252.574275,-592.164754,-229.828649
3653.210824,-9474.636058,-518.144159,-1762.019645
3653.211154,-9696.697840,-666.185348,-2145.067394
3653.211484,-9548.656652,-296.082377,-1608.800546
3653.211814,-9400.615463,-814.226536,0.000000
3653.212144,-9104.533087,-740.205942,766.095498
3653.212474,-9400.615463,-814.226536,919.314598
3653.212804,-10066.800811,-518.144159,536.266849
3653.213134,-10436.903782,-1258.350101,229.828649
3653.213463,-9992.780217,-1258.350101,-383.047749
3653.213793,-9844.739029,-1332.370696,0.000000
3653.214123,-9992.780217,-1332.370696,1991.848295
3653.214453,-9992.780217,-1036.288319,2068.457845
3653.214783,-9474.636058,-1110.308913,1225.752797
3653.215113,-9326.594869,-666.185348,-536.266849
3653.215443,-9474.636058,-888.247130,-1608.800546
3653.215772,-9548.656652,-666.185348,-1302.362347
3653.216102,-9548.656652,-888.247130,-766.095498
3653.216432,-9178.553681,-1036.288319,612.876398
3653.216762,-8808.450710,-1184.329507,1072.533697
3653.217092,-8808.450710,-1332.370696,1149.143247
3653.217422,-9252.574275,-814.226536,689.485948
3653.217752,-9696.697840,-740.205942,-306.438199
3653.218082,-9918.759623,-296.082377,-383.047749
3653.218411,-9992.780217,0.000000,919.314598
3653.218741,-11103.089130,518.144159,2451.505594
3653.219071,-10510.924376,444.123565,2604.724693
3653.219401,-9992.780217,666.185348,1225.752797
3653.219731,-10066.800811,592.164754,-842.705048
3653.220061,-11029.068536,1184.329507,-2528.115143
3653.220391,-10584.944971,740.205942,-1915.238745
3653.220721,-10066.800811,666.185348,-536.266849
3653.221050,-9030.512492,592.164754,995.924147
3653.221380,-8216.285956,296.082377,2528.115143
3653.221710,-9178.553681,444.123565,1532.190996
3653.222040,-9992.780217,1036.288319,1225.752797
3653.222370,-10214.842000,962.267725,0.000000
3653.222700,-10066.800811,1184.329507,229.828649
3653.223030,-10658.965565,1332.370696,1685.410096
3653.223359,-11177.109724,666.185348,2911.162892
3653.223689,-10584.944971,666.185348,2451.505594
3653.224019,-9400.615463,592.164754,459.657299
3653.224349,-9178.553681,814.226536,-1915.238745
3653.224679,-9474.636058,1332.370696,-2221.676944
3653.225009,-9918.759623,962.267725,-1225.752797
3653.225339,-9474.636058,1036.288319,0.000000
3653.225669,-8808.450710,518.144159,766.095498
3653.225998,-8290.306550,370.102971,689.485948
3653.226328,-8956.491898,370.102971,919.314598
3653.226658,-9770.718434,888.247130,536.266849
3653.226988,-9548.656652,814.226536,-229.828649
3653.227318,-9548.656652,592.164754,0.000000
3653.227648,-10658.965565,740.205942,1532.190996
3653.227978,-11177.109724,814.226536,2451.505594
3653.228307,-10288.862594,518.144159,1302.362347
3653.228637,-8882.471304,444.123565,-766.095498
3653.228967,-9178.553681,592.164754,-2145.067394
3653.229297,-9844.739029,740.205942,-2911.162892
3653.229627,-9548.656652,740.205942,-2681.334243
3653.229957,-9474.636058,592.164754,-1149.143247
3653.230287,-9030.512492,370.102971,-536.266849
3653.230617,-8882.471304,0.000000,383.047749
3653.230946,-9400.615463,222.061783,919.314598
3653.231276,-9992.780217,0.000000,76.609550
3653.231606,-9918.759623,370.102971,-229.828649
3653.231936,-10510.924376,0.000000,0.000000
3653.232266,-10955.047942,0.000000,1838.629195
3653.232596,-11547.212695,74.020594,2911.162892
3653.232926,-10732.986159,-592.164754,2145.067394
3653.233255,-9622.677246,-444.123565,76.609550
3653.233585,-9548.656652,-370.102971,-1455.581446
3653.233915,-9992.780217,-222.061783,-2604.724693
3653.234245,-10066.800811,-518.144159,-1302.362347
3653.234575,-9622.677246,-370.102971,-536.266849
3653.234905,-9326.594869,-592.164754,306.438199
3653.235235,-9474.636058,-1036.288319,612.876398
3653.235564,-9474.636058,-814.226536,1225.752797
3653.235894,-9474.636058,-1332.370696,76.609550
3653.236224,-9252.574275,-1406.391290,0.000000
3653.236554,-9622.677246,-1480.411884,1149.143247
3653.236883,-10658.965565,-1332.370696,2757.943793
3653.237213,-10881.027347,-1184.329507,3600.648841
3653.237543,-9770.718434,-1406.391290,1991.848295
3653.237873,-8956.491898,-1258.350101,0.000000
3653.238202,-9400.615463,-666.185348,-1991.848295
3653.238532,-9622.677246,-666.185348,-2374.896044
3653.238862,-9400.615463,-740.205942,-1608.800546
3653.239192,-9104.533087,-296.082377,-689.485948
3653.239521,-8882.471304,-666.185348,-76.609550
3653.239851,-9178.553681,-666.185348,612.876398
3653.240181,-9622.677246,-740.205942,0.000000
3653.240511,-9622.677246,-1110.308913,-229.828649
3653.240840,-9474.636058,-962.267725,0.000000
3653.241170,-9770.718434,-740.205942,1378.971896
3653.241500,-10881.027347,-222.061783,2987.772442
3653.241829,-11029.068536,518.144159,2911.162892
3653.242159,-10510.924376,296.082377,1225.752797
3653.242489,-10510.924376,666.185348,-842.705048
3653.242819,-10955.047942,962.267725,-2298.286494
3653.243148,-10362.883188,518.144159,-1762.019645
3653.243478,-9548.656652,0.000000,-919.314598
3653.243808,-8808.450710,0.000000,0.000000
3653.244138,-8660.409521,0.000000,842.705048
3653.244467,-8808.450710,444.123565,383.047749
3653.244797,-9622.677246,962.267725,842.705048
3653.245127,-10214.842000,962.267725,229.828649
3653.245457,-10214.842000,814.226536,1532.190996
3653.245786,-10658.965565,518.144159,2374.896044
3653.246116,-11177.109724,666.185348,3370.820191
3653.246446,-10140.821405,370.102971,2757.943793
3653.246776,-9548.656652,740.205942,1378.971896
3653.247105,-9548.656652,888.247130,-76.609550
3653.247435,-10066.800811,1184.329507,-1532.190996
3653.247765,-9992.780217,1258.350101,-1838.629195
3653.248095,-9770.718434,1480.411884,-1302.362347
3653.248424,-9400.615463,1184.329507,-306.438199
3653.248754,-8808.450710,814.226536,-383.047749
3653.249084,-8142.265362,888.247130,0.000000
3653.249413,-9178.553681,1184.329507,0.000000
3653.249743,-9400.615463,1406.391290,-76.609550
3653.250073,-9992.780217,1036.288319,76.609550
3653.250403,-11325.150913,1184.329507,1072.533697
3653.250732,-11843.295072,1036.288319,2834.553343
3653.251062,-11251.130318,444.123565,2451.505594
3653.251392,-9400.615463,0.000000,1685.410096
3653.251722,-9104.533087,296.082377,-536.266849
3653.252051,-9474.636058,814.226536,-1608.800546
3653.252381,-9770.718434,962.267725,-2068.457845
3653.252711,-9400.615463,1406.391290,-995.924147
3653.253041,-9474.636058,1036.288319,-766.095498
3653.253370,-9474.636058,518.144159,-229.828649
3653.253700,-9844.739029,370.102971,-459.657299
3653.254030,-10288.862594,296.082377,-766.095498
3653.254360,-9474.636058,-74.020594,-1455.581446
3653.254689,-9030.512492,-296.082377,-229.828649
3653.255019,-10140.821405,148.041188,2068.457845
3653.255349,-11103.089130,74.020594,3600.648841
3653.255679,-10807.006753,0.000000,2834.553343
3653.256008,-10214.842000,74.020594,919.314598
3653.256338,-9992.780217,0.000000,-919.314598
3653.256668,-10436.903782,-296.082377,-1991.848295
3653.256997,-10214.842000,-370.102971,-1072.533697
3653.257327,-9474.636058,-444.123565,-766.095498
3653.257657,-8290.306550,-1036.288319,-459.657299
3653.257987,-8290.306550,-1258.350101,-612.876398
3653.258316,-9178.553681,-1110.308913,0.000000
3653.258646,-9474.636058,-666.185348,-689.485948
3653.258976,-9474.636058,-1184.329507,-536.266849
3653.259306,-9474.636058,-1184.329507,766.095498
3653.259635,-10362.883188,-1184.329507,2221.676944
3653.259965,-10807.006753,-962.267725,2834.553343
3653.260295,-10140.821405,-1258.350101,1915.238745
3653.260625,-9400.615463,-1184.329507,459.657299
3653.260954,-9326.594869,-888.247130,-1072.533697
3653.261284,-10066.800811,-592.164754,-1149.143247
3653.261614,-10066.800811,-740.205942,-459.657299
3653.261944,-9622.677246,-740.205942,0.000000
3653.262273,-9104.533087,-740.205942,0.000000
3653.262603,-8512.368333,-1406.391290,0.000000
3653.262933,-9030.512492,-518.144159,0.000000
3653.263262,-9770.718434,-814.226536,-153.219100
3653.263592,-9252.574275,-1036.288319,-76.609550
3653.263922,-9548.656652,-666.185348,919.314598
3653.264252,-10955.047942,148.041188,2681.334243
3653.264581,-11251.130318,0.000000,2987.772442
3653.264911,-10214.842000,-222.061783,1455.581446
3653.265241,-10066.800811,0.000000,306.438199
3653.265571,-10362.883188,74.020594,-536.266849
3653.265900,-10362.883188,-296.082377,-1072.533697
3653.266230,-10066.800811,-296.082377,-459.657299
3653.266560,-9030.512492,-444.123565,0.000000
3653.266890,-8808.450710,-296.082377,459.657299
3653.267219,-8956.491898,-222.061783,766.095498
3653.267549,-9030.512492,370.102971,536.266849
3653.267879,-9030.512492,444.123565,0.000000
3653.268209,-9326.594869,740.205942,76.609550
3653.268538,-10436.903782,962.267725,1762.019645
3653.268868,-11695.253884,1036.288319,2451.505594
3653.269198,-11843.295072,1110.308913,2145.067394
3653.269528,-10288.862594,518.144159,1225.752797
3653.269857,-9844.739029,814.226536,-306.438199
3653.270187,-9696.697840,888.247130,-1149.143247
3653.270517,-9844.739029,1258.350101,-842.705048
3653.270846,-9622.677246,888.247130,0.000000
3653.271176,-9474.636058,1184.329507,-306.438199
3653.271506,-9252.574275,592.164754,-536.266849
3653.271836,-8956.491898,666.185348,229.828649
3653.272165,-9474.636058,1184.329507,153.219100
3653.272495,-9548.656652,888.247130,-612.876398
3653.272825,-9104.533087,740.205942,-459.657299
3653.273155,-8956.491898,518.144159,0.000000
3653.273484,-10288.862594,1332.370696,2068.457845
3653.273814,-10881.027347,1036.288319,2451.505594
3653.274144,-10066.800811,888.247130,2068.457845
3653.274474,-9918.759623,1110.308913,-383.047749
3653.274803,-10436.903782,962.267725,-1149.143247
3653.275133,-10658.965565,1110.308913,-1685.410096
3653.275463,-10214.842000,592.164754,-1378.971896
3653.275793,-9252.574275,518.144159,-689.485948
3653.276122,-8290.306550,370.102971,-689.485948
3653.276452,-9474.636058,888.247130,0.000000
3653.276782,-10214.842000,592.164754,0.000000
3653.277112,-9548.656652,518.144159,-1149.143247
3653.277441,-9326.594869,296.082377,-536.266849
3653.277771,-10066.800811,222.061783,995.924147
3653.278101,-11103.089130,74.020594,2681.334243
3653.278430,-10288.862594,-222.061783,2757.943793
3653.278760,-9696.697840,-370.102971,1378.971896
3653.279090,-10140.821405,74.020594,76.609550
3653.279420,-10732.986159,0.000000,-995.924147
3653.279749,-10140.821405,148.041188,-1072.533697
3653.280079,-9992.780217,0.000000,-842.705048
3653.280409,-9252.574275,-370.102971,-536.266849
3653.280739,-9252.574275,-592.164754,-76.609550
3653.281068,-9770.718434,-814.226536,153.219100
3653.281398,-9474.636058,-1110.308913,0.000000
3653.281728,-9178.553681,-1110.308913,-383.047749
3653.282058,-9104.533087,-1332.370696,-383.047749
3653.282387,-10140.821405,-1110.308913,1762.019645
3653.282717,-10955.047942,-592.164754,3600.648841
3653.283047,-10584.944971,-740.205942,3064.381992
3653.283377,-9992.780217,-740.205942,1532.190996
3653.283706,-10288.862594,-740.205942,-612.876398
3653.284036,-10658.965565,-740.205942,-1225.752797
3653.284366,-9918.759623,-1184.329507,-766.095498
3653.284696,-9400.615463,-1184.329507,-536.266849
3653.285025,-8734.430116,-1332.370696,-689.485948
3653.285355,-8364.327145,-1702.473667,-153.219100
3653.285685,-9104.533087,-1184.329507,383.047749
3653.286014,-9030.512492,-814.226536,0.000000
3653.286344,-8808.450710,-1036.288319,-459.657299
3653.286674,-9178.553681,-1036.288319,306.438199
3653.287004,-10214.842000,-296.082377,2145.067394
3653.287333,-10807.006753,-444.123565,3140.991542
3653.287663,-10436.903782,-296.082377,2451.505594
3653.287993,-9918.759623,-296.082377,766.095498
3653.288323,-10214.842000,-296.082377,-842.705048
3653.288652,-10436.903782,0.000000,-919.314598
3653.288982,-10288.862594,0.000000,-1149.143247
3653.289312,-9622.677246,0.000000,-306.438199
3653.289642,-8956.491898,222.061783,153.219100
3653.289971,-8438.347739,148.041188,383.047749
3653.290301,-9622.677246,518.144159,612.876398
3653.290631,-10140.821405,444.123565,0.000000
3653.290961,-9474.636058,222.061783,-689.485948
3653.291290,-9622.677246,148.041188,536.266849
3653.291620,-10955.047942,444.123565,2451.505594
3653.291950,-11473.192101,592.164754,2911.162892
3653.292280,-9918.759623,222.061783,2374.896044
3653.292609,-9622.677246,518.144159,459.657299
3653.292939,-10288.862594,740.205942,-842.705048
3653.293269,-11177.109724,888.247130,-995.924147
3653.293598,-10955.047942,740.205942,-306.438199
3653.293928,-9030.512492,296.082377,-229.828649
3653.294258,-7846.182985,518.144159,-76.609550
3653.294588,-8216.285956,592.164754,-76.609550
3653.294917,-9252.574275,518.144159,-383.047749
3653.295247,-9104.533087,592.164754,-1455.581446
3653.295577,-8660.409521,592.164754,-1915.238745
3653.295907,-9844.739029,444.123565,-76.609550
3653.296236,-11029.068536,444.123565,1685.410096
3653.296566,-10436.903782,444.123565,2757.943793
3653.296896,-9400.615463,592.164754,2374.896044
3653.297226,-9252.574275,518.144159,306.438199
3653.297555,-10140.821405,888.247130,-612.876398
3653.297885,-10807.006753,888.247130,-1072.533697
3653.298215,-10288.862594,1406.391290,-842.705048
3653.298545,-9622.677246,666.185348,-842.705048
3653.298874,-9178.553681,592.164754,-1149.143247
3653.299204,-8956.491898,370.102971,-766.095498
3653.299534,-9104.533087,592.164754,-995.924147
3653.299864,-9252.574275,370.102971,-1608.800546
3653.300193,-9030.512492,370.102971,-1378.971896
3653.300523,-9770.718434,222.061783,153.219100
3653.300853,-10436.903782,444.123565,2145.067394
3653.301182,-10881.027347,370.102971,2834.553343
3653.301512,-10362.883188,0.000000,2528.115143
3653.301842,-9992.780217,0.000000,1149.143247
3653.302172,-10510.924376,222.061783,-153.219100
3653.302501,-11103.089130,518.144159,-536.266849
3653.302831,-10732.986159,222.061783,0.000000
3653.303161,-9474.636058,0.000000,-459.657299
3653.303491,-8956.491898,-296.082377,-612.876398
3653.303820,-8956.491898,0.000000,153.219100
3653.304150,-9400.615463,0.000000,0.000000
3653.304480,-9252.574275,-148.041188,-612.876398
3653.304810,-9178.553681,-296.082377,-995.924147
3653.305139,-10362.883188,-444.123565,919.314598
3653.305469,-10881.027347,-222.061783,2604.724693
3653.305799,-10436.903782,-814.226536,3217.601092
3653.306129,-9474.636058,-962.267725,2451.505594
3653.306458,-9030.512492,-888.247130,689.485948
3653.306788,-9844.739029,-518.144159,0.000000
3653.307118,-10140.821405,-592.164754,-766.095498
3653.307448,-9770.718434,-518.144159,-229.828649
3653.307777,-9252.574275,-592.164754,536.266849
3653.308107,-8882.471304,-740.205942,536.266849
3653.308437,-9030.512492,-740.205942,536.266849
3653.308766,-9474.636058,-444.123565,-536.266849
3653.309096,-8882.471304,-666.185348,-2221.676944
3653.309426,-9326.594869,-518.144159,-1762.019645
3653.309756,-10436.903782,-296.082377,1149.143247
3653.310085,-10732.986159,-148.041188,2911.162892
3653.310415,-9992.780217,-370.102971,2911.162892
3653.310745,-9178.553681,-296.082377,1762.019645
3653.311075,-9918.759623,0.000000,383.047749
3653.311404,-10955.047942,148.041188,-229.828649
3653.311734,-10881.027347,370.102971,306.438199
3653.312064,-10288.862594,444.123565,842.705048
3653.312394,-9696.697840,444.123565,1225.752797
3653.312723,-9844.739029,0.000000,229.828649
3653.313053,-9770.718434,0.000000,-229.828649
3653.313383,-9770.718434,296.082377,-1149.143247
3653.313713,-8808.450710,-296.082377,-1762.019645
3653.314042,-9104.533087,0.000000,-306.438199
3653.314372,-10807.006753,370.102971,2374.896044
3653.314702,-11251.130318,296.082377,3447.429741
3653.315031,-10214.842000,148.041188,2604.724693
3653.315361,-9918.759623,592.164754,1455.581446
3653.315691,-10066.800811,518.144159,-383.047749
3653.316021,-10807.006753,666.185348,-995.924147
3653.316350,-10362.883188,296.082377,-459.657299
3653.316680,-9474.636058,518.144159,459.657299
3653.317010,-9252.574275,592.164754,-383.047749
3653.317340,-9326.594869,0.000000,-689.485948
3653.317669,-9326.594869,222.061783,-1072.533697
3653.317999,-9178.553681,74.020594,-1838.629195
3653.318329,-8734.430116,148.041188,-2528.115143
3653.318659,-8586.388927,-222.061783,-919.314598
3653.318988,-9622.677246,148.041188,1608.800546
3653.319318,-9918.759623,74.020594,2451.505594
3653.319648,-9548.656652,0.000000,2451.505594
3653.319978,-9252.574275,444.123565,612.876398
3653.320307,-10362.883188,740.205942,-842.705048
3653.320637,-10658.965565,814.226536,-1072.533697
3653.320967,-10881.027347,444.123565,0.000000
3653.321297,-9622.677246,222.061783,76.609550
3653.321626,-8882.471304,-74.020594,-306.438199
3653.321956,-9030.512492,222.061783,-612.876398
3653.322286,-9178.553681,444.123565,229.828649
3653.322615,-9474.636058,518.144159,-1915.238745
3653.322945,-9326.594869,518.144159,-2681.334243
3653.323275,-10214.842000,296.082377,-842.705048
3653.323605,-11251.130318,518.144159,2068.457845
3653.323934,-10807.006753,0.000000,2911.162892
3653.324264,-9326.594869,-148.041188,2298.286494
3653.324594,-9474.636058,0.000000,842.705048
3653.324924,-10214.842000,148.041188,-459.657299
3653.325253,-11103.089130,-148.041188,0.000000
3653.325583,-10658.965565,0.000000,0.000000
3653.325913,-9622.677246,-148.041188,536.266849
3653.326243,-9104.533087,-370.102971,689.485948
3653.326572,-9326.594869,-444.123565,612.876398
3653.326902,-9474.636058,-148.041188,-766.095498
3653.327232,-9104.533087,-370.102971,-1915.238745
3653.327562,-8956.491898,-518.144159,-2068.457845
3653.327891,-9770.718434,-370.102971,459.657299
3653.328221,-11103.089130,0.000000,3064.381992
3653.328551,-10584.944971,-222.061783,3217.601092
3653.328881,-9770.718434,-592.164754,2298.286494
3653.329210,-9696.697840,-444.123565,536.266849
3653.329540,-10066.800811,-74.020594,-766.095498
3653.329870,-10362.883188,-148.041188,-229.828649
3653.330199,-9696.697840,-592.164754,612.876398
3653.330529,-8660.409521,-222.061783,1225.752797
3653.330859,-8660.409521,-444.123565,1762.019645
3653.331189,-9622.677246,0.000000,766.095498
3653.331518,-10140.821405,222.061783,-689.485948
3653.331848,-9622.677246,0.000000,-1915.238745
3653.332178,-9104.533087,74.020594,-1225.752797
3653.332508,-10288.862594,0.000000,842.705048
3653.332837,-11325.150913,370.102971,3294.210641
3653.333167,-9918.759623,0.000000,2681.334243
3653.333497,-9030.512492,0.000000,995.924147
3653.333827,-9474.636058,0.000000,-689.485948
3653.334156,-10510.924376,740.205942,-842.705048
3653.334486,-10510.924376,592.164754,306.438199
3653.334816,-9992.780217,592.164754,1532.190996
3653.335146,-9474.636058,222.061783,1762.019645
3653.335476,-9178.553681,222.061783,612.876398
3653.335806,-9696.697840,592.164754,0.000000
3653.336135,-9770.718434,592.164754,-995.924147
3653.336465,-9252.574275,592.164754,-2068.457845
3653.336795,-9326.594869,370.102971,-919.314598
3653.337125,-10066.800811,444.123565,1532.190996
3653.337455,-10510.924376,740.205942,3294.210641
3653.337785,-9918.759623,222.061783,2451.505594
3653.338114,-9474.636058,370.102971,536.266849
3653.338444,-9770.718434,592.164754,-842.705048
3653.338774,-10955.047942,814.226536,-842.705048
3653.339104,-10732.986159,518.144159,153.219100
3653.339434,-9548.656652,814.226536,842.705048
3653.339764,-9400.615463,518.144159,229.828649
3653.340093,-9400.615463,148.041188,0.000000
3653.340423,-9474.636058,370.102971,-1225.752797
3653.340753,-8956.491898,74.020594,-1838.629195
3653.341083,-8586.388927,74.020594,-2681.334243
3653.341413,-8882.471304,0.000000,-1225.752797
3653.341743,-10362.883188,296.082377,1072.533697
3653.342073,-10584.944971,0.000000,1685.410096
3653.342402,-9770.718434,-296.082377,1225.752797
3653.342732,-9252.574275,-444.123565,229.828649
3653.343062,-9696.697840,-222.061783,-459.657299
3653.343392,-10214.842000,0.000000,-383.047749
3653.343722,-10362.883188,296.082377,612.876398
3653.344052,-9844.739029,0.000000,612.876398
3653.344381,-9918.759623,74.020594,383.047749
3653.344711,-9918.759623,0.000000,-229.828649
3653.345041,-10584.944971,518.144159,0.000000
3653.345371,-9844.739029,-148.041188,-1225.752797
3653.345701,-8512.368333,-592.164754,-2451.505594
3653.346031,-8808.450710,-518.144159,-1072.533697
3653.346360,-9696.697840,-296.082377,1685.410096
3653.346690,-10584.944971,0.000000,2528.115143
3653.347020,-10140.821405,-518.144159,2221.676944
3653.347350,-9844.739029,0.000000,612.876398
3653.347680,-10732.986159,0.000000,0.000000
3653.348010,-10881.027347,-444.123565,0.000000
3653.348339,-10658.965565,-444.123565,612.876398
3653.348669,-9474.636058,-592.164754,1378.971896
3653.348999,-8882.471304,-370.102971,1149.143247
3653.349329,-9326.594869,0.000000,1149.143247
3653.349659,-10066.800811,148.041188,-229.828649
3653.349989,-9992.780217,222.061783,-1455.581446
3653.350319,-9474.636058,0.000000,-1762.019645
3653.350648,-9622.677246,-370.102971,306.438199
3653.350978,-10066.800811,-444.123565,2068.457845
3653.351308,-9474.636058,-296.082377,2834.553343
3653.351638,-8956.491898,0.000000,1608.800546
3653.351968,-9326.594869,0.000000,-229.828649
3653.352298,-10658.965565,296.082377,-1225.752797
3653.352627,-10510.924376,148.041188,-306.438199
3653.352957,-10362.883188,370.102971,1455.581446
3653.353287,-9548.656652,0.000000,1455.581446
3653.353617,-9030.512492,-148.041188,842.705048
3653.353947,-8956.491898,296.082377,383.047749
3653.354277,-9474.636058,666.185348,-459.657299
3653.354606,-9844.739029,814.226536,-842.705048
3653.354936,-9770.718434,592.164754,-612.876398
3653.355266,-10362.883188,666.185348,383.047749
3653.355596,-10510.924376,222.061783,2145.067394
3653.355926,-10066.800811,0.000000,1991.848295
3653.356256,-9400.615463,0.000000,1149.143247
3653.356585,-9326.594869,0.000000,153.219100
3653.356915,-9770.718434,148.041188,0.000000
3653.357245,-10066.800811,444.123565,306.438199
3653.357575,-10066.800811,444.123565,1532.190996
3653.357905,-9400.615463,148.041188,1608.800546
3653.358235,-9770.718434,148.041188,919.314598
3653.358565,-9548.656652,148.041188,459.657299
3653.358894,-9548.656652,296.082377,-536.266849
3653.359224,-9104.533087,148.041188,-1302.362347
3653.359554,-9104.533087,74.020594,-1302.362347
3653.359884,-10362.883188,296.082377,383.047749
3653.360214,-10214.842000,148.041188,1685.410096
3653.360544,-9326.594869,-222.061783,1532.190996
3653.360873,-8734.430116,0.000000,76.609550
3653.361203,-9696.697840,-222.061783,-536.266849
3653.361533,-10436.903782,-148.041188,-1455.581446
3653.361863,-9992.780217,-222.061783,-153.219100
3653.362193,-9474.636058,148.041188,383.047749
3653.362523,-9696.697840,0.000000,1455.581446
3653.362852,-9770.718434,-148.041188,536.266849
3653.363182,-9622.677246,0.000000,-919.314598
3653.363512,-9696.697840,-148.041188,-1378.971896
3653.363842,-9400.615463,74.020594,-2068.457845
3653.364172,-9400.615463,-296.082377,-1378.971896
3653.364502,-9548.656652,0.000000,383.047749
3653.364831,-9474.636058,0.000000,1838.629195
3653.365161,-9696.697840,0.000000,1072.533697
3653.365491,-9548.656652,0.000000,229.828649
3653.365821,-10066.800811,-370.102971,-612.876398
3653.366151,-10510.924376,-296.082377,-842.705048
3653.366481,-10510.924376,-74.020594,0.000000
3653.366811,-9918.759623,-222.061783,995.924147
3653.367140,-9474.636058,-148.041188,1225.752797
3653.367470,-9178.553681,-518.144159,995.924147
3653.367800,-9548.656652,0.000000,153.219100
3653.368130,-10214.842000,74.020594,-842.705048
3653.368460,-9844.739029,222.061783,-1532.190996
3653.368790,-10066.800811,-148.041188,0.000000
3653.369119,-10881.027347,0.000000,1915.238745
3653.369449,-10362.883188,-296.082377,1762.019645
3653.369779,-9178.553681,-740.205942,1149.143247
3653.370109,-8364.327145,-370.102971,383.047749
3653.370439,-9770.718434,0.000000,0.000000
3653.370769,-10732.986159,370.102971,612.876398
3653.371098,-10881.027347,148.041188,153.219100
3653.371428,-10066.800811,0.000000,1149.143247
3653.371758,-9696.697840,-296.082377,1072.533697
3653.372088,-9770.718434,-592.164754,459.657299
3653.372418,-9696.697840,-370.102971,0.000000
3653.372748,-9474.636058,-148.041188,-1455.581446
3653.373078,-8882.471304,-592.164754,-1378.971896
3653.373407,-8956.491898,-370.102971,0.000000
3653.373737,-9770.718434,0.000000,919.314598
3653.374067,-9844.739029,0.000000,1915.238745
3653.374397,-9326.594869,-296.082377,536.266849
3653.374727,-9326.594869,-740.205942,0.000000
3653.375057,-10140.821405,148.041188,-766.095498
3653.375386,-10732.986159,0.000000,-1149.143247
3653.375716,-10436.903782,0.000000,-459.657299
3653.376046,-9400.615463,-222.061783,153.219100
3653.376376,-8882.471304,-222.061783,612.876398
3653.376706,-9104.533087,-370.102971,766.095498
3653.377036,-9474.636058,296.082377,306.438199
3653.377365,-9474.636058,370.102971,-1225.752797
3653.377695,-9252.574275,296.082377,-1608.800546
3653.378025,-10214.842000,444.123565,-306.438199
3653.378355,-11103.089130,666.185348,1225.752797
3653.378685,-10732.986159,296.082377,1378.971896
3653.379015,-9400.615463,0.000000,995.924147
3653.379344,-9030.512492,0.000000,0.000000
3653.379674,-10214.842000,0.000000,0.000000
3653.380004,-10436.903782,222.061783,612.876398
3653.380334,-9770.718434,148.041188,1149.143247
3653.380664,-8734.430116,370.102971,1225.752797
3653.380994,-9178.553681,666.185348,1378.971896
3653.381324,-10066.800811,1036.288319,1685.410096
3653.381653,-10436.903782,666.185348,842.705048
3653.381983,-10140.821405,444.123565,-1225.752797
3653.382313,-9622.677246,518.144159,-1608.800546
3653.382643,-10288.862594,592.164754,459.657299
3653.382973,-10807.006753,814.226536,1685.410096
3653.383303,-9696.697840,0.000000,1838.629195
3653.383632,-8956.491898,74.020594,459.657299
3653.383962,-9326.594869,666.185348,76.609550
3653.384292,-10510.924376,370.102971,-306.438199
3653.384622,-10436.903782,296.082377,0.000000
3653.384952,-10214.842000,296.082377,995.924147
3653.385282,-9474.636058,74.020594,689.485948
3653.385611,-9474.636058,-148.041188,383.047749
3653.385941,-9622.677246,0.000000,76.609550
3653.386271,-9548.656652,-222.061783,-153.219100
3653.386601,-9400.615463,0.000000,-1225.752797
3653.386931,-9326.594869,74.020594,-1072.533697
3653.387261,-10066.800811,74.020594,0.000000
3653.387590,-10436.903782,0.000000,1225.752797
3653.387920,-9548.656652,0.000000,919.314598
3653.388250,-9252.574275,0.000000,0.000000
3653.388580,-9474.636058,222.061783,-612.876398
3653.388910,-10140.821405,592.164754,-1225.752797
3653.389240,-10362.883188,444.123565,-536.266849
3653.389570,-9918.759623,296.082377,-229.828649
3653.389899,-9770.718434,0.000000,0.000000
3653.390229,-9992.780217,0.000000,536.266849
3653.390559,-9992.780217,74.020594,842.705048
3653.390889,-9696.697840,0.000000,536.266849
3653.391219,-9548.656652,-444.123565,-1072.533697
3653.391549,-9622.677246,-296.082377,-995.924147
3653.391878,-9844.739029,296.082377,536.266849
3653.392208,-10584.944971,0.000000,1608.800546
3653.392538,-9252.574275,-370.102971,1225.752797
3653.392868,-9326.594869,-148.041188,842.705048
3653.393198,-9178.553681,0.000000,0.000000
3653.393528,-10436.903782,0.000000,-306.438199
3653.393857,-10510.924376,-148.041188,-536.266849
3653.394187,-9992.780217,-740.205942,0.000000
3653.394517,-9474.636058,-518.144159,1072.533697
3653.394847,-9326.594869,-666.185348,1532.190996
3653.395177,-9548.656652,-518.144159,995.924147
3653.395507,-9548.656652,-370.102971,-153.219100
3653.395836,-9696.697840,-370.102971,-1302.362347
3653.396166,-9548.656652,-222.061783,-1149.143247
3653.396496,-10658.965565,-296.082377,995.924147
3653.396826,-10584.944971,-370.102971,1838.629195
3653.397156,-9474.636058,-592.164754,1608.800546
3653.397486,-8586.388927,-518.144159,-459.657299
3653.397816,-9326.594869,-444.123565,-919.314598
3653.398145,-10066.800811,-148.041188,-1072.533697
3653.398475,-9770.718434,0.000000,0.000000
3653.398805,-9474.636058,444.123565,842.705048
3653.399135,-9178.553681,0.000000,1225.752797
3653.399465,-9770.718434,74.020594,1149.143247
3653.399795,-10510.924376,296.082377,766.095498
3653.400124,-10362.883188,0.000000,-766.095498
3653.400454,-9770.718434,0.000000,-1455.581446
3653.400784,-9696.697840,-222.061783,-306.438199
3653.401114,-10288.862594,148.041188,2068.457845
3653.401444,-9918.759623,0.000000,2068.457845
3653.401774,-8734.430116,0.000000,1378.971896
3653.402103,-9474.636058,296.082377,-76.609550
3653.402433,-10288.862594,518.144159,-766.095498
3653.402763,-10436.903782,592.164754,-153.219100
3653.403093,-10140.821405,74.020594,766.095498
3653.403423,-9474.636058,444.123565,1455.581446
3653.403753,-9178.553681,0.000000,1378.971896
3653.404082,-9474.636058,74.020594,1302.362347
3653.404412,-9548.656652,148.041188,842.705048
3653.404742,-9770.718434,740.205942,383.047749
3653.405072,-9918.759623,296.082377,-459.657299
3653.405402,-10732.986159,888.247130,612.876398
3653.405732,-10881.027347,592.164754,1991.848295
3653.406062,-9548.656652,222.061783,1838.629195
3653.406391,-8586.388927,222.061783,842.705048
3653.406721,-8586.388927,518.144159,-229.828649
3653.407051,-9770.718434,1110.308913,-1225.752797
3653.407381,-10066.800811,1406.391290,-919.314598
3653.407711,-10658.965565,1110.308913,-842.705048
3653.408041,-10066.800811,666.185348,153.219100
3653.408370,-10066.800811,370.102971,842.705048
3653.408700,-9770.718434,814.226536,1225.752797
3653.409030,-9548.656652,370.102971,383.047749
3653.409360,-9178.553681,1036.288319,-1762.019645
3653.409690,-9252.574275,666.185348,-2374.896044
3653.410020,-10288.862594,740.205942,-612.876398
3653.410349,-11103.089130,888.247130,995.924147
3653.410679,-9992.780217,518.144159,1302.362347
3653.411009,-9104.533087,148.041188,995.924147
3653.411339,-8808.450710,370.102971,-766.095498
3653.411669,-9770.718434,592.164754,-1225.752797
3653.411999,-9622.677246,296.082377,-1149.143247
3653.412328,-10288.862594,370.102971,-306.438199
3653.412658,-9622.677246,148.041188,919.314598
3653.412988,-9844.739029,0.000000,1378.971896
3653.413318,-10214.842000,0.000000,689.485948
3653.413648,-9844.739029,0.000000,-459.657299
3653.413978,-9548.656652,-148.041188,-1685.410096
3653.414308,-9548.656652,-222.061783,-1225.752797
3653.414637,-10066.800811,0.000000,919.314598
3653.414967,-10584.944971,148.041188,2068.457845
3653.415297,-9622.677246,-370.102971,1685.410096
3653.415627,-9474.636058,-444.123565,689.485948
3653.415957,-9844.739029,-592.164754,-383.047749
3653.416287,-10584.944971,-444.123565,-1225.752797
3653.416616,-9918.759623,-592.164754,-612.876398
3653.416946,-8808.450710,-666.185348,306.438199
3653.417276,-8956.491898,-370.102971,1685.410096
3653.417606,-9252.574275,-740.205942,1302.362347
3653.417936,-10066.800811,-222.061783,766.095498
3653.418266,-10288.862594,-518.144159,-383.047749
3653.418595,-9622.677246,-888.247130,-1608.800546
3653.418925,-9474.636058,-666.185348,-689.485948
3653.419255,-10584.944971,-592.164754,1225.752797
3653.419585,-10362.883188,-592.164754,2068.457845
3653.419915,-9474.636058,-962.267725,1149.143247
3653.420245,-8660.409521,-666.185348,0.000000
3653.420575,-9844.739029,-296.082377,-689.485948
3653.420904,-10732.986159,-148.041188,-995.924147
3653.421234,-9992.780217,-444.123565,229.828649
3653.421564,-8956.491898,-296.082377,1532.190996
3653.421894,-9104.533087,-444.123565,1608.800546
3653.422224,-9696.697840,-444.123565,1915.238745
3653.422554,-10288.862594,0.000000,1455.581446
3653.422883,-9770.718434,0.000000,0.000000
3653.423213,-9696.697840,0.000000,-1302.362347
3653.423543,-10140.821405,-296.082377,-383.047749
3653.423873,-10510.924376,222.061783,1455.581446
3653.424203,-10214.842000,74.020594,1838.629195
3653.424533,-9104.533087,0.000000,1378.971896
3653.424862,-9030.512492,370.102971,459.657299
3653.425192,-9844.739029,740.205942,-153.219100
3653.425522,-10214.842000,592.164754,-153.219100
3653.425852,-9918.759623,740.205942,0.000000
3653.426182,-9992.780217,592.164754,919.314598
3653.426512,-9326.594869,222.061783,1762.019645
3653.426841,-9474.636058,222.061783,1991.848295
3653.427171,-9696.697840,962.267725,1225.752797
3653.427501,-9770.718434,814.226536,-306.438199
3653.427831,-9400.615463,814.226536,-1532.190996
3653.428161,-9548.656652,814.226536,-536.266849
3653.428491,-10732.986159,888.247130,1149.143247
3653.428821,-10214.842000,1036.288319,1225.752797
3653.429150,-9474.636058,296.082377,459.657299
3653.429480,-9178.553681,444.123565,-919.314598
3653.429810,-9474.636058,592.164754,-1378.971896
3653.430140,-9918.759623,962.267725,-1378.971896
3653.430470,-10288.862594,814.226536,-995.924147
