#time,accel_x,accel_y,accel_z
4221.432964,-9622.677246,0.000000,383.047749
4221.433294,-9844.739029,0.000000,229.828649
4221.433624,-9622.677246,-296.082377,76.609550
4221.433954,-9770.718434,0.000000,-306.438199
4221.434283,-9622.677246,0.000000,0.000000
4221.434613,-9696.697840,0.000000,-76.609550
4221.434943,-9622.677246,74.020594,0.000000
4221.435273,-9992.780217,148.041188,76.609550
4221.435602,-9918.759623,0.000000,-383.047749
4221.435932,-9622.677246,0.000000,0.000000
4221.436262,-9696.697840,-296.082377,459.657299
4221.436592,-9918.759623,-148.041188,1302.362347
4221.436921,-9622.677246,-370.102971,1149.143247
4221.437251,-9548.656652,-148.041188,919.314598
4221.437581,-9696.697840,444.123565,689.485948
4221.437911,-10066.800811,74.020594,383.047749
4221.438240,-10140.821405,74.020594,459.657299
4221.438570,-9992.780217,444.123565,536.266849
4221.438900,-9548.656652,444.123565,153.219100
4221.439230,-9696.697840,0.000000,1072.533697
4221.439559,-9844.739029,0.000000,1762.019645
4221.439889,-9992.780217,-370.102971,2068.457845
4221.440219,-10288.862594,0.000000,1455.581446
4221.440549,-10214.842000,0.000000,536.266849
4221.440879,-9696.697840,-222.061783,-76.609550
4221.441208,-9696.697840,-74.020594,229.828649
4221.441538,-9992.780217,-148.041188,689.485948
4221.441868,-10066.800811,-370.102971,1915.238745
4221.442198,-9770.718434,-740.205942,2298.286494
4221.442527,-9326.594869,-814.226536,1991.848295
4221.442857,-9252.574275,-1036.288319,1991.848295
4221.443187,-9104.533087,-888.247130,2145.067394
4221.443517,-9770.718434,-1184.329507,2221.676944
4221.443846,-9696.697840,-592.164754,2834.553343
4221.444176,-9992.780217,-888.247130,2528.115143
4221.444506,-9992.780217,-814.226536,2374.896044
4221.444836,-10362.883188,-888.247130,2451.505594
4221.445165,-10066.800811,-962.267725,1608.800546
4221.445495,-10436.903782,-518.144159,1838.629195
4221.445825,-10066.800811,-1036.288319,1532.190996
4221.446155,-9548.656652,-1036.288319,1378.971896
4221.446484,-9474.636058,-1554.432478,2068.457845
4221.446814,-10288.862594,-1998.556043,2757.943793
4221.447144,-10362.883188,-2442.679609,2757.943793
4221.447474,-9844.739029,-2960.823768,2604.724693
4221.447803,-8882.471304,-3478.967927,2834.553343
4221.448133,-8808.450710,-3330.926739,3677.258390
4221.448463,-8956.491898,-3404.947333,4519.963438
4221.448793,-9104.533087,-2960.823768,4443.353888
4221.449122,-10140.821405,-2886.803174,4060.306139
4221.449452,-10510.924376,-3034.844362,3370.820191
4221.449782,-11399.171507,-2516.700203,2681.334243
4221.450112,-10732.986159,-2664.741391,1991.848295
4221.450441,-10140.821405,-2886.803174,1225.752797
4221.450771,-9104.533087,-2960.823768,612.876398
4221.451101,-8438.347739,-3034.844362,1225.752797
4221.451431,-8364.327145,-2960.823768,2145.067394
4221.451760,-8512.368333,-3552.988522,2298.286494
4221.452090,-9178.553681,-3849.070898,3370.820191
4221.452420,-9844.739029,-4589.276840,2911.162892
4221.452750,-9918.759623,-4515.256246,3064.381992
4221.453079,-9326.594869,-4441.235652,2987.772442
4221.453409,-9622.677246,-4515.256246,4290.134789
4221.453739,-9918.759623,-3330.926739,4136.915689
4221.454069,-10584.944971,-2812.782580,2834.553343
4221.454398,-10658.965565,-1998.556043,1608.800546
4221.454728,-10658.965565,-2220.617826,1072.533697
4221.455058,-10658.965565,-2516.700203,1455.581446
4221.455388,-10436.903782,-2960.823768,2145.067394
4221.455717,-10214.842000,-3404.947333,2221.676944
4221.456047,-9474.636058,-3627.009116,2068.457845
4221.456377,-9252.574275,-3552.988522,1762.019645
4221.456707,-8956.491898,-3182.885551,1838.629195
4221.457036,-9548.656652,-3182.885551,3447.429741
4221.457366,-10584.944971,-2664.741391,4749.792088
4221.457696,-11103.089130,-1998.556043,4213.525239
4221.458026,-10881.027347,-1998.556043,3140.991542
4221.458356,-9918.759623,-2368.659014,2451.505594
4221.458685,-10066.800811,-1850.514855,2068.457845
4221.459015,-10658.965565,-2442.679609,2374.896044
4221.459345,-10214.842000,-2220.617826,2757.943793
4221.459675,-9326.594869,-1776.494261,2757.943793
4221.460004,-9104.533087,-1998.556043,2298.286494
4221.460334,-9918.759623,-1776.494261,1149.143247
4221.460664,-10214.842000,-1702.473667,766.095498
4221.460994,-9622.677246,-1258.350101,1072.533697
4221.461323,-9474.636058,-1406.391290,1915.238745
4221.461653,-8882.471304,-1110.308913,2834.553343
4221.461983,-9252.574275,-1776.494261,3600.648841
4221.462313,-10362.883188,-888.247130,2911.162892
4221.462642,-10510.924376,-962.267725,2374.896044
4221.462972,-10362.883188,-1036.288319,1072.533697
4221.463302,-9474.636058,-740.205942,1915.238745
4221.463632,-8882.471304,-1184.329507,2068.457845
4221.463961,-9252.574275,-666.185348,2681.334243
4221.464291,-10066.800811,0.000000,2374.896044
4221.464621,-9770.718434,-148.041188,689.485948
4221.464951,-9622.677246,-666.185348,0.000000
4221.465280,-9696.697840,-444.123565,383.047749
4221.465610,-9548.656652,-888.247130,1455.581446
4221.465940,-9326.594869,-444.123565,2528.115143
4221.466270,-9178.553681,-962.267725,2374.896044
4221.466599,-10140.821405,-592.164754,1838.629195
4221.466929,-10510.924376,-370.102971,1378.971896
4221.467259,-10066.800811,-370.102971,766.095498
4221.467589,-10140.821405,-666.185348,2068.457845
4221.467918,-10140.821405,-1184.329507,3217.601092
4221.468248,-9992.780217,-1110.308913,3217.601092
4221.468578,-9474.636058,-962.267725,2451.505594
4221.468908,-9474.636058,-1036.288319,766.095498
4221.469237,-9104.533087,-1998.556043,1149.143247
4221.469567,-10066.800811,-1258.350101,1685.410096
4221.469897,-10362.883188,-1184.329507,2451.505594
4221.470227,-10066.800811,-1628.453072,2374.896044
4221.470556,-9474.636058,-1850.514855,2298.286494
4221.470886,-9400.615463,-2146.597232,1991.848295
4221.471216,-10066.800811,-2442.679609,2451.505594
4221.471546,-10288.862594,-2812.782580,2528.115143
4221.471875,-9992.780217,-2738.761985,3370.820191
4221.472205,-9770.718434,-2664.741391,3677.258390
4221.472535,-8882.471304,-2738.761985,3294.210641
4221.472865,-10214.842000,-1998.556043,3753.867940
4221.473194,-11399.171507,-2368.659014,2604.724693
4221.473524,-10807.006753,-2516.700203,1608.800546
4221.473854,-9844.739029,-3034.844362,1532.190996
4221.474184,-9178.553681,-3701.029710,2298.286494
4221.474513,-9770.718434,-3478.967927,3677.258390
4221.474843,-9770.718434,-3775.050304,4290.134789
4221.475173,-9548.656652,-4219.173869,2681.334243
4221.475503,-8882.471304,-3923.091493,2374.896044
4221.475833,-9622.677246,-3849.070898,3294.210641
4221.476162,-10807.006753,-3701.029710,3983.696590
4221.476492,-11029.068536,-3182.885551,4366.744339
4221.476822,-9548.656652,-3627.009116,2911.162892
4221.477152,-9548.656652,-3330.926739,2451.505594
4221.477481,-10436.903782,-2812.782580,2145.067394
4221.477811,-10584.944971,-3404.947333,2068.457845
4221.478141,-10214.842000,-2590.720797,2757.943793
4221.478471,-9548.656652,-3108.864956,2221.676944
4221.478800,-10288.862594,-2960.823768,1455.581446
4221.479130,-9622.677246,-2886.803174,1608.800546
4221.479460,-9326.594869,-2664.741391,1915.238745
4221.479790,-9770.718434,-3627.009116,2221.676944
4221.480119,-9252.574275,-3330.926739,2451.505594
4221.480449,-10140.821405,-2664.741391,3677.258390
4221.480779,-9992.780217,-2368.659014,3983.696590
4221.481109,-9770.718434,-2960.823768,2987.772442
4221.481438,-10140.821405,-2442.679609,2834.553343
4221.481768,-9474.636058,-1850.514855,2451.505594
4221.482098,-9918.759623,-1628.453072,1915.238745
4221.482428,-10362.883188,-1406.391290,2298.286494
4221.482757,-10288.862594,-1850.514855,2757.943793
4221.483087,-9474.636058,-1258.350101,2068.457845
4221.483417,-9474.636058,-1850.514855,1378.971896
4221.483747,-9474.636058,-1850.514855,1149.143247
4221.484076,-9696.697840,-1184.329507,2298.286494
4221.484406,-9474.636058,-1702.473667,2145.067394
4221.484736,-8734.430116,-1776.494261,2068.457845
4221.485066,-9104.533087,-962.267725,3140.991542
4221.485395,-10362.883188,-1184.329507,3447.429741
4221.485725,-10436.903782,-814.226536,2987.772442
4221.486055,-9622.677246,-1332.370696,2528.115143
4221.486385,-9992.780217,-1036.288319,1762.019645
4221.486714,-9770.718434,-1480.411884,2681.334243
4221.487044,-8660.409521,-1628.453072,2604.724693
4221.487373,-8438.347739,-592.164754,2451.505594
4221.487703,-9622.677246,-740.205942,1608.800546
4221.488033,-10066.800811,-814.226536,995.924147
4221.488362,-9992.780217,-444.123565,536.266849
4221.488692,-9696.697840,-740.205942,766.095498
4221.489021,-9918.759623,-740.205942,995.924147
4221.489351,-9992.780217,-1332.370696,2068.457845
4221.489680,-9178.553681,-1332.370696,2604.724693
4221.490010,-9548.656652,-814.226536,2681.334243
4221.490339,-9696.697840,-740.205942,2298.286494
4221.490669,-10584.944971,-1184.329507,1072.533697
4221.490998,-10584.944971,-962.267725,1915.238745
4221.491328,-9400.615463,-1332.370696,2374.896044
4221.491657,-10140.821405,-888.247130,2451.505594
4221.491987,-10140.821405,-1036.288319,2068.457845
4221.492316,-9400.615463,-1776.494261,1378.971896
4221.492646,-9252.574275,-1628.453072,919.314598
4221.492975,-10510.924376,-814.226536,1915.238745
4221.493305,-11103.089130,-1776.494261,2374.896044
4221.493634,-10584.944971,-1406.391290,2451.505594
4221.493964,-9474.636058,-1702.473667,2298.286494
4221.494293,-9474.636058,-1998.556043,1838.629195
4221.494623,-10288.862594,-1628.453072,2374.896044
4221.494953,-9474.636058,-2072.576638,2987.772442
4221.495282,-10140.821405,-1850.514855,3447.429741
4221.495612,-10066.800811,-1850.514855,3600.648841
4221.495941,-10510.924376,-1924.535449,2451.505594
4221.496271,-9918.759623,-2294.638420,1991.848295
4221.496600,-9326.594869,-2368.659014,1532.190996
4221.496930,-9696.697840,-1998.556043,1302.362347
4221.497259,-9548.656652,-2294.638420,1762.019645
4221.497589,-9918.759623,-2072.576638,2374.896044
4221.497918,-8956.491898,-1776.494261,3217.601092
4221.498248,-9918.759623,-2146.597232,2145.067394
4221.498577,-10066.800811,-1850.514855,1991.848295
4221.498907,-9770.718434,-2072.576638,1455.581446
4221.499236,-9400.615463,-2590.720797,1455.581446
4221.499566,-9400.615463,-2368.659014,2757.943793
4221.499895,-10214.842000,-2516.700203,3600.648841
4221.500225,-9104.533087,-2664.741391,2451.505594
4221.500554,-8956.491898,-1998.556043,2298.286494
4221.500884,-9696.697840,-2072.576638,2068.457845
4221.501213,-10066.800811,-1850.514855,2145.067394
4221.501543,-9622.677246,-1332.370696,2221.676944
4221.501873,-9622.677246,-1554.432478,1762.019645
4221.502202,-10658.965565,-1110.308913,1455.581446
4221.502532,-10436.903782,-1036.288319,612.876398
4221.502861,-10881.027347,-1258.350101,995.924147
4221.503191,-10510.924376,-1628.453072,1608.800546
4221.503520,-9992.780217,-1702.473667,2681.334243
4221.503850,-10732.986159,-2072.576638,3600.648841
4221.504179,-9548.656652,-1998.556043,2374.896044
4221.504509,-9474.636058,-2368.659014,1149.143247
4221.504838,-8808.450710,-2072.576638,76.609550
4221.505168,-8586.388927,-2220.617826,0.000000
4221.505497,-9770.718434,-1332.370696,1149.143247
4221.505827,-9252.574275,-1110.308913,2374.896044
4221.506156,-10807.006753,-518.144159,3370.820191
4221.506486,-10066.800811,-1184.329507,1762.019645
4221.506815,-9992.780217,-1184.329507,306.438199
4221.507145,-10510.924376,-814.226536,306.438199
4221.507474,-10362.883188,-1480.411884,995.924147
4221.507804,-9770.718434,-814.226536,0.000000
4221.508133,-9030.512492,-740.205942,-1532.190996
4221.508463,-8142.265362,-1110.308913,-2451.505594
4221.508793,-8364.327145,-888.247130,-1149.143247
4221.509122,-9474.636058,74.020594,766.095498
4221.509452,-10140.821405,222.061783,1302.362347
4221.509781,-10066.800811,148.041188,1455.581446
4221.510111,-9474.636058,-222.061783,0.000000
4221.510440,-10362.883188,-148.041188,-306.438199
4221.510770,-11177.109724,0.000000,153.219100
4221.511099,-11325.150913,-370.102971,306.438199
4221.511429,-9326.594869,-148.041188,1149.143247
4221.511758,-8068.244768,74.020594,919.314598
4221.512088,-9326.594869,1110.308913,766.095498
4221.512417,-10214.842000,666.185348,0.000000
4221.512747,-10807.006753,1332.370696,-1608.800546
4221.513076,-9474.636058,814.226536,-1915.238745
4221.513406,-9326.594869,888.247130,-919.314598
4221.513735,-10584.944971,1776.494261,689.485948
4221.514065,-11621.233289,1702.473667,766.095498
4221.514394,-10510.924376,666.185348,-2068.457845
4221.514724,-8216.285956,1110.308913,-3524.039291
4221.515054,-8586.388927,1628.453072,-2451.505594
4221.515383,-10584.944971,1258.350101,0.000000
4221.515713,-10288.862594,1776.494261,1991.848295
4221.516042,-8734.430116,1184.329507,1302.362347
4221.516372,-8586.388927,1332.370696,-995.924147
4221.516701,-9696.697840,740.205942,-1915.238745
4221.517031,-10955.047942,666.185348,-995.924147
4221.517360,-10362.883188,1258.350101,536.266849
4221.517690,-9622.677246,1110.308913,919.314598
4221.518019,-8586.388927,518.144159,306.438199
4221.518349,-9696.697840,962.267725,383.047749
4221.518678,-9622.677246,962.267725,76.609550
4221.519008,-8956.491898,296.082377,-612.876398
4221.519337,-8734.430116,1702.473667,-995.924147
4221.519667,-10362.883188,1110.308913,-383.047749
4221.519996,-10807.006753,1776.494261,1838.629195
4221.520326,-9474.636058,814.226536,459.657299
4221.520655,-9770.718434,1036.288319,0.000000
4221.520985,-10584.944971,888.247130,-612.876398
4221.521314,-9844.739029,888.247130,-153.219100
4221.521644,-9992.780217,1184.329507,0.000000
4221.521974,-9918.759623,-370.102971,-995.924147
4221.522303,-8808.450710,222.061783,-766.095498
4221.522633,-9400.615463,1110.308913,1302.362347
4221.522962,-10510.924376,962.267725,612.876398
4221.523292,-10436.903782,740.205942,153.219100
4221.523621,-9178.553681,1184.329507,-153.219100
4221.523951,-9770.718434,0.000000,-1225.752797
4221.524280,-10066.800811,-296.082377,-766.095498
4221.524610,-9770.718434,-370.102971,1685.410096
4221.524939,-9474.636058,-592.164754,2451.505594
4221.525269,-9992.780217,-222.061783,1685.410096
4221.525598,-9770.718434,-814.226536,229.828649
4221.525928,-9918.759623,-1480.411884,0.000000
4221.526257,-8882.471304,-1480.411884,1225.752797
4221.526587,-9252.574275,-1406.391290,3064.381992
4221.526916,-9622.677246,-592.164754,3140.991542
4221.527246,-10066.800811,0.000000,1838.629195
4221.527575,-10214.842000,-740.205942,-1149.143247
4221.527905,-11325.150913,-222.061783,-2221.676944
4221.528234,-11251.130318,-296.082377,-1685.410096
4221.528564,-10214.842000,-962.267725,306.438199
4221.528894,-9326.594869,-888.247130,1302.362347
4221.529223,-8438.347739,-740.205942,1225.752797
4221.529553,-9252.574275,-962.267725,383.047749
4221.529882,-10436.903782,-1258.350101,-1225.752797
4221.530212,-11177.109724,-1406.391290,-842.705048
4221.530541,-10436.903782,-1184.329507,766.095498
4221.530871,-9178.553681,-1036.288319,1838.629195
4221.531200,-9178.553681,-962.267725,2145.067394
4221.531530,-9326.594869,-962.267725,1302.362347
4221.531859,-10066.800811,-888.247130,-306.438199
4221.532189,-9770.718434,-1110.308913,-153.219100
4221.532518,-10362.883188,-444.123565,919.314598
4221.532848,-9992.780217,-888.247130,2451.505594
4221.533177,-9326.594869,-1258.350101,1915.238745
4221.533507,-8882.471304,-1628.453072,1302.362347
4221.533836,-9622.677246,-740.205942,0.000000
4221.534166,-9622.677246,-888.247130,-459.657299
4221.534495,-9696.697840,222.061783,0.000000
4221.534825,-9622.677246,888.247130,766.095498
4221.535154,-10807.006753,888.247130,689.485948
4221.535484,-11473.192101,1258.350101,-459.657299
4221.535814,-10288.862594,148.041188,-1225.752797
4221.536143,-8660.409521,0.000000,-1532.190996
4221.536473,-9030.512492,-370.102971,-919.314598
4221.536802,-9992.780217,0.000000,536.266849
4221.537132,-9696.697840,-666.185348,1302.362347
4221.537461,-8586.388927,740.205942,153.219100
4221.537791,-9030.512492,0.000000,-1302.362347
4221.538120,-9844.739029,592.164754,-995.924147
4221.538450,-9548.656652,888.247130,383.047749
4221.538779,-9548.656652,814.226536,842.705048
4221.539109,-9918.759623,740.205942,612.876398
4221.539438,-10066.800811,518.144159,229.828649
4221.539768,-10066.800811,740.205942,-689.485948
4221.540097,-9696.697840,740.205942,-689.485948
4221.540427,-9696.697840,740.205942,-766.095498
4221.540756,-8882.471304,888.247130,0.000000
4221.541086,-8734.430116,1110.308913,306.438199
4221.541415,-9548.656652,962.267725,1608.800546
4221.541745,-10881.027347,888.247130,612.876398
4221.542074,-10955.047942,666.185348,612.876398
4221.542404,-10140.821405,592.164754,0.000000
4221.542734,-9770.718434,296.082377,0.000000
4221.543063,-9548.656652,518.144159,153.219100
4221.543393,-9474.636058,740.205942,689.485948
4221.543722,-9104.533087,962.267725,0.000000
4221.544052,-10140.821405,1776.494261,-689.485948
4221.544381,-11843.295072,1776.494261,-766.095498
4221.544711,-11103.089130,888.247130,-1455.581446
4221.545040,-9696.697840,1036.288319,-1378.971896
4221.545370,-8808.450710,370.102971,-995.924147
4221.545699,-9104.533087,518.144159,-306.438199
4221.546029,-9770.718434,592.164754,0.000000
4221.546358,-9474.636058,222.061783,-1149.143247
4221.546688,-9030.512492,518.144159,-1072.533697
4221.547017,-9474.636058,0.000000,536.266849
4221.547347,-10214.842000,0.000000,1838.629195
4221.547676,-9844.739029,0.000000,2298.286494
4221.548006,-9770.718434,222.061783,766.095498
4221.548335,-9474.636058,-222.061783,-612.876398
4221.548665,-9622.677246,0.000000,-459.657299
4221.548994,-10066.800811,-74.020594,153.219100
4221.549324,-9770.718434,0.000000,229.828649
4221.549654,-8882.471304,-296.082377,76.609550
4221.549983,-8068.244768,0.000000,-153.219100
4221.550313,-9992.780217,-518.144159,-153.219100
4221.550642,-11029.068536,-444.123565,153.219100
4221.550972,-10584.944971,74.020594,459.657299
4221.551301,-9326.594869,0.000000,689.485948
4221.551631,-9622.677246,-296.082377,-459.657299
4221.551960,-10140.821405,222.061783,-612.876398
4221.552290,-10214.842000,222.061783,-1378.971896
4221.552619,-9992.780217,74.020594,-1149.143247
4221.552949,-8808.450710,-74.020594,306.438199
4221.553278,-9622.677246,-370.102971,1915.238745
4221.553608,-9770.718434,-814.226536,2145.067394
4221.553937,-9696.697840,-814.226536,842.705048
4221.554267,-9252.574275,-1998.556043,-766.095498
4221.554596,-9622.677246,-2220.617826,-995.924147
4221.554926,-9844.739029,-1480.411884,2068.457845
4221.555255,-9770.718434,-592.164754,3830.477490
4221.555585,-9252.574275,296.082377,2451.505594
4221.555915,-9770.718434,222.061783,689.485948
4221.556244,-10881.027347,-370.102971,-536.266849
4221.556574,-11695.253884,74.020594,0.000000
4221.556903,-10584.944971,-518.144159,1685.410096
4221.557233,-9474.636058,-666.185348,2604.724693
4221.557562,-8068.244768,-1480.411884,2298.286494
4221.557892,-8660.409521,-1776.494261,1302.362347
4221.558221,-9548.656652,-1850.514855,229.828649
4221.558551,-10066.800811,-1036.288319,-459.657299
4221.558880,-9844.739029,-814.226536,0.000000
4221.559210,-8956.491898,0.000000,1455.581446
4221.559539,-9030.512492,0.000000,1532.190996
4221.559869,-9992.780217,-296.082377,1455.581446
4221.560198,-10436.903782,-592.164754,612.876398
4221.560528,-10881.027347,-518.144159,-919.314598
4221.560857,-9992.780217,0.000000,-1149.143247
4221.561187,-9474.636058,74.020594,0.000000
4221.561516,-8586.388927,-370.102971,229.828649
4221.561846,-9104.533087,0.000000,306.438199
4221.562175,-10288.862594,148.041188,-842.705048
4221.562505,-10140.821405,-296.082377,-1225.752797
4221.562835,-9178.553681,222.061783,0.000000
4221.563164,-9696.697840,740.205942,919.314598
4221.563494,-10288.862594,1110.308913,1532.190996
4221.563823,-11103.089130,444.123565,612.876398
4221.564153,-10140.821405,1110.308913,-919.314598
4221.564482,-9770.718434,148.041188,-1225.752797
4221.564812,-10140.821405,1258.350101,-1225.752797
4221.565141,-10066.800811,888.247130,-919.314598
4221.565471,-9696.697840,1776.494261,-1685.410096
4221.565800,-9178.553681,1036.288319,-2145.067394
4221.566130,-9622.677246,1036.288319,-1532.190996
4221.566459,-10362.883188,740.205942,-536.266849
4221.566789,-9178.553681,888.247130,-153.219100
4221.567118,-9400.615463,962.267725,-153.219100
4221.567448,-10658.965565,666.185348,0.000000
4221.567777,-10807.006753,666.185348,0.000000
4221.568107,-9326.594869,518.144159,-842.705048
4221.568436,-8956.491898,592.164754,-612.876398
4221.568766,-9474.636058,888.247130,842.705048
4221.569095,-9622.677246,962.267725,766.095498
4221.569425,-9474.636058,814.226536,383.047749
4221.569755,-9992.780217,814.226536,76.609550
4221.570084,-10807.006753,444.123565,76.609550
4221.570414,-9696.697840,-444.123565,229.828649
4221.570743,-8364.327145,74.020594,459.657299
4221.571073,-7994.224174,0.000000,536.266849
4221.571402,-9178.553681,444.123565,306.438199
4221.571732,-9992.780217,592.164754,-383.047749
4221.572061,-9918.759623,1184.329507,229.828649
4221.572391,-10584.944971,740.205942,1302.362347
4221.572720,-10807.006753,740.205942,1838.629195
4221.573050,-9548.656652,-148.041188,1378.971896
4221.573379,-8808.450710,-222.061783,383.047749
4221.573709,-9844.739029,666.185348,0.000000
4221.574038,-10066.800811,74.020594,-459.657299
4221.574368,-10362.883188,740.205942,-995.924147
4221.574697,-9326.594869,222.061783,-1149.143247
4221.575027,-9548.656652,518.144159,-536.266849
4221.575356,-10140.821405,74.020594,76.609550
4221.575686,-10288.862594,814.226536,919.314598
4221.576015,-10066.800811,222.061783,766.095498
4221.576345,-9474.636058,-370.102971,-383.047749
4221.576675,-9104.533087,0.000000,0.000000
4221.577004,-9992.780217,-666.185348,766.095498
4221.577334,-10066.800811,-444.123565,1302.362347
4221.577663,-9548.656652,-296.082377,1915.238745
4221.577993,-10362.883188,-814.226536,1838.629195
4221.578322,-10066.800811,-444.123565,612.876398
4221.578652,-9844.739029,-666.185348,459.657299
4221.578981,-9178.553681,-370.102971,306.438199
4221.579311,-9104.533087,370.102971,-459.657299
4221.579640,-10362.883188,444.123565,-383.047749
4221.579970,-10362.883188,-74.020594,-612.876398
4221.580299,-10214.842000,296.082377,-229.828649
4221.580629,-10140.821405,-74.020594,0.000000
4221.580958,-9696.697840,-888.247130,-306.438199
4221.581288,-9178.553681,-740.205942,0.000000
4221.581617,-8956.491898,-1110.308913,0.000000
4221.581947,-9696.697840,-666.185348,459.657299
4221.582276,-10362.883188,-1184.329507,229.828649
4221.582606,-9918.759623,-888.247130,919.314598
4221.582935,-8882.471304,-1184.329507,1302.362347
4221.583265,-8956.491898,-592.164754,1302.362347
4221.583595,-9326.594869,-148.041188,1608.800546
4221.583924,-10214.842000,444.123565,842.705048
4221.584254,-10140.821405,-148.041188,229.828649
4221.584583,-10955.047942,-444.123565,229.828649
4221.584913,-10658.965565,-370.102971,229.828649
4221.585242,-9474.636058,0.000000,0.000000
4221.585572,-9252.574275,0.000000,-383.047749
4221.585901,-8808.450710,-222.061783,-995.924147
4221.586231,-9474.636058,148.041188,-153.219100
4221.586561,-9992.780217,592.164754,459.657299
4221.586890,-10510.924376,740.205942,0.000000
4221.587220,-10436.903782,370.102971,995.924147
4221.587550,-10140.821405,0.000000,1838.629195
4221.587879,-10807.006753,666.185348,1302.362347
4221.588209,-10214.842000,222.061783,995.924147
4221.588539,-9844.739029,74.020594,-612.876398
4221.588868,-8438.347739,-296.082377,-766.095498
4221.589198,-8882.471304,0.000000,-536.266849
4221.589527,-9696.697840,1036.288319,995.924147
4221.589857,-10510.924376,296.082377,229.828649
4221.590187,-9548.656652,296.082377,-919.314598
4221.590516,-8956.491898,518.144159,-1608.800546
4221.590846,-8882.471304,518.144159,-1302.362347
4221.591176,-10140.821405,666.185348,0.000000
4221.591505,-10436.903782,888.247130,459.657299
4221.591835,-9474.636058,0.000000,919.314598
4221.592165,-9400.615463,222.061783,76.609550
4221.592494,-9992.780217,518.144159,689.485948
4221.592824,-10658.965565,222.061783,459.657299
4221.593154,-10066.800811,814.226536,229.828649
4221.593483,-9474.636058,444.123565,76.609550
4221.593813,-9696.697840,222.061783,1378.971896
4221.594142,-10214.842000,962.267725,1532.190996
4221.594472,-10807.006753,814.226536,995.924147
4221.594802,-10732.986159,740.205942,153.219100
4221.595131,-10288.862594,592.164754,-1149.143247
4221.595461,-9918.759623,740.205942,-919.314598
4221.595791,-9474.636058,222.061783,-76.609550
4221.596120,-9178.553681,370.102971,153.219100
4221.596450,-9030.512492,-222.061783,153.219100
4221.596780,-8512.368333,444.123565,-229.828649
4221.597109,-9474.636058,444.123565,-842.705048
4221.597439,-9918.759623,888.247130,-383.047749
4221.597769,-10288.862594,444.123565,0.000000
4221.598098,-10732.986159,74.020594,1532.190996
4221.598428,-10140.821405,-370.102971,1685.410096
4221.598758,-10066.800811,0.000000,1838.629195
4221.599087,-10362.883188,-222.061783,1149.143247
4221.599417,-9622.677246,-148.041188,689.485948
4221.599746,-9252.574275,-148.041188,0.000000
4221.600076,-9400.615463,148.041188,0.000000
4221.600406,-9992.780217,0.000000,459.657299
4221.600735,-10362.883188,74.020594,459.657299
4221.601065,-9474.636058,0.000000,0.000000
4221.601395,-9918.759623,-370.102971,-842.705048
4221.601724,-9622.677246,-74.020594,0.000000
4221.602054,-10140.821405,222.061783,1149.143247
4221.602384,-9696.697840,0.000000,383.047749
4221.602713,-9992.780217,-148.041188,0.000000
4221.603043,-9696.697840,0.000000,-536.266849
4221.603373,-9770.718434,-740.205942,-689.485948
4221.603702,-9548.656652,-148.041188,-153.219100
4221.604032,-9178.553681,-666.185348,0.000000
4221.604362,-8364.327145,-1258.350101,-766.095498
4221.604691,-8882.471304,-888.247130,383.047749
4221.605021,-9474.636058,-1036.288319,842.705048
4221.605350,-9770.718434,-592.164754,1532.190996
4221.605680,-9474.636058,-666.185348,1378.971896
4221.606010,-10288.862594,0.000000,1225.752797
4221.606339,-10955.047942,-370.102971,0.000000
4221.606669,-10807.006753,-370.102971,-612.876398
4221.606999,-8956.491898,-370.102971,-612.876398
4221.607328,-9030.512492,0.000000,0.000000
4221.607658,-9696.697840,0.000000,0.000000
4221.607988,-9844.739029,148.041188,-306.438199
4221.608317,-9474.636058,-74.020594,-1302.362347
4221.608647,-9474.636058,370.102971,-842.705048
4221.608977,-10584.944971,0.000000,-229.828649
4221.609306,-10436.903782,0.000000,459.657299
4221.609636,-9992.780217,296.082377,1149.143247
4221.609966,-9622.677246,592.164754,1225.752797
4221.610295,-10066.800811,74.020594,0.000000
4221.610625,-10140.821405,518.144159,-383.047749
4221.610954,-9918.759623,444.123565,-383.047749
4221.611284,-10955.047942,666.185348,-766.095498
4221.611614,-10510.924376,0.000000,-842.705048
4221.611943,-9178.553681,-74.020594,-995.924147
4221.612273,-8438.347739,148.041188,-995.924147
4221.612603,-9030.512492,0.000000,-766.095498
4221.612932,-9770.718434,0.000000,306.438199
4221.613262,-9474.636058,222.061783,1378.971896
4221.613592,-9104.533087,444.123565,536.266849
4221.613921,-10362.883188,814.226536,459.657299
4221.614251,-10807.006753,222.061783,536.266849
4221.614581,-10436.903782,-222.061783,612.876398
4221.614910,-9696.697840,222.061783,1378.971896
4221.615240,-9474.636058,0.000000,1838.629195
4221.615570,-9474.636058,222.061783,1378.971896
4221.615899,-9104.533087,370.102971,689.485948
4221.616229,-9252.574275,962.267725,-689.485948
4221.616558,-10214.842000,666.185348,-1378.971896
4221.616888,-10658.965565,888.247130,-536.266849
4221.617218,-10140.821405,1110.308913,153.219100
4221.617547,-9696.697840,148.041188,153.219100
4221.617877,-8956.491898,370.102971,-383.047749
4221.618207,-8882.471304,222.061783,-1149.143247
4221.618536,-9474.636058,370.102971,-459.657299
4221.618866,-8956.491898,518.144159,-766.095498
4221.619196,-10066.800811,0.000000,-76.609550
4221.619525,-10066.800811,222.061783,995.924147
4221.619855,-10881.027347,0.000000,2757.943793
4221.620185,-10436.903782,148.041188,2145.067394
4221.620514,-9622.677246,-592.164754,0.000000
4221.620844,-9400.615463,-148.041188,-842.705048
4221.621174,-8956.491898,148.041188,-612.876398
4221.621503,-9474.636058,222.061783,306.438199
4221.621833,-10362.883188,592.164754,612.876398
4221.622162,-10881.027347,592.164754,842.705048
4221.622492,-9844.739029,74.020594,0.000000
4221.622822,-9992.780217,0.000000,-536.266849
4221.623151,-9548.656652,-370.102971,-459.657299
4221.623481,-9474.636058,-222.061783,842.705048
4221.623811,-9252.574275,0.000000,1532.190996
4221.624140,-9918.759623,-222.061783,919.314598
4221.624470,-10658.965565,0.000000,76.609550
4221.624800,-10436.903782,0.000000,-229.828649
4221.625129,-9992.780217,-222.061783,-919.314598
4221.625459,-9178.553681,-444.123565,383.047749
4221.625789,-9178.553681,-666.185348,919.314598
4221.626118,-9030.512492,-370.102971,1762.019645
4221.626448,-9622.677246,-296.082377,1225.752797
4221.626777,-10362.883188,222.061783,383.047749
4221.627107,-10807.006753,-740.205942,-766.095498
4221.627437,-10362.883188,-148.041188,-306.438199
4221.627766,-9696.697840,-592.164754,383.047749
4221.628096,-9104.533087,-296.082377,306.438199
4221.628426,-8808.450710,-296.082377,-229.828649
4221.628755,-9178.553681,0.000000,-766.095498
4221.629085,-9696.697840,0.000000,-153.219100
4221.629415,-10140.821405,0.000000,229.828649
4221.629744,-10140.821405,-148.041188,995.924147
4221.630074,-10066.800811,148.041188,1608.800546
4221.630404,-10066.800811,222.061783,229.828649
4221.630733,-9992.780217,-592.164754,-383.047749
4221.631063,-8882.471304,-148.041188,-383.047749
4221.631393,-9178.553681,0.000000,919.314598
4221.631722,-10214.842000,1110.308913,459.657299
4221.632052,-9992.780217,222.061783,-459.657299
4221.632381,-10362.883188,1036.288319,-1302.362347
4221.632711,-10066.800811,814.226536,-995.924147
4221.633041,-10362.883188,74.020594,-1225.752797
4221.633370,-9474.636058,296.082377,-459.657299
4221.633700,-8882.471304,-518.144159,689.485948
4221.634030,-8660.409521,296.082377,766.095498
4221.634359,-9622.677246,222.061783,306.438199
4221.634689,-11399.171507,-296.082377,-842.705048
4221.635019,-11103.089130,0.000000,-689.485948
4221.635348,-9474.636058,0.000000,842.705048
4221.635678,-9030.512492,0.000000,1991.848295
4221.636008,-8956.491898,0.000000,1225.752797
4221.636337,-9696.697840,0.000000,766.095498
4221.636667,-10140.821405,74.020594,306.438199
4221.636997,-10214.842000,592.164754,0.000000
4221.637326,-10658.965565,0.000000,383.047749
4221.637656,-9992.780217,0.000000,1532.190996
4221.637985,-9622.677246,370.102971,2145.067394
4221.638315,-9400.615463,-148.041188,919.314598
4221.638645,-9474.636058,222.061783,-459.657299
4221.638974,-9770.718434,0.000000,153.219100
4221.639304,-9252.574275,444.123565,689.485948
4221.639634,-9992.780217,592.164754,766.095498
4221.639963,-10214.842000,814.226536,229.828649
4221.640293,-9622.677246,444.123565,-306.438199
4221.640623,-10066.800811,444.123565,-229.828649
4221.640952,-10362.883188,296.082377,-306.438199
4221.641282,-10214.842000,148.041188,689.485948
4221.641612,-9548.656652,296.082377,1302.362347
4221.641941,-8956.491898,0.000000,919.314598
4221.642271,-9030.512492,222.061783,612.876398
4221.642601,-9326.594869,-222.061783,-766.095498
4221.642930,-9918.759623,0.000000,153.219100
4221.643260,-9844.739029,-592.164754,995.924147
4221.643589,-9474.636058,-222.061783,689.485948
4221.643919,-9030.512492,-962.267725,689.485948
4221.644249,-9178.553681,-518.144159,766.095498
4221.644578,-9696.697840,0.000000,612.876398
4221.644908,-10881.027347,0.000000,459.657299
4221.645238,-10732.986159,222.061783,306.438199
4221.645567,-10362.883188,74.020594,689.485948
4221.645897,-9844.739029,148.041188,536.266849
4221.646227,-10214.842000,-518.144159,-76.609550
4221.646556,-9474.636058,-740.205942,-612.876398
4221.646886,-9030.512492,-962.267725,-919.314598
4221.647216,-9400.615463,-444.123565,-536.266849
4221.647545,-10066.800811,-592.164754,306.438199
4221.647875,-9622.677246,-592.164754,229.828649
4221.648205,-9548.656652,-444.123565,0.000000
4221.648534,-9696.697840,0.000000,-1072.533697
4221.648864,-9992.780217,-148.041188,-536.266849
4221.649193,-10140.821405,-444.123565,919.314598
4221.649523,-9622.677246,-666.185348,1838.629195
4221.649853,-9474.636058,-518.144159,459.657299
4221.650182,-9918.759623,-148.041188,76.609550
4221.650512,-9770.718434,-888.247130,-229.828649
4221.650842,-9030.512492,-370.102971,-766.095498
4221.651171,-9622.677246,-518.144159,-1149.143247
4221.651501,-9326.594869,0.000000,-612.876398
4221.651831,-9178.553681,-222.061783,383.047749
4221.652160,-9178.553681,-444.123565,689.485948
4221.652490,-9474.636058,-148.041188,1149.143247
4221.652820,-10732.986159,0.000000,995.924147
4221.653149,-10807.006753,-222.061783,612.876398
4221.653479,-9696.697840,-444.123565,919.314598
4221.653809,-9474.636058,148.041188,1149.143247
4221.654138,-10881.027347,222.061783,919.314598
4221.654468,-10436.903782,444.123565,-153.219100
4221.654797,-8660.409521,370.102971,-1991.848295
4221.655127,-8882.471304,444.123565,-2068.457845
4221.655457,-9474.636058,814.226536,-459.657299
4221.655786,-10140.821405,444.123565,76.609550
4221.656116,-9696.697840,1036.288319,153.219100
4221.656446,-9918.759623,740.205942,-459.657299
4221.656775,-10807.006753,296.082377,-1072.533697
4221.657105,-10658.965565,148.041188,-919.314598
4221.657435,-9178.553681,0.000000,0.000000
4221.657764,-8438.347739,296.082377,1302.362347
4221.658094,-9770.718434,592.164754,1762.019645
4221.658424,-10510.924376,592.164754,2068.457845
4221.658753,-10584.944971,518.144159,1225.752797
4221.659083,-10288.862594,666.185348,459.657299
4221.659412,-9844.739029,666.185348,0.000000
4221.659742,-9844.739029,222.061783,306.438199
4221.660072,-9918.759623,740.205942,536.266849
4221.660401,-8956.491898,814.226536,153.219100
4221.660731,-9104.533087,518.144159,-766.095498
4221.661061,-9548.656652,962.267725,-1225.752797
4221.661390,-9992.780217,962.267725,-1149.143247
4221.661720,-10436.903782,1184.329507,536.266849
4221.662050,-10510.924376,740.205942,1455.581446
4221.662379,-9918.759623,740.205942,1072.533697
4221.662709,-9548.656652,0.000000,383.047749
4221.663039,-9548.656652,444.123565,-153.219100
4221.663368,-9474.636058,444.123565,-76.609550
4221.663698,-9696.697840,814.226536,0.000000
4221.664028,-9104.533087,148.041188,995.924147
4221.664357,-9844.739029,148.041188,76.609550
4221.664687,-10140.821405,518.144159,842.705048
4221.665016,-10066.800811,444.123565,536.266849
4221.665346,-9622.677246,-1184.329507,-536.266849
4221.665676,-8586.388927,-1110.308913,-229.828649
4221.666005,-8512.368333,-814.226536,459.657299
4221.666335,-9252.574275,-592.164754,995.924147
4221.666665,-10140.821405,0.000000,919.314598
4221.666994,-10436.903782,-296.082377,995.924147
4221.667324,-9844.739029,148.041188,459.657299
4221.667654,-9992.780217,444.123565,689.485948
4221.667983,-10881.027347,888.247130,612.876398
4221.668313,-9992.780217,-666.185348,-153.219100
4221.668643,-10066.800811,-148.041188,-229.828649
4221.668972,-9844.739029,-74.020594,0.000000
4221.669302,-10214.842000,-148.041188,-842.705048
4221.669632,-9696.697840,-370.102971,-1225.752797
4221.669961,-8882.471304,-222.061783,-1378.971896
4221.670291,-9326.594869,296.082377,-536.266849
4221.670620,-9548.656652,148.041188,306.438199
4221.670950,-9770.718434,0.000000,536.266849
4221.671280,-9474.636058,-444.123565,689.485948
4221.671609,-9844.739029,-444.123565,76.609550
4221.671939,-10066.800811,-814.226536,153.219100
4221.672269,-11029.068536,-888.247130,766.095498
4221.672598,-9992.780217,-666.185348,919.314598
4221.672928,-9770.718434,-148.041188,689.485948
4221.673258,-9918.759623,370.102971,-153.219100
4221.673587,-9696.697840,666.185348,-383.047749
4221.673917,-9918.759623,1110.308913,0.000000
4221.674247,-9918.759623,518.144159,-1149.143247
4221.674576,-10584.944971,518.144159,-306.438199
4221.674906,-10584.944971,-296.082377,383.047749
4221.675236,-10140.821405,-740.205942,536.266849
4221.675565,-8808.450710,-1480.411884,0.000000
4221.675895,-7994.224174,-1406.391290,153.219100
4221.676224,-8882.471304,-740.205942,919.314598
4221.676554,-10214.842000,370.102971,1991.848295
4221.676884,-10955.047942,518.144159,2145.067394
4221.677213,-10288.862594,444.123565,1149.143247
4221.677543,-9252.574275,592.164754,-536.266849
4221.677873,-9992.780217,592.164754,-919.314598
4221.678202,-10362.883188,0.000000,-766.095498
4221.678532,-10066.800811,296.082377,-766.095498
4221.678862,-8142.265362,-444.123565,-1149.143247
4221.679191,-7402.059420,-74.020594,-995.924147
4221.679521,-8660.409521,296.082377,-766.095498
4221.679851,-9992.780217,518.144159,0.000000
4221.680180,-9474.636058,0.000000,-842.705048
4221.680510,-9326.594869,0.000000,229.828649
4221.680840,-9770.718434,0.000000,1532.190996
4221.681169,-11399.171507,518.144159,2374.896044
4221.681499,-10140.821405,370.102971,2068.457845
4221.681828,-9326.594869,0.000000,306.438199
4221.682158,-9400.615463,1036.288319,-383.047749
4221.682488,-9992.780217,814.226536,-153.219100
4221.682817,-10658.965565,592.164754,-612.876398
4221.683147,-9622.677246,518.144159,0.000000
4221.683477,-9326.594869,222.061783,76.609550
4221.683806,-8586.388927,296.082377,-459.657299
4221.684136,-9400.615463,0.000000,-229.828649
4221.684466,-9992.780217,148.041188,0.000000
4221.684795,-10436.903782,592.164754,76.609550
4221.685125,-10658.965565,370.102971,0.000000
4221.685455,-9918.759623,888.247130,76.609550
4221.685784,-10362.883188,1406.391290,306.438199
4221.686114,-10955.047942,888.247130,0.000000
4221.686444,-10732.986159,666.185348,-842.705048
4221.686773,-9770.718434,-148.041188,0.000000
4221.687103,-9696.697840,222.061783,536.266849
4221.687432,-9400.615463,-518.144159,612.876398
4221.687762,-9474.636058,-666.185348,0.000000
4221.688092,-8290.306550,-888.247130,-689.485948
4221.688421,-9178.553681,-740.205942,-153.219100
4221.688751,-10140.821405,-740.205942,689.485948
4221.689080,-10066.800811,-518.144159,2681.334243
4221.689410,-10214.842000,0.000000,2987.772442
4221.689740,-10584.944971,-222.061783,2451.505594
4221.690069,-11251.130318,-74.020594,689.485948
4221.690399,-9918.759623,-296.082377,-383.047749
4221.690728,-9770.718434,74.020594,-536.266849
4221.691058,-9030.512492,-370.102971,-1149.143247
4221.691388,-9178.553681,-518.144159,0.000000
4221.691717,-9696.697840,296.082377,766.095498
4221.692047,-9918.759623,0.000000,-536.266849
4221.692376,-9400.615463,666.185348,-1991.848295
4221.692706,-9992.780217,0.000000,-1532.190996
4221.693036,-10066.800811,222.061783,-459.657299
4221.693365,-9918.759623,-222.061783,1149.143247
4221.693695,-9770.718434,370.102971,1532.190996
4221.694024,-9474.636058,-148.041188,612.876398
4221.694354,-9918.759623,592.164754,0.000000
4221.694684,-10214.842000,-814.226536,-1302.362347
4221.695013,-10214.842000,-740.205942,-612.876398
4221.695343,-9178.553681,-592.164754,1225.752797
4221.695672,-9104.533087,0.000000,1838.629195
4221.696002,-8660.409521,-370.102971,1225.752797
4221.696331,-8734.430116,-444.123565,153.219100
4221.696661,-10288.862594,-518.144159,153.219100
4221.696991,-10658.965565,-148.041188,383.047749
4221.697320,-9992.780217,74.020594,459.657299
4221.697650,-10732.986159,74.020594,1302.362347
4221.697979,-10140.821405,296.082377,1915.238745
4221.698309,-9622.677246,222.061783,1302.362347
4221.698639,-9622.677246,888.247130,-229.828649
4221.698968,-11177.109724,592.164754,-1685.410096
4221.699298,-10658.965565,666.185348,-2528.115143
4221.699627,-9400.615463,0.000000,-995.924147
4221.699957,-8660.409521,148.041188,0.000000
4221.700287,-9548.656652,0.000000,995.924147
4221.700616,-9622.677246,0.000000,459.657299
4221.700946,-9104.533087,-370.102971,0.000000
4221.701275,-9178.553681,-370.102971,0.000000
4221.701605,-10066.800811,-296.082377,229.828649
4221.701935,-9696.697840,-814.226536,1378.971896
4221.702264,-9770.718434,-1110.308913,1685.410096
4221.702594,-8068.244768,0.000000,842.705048
4221.702923,-8216.285956,-740.205942,-306.438199
4221.703253,-9770.718434,592.164754,-306.438199
4221.703582,-10436.903782,296.082377,0.000000
4221.703912,-10955.047942,0.000000,1149.143247
4221.704242,-10140.821405,814.226536,459.657299
4221.704571,-10732.986159,148.041188,229.828649
4221.704901,-9400.615463,148.041188,-612.876398
4221.705230,-9178.553681,444.123565,-919.314598
4221.705560,-10362.883188,962.267725,-689.485948
4221.705890,-10658.965565,1258.350101,-1378.971896
4221.706219,-10955.047942,1258.350101,-919.314598
4221.706549,-10288.862594,1184.329507,536.266849
4221.706878,-10140.821405,444.123565,76.609550
4221.707208,-9770.718434,-370.102971,229.828649
4221.707538,-9696.697840,-148.041188,-612.876398
4221.707867,-8808.450710,0.000000,-76.609550
4221.708197,-9252.574275,0.000000,459.657299
4221.708526,-9622.677246,296.082377,1915.238745
4221.708856,-11177.109724,370.102971,2068.457845
4221.709186,-10510.924376,148.041188,1378.971896
4221.709515,-10214.842000,222.061783,229.828649
4221.709845,-10214.842000,-296.082377,0.000000
4221.710174,-9326.594869,-370.102971,-383.047749
4221.710504,-8216.285956,0.000000,842.705048
4221.710833,-8438.347739,74.020594,919.314598
4221.711163,-9252.574275,666.185348,536.266849
4221.711493,-9844.739029,518.144159,-919.314598
4221.711822,-9992.780217,592.164754,-1225.752797
4221.712152,-9918.759623,740.205942,-995.924147
4221.712481,-10214.842000,0.000000,-306.438199
4221.712811,-9104.533087,0.000000,459.657299
4221.713141,-8512.368333,-592.164754,842.705048
4221.713470,-8882.471304,148.041188,766.095498
4221.713800,-9844.739029,0.000000,689.485948
4221.714129,-10584.944971,148.041188,306.438199
4221.714459,-10214.842000,148.041188,0.000000
4221.714789,-9770.718434,148.041188,0.000000
4221.715118,-9770.718434,370.102971,306.438199
4221.715448,-9844.739029,0.000000,0.000000
4221.715777,-9622.677246,0.000000,-459.657299
4221.716107,-9178.553681,0.000000,-229.828649
4221.716437,-9918.759623,962.267725,-689.485948
4221.716766,-10140.821405,370.102971,76.609550
4221.717096,-9400.615463,-444.123565,0.000000
4221.717425,-9696.697840,296.082377,1149.143247
4221.717755,-10584.944971,444.123565,1915.238745
4221.718085,-10807.006753,-296.082377,842.705048
4221.718414,-9252.574275,-74.020594,153.219100
4221.718744,-8882.471304,0.000000,153.219100
4221.719073,-10881.027347,0.000000,-229.828649
4221.719403,-10510.924376,-74.020594,-306.438199
4221.719732,-9992.780217,-444.123565,383.047749
4221.720062,-8586.388927,-518.144159,766.095498
4221.720392,-9104.533087,-222.061783,1685.410096
4221.720721,-11251.130318,-370.102971,1608.800546
4221.721051,-9696.697840,-370.102971,1302.362347
4221.721380,-9844.739029,-148.041188,766.095498
4221.721710,-10510.924376,-444.123565,842.705048
4221.722040,-11325.150913,-370.102971,1072.533697
4221.722369,-10214.842000,-444.123565,306.438199
4221.722699,-8586.388927,-666.185348,-766.095498
4221.723028,-8808.450710,-148.041188,-1225.752797
4221.723358,-9178.553681,-740.205942,-1225.752797
4221.723688,-9696.697840,148.041188,-383.047749
4221.724017,-10510.924376,-296.082377,612.876398
4221.724347,-10955.047942,-222.061783,612.876398
4221.724676,-10362.883188,-444.123565,1072.533697
4221.725006,-9548.656652,-666.185348,153.219100
4221.725336,-9030.512492,-1110.308913,-842.705048
4221.725665,-8364.327145,-1480.411884,229.828649
4221.725995,-9400.615463,-518.144159,1149.143247
4221.726324,-9696.697840,296.082377,2068.457845
4221.726654,-10140.821405,-962.267725,612.876398
4221.726983,-9400.615463,0.000000,0.000000
4221.727313,-8882.471304,0.000000,-306.438199
4221.727643,-9400.615463,0.000000,-1149.143247
4221.727972,-9622.677246,222.061783,-306.438199
4221.728302,-10510.924376,370.102971,153.219100
4221.728631,-9918.759623,740.205942,0.000000
4221.728961,-9474.636058,888.247130,-766.095498
4221.729291,-10436.903782,888.247130,0.000000
4221.729620,-10732.986159,1036.288319,-842.705048
4221.729950,-10214.842000,962.267725,-229.828649
4221.730279,-9696.697840,814.226536,-536.266849
4221.730609,-9622.677246,888.247130,-612.876398
4221.730939,-10214.842000,1110.308913,0.000000
4221.731268,-10066.800811,888.247130,76.609550
4221.731598,-10584.944971,740.205942,-995.924147
4221.731927,-10066.800811,370.102971,153.219100
4221.732257,-9400.615463,148.041188,689.485948
4221.732587,-9696.697840,296.082377,1302.362347
4221.732916,-9770.718434,0.000000,995.924147
4221.733246,-9622.677246,0.000000,1072.533697
4221.733575,-10066.800811,518.144159,306.438199
4221.733905,-10510.924376,740.205942,-229.828649
4221.734234,-9770.718434,0.000000,0.000000
4221.734564,-9622.677246,666.185348,919.314598
4221.734894,-9326.594869,814.226536,1455.581446
4221.735223,-9992.780217,0.000000,76.609550
4221.735553,-9918.759623,370.102971,0.000000
4221.735882,-9104.533087,-370.102971,-153.219100
4221.736212,-9104.533087,74.020594,0.000000
4221.736542,-9622.677246,296.082377,383.047749
4221.736871,-10288.862594,222.061783,76.609550
4221.737201,-9252.574275,148.041188,0.000000
4221.737530,-9474.636058,370.102971,-1149.143247
4221.737860,-10510.924376,444.123565,-995.924147
4221.738190,-9770.718434,444.123565,-689.485948
4221.738519,-9474.636058,370.102971,229.828649
4221.738849,-9178.553681,74.020594,1378.971896
4221.739178,-9992.780217,444.123565,1455.581446
4221.739508,-10214.842000,-666.185348,-76.609550
4221.739838,-9622.677246,-370.102971,-1302.362347
4221.740167,-9474.636058,-444.123565,-919.314598
4221.740497,-9622.677246,148.041188,0.000000
4221.740826,-10362.883188,74.020594,1455.581446
4221.741156,-9548.656652,0.000000,1225.752797
4221.741486,-9696.697840,0.000000,612.876398
4221.741815,-10510.924376,0.000000,0.000000
4221.742145,-10584.944971,-296.082377,153.219100
4221.742474,-9474.636058,-444.123565,0.000000
4221.742804,-9030.512492,-222.061783,0.000000
4221.743133,-9992.780217,148.041188,842.705048
4221.743463,-10066.800811,0.000000,842.705048
4221.743793,-9844.739029,222.061783,-459.657299
4221.744122,-9326.594869,-148.041188,-842.705048
4221.744452,-10732.986159,222.061783,0.000000
4221.744781,-11103.089130,296.082377,612.876398
4221.745111,-10362.883188,0.000000,842.705048
4221.745441,-9030.512492,0.000000,-76.609550
4221.745770,-9548.656652,0.000000,-76.609550
4221.746100,-10140.821405,148.041188,0.000000
4221.746429,-10436.903782,-1110.308913,0.000000
4221.746759,-9326.594869,-370.102971,919.314598
4221.747089,-9252.574275,-666.185348,1608.800546
4221.747418,-9474.636058,-962.267725,612.876398
4221.747748,-7846.182985,-1036.288319,-1378.971896
4221.748077,-8734.430116,-592.164754,-1149.143247
4221.748407,-9252.574275,-296.082377,383.047749
4221.748737,-10288.862594,-370.102971,1915.238745
4221.749066,-9696.697840,296.082377,2451.505594
4221.749396,-9844.739029,148.041188,1455.581446
4221.749725,-10288.862594,296.082377,306.438199
4221.750055,-9918.759623,-592.164754,-306.438199
4221.750384,-10510.924376,74.020594,-689.485948
4221.750714,-8956.491898,0.000000,1149.143247
4221.751044,-10362.883188,1332.370696,2068.457845
4221.751373,-11029.068536,888.247130,76.609550
4221.751703,-9400.615463,148.041188,-1915.238745
4221.752032,-8956.491898,814.226536,-2451.505594
4221.752362,-9400.615463,74.020594,-1302.362347
4221.752692,-11251.130318,740.205942,153.219100
4221.753021,-9844.739029,74.020594,1685.410096
4221.753351,-9474.636058,222.061783,1532.190996
4221.753680,-9622.677246,0.000000,306.438199
4221.754010,-10881.027347,-148.041188,-229.828649
4221.754340,-9992.780217,-666.185348,0.000000
4221.754669,-8660.409521,-888.247130,842.705048
4221.754999,-9474.636058,0.000000,2757.943793
4221.755328,-9992.780217,-370.102971,3064.381992
4221.755658,-10584.944971,370.102971,1532.190996
4221.755988,-9326.594869,0.000000,0.000000
4221.756317,-10584.944971,1036.288319,-612.876398
4221.756647,-10955.047942,148.041188,0.000000
4221.756976,-9474.636058,-148.041188,919.314598
4221.757306,-8882.471304,0.000000,1225.752797
4221.757635,-10214.842000,-74.020594,689.485948
4221.757965,-10214.842000,222.061783,-383.047749
4221.758295,-9400.615463,-444.123565,-1225.752797
4221.758624,-8808.450710,592.164754,-612.876398
4221.758954,-9918.759623,148.041188,1225.752797
4221.759283,-11251.130318,592.164754,842.705048
4221.759613,-10140.821405,-370.102971,0.000000
4221.759943,-9030.512492,222.061783,-229.828649
4221.760272,-8586.388927,-222.061783,-459.657299
4221.760602,-10066.800811,222.061783,-766.095498
4221.760931,-9326.594869,0.000000,-612.876398
4221.761261,-8882.471304,74.020594,-766.095498
4221.761591,-9770.718434,370.102971,0.000000
4221.761920,-10658.965565,-296.082377,153.219100
4221.762250,-11029.068536,0.000000,0.000000
4221.762579,-9918.759623,74.020594,383.047749
4221.762909,-8956.491898,148.041188,-306.438199
4221.763239,-8882.471304,0.000000,536.266849
4221.763568,-10288.862594,444.123565,766.095498
4221.763898,-11251.130318,444.123565,689.485948
4221.764227,-10436.903782,296.082377,-383.047749
4221.764557,-10288.862594,814.226536,-766.095498
4221.764887,-10140.821405,370.102971,-1225.752797
4221.765216,-9918.759623,444.123565,-1072.533697
4221.765546,-9696.697840,222.061783,-689.485948
4221.765875,-9622.677246,222.061783,-612.876398
4221.766205,-10288.862594,518.144159,-459.657299
4221.766534,-9252.574275,0.000000,0.000000
4221.766864,-9252.574275,74.020594,459.657299
4221.767194,-9770.718434,370.102971,1072.533697
4221.767523,-9992.780217,370.102971,995.924147
4221.767853,-9474.636058,148.041188,459.657299
4221.768182,-10066.800811,148.041188,0.000000
4221.768512,-10362.883188,296.082377,459.657299
4221.768842,-10510.924376,74.020594,766.095498
4221.769171,-9252.574275,1110.308913,383.047749
4221.769501,-9474.636058,222.061783,-612.876398
4221.769830,-9770.718434,0.000000,-766.095498
4221.770160,-9474.636058,-370.102971,-459.657299
4221.770490,-8142.265362,-370.102971,153.219100
4221.770819,-8734.430116,-740.205942,1225.752797
4221.771149,-9548.656652,-370.102971,2298.286494
4221.771478,-9548.656652,-518.144159,2451.505594
4221.771808,-9252.574275,0.000000,459.657299
4221.772138,-9548.656652,222.061783,-1532.190996
4221.772467,-10436.903782,222.061783,-1149.143247
4221.772797,-10140.821405,74.020594,612.876398
4221.773126,-9474.636058,518.144159,1455.581446
4221.773456,-9104.533087,888.247130,1225.752797
4221.773785,-10881.027347,444.123565,-76.609550
4221.774115,-10732.986159,370.102971,-1378.971896
4221.774445,-9844.739029,-370.102971,-1532.190996
4221.774774,-9400.615463,592.164754,-612.876398
4221.775104,-9474.636058,0.000000,612.876398
4221.775433,-9326.594869,-444.123565,1302.362347
4221.775763,-9104.533087,-74.020594,0.000000
4221.776093,-9548.656652,370.102971,-612.876398
4221.776422,-11177.109724,592.164754,-153.219100
4221.776752,-10955.047942,222.061783,0.000000
4221.777081,-9400.615463,74.020594,612.876398
4221.777411,-9252.574275,222.061783,995.924147
4221.777741,-9548.656652,962.267725,919.314598
4221.778070,-11177.109724,0.000000,459.657299
4221.778400,-10584.944971,444.123565,-842.705048
4221.778729,-8956.491898,0.000000,-459.657299
4221.779059,-10362.883188,518.144159,76.609550
4221.779389,-9474.636058,-740.205942,1225.752797
4221.779718,-9252.574275,-444.123565,1378.971896
4221.780048,-9252.574275,222.061783,689.485948
4221.780377,-10140.821405,0.000000,-229.828649
4221.780707,-10510.924376,518.144159,-383.047749
4221.781036,-9770.718434,888.247130,383.047749
4221.781366,-10436.903782,370.102971,689.485948
4221.781696,-10066.800811,-370.102971,383.047749
4221.782025,-9622.677246,-148.041188,229.828649
4221.782355,-10140.821405,-1184.329507,612.876398
4221.782684,-8586.388927,-1110.308913,306.438199
4221.783014,-8364.327145,-1480.411884,306.438199
4221.783344,-9030.512492,-740.205942,0.000000
4221.783673,-9548.656652,74.020594,919.314598
4221.784003,-9844.739029,0.000000,306.438199
4221.784332,-9622.677246,0.000000,-306.438199
4221.784662,-9474.636058,740.205942,0.000000
4221.784992,-9918.759623,666.185348,-153.219100
4221.785321,-9696.697840,444.123565,-459.657299
4221.785651,-11029.068536,370.102971,-306.438199
4221.785980,-10362.883188,0.000000,0.000000
4221.786310,-9622.677246,-518.144159,-306.438199
4221.786640,-9400.615463,-518.144159,-459.657299
4221.786969,-9252.574275,0.000000,536.266849
4221.787299,-9696.697840,-74.020594,1072.533697
4221.787629,-9696.697840,296.082377,689.485948
4221.787959,-10288.862594,740.205942,0.000000
4221.788288,-11177.109724,814.226536,0.000000
4221.788618,-10510.924376,370.102971,229.828649
4221.788948,-9918.759623,296.082377,383.047749
4221.789278,-9326.594869,0.000000,0.000000
4221.789607,-9326.594869,-296.082377,-76.609550
4221.789937,-9548.656652,-222.061783,76.609550
4221.790267,-9844.739029,0.000000,689.485948
4221.790597,-10140.821405,0.000000,459.657299
4221.790926,-10288.862594,0.000000,0.000000
4221.791256,-9104.533087,148.041188,-229.828649
4221.791586,-9104.533087,296.082377,689.485948
4221.791916,-9918.759623,592.164754,842.705048
4221.792245,-10732.986159,888.247130,306.438199
4221.792575,-11547.212695,592.164754,0.000000
4221.792905,-9844.739029,1258.350101,-766.095498
4221.793235,-9252.574275,666.185348,0.000000
4221.793565,-10140.821405,962.267725,0.000000
4221.793894,-10288.862594,370.102971,689.485948
4221.794224,-9770.718434,0.000000,383.047749
4221.794554,-8512.368333,148.041188,-153.219100
4221.794884,-9696.697840,518.144159,0.000000
4221.795213,-9992.780217,444.123565,0.000000
4221.795543,-10510.924376,222.061783,536.266849
4221.795873,-9548.656652,222.061783,1149.143247
4221.796203,-9030.512492,592.164754,0.000000
4221.796532,-9548.656652,814.226536,-1225.752797
4221.796862,-9696.697840,222.061783,-919.314598
4221.797192,-9326.594869,666.185348,-153.219100
4221.797522,-9326.594869,518.144159,383.047749
4221.797851,-9918.759623,0.000000,459.657299
4221.798181,-9696.697840,296.082377,0.000000
4221.798511,-9030.512492,-370.102971,-766.095498
4221.798841,-9252.574275,0.000000,-306.438199
4221.799170,-10066.800811,0.000000,-459.657299
4221.799500,-10362.883188,74.020594,766.095498
4221.799830,-9474.636058,444.123565,1072.533697
4221.800160,-9400.615463,148.041188,0.000000
4221.800489,-10214.842000,814.226536,-383.047749
4221.800819,-11103.089130,370.102971,0.000000
4221.801149,-10066.800811,-370.102971,383.047749
4221.801479,-9696.697840,-148.041188,919.314598
4221.801809,-9770.718434,74.020594,919.314598
4221.802138,-9918.759623,-740.205942,459.657299
4221.802468,-8956.491898,-370.102971,0.000000
4221.802798,-8660.409521,-592.164754,-383.047749
4221.803128,-9622.677246,-296.082377,459.657299
4221.803457,-10881.027347,148.041188,0.000000
4221.803787,-10584.944971,74.020594,306.438199
4221.804117,-9326.594869,-592.164754,383.047749
4221.804447,-9104.533087,0.000000,306.438199
4221.804776,-10881.027347,-592.164754,842.705048
4221.805106,-10140.821405,-1036.288319,383.047749
4221.805436,-8660.409521,-666.185348,995.924147
4221.805766,-9474.636058,-222.061783,1378.971896
4221.806095,-11029.068536,-370.102971,1838.629195
4221.806425,-10584.944971,-370.102971,1838.629195
4221.806755,-9622.677246,-962.267725,1072.533697
4221.807085,-10288.862594,0.000000,0.000000
4221.807414,-9918.759623,-296.082377,-383.047749
4221.807744,-9104.533087,-296.082377,-612.876398
4221.808074,-8660.409521,0.000000,-536.266849
4221.808404,-9474.636058,0.000000,-459.657299
4221.808733,-10140.821405,0.000000,0.000000
4221.809063,-10066.800811,0.000000,0.000000
4221.809393,-10140.821405,-222.061783,1149.143247
4221.809723,-10436.903782,-1554.432478,1455.581446
4221.810053,-10362.883188,-1110.308913,1991.848295
4221.810382,-9474.636058,-1554.432478,1762.019645
4221.810712,-8438.347739,-888.247130,1378.971896
4221.811042,-8808.450710,0.000000,612.876398
4221.811372,-9918.759623,74.020594,0.000000
4221.811701,-10362.883188,370.102971,612.876398
4221.812031,-10510.924376,444.123565,689.485948
4221.812361,-10807.006753,0.000000,536.266849
4221.812691,-10510.924376,0.000000,0.000000
4221.813020,-9844.739029,-666.185348,-306.438199
4221.813350,-8808.450710,-962.267725,-1072.533697
4221.813680,-8512.368333,-592.164754,-995.924147
4221.814010,-9104.533087,-296.082377,459.657299
4221.814339,-10658.965565,370.102971,1838.629195
4221.814669,-9844.739029,0.000000,842.705048
4221.814999,-9844.739029,370.102971,536.266849
4221.815329,-10881.027347,592.164754,689.485948
4221.815658,-11177.109724,0.000000,842.705048
4221.815988,-10140.821405,-666.185348,153.219100
4221.816318,-8364.327145,-296.082377,-1149.143247
4221.816648,-8438.347739,222.061783,-229.828649
4221.816977,-9326.594869,296.082377,229.828649
4221.817307,-9474.636058,740.205942,-536.266849
4221.817637,-9696.697840,296.082377,-536.266849
4221.817967,-9696.697840,1258.350101,-766.095498
4221.818297,-9992.780217,592.164754,-76.609550
4221.818626,-10362.883188,666.185348,0.000000
4221.818956,-9104.533087,0.000000,-229.828649
4221.819286,-8808.450710,222.061783,-383.047749
4221.819616,-9326.594869,1110.308913,-306.438199
4221.819945,-10362.883188,962.267725,-612.876398
4221.820275,-10066.800811,888.247130,-229.828649
4221.820605,-9992.780217,592.164754,766.095498
4221.820935,-10362.883188,1184.329507,689.485948
4221.821264,-9474.636058,222.061783,383.047749
4221.821594,-9474.636058,518.144159,-76.609550
4221.821924,-9104.533087,0.000000,-842.705048
4221.822254,-9844.739029,666.185348,0.000000
4221.822583,-10658.965565,962.267725,0.000000
4221.822913,-11325.150913,1332.370696,0.000000
4221.823243,-9400.615463,1110.308913,-383.047749
4221.823573,-9030.512492,1036.288319,229.828649
4221.823902,-10436.903782,1258.350101,612.876398
4221.824232,-10658.965565,1184.329507,229.828649
4221.824562,-9918.759623,296.082377,-153.219100
4221.824892,-9326.594869,-222.061783,76.609550
4221.825221,-9474.636058,74.020594,1608.800546
4221.825551,-10584.944971,444.123565,1532.190996
4221.825881,-9400.615463,0.000000,-229.828649
4221.826211,-8512.368333,0.000000,-229.828649
4221.826541,-7772.162391,296.082377,-459.657299
4221.826870,-10288.862594,1110.308913,383.047749
4221.827200,-12139.377449,1924.535449,153.219100
4221.827530,-9992.780217,0.000000,766.095498
4221.827860,-8364.327145,0.000000,0.000000
4221.828189,-9252.574275,0.000000,-306.438199
4221.828519,-12139.377449,370.102971,-612.876398
4221.828849,-10066.800811,-296.082377,-536.266849
4221.829179,-8142.265362,-1184.329507,-536.266849
4221.829508,-8364.327145,74.020594,1149.143247
4221.829838,-10066.800811,0.000000,1378.971896
4221.830168,-10881.027347,0.000000,1302.362347
4221.830498,-9622.677246,-74.020594,-689.485948
4221.830827,-9104.533087,0.000000,-1762.019645
4221.831157,-10436.903782,-296.082377,-459.657299
4221.831487,-11473.192101,0.000000,1225.752797
4221.831817,-9696.697840,-814.226536,1991.848295
4221.832146,-8660.409521,-740.205942,536.266849
4221.832476,-9696.697840,-444.123565,-1302.362347
4221.832806,-9844.739029,-1110.308913,-1685.410096
4221.833136,-9992.780217,-74.020594,153.219100
4221.833465,-9474.636058,-518.144159,2145.067394
4221.833795,-10584.944971,-444.123565,1991.848295
4221.834125,-10807.006753,-814.226536,1608.800546
4221.834455,-9918.759623,-592.164754,612.876398
4221.834785,-8734.430116,-1406.391290,-459.657299
4221.835114,-9474.636058,-518.144159,-612.876398
4221.835444,-9696.697840,-296.082377,-229.828649
4221.835774,-8882.471304,222.061783,-689.485948
4221.836104,-9178.553681,-222.061783,0.000000
4221.836433,-9770.718434,-888.247130,76.609550
4221.836763,-10584.944971,-296.082377,-306.438199
4221.837093,-9770.718434,-444.123565,76.609550
4221.837423,-8956.491898,-814.226536,689.485948
4221.837752,-9326.594869,-592.164754,1762.019645
4221.838082,-9992.780217,-592.164754,1685.410096
4221.838412,-10510.924376,-296.082377,459.657299
4221.838742,-9474.636058,-518.144159,-459.657299
4221.839071,-9474.636058,148.041188,0.000000
4221.839401,-10066.800811,222.061783,0.000000
4221.839731,-9474.636058,0.000000,-306.438199
4221.840061,-9178.553681,74.020594,-612.876398
4221.840390,-9548.656652,0.000000,-383.047749
4221.840720,-10214.842000,-592.164754,-229.828649
4221.841050,-9622.677246,444.123565,689.485948
4221.841380,-9918.759623,962.267725,306.438199
4221.841709,-10140.821405,370.102971,0.000000
4221.842039,-9696.697840,370.102971,-153.219100
4221.842369,-9844.739029,74.020594,306.438199
4221.842699,-10288.862594,592.164754,459.657299
4221.843029,-10436.903782,1036.288319,612.876398
4221.843358,-10066.800811,148.041188,0.000000
4221.843688,-8956.491898,222.061783,-766.095498
4221.844018,-9252.574275,148.041188,-689.485948
4221.844348,-9474.636058,0.000000,0.000000
4221.844677,-9770.718434,74.020594,153.219100
4221.845007,-9326.594869,148.041188,229.828649
4221.845337,-9030.512492,0.000000,153.219100
4221.845667,-10362.883188,296.082377,1532.190996
4221.845996,-10288.862594,444.123565,612.876398
4221.846326,-10140.821405,740.205942,383.047749
4221.846656,-9992.780217,814.226536,0.000000
4221.846986,-9918.759623,444.123565,1072.533697
4221.847315,-9622.677246,666.185348,229.828649
4221.847645,-9844.739029,962.267725,229.828649
4221.847975,-10140.821405,444.123565,-689.485948
4221.848305,-9104.533087,-74.020594,-1072.533697
4221.848634,-8808.450710,0.000000,-766.095498
4221.848964,-9326.594869,-222.061783,229.828649
4221.849294,-9400.615463,0.000000,1149.143247
4221.849624,-10066.800811,0.000000,766.095498
4221.849953,-9992.780217,518.144159,612.876398
4221.850283,-9696.697840,666.185348,229.828649
4221.850613,-10066.800811,518.144159,-229.828649
4221.850943,-10288.862594,74.020594,-612.876398
4221.851273,-10214.842000,666.185348,459.657299
4221.851602,-9696.697840,814.226536,0.000000
4221.851932,-10214.842000,444.123565,-383.047749
4221.852262,-9844.739029,666.185348,-536.266849
4221.852592,-9474.636058,148.041188,0.000000
4221.852921,-9474.636058,296.082377,-1378.971896
4221.853251,-9548.656652,592.164754,-1072.533697
4221.853581,-9548.656652,74.020594,536.266849
4221.853911,-10807.006753,148.041188,1225.752797
4221.854240,-10214.842000,0.000000,536.266849
4221.854570,-10066.800811,-296.082377,1072.533697
4221.854900,-9770.718434,444.123565,1072.533697
4221.855230,-9918.759623,74.020594,766.095498
4221.855559,-10955.047942,-74.020594,383.047749
4221.855889,-9844.739029,-148.041188,-229.828649
4221.856219,-9326.594869,-222.061783,-306.438199
4221.856549,-9622.677246,148.041188,-459.657299
4221.856878,-9844.739029,296.082377,-383.047749
4221.857208,-9474.636058,-518.144159,0.000000
4221.857538,-7920.203579,-444.123565,0.000000
4221.857868,-9548.656652,0.000000,1072.533697
4221.858197,-10955.047942,-518.144159,2145.067394
4221.858527,-11103.089130,-518.144159,1455.581446
4221.858857,-9326.594869,-740.205942,1762.019645
4221.859187,-9474.636058,-666.185348,1455.581446
4221.859517,-9992.780217,-296.082377,1072.533697
4221.859846,-10140.821405,-814.226536,612.876398
4221.860176,-9326.594869,148.041188,76.609550
4221.860506,-9326.594869,222.061783,-919.314598
4221.860836,-9844.739029,74.020594,-1225.752797
4221.861165,-9252.574275,222.061783,-1149.143247
4221.861495,-8956.491898,-444.123565,0.000000
4221.861825,-9696.697840,-740.205942,383.047749
4221.862155,-10658.965565,-962.267725,-383.047749
4221.862484,-9474.636058,-1184.329507,153.219100
4221.862814,-8216.285956,-1036.288319,459.657299
4221.863144,-9844.739029,0.000000,2145.067394
4221.863474,-11251.130318,-518.144159,1762.019645
4221.863803,-11029.068536,370.102971,612.876398
4221.864133,-8956.491898,74.020594,-612.876398
4221.864463,-9400.615463,370.102971,-919.314598
4221.864793,-10658.965565,370.102971,0.000000
4221.865122,-11029.068536,-74.020594,383.047749
4221.865452,-9992.780217,0.000000,0.000000
4221.865782,-9326.594869,0.000000,0.000000
4221.866112,-10140.821405,-222.061783,0.000000
4221.866441,-10288.862594,-148.041188,-153.219100
4221.866771,-9178.553681,0.000000,229.828649
4221.867101,-8956.491898,370.102971,383.047749
4221.867431,-10362.883188,666.185348,1149.143247
4221.867761,-11177.109724,444.123565,689.485948
4221.868090,-10362.883188,-296.082377,-383.047749
4221.868420,-9474.636058,0.000000,-306.438199
4221.868750,-10140.821405,0.000000,995.924147
4221.869080,-9770.718434,-444.123565,2068.457845
4221.869409,-9252.574275,-740.205942,1302.362347
4221.869739,-8956.491898,0.000000,0.000000
4221.870069,-9474.636058,0.000000,-689.485948
4221.870399,-10066.800811,222.061783,-689.485948
4221.870728,-9474.636058,-296.082377,0.000000
4221.871058,-8734.430116,444.123565,689.485948
4221.871388,-9622.677246,-296.082377,612.876398
4221.871718,-9844.739029,74.020594,0.000000
4221.872047,-9474.636058,-222.061783,-842.705048
4221.872377,-9992.780217,814.226536,-612.876398
4221.872707,-9844.739029,592.164754,612.876398
4221.873037,-9844.739029,370.102971,612.876398
4221.873366,-8660.409521,444.123565,-76.609550
4221.873696,-8586.388927,370.102971,-995.924147
4221.874026,-9622.677246,518.144159,-306.438199
4221.874356,-10510.924376,222.061783,-766.095498
4221.874685,-10732.986159,444.123565,-229.828649
4221.875015,-9252.574275,-74.020594,842.705048
4221.875345,-9474.636058,888.247130,689.485948
4221.875675,-11029.068536,1332.370696,995.924147
4221.876005,-11103.089130,888.247130,-1149.143247
4221.876334,-9548.656652,296.082377,-1991.848295
4221.876664,-8956.491898,296.082377,-1532.190996
4221.876994,-10584.944971,888.247130,0.000000
4221.877324,-11103.089130,1036.288319,1455.581446
4221.877653,-10288.862594,444.123565,0.000000
4221.877983,-8512.368333,148.041188,-1532.190996
4221.878313,-9696.697840,962.267725,-1225.752797
4221.878643,-11029.068536,0.000000,-306.438199
4221.878972,-10584.944971,370.102971,1072.533697
4221.879302,-8808.450710,0.000000,2068.457845
4221.879632,-9548.656652,1036.288319,2298.286494
4221.879962,-9992.780217,74.020594,306.438199
4221.880291,-9992.780217,0.000000,-766.095498
4221.880621,-8956.491898,222.061783,-1072.533697
4221.880951,-9474.636058,370.102971,-383.047749
4221.881281,-10510.924376,962.267725,0.000000
4221.881610,-9400.615463,296.082377,459.657299
4221.881940,-8734.430116,518.144159,153.219100
4221.882270,-9104.533087,296.082377,-459.657299
4221.882600,-10658.965565,0.000000,0.000000
4221.882929,-10584.944971,-666.185348,459.657299
4221.883259,-8586.388927,-592.164754,1378.971896
4221.883589,-8808.450710,0.000000,1762.019645
4221.883919,-9474.636058,0.000000,1225.752797
4221.884249,-10436.903782,0.000000,766.095498
4221.884578,-9178.553681,-296.082377,0.000000
4221.884908,-9474.636058,444.123565,536.266849
4221.885238,-10510.924376,296.082377,842.705048
4221.885568,-9844.739029,-296.082377,459.657299
4221.885897,-9400.615463,-296.082377,-536.266849
4221.886227,-9326.594869,-666.185348,-383.047749
4221.886557,-9844.739029,0.000000,306.438199
4221.886887,-9696.697840,-740.205942,689.485948
4221.887216,-9770.718434,148.041188,995.924147
4221.887546,-9992.780217,0.000000,1378.971896
4221.887876,-10807.006753,148.041188,1455.581446
4221.888206,-11029.068536,444.123565,995.924147
4221.888535,-10436.903782,518.144159,0.000000
4221.888865,-9696.697840,-592.164754,-995.924147
4221.889192,-9770.718434,0.000000,-153.219100
4221.889522,-10510.924376,740.205942,1685.410096
4221.889852,-10140.821405,-296.082377,919.314598
4221.890182,-9548.656652,-592.164754,-229.828649
4221.890512,-9770.718434,-592.164754,-536.266849
4221.890841,-9770.718434,-888.247130,1072.533697
4221.891171,-10288.862594,-518.144159,1608.800546
4221.891501,-9918.759623,-444.123565,1608.800546
4221.891831,-9622.677246,-370.102971,1991.848295
4221.892161,-10955.047942,0.000000,612.876398
4221.892490,-10658.965565,-518.144159,-689.485948
4221.892820,-9030.512492,-444.123565,-1532.190996
4221.893150,-8290.306550,74.020594,-1378.971896
4221.893480,-8808.450710,-370.102971,0.000000
4221.893810,-10362.883188,-222.061783,1072.533697
4221.894140,-10066.800811,-296.082377,919.314598
4221.894469,-9252.574275,-740.205942,459.657299
4221.894799,-8956.491898,-740.205942,-612.876398
4221.895129,-9548.656652,-74.020594,-383.047749
4221.895459,-9474.636058,-666.185348,-612.876398
4221.895789,-9178.553681,222.061783,383.047749
4221.896118,-8956.491898,740.205942,919.314598
4221.896448,-11251.130318,1036.288319,919.314598
4221.896778,-10732.986159,962.267725,-383.047749
4221.897108,-9770.718434,-222.061783,-689.485948
4221.897438,-8956.491898,592.164754,-536.266849
4221.897767,-9252.574275,148.041188,153.219100
4221.898097,-9696.697840,0.000000,-229.828649
4221.898427,-9474.636058,-296.082377,-306.438199
4221.898757,-9696.697840,666.185348,0.000000
4221.899087,-10584.944971,592.164754,-306.438199
4221.899416,-9696.697840,222.061783,-919.314598
4221.899746,-9474.636058,74.020594,0.000000
4221.900076,-9326.594869,222.061783,1072.533697
4221.900406,-10955.047942,222.061783,1685.410096
4221.900736,-10807.006753,444.123565,459.657299
4221.901066,-9770.718434,370.102971,0.000000
4221.901395,-8808.450710,592.164754,0.000000
4221.901725,-9844.739029,444.123565,-153.219100
4221.902055,-10584.944971,0.000000,229.828649
4221.902385,-9918.759623,148.041188,766.095498
4221.902715,-8586.388927,74.020594,459.657299
4221.903044,-9474.636058,222.061783,153.219100
4221.903374,-9622.677246,222.061783,0.000000
4221.903704,-9622.677246,370.102971,383.047749
4221.904034,-9844.739029,592.164754,306.438199
4221.904364,-9844.739029,888.247130,-306.438199
4221.904693,-10955.047942,740.205942,0.000000
4221.905023,-10362.883188,592.164754,-612.876398
4221.905353,-9918.759623,370.102971,0.000000
4221.905683,-9474.636058,-148.041188,-459.657299
4221.906013,-8068.244768,-296.082377,-383.047749
4221.906342,-9252.574275,0.000000,229.828649
4221.906672,-9770.718434,370.102971,229.828649
4221.907002,-9474.636058,0.000000,-229.828649
4221.907332,-9844.739029,370.102971,0.000000
4221.907662,-9918.759623,814.226536,0.000000
4221.907991,-9844.739029,0.000000,0.000000
4221.908321,-9770.718434,370.102971,76.609550
4221.908651,-10362.883188,74.020594,0.000000
4221.908981,-10214.842000,-296.082377,-536.266849
4221.909311,-10066.800811,-74.020594,-383.047749
4221.909641,-9474.636058,148.041188,229.828649
4221.909970,-9548.656652,518.144159,689.485948
4221.910300,-9770.718434,148.041188,0.000000
4221.910630,-10214.842000,-74.020594,0.000000
4221.910960,-9770.718434,0.000000,76.609550
4221.911290,-10288.862594,518.144159,153.219100
4221.911619,-11029.068536,0.000000,-459.657299
4221.911949,-9770.718434,-444.123565,-306.438199
4221.912279,-8438.347739,-888.247130,689.485948
4221.912609,-10066.800811,518.144159,995.924147
4221.912939,-10881.027347,-444.123565,-383.047749
4221.913268,-9622.677246,0.000000,-383.047749
4221.913598,-8882.471304,-666.185348,536.266849
4221.913928,-9326.594869,-666.185348,2068.457845
4221.914258,-10214.842000,148.041188,2221.676944
4221.914588,-10732.986159,-592.164754,1532.190996
4221.914917,-9178.553681,-1406.391290,-383.047749
4221.915247,-8290.306550,74.020594,-459.657299
4221.915577,-9918.759623,-148.041188,229.828649
4221.915907,-11325.150913,370.102971,1072.533697
4221.916237,-9326.594869,-296.082377,1532.190996
4221.916566,-8364.327145,296.082377,153.219100
4221.916896,-10140.821405,-370.102971,-536.266849
4221.917226,-10732.986159,-518.144159,0.000000
4221.917556,-9548.656652,-962.267725,229.828649
4221.917886,-8438.347739,0.000000,-306.438199
4221.918216,-9696.697840,-888.247130,612.876398
4221.918545,-10362.883188,-518.144159,536.266849
4221.918875,-8956.491898,-592.164754,536.266849
4221.919205,-8364.327145,-592.164754,612.876398
4221.919535,-9992.780217,0.000000,-306.438199
4221.919865,-11621.233289,0.000000,766.095498
4221.920194,-10658.965565,-740.205942,1455.581446
4221.920524,-8660.409521,-296.082377,1072.533697
4221.920854,-9622.677246,-666.185348,76.609550
4221.921184,-11029.068536,-888.247130,-612.876398
4221.921514,-8882.471304,-1184.329507,-766.095498
4221.921843,-8290.306550,222.061783,-76.609550
4221.922173,-9252.574275,814.226536,-383.047749
4221.922503,-11103.089130,370.102971,-612.876398
4221.922833,-11399.171507,0.000000,0.000000
4221.923163,-9696.697840,0.000000,459.657299
4221.923492,-10584.944971,222.061783,383.047749
4221.923822,-10658.965565,0.000000,383.047749
4221.924152,-9474.636058,-1258.350101,0.000000
4221.924482,-8142.265362,-444.123565,76.609550
4221.924812,-9104.533087,-148.041188,536.266849
4221.925141,-11251.130318,0.000000,995.924147
4221.925471,-10066.800811,74.020594,536.266849
4221.925801,-8216.285956,-74.020594,536.266849
4221.926131,-9178.553681,148.041188,0.000000
4221.926461,-11547.212695,222.061783,1225.752797
4221.926791,-11029.068536,-148.041188,536.266849
4221.927120,-9104.533087,-296.082377,0.000000
4221.927450,-8512.368333,0.000000,-229.828649
4221.927780,-9918.759623,370.102971,0.000000
4221.928110,-10362.883188,444.123565,536.266849
4221.928440,-9178.553681,0.000000,766.095498
4221.928769,-9030.512492,370.102971,536.266849
4221.929099,-10066.800811,148.041188,153.219100
4221.929429,-10510.924376,148.041188,-306.438199
4221.929759,-9474.636058,296.082377,459.657299
4221.930089,-9474.636058,0.000000,1149.143247
4221.930418,-10584.944971,666.185348,1149.143247
4221.930748,-10214.842000,888.247130,-306.438199
4221.931078,-8956.491898,444.123565,-766.095498
4221.931408,-8586.388927,814.226536,-842.705048
4221.931738,-9918.759623,962.267725,-459.657299
4221.932067,-9844.739029,296.082377,153.219100
4221.932397,-9696.697840,592.164754,0.000000
4221.932727,-9252.574275,370.102971,0.000000
4221.933057,-9400.615463,740.205942,306.438199
4221.933387,-10510.924376,148.041188,-229.828649
4221.933716,-10510.924376,148.041188,0.000000
4221.934046,-8808.450710,-148.041188,0.000000
4221.934376,-9326.594869,888.247130,689.485948
4221.934706,-10732.986159,1110.308913,689.485948
4221.935036,-10288.862594,296.082377,0.000000
4221.935366,-9474.636058,148.041188,-689.485948
4221.935695,-9770.718434,74.020594,0.000000
4221.936025,-10584.944971,148.041188,-229.828649
4221.936355,-9326.594869,-296.082377,-689.485948
4221.936685,-8364.327145,0.000000,-306.438199
4221.937015,-8956.491898,148.041188,0.000000
4221.937344,-10436.903782,296.082377,229.828649
4221.937674,-10955.047942,148.041188,306.438199
4221.938004,-9844.739029,-370.102971,995.924147
4221.938334,-9326.594869,-148.041188,1455.581446
4221.938664,-10436.903782,0.000000,919.314598
4221.938993,-10288.862594,0.000000,459.657299
4221.939323,-9696.697840,370.102971,-536.266849
4221.939653,-9770.718434,1036.288319,-1455.581446
4221.939983,-9992.780217,296.082377,-1302.362347
4221.940313,-9622.677246,296.082377,-995.924147
4221.940642,-8660.409521,444.123565,-459.657299
4221.940972,-9178.553681,0.000000,76.609550
4221.941302,-9844.739029,0.000000,76.609550
4221.941632,-10510.924376,-370.102971,76.609550
4221.941962,-9548.656652,-370.102971,689.485948
4221.942292,-9400.615463,222.061783,459.657299
4221.942621,-10658.965565,222.061783,1225.752797
4221.942951,-10658.965565,444.123565,766.095498
4221.943281,-9918.759623,740.205942,0.000000
4221.943611,-9622.677246,370.102971,-459.657299
4221.943941,-9844.739029,0.000000,-383.047749
4221.944270,-9844.739029,222.061783,383.047749
4221.944600,-10140.821405,148.041188,153.219100
4221.944930,-8956.491898,0.000000,-76.609550
4221.945260,-9178.553681,0.000000,0.000000
4221.945590,-9474.636058,444.123565,-306.438199
4221.945919,-9178.553681,-740.205942,0.000000
4221.946249,-9918.759623,592.164754,1608.800546
4221.946579,-10807.006753,-444.123565,1302.362347
4221.946909,-10510.924376,0.000000,1455.581446
4221.947239,-9474.636058,518.144159,1072.533697
4221.947568,-10362.883188,222.061783,-153.219100
4221.947898,-9474.636058,-296.082377,459.657299
4221.948228,-8882.471304,-444.123565,1762.019645
4221.948558,-9474.636058,-740.205942,1532.190996
4221.948888,-9474.636058,-370.102971,-536.266849
4221.949217,-9030.512492,-518.144159,-536.266849
4221.949547,-9252.574275,-1036.288319,76.609550
4221.949877,-10288.862594,74.020594,842.705048
4221.950207,-9918.759623,-814.226536,536.266849
4221.950537,-10214.842000,148.041188,995.924147
4221.950867,-10066.800811,0.000000,842.705048
4221.951196,-10066.800811,222.061783,459.657299
4221.951526,-10881.027347,0.000000,919.314598
4221.951856,-10881.027347,0.000000,229.828649
4221.952186,-9844.739029,0.000000,536.266849
4221.952516,-9400.615463,222.061783,-459.657299
4221.952845,-9992.780217,-296.082377,-995.924147
4221.953175,-9918.759623,-74.020594,-1225.752797
4221.953505,-9030.512492,-296.082377,-766.095498
4221.953835,-8956.491898,-296.082377,-842.705048
4221.954165,-9104.533087,0.000000,-153.219100
4221.954494,-10214.842000,0.000000,229.828649
4221.954824,-9918.759623,-296.082377,383.047749
4221.955154,-10066.800811,148.041188,766.095498
4221.955484,-9992.780217,148.041188,0.000000
4221.955814,-10140.821405,518.144159,-689.485948
4221.956143,-9548.656652,592.164754,-766.095498
4221.956473,-8882.471304,222.061783,-459.657299
4221.956803,-9030.512492,370.102971,-612.876398
4221.957133,-10140.821405,370.102971,-612.876398
4221.957463,-9918.759623,370.102971,-229.828649
4221.957792,-9992.780217,370.102971,-383.047749
4221.958122,-9474.636058,222.061783,-229.828649
4221.958452,-8956.491898,296.082377,459.657299
4221.958782,-10140.821405,740.205942,1149.143247
4221.959112,-10881.027347,518.144159,1225.752797
4221.959442,-10436.903782,1110.308913,689.485948
4221.959771,-9770.718434,1110.308913,919.314598
4221.960101,-11103.089130,962.267725,0.000000
4221.960431,-10658.965565,0.000000,76.609550
4221.960761,-9400.615463,296.082377,0.000000
4221.961091,-8586.388927,962.267725,-612.876398
4221.961420,-8290.306550,222.061783,-842.705048
4221.961750,-9252.574275,592.164754,-306.438199
4221.962080,-9252.574275,370.102971,229.828649
4221.962410,-10436.903782,1332.370696,689.485948
4221.962740,-10807.006753,1184.329507,459.657299
4221.963069,-10584.944971,666.185348,229.828649
4221.963399,-9770.718434,296.082377,-689.485948
4221.963729,-9030.512492,-592.164754,-76.609550
4221.964059,-9474.636058,444.123565,229.828649
4221.964389,-9770.718434,0.000000,229.828649
4221.964718,-9030.512492,0.000000,-689.485948
4221.965048,-7920.203579,444.123565,-1225.752797
4221.965378,-9696.697840,666.185348,-1378.971896
4221.965708,-10658.965565,740.205942,-1838.629195
4221.966038,-9178.553681,888.247130,-1915.238745
4221.966367,-8438.347739,74.020594,-1302.362347
4221.966697,-8882.471304,0.000000,-1225.752797
4221.967027,-11325.150913,814.226536,76.609550
4221.967357,-10510.924376,0.000000,0.000000
4221.967687,-9104.533087,74.020594,-689.485948
4221.968017,-8882.471304,0.000000,-612.876398
4221.968346,-10288.862594,0.000000,-383.047749
4221.968676,-11103.089130,0.000000,766.095498
4221.969006,-9548.656652,0.000000,919.314598
4221.969336,-9030.512492,296.082377,-306.438199
4221.969666,-9548.656652,666.185348,-842.705048
4221.969995,-10066.800811,1628.453072,-612.876398
4221.970325,-9992.780217,1628.453072,-1532.190996
4221.970655,-11325.150913,2590.720797,-3294.210641
4221.970985,-10955.047942,1480.411884,-3830.477490
4221.971315,-10362.883188,1702.473667,-3217.601092
4221.971644,-9770.718434,1776.494261,-2451.505594
4221.971974,-9400.615463,518.144159,-2834.553343
4221.972304,-8956.491898,296.082377,-2145.067394
4221.972634,-8364.327145,-518.144159,-919.314598
4221.972964,-8142.265362,296.082377,459.657299
4221.973293,-9178.553681,1554.432478,766.095498
4221.973623,-10436.903782,2072.576638,-306.438199
4221.973953,-10955.047942,2368.659014,-2145.067394
4221.974283,-11251.130318,3182.885551,-3064.381992
4221.974613,-11029.068536,2664.741391,-2987.772442
4221.974943,-11251.130318,2294.638420,-2757.943793
4221.975272,-9104.533087,1850.514855,-3140.991542
4221.975602,-7105.977043,2516.700203,-3064.381992
4221.975932,-7698.141797,2886.803174,-2451.505594
4221.976262,-9252.574275,2738.761985,-2681.334243
4221.976592,-9400.615463,2738.761985,-3294.210641
4221.976921,-9992.780217,3034.844362,-3447.429741
4221.977251,-10510.924376,2886.803174,-3064.381992
4221.977581,-10658.965565,3627.009116,-2451.505594
4221.977911,-10584.944971,3108.864956,-2834.553343
4221.978241,-8882.471304,2368.659014,-2834.553343
4221.978570,-7994.224174,2664.741391,-2911.162892
4221.978900,-8660.409521,3182.885551,-2221.676944
4221.979230,-9474.636058,3034.844362,0.000000
4221.979560,-9696.697840,3034.844362,0.000000
4221.979890,-9548.656652,3330.926739,-2145.067394
4221.980219,-9770.718434,3627.009116,-3447.429741
4221.980549,-10140.821405,3182.885551,-4366.744339
4221.980879,-9326.594869,2960.823768,-3447.429741
4221.981209,-8808.450710,4145.153275,-2221.676944
4221.981539,-9696.697840,3923.091493,-2834.553343
4221.981868,-10288.862594,3627.009116,-2604.724693
4221.982198,-10584.944971,3701.029710,-2528.115143
4221.982528,-11103.089130,3775.050304,-1915.238745
4221.982858,-10955.047942,2812.782580,-766.095498
4221.983188,-10288.862594,3256.906145,-1149.143247
4221.983518,-9326.594869,2664.741391,-612.876398
4221.983847,-8882.471304,2442.679609,0.000000
4221.984177,-9992.780217,2146.597232,-1915.238745
4221.984507,-9326.594869,2294.638420,-2911.162892
4221.984837,-8956.491898,1776.494261,-2911.162892
4221.985167,-8808.450710,2442.679609,-2145.067394
4221.985496,-9696.697840,1850.514855,-1225.752797
4221.985826,-10510.924376,2442.679609,-536.266849
4221.986156,-9622.677246,2960.823768,-842.705048
4221.986486,-9548.656652,2368.659014,-1532.190996
4221.986816,-10436.903782,3256.906145,-2451.505594
4221.987145,-10955.047942,1628.453072,-2528.115143
4221.987475,-11547.212695,1850.514855,-1532.190996
4221.987805,-9326.594869,592.164754,-1762.019645
4221.988135,-9548.656652,1184.329507,-3064.381992
4221.988465,-8734.430116,296.082377,-3447.429741
4221.988795,-7328.038826,1406.391290,-1991.848295
4221.989124,-7476.080014,592.164754,-1225.752797
4221.989454,-9474.636058,1406.391290,-1532.190996
4221.989784,-10584.944971,1628.453072,459.657299
4221.990114,-11621.233289,3108.864956,612.876398
4221.990444,-12139.377449,2590.720797,-919.314598
4221.990773,-11547.212695,1776.494261,-2987.772442
4221.991103,-9622.677246,962.267725,-3753.867940
4221.991433,-9178.553681,740.205942,-3983.696590
4221.991763,-9178.553681,444.123565,-2374.896044
4221.992093,-8586.388927,518.144159,-536.266849
4221.992423,-7772.162391,370.102971,-1532.190996
4221.992752,-9178.553681,1036.288319,-3064.381992
4221.993082,-10436.903782,1702.473667,-1991.848295
4221.993412,-12139.377449,2220.617826,-1302.362347
4221.993742,-11325.150913,2738.761985,-536.266849
4221.994072,-11103.089130,2442.679609,-995.924147
4221.994402,-10362.883188,2294.638420,-1072.533697
4221.994731,-9992.780217,1924.535449,-2068.457845
4221.995061,-9548.656652,1332.370696,-2757.943793
4221.995391,-9252.574275,888.247130,-2757.943793
4221.995721,-8882.471304,592.164754,-2681.334243
4221.996051,-8068.244768,0.000000,-1838.629195
4221.996381,-7550.100608,888.247130,-689.485948
4221.996710,-9030.512492,1628.453072,-383.047749
4221.997040,-10140.821405,2146.597232,-1072.533697
4221.997370,-10510.924376,2886.803174,-1378.971896
4221.997700,-10732.986159,3330.926739,-2145.067394
4221.998030,-11177.109724,3478.967927,-1762.019645
4221.998360,-11177.109724,2664.741391,-1532.190996
4221.998689,-9474.636058,1998.556043,-2987.772442
4221.999019,-8438.347739,1036.288319,-3064.381992
4221.999349,-7624.121203,1036.288319,-2528.115143
4221.999679,-7550.100608,1110.308913,-2374.896044
4222.000009,-7402.059420,1776.494261,-1685.410096
4222.000339,-8290.306550,1924.535449,-1225.752797
4222.000668,-10362.883188,3108.864956,-1225.752797
4222.000998,-11843.295072,3404.947333,-1149.143247
4222.001328,-11769.274478,3701.029710,-1685.410096
4222.001658,-11029.068536,3108.864956,-2298.286494
4222.001988,-10732.986159,2664.741391,-2757.943793
4222.002318,-10436.903782,2516.700203,-2145.067394
4222.002647,-9326.594869,1850.514855,-1302.362347
4222.002977,-9178.553681,2738.761985,-1608.800546
4222.003307,-7476.080014,2072.576638,-2987.772442
4222.003637,-8142.265362,2368.659014,-1608.800546
4222.003967,-9844.739029,2368.659014,-1532.190996
4222.004297,-10362.883188,2738.761985,-1378.971896
4222.004626,-9400.615463,2368.659014,-2374.896044
4222.004956,-10584.944971,2812.782580,-1915.238745
4222.005286,-11251.130318,3108.864956,-1378.971896
4222.005616,-10955.047942,2960.823768,-612.876398
4222.005946,-10362.883188,2812.782580,-459.657299
4222.006275,-9770.718434,2738.761985,-1532.190996
4222.006605,-10214.842000,2368.659014,-2221.676944
4222.006935,-9770.718434,2294.638420,-2451.505594
4222.007265,-9992.780217,2516.700203,-1762.019645
4222.007595,-8660.409521,2146.597232,-1455.581446
4222.007925,-8438.347739,1776.494261,-3370.820191
4222.008254,-8956.491898,2146.597232,-3140.991542
4222.008584,-9474.636058,2664.741391,-3370.820191
4222.008914,-10214.842000,2590.720797,-2374.896044
4222.009244,-10214.842000,2516.700203,-1608.800546
4222.009574,-9918.759623,2368.659014,-1608.800546
4222.009904,-9696.697840,1998.556043,-1378.971896
4222.010233,-9770.718434,1998.556043,-1225.752797
4222.010563,-9844.739029,1776.494261,-2145.067394
4222.010893,-9770.718434,1628.453072,-2451.505594
4222.011223,-9400.615463,1776.494261,-2987.772442
4222.011553,-9030.512492,1776.494261,-2757.943793
4222.011883,-9252.574275,2072.576638,-2298.286494
4222.012212,-9252.574275,2072.576638,-1838.629195
4222.012542,-9622.677246,2294.638420,-2604.724693
4222.012872,-10140.821405,1702.473667,-3217.601092
4222.013202,-9770.718434,2072.576638,-3294.210641
4222.013532,-9696.697840,1924.535449,-1455.581446
4222.013862,-9622.677246,1924.535449,-842.705048
4222.014191,-9622.677246,1480.411884,-995.924147
4222.014521,-9474.636058,962.267725,-1225.752797
4222.014851,-9252.574275,1258.350101,-1838.629195
4222.015181,-9400.615463,1406.391290,-2298.286494
4222.015511,-10066.800811,1776.494261,-1455.581446
4222.015841,-10214.842000,1998.556043,-1225.752797
4222.016170,-9548.656652,2442.679609,-1225.752797
4222.016500,-10288.862594,2738.761985,-1762.019645
4222.016830,-10881.027347,2590.720797,-2374.896044
4222.017160,-10510.924376,2516.700203,-2528.115143
4222.017490,-10288.862594,1924.535449,-2681.334243
4222.017820,-9400.615463,1110.308913,-1378.971896
4222.018149,-9474.636058,1110.308913,153.219100
4222.018479,-9104.533087,444.123565,383.047749
4222.018809,-8660.409521,1110.308913,-1302.362347
4222.019139,-8438.347739,1110.308913,-2451.505594
4222.019469,-9178.553681,1924.535449,-2451.505594
4222.019799,-10214.842000,2220.617826,-1378.971896
4222.020128,-11177.109724,2812.782580,383.047749
4222.020458,-10807.006753,2812.782580,0.000000
4222.020788,-10214.842000,2368.659014,-1991.848295
4222.021118,-10140.821405,2368.659014,-3064.381992
4222.021448,-9696.697840,1628.453072,-3524.039291
4222.021777,-9770.718434,1110.308913,-2911.162892
4222.022107,-8660.409521,1110.308913,-1302.362347
4222.022437,-8290.306550,1406.391290,-612.876398
4222.022767,-8660.409521,1776.494261,-1838.629195
4222.023097,-9622.677246,2072.576638,-2221.676944
4222.023427,-10140.821405,2146.597232,-3217.601092
4222.023756,-10214.842000,2368.659014,-2987.772442
4222.024086,-10436.903782,2368.659014,-2221.676944
4222.024416,-10362.883188,2516.700203,-995.924147
4222.024746,-9696.697840,2368.659014,-1378.971896
4222.025076,-9992.780217,2220.617826,-1685.410096
4222.025406,-9548.656652,1628.453072,-2757.943793
4222.025735,-8882.471304,1480.411884,-3140.991542
4222.026065,-9178.553681,1554.432478,-2298.286494
4222.026395,-9252.574275,1924.535449,-1225.752797
4222.026725,-8882.471304,1776.494261,-1991.848295
4222.027055,-8808.450710,2442.679609,-2374.896044
4222.027385,-10066.800811,2442.679609,-2451.505594
4222.027714,-11325.150913,2738.761985,-2374.896044
4222.028044,-10881.027347,2812.782580,-2221.676944
4222.028374,-10066.800811,2368.659014,-1685.410096
4222.028704,-9622.677246,2146.597232,-1838.629195
4222.029034,-9992.780217,1702.473667,-1072.533697
4222.029364,-9696.697840,1554.432478,-1225.752797
4222.029693,-8956.491898,1480.411884,-1915.238745
4222.030023,-8438.347739,1184.329507,-2068.457845
4222.030353,-8512.368333,1628.453072,-1532.190996
4222.030683,-9696.697840,2220.617826,-995.924147
4222.031013,-10140.821405,2590.720797,-1455.581446
4222.031343,-10510.924376,2590.720797,-1838.629195
4222.031672,-11029.068536,2738.761985,-2221.676944
4222.032002,-10807.006753,2146.597232,-1455.581446
4222.032332,-10362.883188,2072.576638,-459.657299
4222.032662,-9992.780217,1776.494261,-229.828649
4222.032992,-9400.615463,1332.370696,-842.705048
4222.033322,-9104.533087,962.267725,-1072.533697
4222.033651,-9400.615463,1406.391290,-1685.410096
4222.033981,-9400.615463,1480.411884,-1915.238745
4222.034311,-8882.471304,1480.411884,-2451.505594
4222.034641,-8808.450710,1776.494261,-2987.772442
4222.034971,-9178.553681,1702.473667,-2451.505594
4222.035301,-10066.800811,1554.432478,-919.314598
4222.035630,-10584.944971,2220.617826,-459.657299
4222.035960,-9992.780217,1332.370696,-1838.629195
4222.036290,-9326.594869,1258.350101,-3140.991542
4222.036620,-9252.574275,962.267725,-2681.334243
4222.036950,-9696.697840,1480.411884,-1072.533697
4222.037280,-9622.677246,1480.411884,-1149.143247
4222.037609,-8882.471304,1406.391290,-1608.800546
4222.037939,-8660.409521,1554.432478,-2451.505594
4222.038269,-9548.656652,1850.514855,-2681.334243
4222.038599,-10362.883188,2146.597232,-3064.381992
4222.038929,-10288.862594,2294.638420,-2757.943793
4222.039258,-9474.636058,2368.659014,-2911.162892
4222.039588,-9992.780217,2368.659014,-1991.848295
4222.039918,-10214.842000,1628.453072,-1149.143247
4222.040248,-10732.986159,2294.638420,-1302.362347
4222.040578,-9992.780217,2072.576638,-2068.457845
4222.040908,-9844.739029,1554.432478,-2451.505594
4222.041237,-9474.636058,2220.617826,-2528.115143
4222.041567,-9548.656652,2442.679609,-2374.896044
4222.041897,-9326.594869,2516.700203,-2451.505594
4222.042227,-9326.594869,2590.720797,-2911.162892
4222.042557,-9918.759623,2812.782580,-2987.772442
4222.042887,-10436.903782,3108.864956,-2068.457845
4222.043216,-11029.068536,3775.050304,-1685.410096
4222.043546,-10658.965565,3256.906145,-1762.019645
4222.043876,-9770.718434,3108.864956,-2374.896044
4222.044206,-9548.656652,2738.761985,-2451.505594
4222.044536,-9844.739029,2590.720797,-1685.410096
4222.044866,-10066.800811,2516.700203,-766.095498
4222.045195,-9474.636058,2812.782580,-1302.362347
4222.045525,-8290.306550,3034.844362,-2987.772442
4222.045855,-8734.430116,3478.967927,-4136.915689
4222.046185,-9844.739029,3478.967927,-3064.381992
4222.046515,-10362.883188,3701.029710,-1685.410096
4222.046845,-10362.883188,3701.029710,-1608.800546
4222.047174,-9696.697840,3552.988522,-842.705048
4222.047504,-9252.574275,2590.720797,-1378.971896
4222.047834,-10066.800811,2590.720797,-1149.143247
4222.048164,-9844.739029,2220.617826,-1685.410096
4222.048494,-9030.512492,2294.638420,-2374.896044
4222.048824,-8364.327145,2442.679609,-2911.162892
4222.049153,-8290.306550,2738.761985,-2374.896044
4222.049483,-9252.574275,3182.885551,-1915.238745
4222.049813,-9844.739029,3701.029710,-3064.381992
4222.050143,-10066.800811,2886.803174,-2451.505594
4222.050473,-10140.821405,2960.823768,-1915.238745
4222.050803,-10732.986159,2886.803174,-689.485948
4222.051132,-10658.965565,3182.885551,-1149.143247
4222.051462,-9770.718434,2294.638420,-1532.190996
4222.051792,-9104.533087,1702.473667,-2834.553343
4222.052122,-8956.491898,1628.453072,-3140.991542
4222.052452,-9252.574275,1776.494261,-1685.410096
4222.052782,-9178.553681,1332.370696,-612.876398
4222.053111,-9030.512492,1702.473667,-766.095498
4222.053441,-9844.739029,2220.617826,-1685.410096
4222.053771,-10807.006753,2294.638420,-2834.553343
4222.054101,-11103.089130,2368.659014,-2911.162892
4222.054431,-10955.047942,2220.617826,-2451.505594
4222.054760,-10658.965565,1406.391290,-459.657299
4222.055090,-9252.574275,666.185348,-229.828649
4222.055420,-8882.471304,962.267725,-1225.752797
4222.055750,-9178.553681,444.123565,-1915.238745
4222.056080,-9030.512492,0.000000,-2604.724693
4222.056410,-9474.636058,222.061783,-1455.581446
4222.056739,-9622.677246,296.082377,-689.485948
4222.057069,-9622.677246,1036.288319,0.000000
4222.057399,-10362.883188,1480.411884,-229.828649
4222.057729,-10584.944971,1406.391290,-1915.238745
4222.058059,-10658.965565,1110.308913,-2681.334243
4222.058389,-10881.027347,1850.514855,-3217.601092
4222.058718,-10807.006753,1406.391290,-1762.019645
4222.059048,-9770.718434,1258.350101,-1455.581446
4222.059378,-8438.347739,814.226536,-2528.115143
4222.059708,-7476.080014,444.123565,-2834.553343
4222.060038,-9400.615463,222.061783,-2451.505594
4222.060368,-9844.739029,740.205942,-766.095498
4222.060697,-9548.656652,592.164754,-459.657299
4222.061027,-9326.594869,2072.576638,-1149.143247
4222.061357,-9696.697840,1998.556043,-1302.362347
4222.061687,-11547.212695,2368.659014,-1302.362347
4222.062017,-12435.459826,2886.803174,-2528.115143
4222.062347,-11103.089130,2516.700203,-2834.553343
4222.062676,-9622.677246,2368.659014,-2834.553343
4222.063006,-8956.491898,2368.659014,-2451.505594
4222.063336,-9104.533087,1998.556043,-1991.848295
4222.063666,-8364.327145,2146.597232,-3907.087040
4222.063996,-8216.285956,2294.638420,-4903.011187
4222.064326,-8512.368333,1776.494261,-2987.772442
4222.064655,-9474.636058,2294.638420,-1149.143247
4222.064985,-10288.862594,2294.638420,-766.095498
4222.065315,-10362.883188,2886.803174,-766.095498
4222.065645,-9844.739029,3330.926739,-1608.800546
4222.065975,-10362.883188,2812.782580,-1762.019645
4222.066305,-10140.821405,3182.885551,-1838.629195
4222.066634,-9844.739029,2516.700203,-1608.800546
4222.066964,-9104.533087,2960.823768,-1685.410096
4222.067294,-8882.471304,2442.679609,-2298.286494
4222.067624,-9252.574275,3034.844362,-2451.505594
4222.067954,-9474.636058,2516.700203,-2911.162892
4222.068284,-9030.512492,3034.844362,-3064.381992
4222.068613,-8660.409521,2738.761985,-2911.162892
4222.068943,-9548.656652,3552.988522,-2528.115143
4222.069273,-9992.780217,3552.988522,-1608.800546
4222.069603,-10066.800811,3923.091493,-1149.143247
4222.069933,-9770.718434,3182.885551,-1532.190996
4222.070262,-9252.574275,2590.720797,-1532.190996
4222.070592,-10584.944971,2738.761985,-689.485948
4222.070922,-10436.903782,2664.741391,-536.266849
4222.071252,-9474.636058,2738.761985,-1915.238745
4222.071582,-8660.409521,2220.617826,-2834.553343
4222.071912,-8882.471304,2590.720797,-2911.162892
4222.072241,-9252.574275,2516.700203,-2834.553343
4222.072571,-10140.821405,2738.761985,-2528.115143
4222.072901,-9474.636058,2664.741391,-2221.676944
4222.073231,-9474.636058,2590.720797,-2068.457845
4222.073561,-10362.883188,2960.823768,-2221.676944
4222.073891,-10584.944971,2516.700203,-1455.581446
4222.074220,-10140.821405,2368.659014,-919.314598
4222.074550,-9104.533087,1998.556043,-2145.067394
4222.074880,-9400.615463,2146.597232,-2757.943793
4222.075210,-9696.697840,1554.432478,-2221.676944
4222.075540,-9622.677246,1850.514855,-1532.190996
4222.075870,-10066.800811,2368.659014,-1072.533697
4222.076199,-9770.718434,2220.617826,-1991.848295
4222.076529,-10510.924376,2442.679609,-2221.676944
4222.076859,-10140.821405,2146.597232,-2145.067394
4222.077189,-10510.924376,1998.556043,-1378.971896
4222.077519,-10066.800811,2368.659014,-1608.800546
4222.077849,-10214.842000,1850.514855,-2374.896044
4222.078178,-9844.739029,1628.453072,-2757.943793
4222.078508,-9030.512492,962.267725,-2604.724693
4222.078838,-8364.327145,1110.308913,-2374.896044
4222.079168,-8586.388927,666.185348,-1149.143247
4222.079498,-10436.903782,2072.576638,-153.219100
4222.079828,-10066.800811,1184.329507,-459.657299
4222.080157,-10288.862594,1628.453072,-1072.533697
4222.080487,-10288.862594,2146.597232,-995.924147
4222.080817,-10288.862594,2220.617826,-1455.581446
4222.081147,-10658.965565,2294.638420,-1302.362347
4222.081477,-10436.903782,2442.679609,-1991.848295
4222.081807,-10140.821405,2368.659014,-2221.676944
4222.082136,-9104.533087,1850.514855,-4060.306139
4222.082466,-8660.409521,1258.350101,-3677.258390
4222.082796,-8882.471304,814.226536,-2221.676944
4222.083126,-9030.512492,1110.308913,-1149.143247
4222.083456,-8364.327145,444.123565,-612.876398
4222.083786,-9770.718434,592.164754,0.000000
4222.084115,-9992.780217,1406.391290,-1378.971896
4222.084445,-9326.594869,962.267725,-919.314598
4222.084775,-9770.718434,1702.473667,229.828649
4222.085105,-10955.047942,2072.576638,1915.238745
4222.085435,-10807.006753,1924.535449,-383.047749
4222.085764,-9696.697840,2072.576638,-2528.115143
4222.086094,-8808.450710,1998.556043,-4519.963438
4222.086424,-8586.388927,1480.411884,-3983.696590
4222.086754,-9474.636058,1776.494261,-2757.943793
4222.087084,-9622.677246,2146.597232,-1149.143247
4222.087414,-8142.265362,1776.494261,-2221.676944
4222.087743,-8734.430116,1998.556043,-3600.648841
4222.088073,-10362.883188,1554.432478,-3600.648841
4222.088403,-11399.171507,1554.432478,-2681.334243
4222.088733,-9622.677246,1702.473667,-1455.581446
4222.089063,-9030.512492,1480.411884,383.047749
4222.089393,-9400.615463,1036.288319,1072.533697
4222.089722,-10584.944971,1924.535449,229.828649
4222.090052,-9918.759623,1480.411884,-1838.629195
4222.090382,-9474.636058,1332.370696,-3677.258390
4222.090712,-9474.636058,1850.514855,-3140.991542
4222.091041,-10066.800811,1184.329507,-1608.800546
4222.091371,-9622.677246,1406.391290,-612.876398
4222.091701,-9474.636058,1332.370696,-459.657299
4222.092030,-10066.800811,1702.473667,-1915.238745
4222.092360,-11103.089130,2738.761985,-2374.896044
4222.092690,-10214.842000,2294.638420,-3140.991542
4222.093019,-9918.759623,1924.535449,-2757.943793
4222.093349,-9622.677246,2072.576638,-1302.362347
4222.093679,-9696.697840,1628.453072,459.657299
4222.094008,-9918.759623,1184.329507,-612.876398
4222.094338,-9622.677246,370.102971,-1532.190996
4222.094668,-9104.533087,888.247130,-919.314598
4222.094997,-9326.594869,370.102971,76.609550
4222.095327,-9548.656652,740.205942,306.438199
4222.095657,-9030.512492,444.123565,919.314598
4222.095986,-9548.656652,518.144159,612.876398
4222.096316,-9030.512492,1036.288319,306.438199
4222.096646,-9548.656652,666.185348,76.609550
4222.096975,-9992.780217,740.205942,383.047749
4222.097305,-10362.883188,1480.411884,612.876398
4222.097635,-9696.697840,814.226536,842.705048
4222.097964,-9178.553681,0.000000,-76.609550
4222.098294,-9400.615463,740.205942,-689.485948
4222.098624,-10288.862594,1036.288319,-306.438199
4222.098953,-10584.944971,1110.308913,-536.266849
4222.099283,-9770.718434,740.205942,-536.266849
4222.099613,-9030.512492,0.000000,153.219100
4222.099942,-9474.636058,666.185348,1532.190996
4222.100272,-9474.636058,888.247130,1991.848295
4222.100602,-10140.821405,148.041188,1378.971896
4222.100931,-10436.903782,518.144159,612.876398
4222.101261,-11177.109724,-296.082377,919.314598
4222.101591,-11251.130318,-370.102971,383.047749
4222.101920,-8956.491898,-1332.370696,-153.219100
4222.102250,-7550.100608,-1554.432478,153.219100
4222.102580,-8438.347739,-1702.473667,306.438199
4222.102909,-9622.677246,-370.102971,153.219100
4222.103239,-9400.615463,-814.226536,153.219100
4222.103569,-9474.636058,0.000000,76.609550
4222.103898,-10066.800811,444.123565,1378.971896
4222.104228,-11843.295072,740.205942,2374.896044
4222.104558,-12805.562797,296.082377,1532.190996
4222.104887,-10362.883188,-740.205942,-383.047749
4222.105217,-9474.636058,-1332.370696,-1149.143247
4222.105547,-9622.677246,-1554.432478,-766.095498
4222.105876,-10066.800811,-1258.350101,995.924147
4222.106206,-9030.512492,-1184.329507,2068.457845
4222.106536,-7550.100608,-1258.350101,919.314598
4222.106865,-8364.327145,-888.247130,-306.438199
4222.107195,-10362.883188,-666.185348,-689.485948
4222.107525,-12139.377449,0.000000,383.047749
4222.107854,-10658.965565,-296.082377,995.924147
4222.108184,-9992.780217,-814.226536,1225.752797
4222.108514,-9030.512492,-814.226536,306.438199
4222.108843,-10214.842000,-1480.411884,-229.828649
4222.109173,-10732.986159,-740.205942,-612.876398
4222.109503,-8882.471304,-1924.535449,-383.047749
4222.109832,-9178.553681,-444.123565,536.266849
4222.110162,-8956.491898,-1110.308913,1225.752797
4222.110492,-9622.677246,0.000000,1532.190996
4222.110821,-10140.821405,-148.041188,919.314598
4222.111151,-10140.821405,444.123565,-1302.362347
4222.111481,-10214.842000,-74.020594,-1915.238745
4222.111810,-11029.068536,0.000000,-689.485948
4222.112140,-10436.903782,370.102971,1532.190996
4222.112470,-9992.780217,-148.041188,1225.752797
4222.112799,-9326.594869,0.000000,-306.438199
4222.113129,-8438.347739,-1110.308913,-995.924147
4222.113459,-8586.388927,-444.123565,-153.219100
4222.113788,-9400.615463,0.000000,689.485948
4222.114118,-10658.965565,888.247130,1302.362347
4222.114448,-9326.594869,370.102971,459.657299
4222.114777,-9178.553681,740.205942,-306.438199
4222.115107,-9918.759623,148.041188,-766.095498
4222.115437,-10732.986159,1258.350101,-995.924147
4222.115766,-12065.356855,1110.308913,-995.924147
4222.116096,-9474.636058,666.185348,-1072.533697
4222.116426,-8660.409521,666.185348,0.000000
4222.116755,-8512.368333,962.267725,459.657299
4222.117085,-10140.821405,444.123565,0.000000
4222.117415,-10214.842000,740.205942,-1149.143247
4222.117744,-8956.491898,1258.350101,0.000000
4222.118074,-9770.718434,814.226536,536.266849
4222.118404,-9474.636058,814.226536,0.000000
4222.118733,-9474.636058,1480.411884,-306.438199
4222.119063,-9400.615463,1110.308913,-842.705048
4222.119393,-9770.718434,1036.288319,-229.828649
4222.119722,-9548.656652,518.144159,-383.047749
4222.120052,-9844.739029,814.226536,229.828649
4222.120382,-9326.594869,1998.556043,612.876398
4222.120711,-9474.636058,888.247130,1685.410096
4222.121041,-9918.759623,814.226536,612.876398
4222.121371,-10362.883188,148.041188,153.219100
4222.121700,-9178.553681,814.226536,-153.219100
4222.122030,-8808.450710,814.226536,0.000000
4222.122360,-10510.924376,814.226536,229.828649
4222.122689,-10658.965565,814.226536,383.047749
4222.123019,-10288.862594,962.267725,383.047749
4222.123349,-9252.574275,1036.288319,-612.876398
4222.123678,-9400.615463,0.000000,-536.266849
4222.124008,-11029.068536,444.123565,1072.533697
4222.124338,-10584.944971,0.000000,1685.410096
4222.124667,-9474.636058,666.185348,766.095498
4222.124997,-8438.347739,0.000000,-689.485948
4222.125327,-10140.821405,592.164754,-995.924147
4222.125656,-11029.068536,0.000000,459.657299
4222.125986,-10362.883188,74.020594,766.095498
4222.126316,-8956.491898,-370.102971,459.657299
4222.126645,-9474.636058,-666.185348,229.828649
4222.126975,-10066.800811,-518.144159,459.657299
4222.127305,-10140.821405,-1110.308913,1378.971896
4222.127634,-9548.656652,-888.247130,1072.533697
4222.127964,-7624.121203,-814.226536,689.485948
4222.128294,-10362.883188,-888.247130,1302.362347
4222.128623,-10510.924376,-814.226536,76.609550
4222.128953,-9622.677246,-1554.432478,459.657299
4222.129283,-9326.594869,-518.144159,0.000000
4222.129612,-9548.656652,-1480.411884,0.000000
4222.129942,-10510.924376,-518.144159,0.000000
4222.130272,-8956.491898,-1776.494261,153.219100
4222.130601,-9844.739029,-592.164754,0.000000
4222.130931,-9844.739029,-814.226536,229.828649
4222.131261,-10436.903782,-740.205942,-383.047749
4222.131590,-9548.656652,-1036.288319,-689.485948
4222.131920,-9178.553681,-666.185348,229.828649
4222.132250,-9992.780217,74.020594,229.828649
4222.132579,-10732.986159,-1110.308913,153.219100
4222.132909,-9918.759623,-222.061783,-1072.533697
4222.133239,-9178.553681,-1036.288319,-612.876398
4222.133568,-10288.862594,0.000000,-842.705048
4222.133898,-10362.883188,-888.247130,306.438199
4222.134228,-9770.718434,-518.144159,459.657299
4222.134557,-8586.388927,-666.185348,306.438199
4222.134887,-9622.677246,-370.102971,0.000000
4222.135217,-9918.759623,-222.061783,459.657299
4222.135546,-9918.759623,-370.102971,306.438199
4222.135876,-10658.965565,148.041188,153.219100
4222.136206,-9992.780217,-518.144159,536.266849
4222.136535,-9770.718434,666.185348,995.924147
4222.136865,-9030.512492,0.000000,766.095498
4222.137195,-9474.636058,518.144159,0.000000
4222.137524,-9548.656652,370.102971,-383.047749
4222.137854,-9622.677246,296.082377,-153.219100
4222.138184,-9992.780217,888.247130,995.924147
4222.138513,-10214.842000,740.205942,842.705048
4222.138843,-10140.821405,888.247130,76.609550
4222.139173,-8882.471304,296.082377,-459.657299
4222.139502,-9696.697840,1036.288319,-306.438199
4222.139832,-9918.759623,592.164754,229.828649
4222.140162,-10140.821405,1036.288319,919.314598
4222.140491,-9474.636058,962.267725,995.924147
4222.140821,-9696.697840,962.267725,1072.533697
4222.141151,-10510.924376,518.144159,0.000000
4222.141480,-9400.615463,0.000000,-459.657299
4222.141810,-9252.574275,666.185348,153.219100
4222.142140,-9252.574275,740.205942,1455.581446
4222.142469,-10066.800811,814.226536,1302.362347
4222.142799,-10140.821405,1036.288319,1072.533697
4222.143129,-9326.594869,814.226536,-383.047749
4222.143458,-10214.842000,740.205942,-919.314598
4222.143788,-10436.903782,666.185348,-842.705048
4222.144118,-9104.533087,74.020594,0.000000
4222.144447,-9326.594869,1406.391290,1608.800546
4222.144777,-10510.924376,814.226536,1378.971896
4222.145107,-11177.109724,444.123565,0.000000
4222.145436,-9474.636058,222.061783,-1378.971896
4222.145766,-8586.388927,666.185348,-1685.410096
4222.146096,-10807.006753,592.164754,153.219100
4222.146425,-10510.924376,296.082377,536.266849
4222.146755,-8956.491898,-370.102971,612.876398
4222.147085,-8216.285956,0.000000,-153.219100
4222.147414,-10214.842000,666.185348,-459.657299
4222.147744,-11473.192101,444.123565,-229.828649
4222.148074,-9474.636058,0.000000,-612.876398
4222.148403,-7994.224174,0.000000,-612.876398
4222.148733,-9622.677246,0.000000,1149.143247
4222.149063,-11029.068536,-296.082377,1532.190996
4222.149392,-10140.821405,0.000000,153.219100
4222.149722,-8882.471304,-666.185348,-1378.971896
4222.150052,-9474.636058,-74.020594,-1149.143247
4222.150381,-10214.842000,-592.164754,0.000000
4222.150711,-9992.780217,0.000000,1378.971896
4222.151041,-8660.409521,-370.102971,689.485948
4222.151370,-9770.718434,74.020594,766.095498
4222.151700,-9770.718434,0.000000,0.000000
4222.152030,-11029.068536,74.020594,76.609550
4222.152359,-9918.759623,-74.020594,383.047749
4222.152689,-9696.697840,-592.164754,383.047749
4222.153019,-10066.800811,222.061783,612.876398
4222.153348,-9770.718434,-518.144159,919.314598
4222.153678,-9474.636058,0.000000,842.705048
4222.154008,-9252.574275,-370.102971,229.828649
4222.154337,-10140.821405,0.000000,153.219100
4222.154667,-9992.780217,-444.123565,76.609550
4222.154997,-9548.656652,-962.267725,612.876398
4222.155326,-10140.821405,-222.061783,1838.629195
4222.155656,-11103.089130,-1036.288319,2145.067394
4222.155986,-9844.739029,-666.185348,1149.143247
4222.156315,-7550.100608,-1332.370696,0.000000
4222.156645,-9252.574275,-1036.288319,229.828649
4222.156975,-10288.862594,-1628.453072,1225.752797
4222.157304,-10955.047942,-1332.370696,1685.410096
4222.157634,-8512.368333,-1480.411884,1532.190996
4222.157964,-9030.512492,-962.267725,1302.362347
4222.158293,-10362.883188,-962.267725,1608.800546
4222.158623,-10362.883188,-1184.329507,383.047749
4222.158953,-9400.615463,0.000000,229.828649
4222.159282,-9548.656652,-666.185348,153.219100
4222.159612,-10955.047942,0.000000,383.047749
4222.159942,-10510.924376,-666.185348,459.657299
4222.160271,-9252.574275,-666.185348,0.000000
4222.160601,-8660.409521,-518.144159,-612.876398
4222.160931,-9548.656652,-1036.288319,76.609550
4222.161260,-10807.006753,-666.185348,306.438199
4222.161590,-9844.739029,-740.205942,689.485948
4222.161920,-9178.553681,-296.082377,229.828649
4222.162249,-8660.409521,-74.020594,76.609550
4222.162579,-9622.677246,0.000000,0.000000
4222.162909,-9844.739029,0.000000,0.000000
4222.163238,-10584.944971,0.000000,536.266849
4222.163568,-10510.924376,296.082377,842.705048
4222.163898,-9474.636058,-518.144159,153.219100
4222.164227,-9030.512492,222.061783,459.657299
4222.164557,-9770.718434,444.123565,536.266849
4222.164887,-10584.944971,814.226536,459.657299
4222.165216,-9696.697840,518.144159,-1378.971896
4222.165546,-9696.697840,888.247130,-1685.410096
4222.165876,-9178.553681,1036.288319,-1302.362347
4222.166205,-10436.903782,1258.350101,766.095498
4222.166535,-10955.047942,1702.473667,383.047749
4222.166865,-10140.821405,1036.288319,-842.705048
4222.167194,-10066.800811,1850.514855,-1225.752797
4222.167524,-9622.677246,1332.370696,0.000000
4222.167854,-10732.986159,1184.329507,-229.828649
4222.168183,-10510.924376,1258.350101,-306.438199
4222.168513,-9844.739029,814.226536,-766.095498
4222.168843,-9030.512492,888.247130,0.000000
4222.169172,-9178.553681,1184.329507,76.609550
4222.169502,-9622.677246,814.226536,612.876398
4222.169832,-10140.821405,296.082377,766.095498
4222.170161,-9918.759623,1184.329507,612.876398
4222.170491,-9252.574275,222.061783,536.266849
4222.170821,-9548.656652,1554.432478,-76.609550
4222.171150,-8808.450710,296.082377,-153.219100
4222.171480,-10066.800811,740.205942,919.314598
4222.171810,-9622.677246,592.164754,1762.019645
4222.172139,-9474.636058,1036.288319,612.876398
4222.172469,-9548.656652,1110.308913,-842.705048
4222.172799,-9548.656652,444.123565,-612.876398
4222.173128,-9918.759623,740.205942,-153.219100
4222.173458,-9252.574275,666.185348,612.876398
4222.173788,-9918.759623,592.164754,153.219100
4222.174117,-9474.636058,518.144159,229.828649
4222.174447,-9474.636058,1110.308913,-383.047749
4222.174777,-9548.656652,222.061783,-919.314598
4222.175106,-10140.821405,222.061783,-76.609550
4222.175436,-9400.615463,222.061783,1149.143247
4222.175766,-9622.677246,-740.205942,2145.067394
4222.176095,-10066.800811,-148.041188,1685.410096
4222.176425,-9918.759623,-592.164754,612.876398
4222.176755,-10214.842000,-666.185348,0.000000
4222.177084,-9030.512492,-814.226536,383.047749
4222.177414,-9918.759623,-444.123565,536.266849
4222.177744,-9770.718434,-296.082377,995.924147
4222.178073,-10288.862594,-814.226536,1608.800546
4222.178403,-10288.862594,0.000000,1608.800546
4222.178733,-10140.821405,-740.205942,766.095498
4222.179062,-11177.109724,-666.185348,-1302.362347
4222.179392,-9696.697840,-1480.411884,-689.485948
4222.179722,-9104.533087,-740.205942,-229.828649
4222.180051,-9178.553681,-962.267725,1378.971896
4222.180381,-10584.944971,-666.185348,2374.896044
4222.180711,-10658.965565,-740.205942,766.095498
4222.181040,-9474.636058,-1776.494261,306.438199
4222.181370,-9178.553681,-814.226536,306.438199
4222.181700,-9992.780217,-1184.329507,1149.143247
4222.182029,-10584.944971,-740.205942,2068.457845
4222.182359,-9548.656652,-1554.432478,1532.190996
4222.182689,-10214.842000,-444.123565,0.000000
4222.183018,-10214.842000,-1480.411884,-919.314598
4222.183348,-10732.986159,-370.102971,-1149.143247
4222.183678,-9178.553681,-962.267725,-306.438199
4222.184007,-8882.471304,-1628.453072,0.000000
4222.184337,-8956.491898,-962.267725,689.485948
4222.184667,-9548.656652,-888.247130,919.314598
4222.184996,-11103.089130,-74.020594,0.000000
4222.185326,-9474.636058,-888.247130,-842.705048
4222.185656,-8956.491898,-296.082377,-229.828649
4222.185985,-8956.491898,74.020594,1072.533697
4222.186315,-9992.780217,74.020594,1302.362347
4222.186645,-9252.574275,0.000000,459.657299
4222.186974,-9474.636058,518.144159,-612.876398
4222.187304,-10214.842000,518.144159,-689.485948
4222.187634,-11029.068536,370.102971,306.438199
4222.187963,-10732.986159,1110.308913,612.876398
4222.188293,-8068.244768,0.000000,0.000000
4222.188623,-9696.697840,888.247130,-766.095498
4222.188952,-9992.780217,592.164754,-536.266849
4222.189282,-10658.965565,814.226536,0.000000
4222.189612,-9770.718434,1628.453072,-229.828649
4222.189941,-9548.656652,1332.370696,-459.657299
4222.190271,-9992.780217,1554.432478,76.609550
4222.190601,-9844.739029,1184.329507,536.266849
4222.190930,-9992.780217,444.123565,76.609550
4222.191260,-9918.759623,296.082377,536.266849
4222.191590,-9696.697840,740.205942,0.000000
4222.191919,-8882.471304,592.164754,-76.609550
4222.192249,-8808.450710,888.247130,612.876398
4222.192579,-9400.615463,1184.329507,536.266849
4222.192908,-10436.903782,962.267725,0.000000
4222.193238,-9696.697840,1628.453072,-1302.362347
4222.193568,-8808.450710,740.205942,-459.657299
4222.193897,-9992.780217,1258.350101,842.705048
4222.194227,-10732.986159,1036.288319,842.705048
4222.194557,-10140.821405,1110.308913,-766.095498
4222.194886,-9326.594869,518.144159,-1378.971896
4222.195216,-9030.512492,666.185348,-1225.752797
4222.195546,-9770.718434,888.247130,76.609550
4222.195875,-9770.718434,1332.370696,306.438199
4222.196205,-9696.697840,370.102971,76.609550
4222.196535,-9252.574275,888.247130,153.219100
4222.196864,-10732.986159,740.205942,383.047749
4222.197194,-10658.965565,0.000000,383.047749
4222.197524,-9474.636058,222.061783,0.000000
4222.197853,-8586.388927,370.102971,0.000000
4222.198183,-10066.800811,0.000000,919.314598
4222.198513,-10362.883188,444.123565,1225.752797
4222.198842,-10732.986159,-370.102971,689.485948
4222.199172,-9770.718434,148.041188,0.000000
4222.199502,-9474.636058,148.041188,-383.047749
4222.199831,-9696.697840,0.000000,-536.266849
4222.200161,-9400.615463,0.000000,536.266849
4222.200491,-10214.842000,0.000000,383.047749
4222.200820,-10584.944971,222.061783,689.485948
4222.201150,-10510.924376,-222.061783,0.000000
4222.201480,-9770.718434,-296.082377,383.047749
4222.201809,-10510.924376,-518.144159,1685.410096
4222.202139,-11103.089130,0.000000,1302.362347
4222.202469,-9918.759623,-962.267725,-306.438199
4222.202798,-8956.491898,-74.020594,-459.657299
4222.203128,-8956.491898,-370.102971,689.485948
4222.203458,-10658.965565,-148.041188,1608.800546
4222.203787,-9770.718434,-666.185348,1149.143247
4222.204117,-10288.862594,-222.061783,0.000000
4222.204447,-9844.739029,-1110.308913,0.000000
4222.204776,-9770.718434,-1258.350101,153.219100
4222.205106,-9548.656652,-1110.308913,612.876398
4222.205435,-8586.388927,-1924.535449,1991.848295
4222.205765,-9178.553681,-1184.329507,1991.848295
4222.206095,-8882.471304,-1480.411884,1455.581446
4222.206424,-10140.821405,-1036.288319,1149.143247
4222.206754,-10288.862594,-592.164754,612.876398
4222.207084,-9770.718434,-592.164754,306.438199
4222.207413,-9696.697840,-370.102971,383.047749
4222.207743,-9548.656652,-592.164754,766.095498
4222.208073,-9844.739029,-740.205942,689.485948
4222.208402,-9770.718434,-518.144159,383.047749
4222.208732,-9474.636058,-222.061783,-536.266849
4222.209062,-9104.533087,-666.185348,-536.266849
4222.209391,-10362.883188,148.041188,-536.266849
4222.209721,-9548.656652,-370.102971,0.000000
4222.210051,-9844.739029,-444.123565,1072.533697
4222.210380,-9770.718434,-296.082377,306.438199
4222.210710,-9918.759623,-888.247130,459.657299
4222.211040,-10436.903782,-296.082377,766.095498
4222.211369,-9326.594869,-370.102971,76.609550
4222.211699,-8882.471304,-296.082377,-383.047749
4222.212029,-8808.450710,592.164754,766.095498
4222.212358,-11177.109724,962.267725,1072.533697
4222.212688,-11769.274478,592.164754,-459.657299
4222.213018,-9844.739029,740.205942,-995.924147
4222.213347,-9622.677246,518.144159,-1225.752797
4222.213677,-9400.615463,666.185348,-1149.143247
4222.214007,-9474.636058,1036.288319,-995.924147
4222.214336,-9474.636058,444.123565,-919.314598
4222.214666,-9474.636058,962.267725,0.000000
4222.214996,-9770.718434,444.123565,-306.438199
4222.215325,-10807.006753,814.226536,-383.047749
4222.215655,-10214.842000,592.164754,306.438199
4222.215985,-9252.574275,0.000000,383.047749
4222.216314,-9178.553681,888.247130,766.095498
4222.216644,-10436.903782,518.144159,459.657299
4222.216974,-9918.759623,666.185348,153.219100
4222.217303,-8364.327145,666.185348,153.219100
4222.217633,-10288.862594,1406.391290,0.000000
4222.217963,-10658.965565,1036.288319,0.000000
4222.218292,-10436.903782,962.267725,383.047749
4222.218622,-8068.244768,0.000000,459.657299
4222.218952,-8660.409521,0.000000,0.000000
4222.219281,-9844.739029,370.102971,153.219100
4222.219611,-9918.759623,-592.164754,76.609550
4222.219941,-8438.347739,370.102971,229.828649
4222.220270,-8586.388927,296.082377,1072.533697
4222.220600,-11177.109724,814.226536,459.657299
4222.220930,-11325.150913,888.247130,153.219100
4222.221259,-10584.944971,444.123565,919.314598
4222.221589,-9770.718434,592.164754,1532.190996
4222.221918,-9918.759623,740.205942,689.485948
4222.222248,-10066.800811,740.205942,-612.876398
4222.222578,-8956.491898,-222.061783,-1302.362347
4222.222907,-9400.615463,962.267725,-766.095498
4222.223237,-10214.842000,0.000000,766.095498
4222.223567,-10732.986159,444.123565,612.876398
4222.223896,-8956.491898,-370.102971,229.828649
4222.224226,-8808.450710,0.000000,-153.219100
4222.224556,-9770.718434,444.123565,-306.438199
4222.224885,-10584.944971,666.185348,229.828649
4222.225215,-10584.944971,814.226536,229.828649
4222.225545,-9622.677246,592.164754,0.000000
4222.225874,-10510.924376,814.226536,153.219100
4222.226204,-11103.089130,0.000000,536.266849
4222.226534,-9622.677246,-444.123565,-536.266849
4222.226863,-8216.285956,-740.205942,-1685.410096
4222.227193,-8364.327145,-666.185348,-1685.410096
4222.227523,-9770.718434,0.000000,153.219100
4222.227852,-9548.656652,-296.082377,306.438199
4222.228182,-9400.615463,148.041188,306.438199
4222.228512,-8956.491898,-370.102971,153.219100
4222.228841,-10658.965565,0.000000,766.095498
4222.229171,-10807.006753,-222.061783,842.705048
4222.229501,-10732.986159,0.000000,689.485948
4222.229830,-9400.615463,-888.247130,842.705048
4222.230160,-8364.327145,-1184.329507,536.266849
4222.230490,-8882.471304,-666.185348,1072.533697
4222.230819,-9696.697840,-518.144159,995.924147
4222.231149,-10436.903782,-370.102971,1072.533697
4222.231479,-8734.430116,-814.226536,383.047749
4222.231808,-8882.471304,0.000000,-995.924147
4222.232138,-10658.965565,74.020594,-383.047749
4222.232468,-11917.315666,296.082377,306.438199
4222.232797,-9770.718434,-444.123565,842.705048
4222.233127,-9252.574275,-296.082377,-229.828649
4222.233457,-9252.574275,0.000000,459.657299
4222.233786,-10658.965565,-666.185348,1302.362347
4222.234116,-10362.883188,962.267725,1072.533697
4222.234446,-9770.718434,-962.267725,459.657299
4222.234775,-10140.821405,-296.082377,306.438199
4222.235105,-9622.677246,-1480.411884,612.876398
4222.235435,-10510.924376,-666.185348,1302.362347
4222.235764,-8956.491898,-814.226536,1149.143247
4222.236094,-9252.574275,0.000000,842.705048
4222.236424,-9844.739029,-222.061783,842.705048
4222.236753,-9844.739029,222.061783,153.219100
4222.237083,-10732.986159,740.205942,1685.410096
4222.237412,-10807.006753,518.144159,229.828649
4222.237742,-10807.006753,592.164754,-383.047749
4222.238072,-8438.347739,-444.123565,-766.095498
4222.238401,-9178.553681,0.000000,-689.485948
4222.238731,-9844.739029,222.061783,-842.705048
4222.239061,-10732.986159,0.000000,0.000000
4222.239390,-9326.594869,666.185348,306.438199
4222.239720,-8660.409521,148.041188,536.266849
4222.240050,-10214.842000,1110.308913,612.876398
4222.240379,-10658.965565,592.164754,-229.828649
4222.240709,-10881.027347,888.247130,-1072.533697
4222.241039,-8956.491898,444.123565,-1072.533697
4222.241368,-9400.615463,518.144159,-689.485948
4222.241698,-9400.615463,0.000000,229.828649
4222.242028,-9178.553681,370.102971,689.485948
4222.242357,-9696.697840,518.144159,-459.657299
4222.242687,-9252.574275,-666.185348,-842.705048
4222.243017,-10066.800811,74.020594,-842.705048
4222.243346,-8808.450710,-222.061783,153.219100
4222.243676,-8956.491898,962.267725,842.705048
4222.244006,-10066.800811,888.247130,766.095498
4222.244335,-10140.821405,518.144159,0.000000
4222.244665,-10436.903782,962.267725,0.000000
4222.244995,-9992.780217,592.164754,-383.047749
4222.245324,-10807.006753,0.000000,0.000000
4222.245654,-10732.986159,148.041188,919.314598
4222.245984,-9178.553681,74.020594,1225.752797
4222.246313,-9104.533087,-222.061783,153.219100
4222.246643,-9326.594869,148.041188,-306.438199
4222.246973,-9918.759623,222.061783,76.609550
4222.247302,-10214.842000,814.226536,536.266849
4222.247632,-10066.800811,666.185348,612.876398
4222.247962,-10732.986159,0.000000,1302.362347
4222.248291,-10658.965565,962.267725,2068.457845
4222.248621,-10436.903782,0.000000,612.876398
4222.248951,-9696.697840,74.020594,-229.828649
4222.249280,-8882.471304,592.164754,-1378.971896
4222.249610,-9844.739029,740.205942,-229.828649
4222.249940,-9844.739029,592.164754,-153.219100
4222.250269,-8660.409521,444.123565,-689.485948
4222.250599,-9474.636058,74.020594,-536.266849
4222.250929,-9326.594869,-592.164754,306.438199
4222.251258,-9548.656652,-666.185348,1455.581446
4222.251588,-10214.842000,-370.102971,1225.752797
4222.251918,-10140.821405,-296.082377,76.609550
4222.252247,-9178.553681,-222.061783,229.828649
