#time,accel_x,accel_y,accel_z
4104.998570,-9992.780217,222.061783,306.438199
4104.998900,-9918.759623,0.000000,153.219100
4104.999230,-9770.718434,74.020594,153.219100
4104.999561,-9474.636058,74.020594,-306.438199
4104.999891,-9844.739029,74.020594,229.828649
4105.000221,-9548.656652,0.000000,76.609550
4105.000551,-10214.842000,74.020594,229.828649
4105.000882,-9548.656652,370.102971,0.000000
4105.001212,-9992.780217,0.000000,-76.609550
4105.001542,-9696.697840,0.000000,0.000000
4105.001872,-9474.636058,0.000000,0.000000
4105.002202,-9696.697840,-148.041188,842.705048
4105.002533,-9400.615463,-592.164754,919.314598
4105.002863,-9622.677246,-222.061783,995.924147
4105.003193,-9622.677246,0.000000,919.314598
4105.003523,-10066.800811,0.000000,459.657299
4105.003854,-9918.759623,296.082377,229.828649
4105.004184,-9992.780217,0.000000,842.705048
4105.004514,-9548.656652,-296.082377,1149.143247
4105.004844,-9696.697840,-296.082377,1455.581446
4105.005175,-9918.759623,-74.020594,995.924147
4105.005505,-9992.780217,-370.102971,1915.238745
4105.005835,-10066.800811,-296.082377,766.095498
4105.006165,-9770.718434,-148.041188,153.219100
4105.006496,-9696.697840,-296.082377,0.000000
4105.006826,-9474.636058,-370.102971,0.000000
4105.007156,-9622.677246,-370.102971,995.924147
4105.007486,-10214.842000,-370.102971,1455.581446
4105.007816,-9770.718434,-518.144159,1915.238745
4105.008147,-9400.615463,-740.205942,1915.238745
4105.008477,-9622.677246,-444.123565,1838.629195
4105.008807,-9770.718434,-444.123565,1838.629195
4105.009137,-9992.780217,-814.226536,2298.286494
4105.009468,-10066.800811,-444.123565,2681.334243
4105.009798,-9918.759623,-592.164754,2911.162892
4105.010128,-10066.800811,-370.102971,2834.553343
4105.010458,-10214.842000,-740.205942,2374.896044
4105.010789,-10436.903782,-370.102971,1915.238745
4105.011119,-9992.780217,0.000000,1455.581446
4105.011449,-10140.821405,-296.082377,1149.143247
4105.011779,-9696.697840,-666.185348,1455.581446
4105.012110,-9992.780217,-1110.308913,1915.238745
4105.012440,-10288.862594,-1480.411884,2451.505594
4105.012770,-10066.800811,-2294.638420,2145.067394
4105.013100,-9696.697840,-2368.659014,2068.457845
4105.013430,-9252.574275,-2960.823768,2528.115143
4105.013761,-8808.450710,-2960.823768,3447.429741
4105.014091,-8808.450710,-2812.782580,3753.867940
4105.014421,-9474.636058,-2738.761985,4213.525239
4105.014751,-10510.924376,-2220.617826,4136.915689
4105.015082,-11251.130318,-2442.679609,3600.648841
4105.015412,-11399.171507,-2516.700203,2451.505594
4105.015742,-10807.006753,-2664.741391,1991.848295
4105.016072,-10288.862594,-2812.782580,919.314598
4105.016403,-9326.594869,-3034.844362,995.924147
4105.016733,-8512.368333,-3108.864956,766.095498
4105.017063,-8364.327145,-3182.885551,2145.067394
4105.017393,-8216.285956,-3404.947333,2528.115143
4105.017724,-9400.615463,-4071.132681,2987.772442
4105.018054,-9622.677246,-4219.173869,3294.210641
4105.018384,-9252.574275,-4885.359217,3064.381992
4105.018714,-9622.677246,-4959.379811,3294.210641
4105.019045,-9474.636058,-4663.297435,3600.648841
4105.019375,-9918.759623,-3775.050304,4290.134789
4105.019705,-10362.883188,-3256.906145,3370.820191
4105.020035,-10436.903782,-2664.741391,1838.629195
4105.020365,-9548.656652,-2738.761985,612.876398
4105.020696,-9844.739029,-2886.803174,536.266849
4105.021026,-9844.739029,-2590.720797,1149.143247
4105.021356,-9548.656652,-3849.070898,2451.505594
4105.021686,-9252.574275,-4071.132681,1072.533697
4105.022017,-8956.491898,-4145.153275,995.924147
4105.022347,-9252.574275,-3923.091493,1455.581446
4105.022677,-10288.862594,-3627.009116,3753.867940
4105.023007,-10732.986159,-3182.885551,4749.792088
4105.023338,-10214.842000,-2516.700203,3983.696590
4105.023668,-10214.842000,-2442.679609,3217.601092
4105.023998,-9918.759623,-2294.638420,2298.286494
4105.024328,-10658.965565,-2590.720797,2911.162892
4105.024659,-10732.986159,-2664.741391,2834.553343
4105.024989,-10214.842000,-2590.720797,2757.943793
4105.025319,-9252.574275,-2812.782580,3064.381992
4105.025649,-9104.533087,-2442.679609,2068.457845
4105.025979,-9622.677246,-2072.576638,1225.752797
4105.026310,-9992.780217,-2072.576638,1378.971896
4105.026640,-10066.800811,-1480.411884,1991.848295
4105.026970,-9548.656652,-1850.514855,2757.943793
4105.027300,-9400.615463,-1850.514855,3983.696590
4105.027631,-9622.677246,-1554.432478,4596.572988
4105.027961,-10362.883188,-1258.350101,3830.477490
4105.028291,-10881.027347,-1628.453072,2221.676944
4105.028621,-10214.842000,-1924.535449,2145.067394
4105.028952,-9548.656652,-1258.350101,2068.457845
4105.029282,-9474.636058,-1480.411884,2528.115143
4105.029612,-9104.533087,-148.041188,2451.505594
4105.029942,-9474.636058,-666.185348,1915.238745
4105.030273,-9474.636058,-518.144159,383.047749
4105.030603,-9326.594869,-740.205942,0.000000
4105.030933,-9770.718434,-444.123565,1455.581446
4105.031263,-9992.780217,-518.144159,2374.896044
4105.031593,-9474.636058,-518.144159,2298.286494
4105.031924,-9474.636058,-1110.308913,2681.334243
4105.032254,-9918.759623,-666.185348,1302.362347
4105.032584,-10214.842000,-222.061783,1455.581446
4105.032914,-10066.800811,-74.020594,1532.190996
4105.033245,-10140.821405,-222.061783,1838.629195
4105.033575,-10807.006753,0.000000,2987.772442
4105.033905,-10510.924376,-74.020594,2145.067394
4105.034235,-9548.656652,-296.082377,1455.581446
4105.034566,-8956.491898,-666.185348,229.828649
4105.034896,-9474.636058,-1332.370696,0.000000
4105.035226,-10288.862594,-444.123565,2221.676944
4105.035556,-10140.821405,-1036.288319,2834.553343
4105.035887,-9252.574275,-1258.350101,2374.896044
4105.036217,-9104.533087,-962.267725,1915.238745
4105.036547,-9770.718434,-1480.411884,1762.019645
4105.036877,-10881.027347,-1628.453072,2681.334243
4105.037207,-10362.883188,-1776.494261,2834.553343
4105.037538,-9696.697840,-2664.741391,3524.039291
4105.037868,-9474.636058,-2368.659014,3370.820191
4105.038198,-8586.388927,-2590.720797,3907.087040
4105.038528,-9844.739029,-2368.659014,3830.477490
4105.038859,-9992.780217,-2294.638420,2451.505594
4105.039189,-9844.739029,-1924.535449,1149.143247
4105.039519,-9178.553681,-2072.576638,1455.581446
4105.039849,-9400.615463,-2442.679609,1915.238745
4105.040180,-10214.842000,-2516.700203,2528.115143
4105.040510,-10140.821405,-3552.988522,2911.162892
4105.040840,-9252.574275,-4367.215058,1838.629195
4105.041170,-7550.100608,-4367.215058,2451.505594
4105.041501,-8660.409521,-3775.050304,2757.943793
4105.041831,-9844.739029,-3108.864956,3753.867940
4105.042161,-10584.944971,-2368.659014,3907.087040
4105.042491,-10732.986159,-2738.761985,2145.067394
4105.042821,-11177.109724,-2146.597232,919.314598
4105.043152,-10955.047942,-1924.535449,689.485948
4105.043482,-10807.006753,-2516.700203,383.047749
4105.043812,-9844.739029,-2220.617826,1072.533697
4105.044142,-9474.636058,-2590.720797,995.924147
4105.044473,-9770.718434,-2368.659014,689.485948
4105.044803,-9474.636058,-2664.741391,766.095498
4105.045133,-10214.842000,-2442.679609,842.705048
4105.045463,-9844.739029,-2590.720797,2068.457845
4105.045794,-9400.615463,-2146.597232,2911.162892
4105.046124,-9622.677246,-1702.473667,3064.381992
4105.046454,-10362.883188,-1184.329507,2987.772442
4105.046784,-10881.027347,-592.164754,2604.724693
4105.047115,-11547.212695,-592.164754,842.705048
4105.047445,-11399.171507,74.020594,-689.485948
4105.047775,-10807.006753,-370.102971,-1302.362347
4105.048105,-9918.759623,-518.144159,-689.485948
4105.048435,-9326.594869,-1184.329507,-689.485948
4105.048766,-8290.306550,-518.144159,-306.438199
4105.049096,-8216.285956,-1184.329507,229.828649
4105.049426,-8216.285956,-518.144159,459.657299
4105.049756,-8364.327145,0.000000,919.314598
4105.050087,-9696.697840,148.041188,995.924147
4105.050417,-10214.842000,592.164754,689.485948
4105.050747,-10955.047942,222.061783,1072.533697
4105.051077,-9844.739029,370.102971,1072.533697
4105.051408,-9548.656652,148.041188,1225.752797
4105.051738,-9400.615463,740.205942,459.657299
4105.052068,-8808.450710,666.185348,-612.876398
4105.052398,-9104.533087,1776.494261,-459.657299
4105.052729,-9326.594869,1850.514855,0.000000
4105.053059,-9474.636058,1998.556043,-842.705048
4105.053389,-9252.574275,1628.453072,-1532.190996
4105.053719,-9326.594869,1406.391290,-1532.190996
4105.054049,-10510.924376,1480.411884,-919.314598
4105.054379,-10214.842000,1554.432478,-536.266849
4105.054709,-9474.636058,888.247130,-689.485948
4105.055039,-9696.697840,1924.535449,-689.485948
4105.055369,-10066.800811,2368.659014,229.828649
4105.055699,-10288.862594,1850.514855,0.000000
4105.056029,-10066.800811,1924.535449,0.000000
4105.056359,-10436.903782,2220.617826,229.828649
4105.056689,-10658.965565,1998.556043,1072.533697
4105.057019,-9992.780217,1850.514855,0.000000
4105.057349,-9474.636058,1406.391290,-1915.238745
4105.057679,-9992.780217,1480.411884,-2145.067394
4105.058009,-10658.965565,1406.391290,-1838.629195
4105.058339,-10510.924376,1184.329507,-1378.971896
4105.058669,-8956.491898,1110.308913,-536.266849
4105.058999,-9326.594869,962.267725,459.657299
4105.059329,-9992.780217,888.247130,919.314598
4105.059659,-9622.677246,962.267725,76.609550
4105.059989,-9474.636058,592.164754,-612.876398
4105.060319,-9696.697840,518.144159,459.657299
4105.060649,-10807.006753,814.226536,1378.971896
4105.060979,-11325.150913,296.082377,1455.581446
4105.061309,-10732.986159,-148.041188,842.705048
4105.061639,-9474.636058,-222.061783,612.876398
4105.061969,-8660.409521,-296.082377,229.828649
4105.062299,-8512.368333,-296.082377,-612.876398
4105.062629,-9400.615463,222.061783,76.609550
4105.062959,-9400.615463,74.020594,536.266849
4105.063289,-9992.780217,0.000000,306.438199
4105.063619,-10732.986159,370.102971,459.657299
4105.063949,-11177.109724,-370.102971,383.047749
4105.064279,-10584.944971,0.000000,229.828649
4105.064609,-9326.594869,-148.041188,0.000000
4105.064939,-9844.739029,-74.020594,229.828649
4105.065269,-9696.697840,74.020594,459.657299
4105.065599,-10066.800811,-296.082377,459.657299
4105.065929,-9474.636058,0.000000,229.828649
4105.066259,-9474.636058,-444.123565,919.314598
4105.066590,-9770.718434,-74.020594,1149.143247
4105.066920,-10066.800811,-666.185348,842.705048
4105.067250,-9252.574275,-370.102971,0.000000
4105.067580,-9622.677246,-592.164754,0.000000
4105.067910,-9770.718434,-74.020594,-76.609550
4105.068240,-10362.883188,0.000000,536.266849
4105.068570,-9844.739029,0.000000,536.266849
4105.068900,-9622.677246,-296.082377,689.485948
4105.069230,-9474.636058,-370.102971,229.828649
4105.069560,-9622.677246,-296.082377,0.000000
4105.069890,-9844.739029,-444.123565,306.438199
4105.070220,-9548.656652,-296.082377,1072.533697
4105.070550,-9400.615463,0.000000,612.876398
4105.070880,-9770.718434,518.144159,459.657299
4105.071210,-10288.862594,-296.082377,-76.609550
4105.071540,-10214.842000,-370.102971,153.219100
4105.071870,-9844.739029,-518.144159,612.876398
4105.072200,-9844.739029,-296.082377,459.657299
4105.072530,-10066.800811,-370.102971,459.657299
4105.072860,-9770.718434,-592.164754,0.000000
4105.073190,-9622.677246,-740.205942,383.047749
4105.073520,-9400.615463,-740.205942,689.485948
4105.073850,-9400.615463,-962.267725,1072.533697
4105.074180,-9696.697840,-148.041188,1225.752797
4105.074510,-9548.656652,-518.144159,229.828649
4105.074840,-9918.759623,-370.102971,153.219100
4105.075170,-10362.883188,0.000000,1302.362347
4105.075500,-10584.944971,-148.041188,459.657299
4105.075830,-10214.842000,0.000000,536.266849
4105.076160,-8956.491898,-444.123565,459.657299
4105.076490,-9252.574275,0.000000,689.485948
4105.076820,-9474.636058,-222.061783,229.828649
4105.077150,-9992.780217,74.020594,-383.047749
4105.077480,-10066.800811,-296.082377,-153.219100
4105.077810,-9474.636058,222.061783,383.047749
4105.078140,-9622.677246,296.082377,153.219100
4105.078470,-9400.615463,148.041188,0.000000
4105.078800,-9992.780217,444.123565,0.000000
4105.079130,-10288.862594,814.226536,383.047749
4105.079460,-10214.842000,814.226536,-689.485948
4105.079790,-10214.842000,740.205942,-1302.362347
4105.080120,-9474.636058,666.185348,-1072.533697
4105.080450,-9474.636058,666.185348,-383.047749
4105.080780,-9548.656652,444.123565,-153.219100
4105.081111,-9622.677246,148.041188,-536.266849
4105.081441,-9548.656652,296.082377,-306.438199
4105.081771,-9844.739029,962.267725,0.000000
4105.082101,-10510.924376,814.226536,76.609550
4105.082431,-10955.047942,1036.288319,459.657299
4105.082761,-10214.842000,740.205942,383.047749
4105.083091,-9918.759623,740.205942,-766.095498
4105.083421,-9326.594869,518.144159,-1302.362347
4105.083751,-9548.656652,296.082377,-1991.848295
4105.084081,-9474.636058,222.061783,0.000000
4105.084411,-9252.574275,148.041188,459.657299
4105.084741,-9252.574275,592.164754,1302.362347
4105.085071,-9696.697840,740.205942,1532.190996
4105.085401,-10510.924376,518.144159,0.000000
4105.085731,-10288.862594,0.000000,0.000000
4105.086061,-9918.759623,148.041188,612.876398
4105.086391,-9844.739029,296.082377,1378.971896
4105.086721,-8882.471304,148.041188,1378.971896
4105.087051,-8438.347739,74.020594,689.485948
4105.087381,-9548.656652,740.205942,0.000000
4105.087711,-9918.759623,1036.288319,-612.876398
4105.088041,-10066.800811,888.247130,-1072.533697
4105.088371,-9918.759623,518.144159,0.000000
4105.088701,-9770.718434,222.061783,1225.752797
4105.089031,-9696.697840,592.164754,1302.362347
4105.089361,-9030.512492,518.144159,-153.219100
4105.089691,-8586.388927,148.041188,-1149.143247
4105.090021,-8956.491898,222.061783,-766.095498
4105.090351,-10584.944971,666.185348,-153.219100
4105.090681,-10955.047942,148.041188,842.705048
4105.091011,-9696.697840,0.000000,1225.752797
4105.091341,-9474.636058,-222.061783,1302.362347
4105.091671,-9696.697840,-296.082377,919.314598
4105.092001,-9474.636058,-518.144159,-383.047749
4105.092331,-9548.656652,-740.205942,-612.876398
4105.092661,-9918.759623,-74.020594,0.000000
4105.092991,-10510.924376,-148.041188,1149.143247
4105.093321,-10658.965565,-148.041188,995.924147
4105.093651,-10288.862594,-888.247130,1072.533697
4105.093981,-9844.739029,-666.185348,153.219100
4105.094311,-9844.739029,-888.247130,0.000000
4105.094641,-9918.759623,-962.267725,-919.314598
4105.094971,-9696.697840,-888.247130,229.828649
4105.095301,-9252.574275,-666.185348,383.047749
4105.095632,-9696.697840,-518.144159,0.000000
4105.095962,-9918.759623,-814.226536,0.000000
4105.096292,-10807.006753,-1036.288319,76.609550
4105.096622,-10955.047942,-740.205942,383.047749
4105.096952,-10140.821405,-1184.329507,76.609550
4105.097282,-9622.677246,-1184.329507,612.876398
4105.097612,-9326.594869,-814.226536,612.876398
4105.097942,-9474.636058,-1110.308913,1302.362347
4105.098272,-9474.636058,-888.247130,1455.581446
4105.098602,-9696.697840,-1258.350101,1302.362347
4105.098932,-10214.842000,-962.267725,1608.800546
4105.099262,-9770.718434,-1332.370696,1378.971896
4105.099592,-9474.636058,-740.205942,689.485948
4105.099922,-9326.594869,-666.185348,536.266849
4105.100252,-9178.553681,-740.205942,0.000000
4105.100582,-9548.656652,-666.185348,-536.266849
4105.100912,-9400.615463,-370.102971,-76.609550
4105.101242,-9474.636058,-296.082377,536.266849
4105.101572,-9770.718434,222.061783,919.314598
4105.101902,-9918.759623,74.020594,0.000000
4105.102232,-9326.594869,0.000000,-383.047749
4105.102562,-9326.594869,148.041188,229.828649
4105.102892,-9400.615463,148.041188,383.047749
4105.103222,-10066.800811,444.123565,0.000000
4105.103552,-9622.677246,666.185348,76.609550
4105.103882,-10066.800811,1036.288319,459.657299
4105.104212,-10288.862594,518.144159,76.609550
4105.104542,-10140.821405,1110.308913,-536.266849
4105.104872,-10140.821405,666.185348,-536.266849
4105.105202,-9474.636058,1110.308913,-306.438199
4105.105532,-9548.656652,1184.329507,0.000000
4105.105862,-9622.677246,1036.288319,0.000000
4105.106192,-10214.842000,1110.308913,0.000000
4105.106522,-11473.192101,1184.329507,306.438199
4105.106852,-11547.212695,666.185348,0.000000
4105.107182,-10288.862594,370.102971,-383.047749
4105.107512,-8512.368333,444.123565,-459.657299
4105.107842,-8068.244768,1036.288319,0.000000
4105.108172,-9474.636058,740.205942,229.828649
4105.108502,-10066.800811,444.123565,383.047749
4105.108832,-10214.842000,518.144159,842.705048
4105.109162,-10288.862594,444.123565,229.828649
4105.109492,-9770.718434,0.000000,459.657299
4105.109822,-9252.574275,-222.061783,766.095498
4105.110153,-8660.409521,74.020594,612.876398
4105.110483,-8290.306550,-296.082377,383.047749
4105.110813,-9030.512492,222.061783,76.609550
4105.111143,-9770.718434,370.102971,229.828649
4105.111473,-10214.842000,814.226536,306.438199
4105.111803,-10288.862594,518.144159,0.000000
4105.112133,-10066.800811,592.164754,-306.438199
4105.112463,-9474.636058,74.020594,0.000000
4105.112793,-8956.491898,0.000000,-919.314598
4105.113123,-9252.574275,0.000000,-842.705048
4105.113453,-9548.656652,-370.102971,-229.828649
4105.113783,-9474.636058,518.144159,689.485948
4105.114113,-10140.821405,370.102971,689.485948
4105.114443,-10584.944971,592.164754,76.609550
4105.114773,-10436.903782,0.000000,0.000000
4105.115103,-9548.656652,0.000000,-919.314598
4105.115433,-9030.512492,0.000000,-612.876398
4105.115763,-9918.759623,148.041188,459.657299
4105.116093,-9992.780217,0.000000,1149.143247
4105.116423,-9770.718434,0.000000,536.266849
4105.116753,-10362.883188,-296.082377,0.000000
4105.117083,-10510.924376,0.000000,0.000000
4105.117413,-10807.006753,0.000000,612.876398
4105.117743,-9844.739029,0.000000,689.485948
4105.118073,-9326.594869,148.041188,383.047749
4105.118403,-9918.759623,148.041188,1225.752797
4105.118733,-11177.109724,370.102971,1225.752797
4105.119063,-10732.986159,0.000000,842.705048
4105.119393,-9400.615463,-518.144159,-383.047749
4105.119723,-9622.677246,0.000000,229.828649
4105.120053,-9992.780217,-148.041188,919.314598
4105.120383,-9770.718434,-740.205942,842.705048
4105.120713,-8956.491898,-888.247130,612.876398
4105.121043,-9104.533087,-888.247130,766.095498
4105.121373,-9844.739029,0.000000,1149.143247
4105.121703,-9770.718434,-370.102971,153.219100
4105.122033,-9252.574275,-222.061783,229.828649
4105.122363,-8808.450710,-592.164754,-153.219100
4105.122693,-9400.615463,-148.041188,76.609550
4105.123023,-9474.636058,-740.205942,536.266849
4105.123353,-9474.636058,-740.205942,1149.143247
4105.123683,-9178.553681,-296.082377,919.314598
4105.124013,-9622.677246,-370.102971,919.314598
4105.124343,-9696.697840,-148.041188,766.095498
4105.124674,-9844.739029,-222.061783,459.657299
4105.125004,-9770.718434,74.020594,459.657299
4105.125334,-10362.883188,0.000000,0.000000
4105.125664,-9770.718434,74.020594,-383.047749
4105.125994,-9104.533087,148.041188,-229.828649
4105.126324,-9400.615463,148.041188,-153.219100
4105.126654,-9548.656652,148.041188,-76.609550
4105.126984,-10288.862594,148.041188,-153.219100
4105.127314,-10362.883188,222.061783,-306.438199
4105.127644,-10214.842000,148.041188,-229.828649
4105.127974,-10288.862594,148.041188,0.000000
4105.128304,-9992.780217,222.061783,153.219100
4105.128634,-9548.656652,0.000000,919.314598
4105.128964,-10362.883188,148.041188,536.266849
4105.129294,-10955.047942,148.041188,612.876398
4105.129624,-11251.130318,74.020594,995.924147
4105.129954,-9622.677246,148.041188,383.047749
4105.130284,-8956.491898,0.000000,-459.657299
4105.130614,-8882.471304,0.000000,-919.314598
4105.130944,-9918.759623,0.000000,0.000000
4105.131274,-9548.656652,0.000000,153.219100
4105.131604,-9252.574275,-148.041188,0.000000
4105.131934,-9770.718434,-74.020594,612.876398
4105.132264,-10436.903782,0.000000,919.314598
4105.132594,-10140.821405,0.000000,612.876398
4105.132924,-9030.512492,-666.185348,0.000000
4105.133254,-9326.594869,-814.226536,842.705048
4105.133584,-9992.780217,-370.102971,1762.019645
4105.133914,-9844.739029,-370.102971,1149.143247
4105.134244,-8956.491898,-296.082377,383.047749
4105.134574,-9252.574275,0.000000,306.438199
4105.134904,-9400.615463,0.000000,153.219100
4105.135234,-9992.780217,0.000000,-459.657299
4105.135564,-9252.574275,0.000000,-1149.143247
4105.135894,-9252.574275,592.164754,-306.438199
4105.136224,-9326.594869,814.226536,0.000000
4105.136554,-10288.862594,296.082377,0.000000
4105.136884,-10288.862594,666.185348,-306.438199
4105.137214,-9992.780217,148.041188,306.438199
4105.137544,-9696.697840,222.061783,306.438199
4105.137874,-9844.739029,518.144159,0.000000
4105.138204,-9548.656652,518.144159,0.000000
4105.138534,-9326.594869,518.144159,612.876398
4105.138864,-9474.636058,740.205942,842.705048
4105.139195,-10584.944971,888.247130,306.438199
4105.139525,-10510.924376,296.082377,229.828649
4105.139855,-9474.636058,296.082377,229.828649
4105.140185,-9400.615463,666.185348,0.000000
4105.140515,-9326.594869,740.205942,0.000000
4105.140845,-10214.842000,444.123565,0.000000
4105.141175,-10140.821405,740.205942,306.438199
4105.141505,-10658.965565,592.164754,0.000000
4105.141835,-10732.986159,444.123565,153.219100
4105.142165,-10140.821405,592.164754,-76.609550
4105.142495,-9030.512492,444.123565,-766.095498
4105.142825,-8734.430116,0.000000,-612.876398
4105.143155,-9252.574275,444.123565,229.828649
4105.143485,-9770.718434,444.123565,919.314598
4105.143815,-10140.821405,740.205942,-306.438199
4105.144145,-10140.821405,296.082377,-612.876398
4105.144475,-10436.903782,-222.061783,-229.828649
4105.144805,-9992.780217,0.000000,0.000000
4105.145135,-8882.471304,222.061783,76.609550
4105.145465,-8734.430116,0.000000,-383.047749
4105.145795,-9252.574275,0.000000,0.000000
4105.146125,-9252.574275,-592.164754,536.266849
4105.146455,-9844.739029,-74.020594,536.266849
4105.146785,-9918.759623,-148.041188,383.047749
4105.147115,-10066.800811,-222.061783,1149.143247
4105.147445,-9474.636058,-666.185348,766.095498
4105.147775,-8882.471304,-296.082377,-459.657299
4105.148105,-9770.718434,0.000000,0.000000
4105.148435,-10288.862594,0.000000,229.828649
4105.148765,-10288.862594,444.123565,766.095498
4105.149095,-9918.759623,296.082377,306.438199
4105.149425,-10436.903782,222.061783,689.485948
4105.149755,-9918.759623,0.000000,766.095498
4105.150085,-10066.800811,-518.144159,536.266849
4105.150415,-10214.842000,-74.020594,306.438199
4105.150745,-9844.739029,-814.226536,229.828649
4105.151075,-9622.677246,-296.082377,1072.533697
4105.151405,-9474.636058,-296.082377,689.485948
4105.151735,-9696.697840,-592.164754,306.438199
4105.152065,-9696.697840,-222.061783,612.876398
4105.152395,-10214.842000,0.000000,306.438199
4105.152725,-9696.697840,-592.164754,383.047749
4105.153055,-9622.677246,-592.164754,919.314598
4105.153385,-10140.821405,0.000000,1455.581446
4105.153714,-10362.883188,-814.226536,1149.143247
4105.154044,-9992.780217,-444.123565,76.609550
4105.154374,-9548.656652,-888.247130,612.876398
4105.154704,-9178.553681,-518.144159,459.657299
4105.155034,-9474.636058,-592.164754,0.000000
4105.155364,-9400.615463,74.020594,-459.657299
4105.155693,-9770.718434,-148.041188,76.609550
4105.156023,-10214.842000,296.082377,-153.219100
4105.156353,-10881.027347,518.144159,-995.924147
4105.156683,-10362.883188,296.082377,-1302.362347
4105.157013,-9326.594869,0.000000,-536.266849
4105.157343,-9252.574275,0.000000,0.000000
4105.157672,-9696.697840,-296.082377,76.609550
4105.158002,-9252.574275,-370.102971,76.609550
4105.158332,-9474.636058,0.000000,76.609550
4105.158662,-9992.780217,74.020594,612.876398
4105.158992,-9770.718434,148.041188,612.876398
4105.159322,-10214.842000,74.020594,1072.533697
4105.159651,-9844.739029,148.041188,842.705048
4105.159981,-9696.697840,0.000000,76.609550
4105.160311,-9030.512492,74.020594,-536.266849
4105.160641,-9326.594869,296.082377,229.828649
4105.160971,-9548.656652,592.164754,153.219100
4105.161301,-9844.739029,296.082377,306.438199
4105.161630,-9622.677246,370.102971,-153.219100
4105.161960,-9474.636058,370.102971,0.000000
4105.162290,-9918.759623,296.082377,0.000000
4105.162620,-10214.842000,518.144159,0.000000
4105.162950,-9474.636058,0.000000,-76.609550
4105.163280,-9030.512492,0.000000,383.047749
4105.163609,-9104.533087,814.226536,536.266849
4105.163939,-10140.821405,592.164754,766.095498
4105.164269,-11103.089130,666.185348,689.485948
4105.164599,-10658.965565,370.102971,76.609550
4105.164929,-10288.862594,222.061783,0.000000
4105.165259,-9770.718434,0.000000,0.000000
4105.165588,-9548.656652,-222.061783,76.609550
4105.165918,-9474.636058,370.102971,-229.828649
4105.166248,-9178.553681,0.000000,-536.266849
4105.166578,-9548.656652,0.000000,-306.438199
4105.166908,-10214.842000,74.020594,459.657299
4105.167238,-10214.842000,518.144159,842.705048
4105.167567,-9844.739029,222.061783,229.828649
4105.167897,-9696.697840,0.000000,229.828649
4105.168227,-10362.883188,74.020594,459.657299
4105.168557,-10214.842000,0.000000,459.657299
4105.168887,-9474.636058,-444.123565,0.000000
4105.169217,-9622.677246,0.000000,0.000000
4105.169546,-9252.574275,-222.061783,306.438199
4105.169876,-9548.656652,0.000000,612.876398
4105.170206,-9474.636058,-518.144159,1072.533697
4105.170536,-9918.759623,-296.082377,-229.828649
4105.170866,-9770.718434,-370.102971,-229.828649
4105.171196,-9400.615463,-148.041188,0.000000
4105.171525,-9696.697840,-444.123565,153.219100
4105.171855,-10436.903782,0.000000,1225.752797
4105.172185,-10066.800811,0.000000,842.705048
4105.172515,-9918.759623,0.000000,153.219100
4105.172845,-9918.759623,-148.041188,-229.828649
4105.173175,-9770.718434,-222.061783,153.219100
4105.173504,-9400.615463,-222.061783,612.876398
4105.173834,-9474.636058,74.020594,459.657299
4105.174164,-9992.780217,0.000000,-306.438199
4105.174494,-9622.677246,-518.144159,76.609550
4105.174824,-9548.656652,-296.082377,0.000000
4105.175154,-9548.656652,-444.123565,76.609550
4105.175483,-9474.636058,-444.123565,153.219100
4105.175813,-9622.677246,222.061783,0.000000
4105.176143,-9548.656652,0.000000,612.876398
4105.176473,-10066.800811,222.061783,536.266849
4105.176803,-10510.924376,222.061783,306.438199
4105.177133,-10066.800811,814.226536,0.000000
4105.177462,-9622.677246,518.144159,-383.047749
4105.177792,-9622.677246,370.102971,-459.657299
4105.178122,-9992.780217,740.205942,-229.828649
4105.178452,-10362.883188,444.123565,0.000000
4105.178782,-9474.636058,0.000000,-919.314598
4105.179112,-9474.636058,222.061783,-689.485948
4105.179441,-9622.677246,222.061783,0.000000
4105.179771,-9696.697840,0.000000,306.438199
4105.180101,-9548.656652,518.144159,306.438199
4105.180431,-10140.821405,370.102971,1149.143247
4105.180761,-10288.862594,222.061783,1455.581446
4105.181091,-10732.986159,592.164754,766.095498
4105.181420,-9992.780217,0.000000,-766.095498
4105.181750,-9548.656652,592.164754,229.828649
4105.182080,-9252.574275,222.061783,383.047749
4105.182410,-9326.594869,0.000000,-229.828649
4105.182740,-9178.553681,370.102971,-689.485948
4105.183070,-9474.636058,518.144159,-842.705048
4105.183399,-9326.594869,1036.288319,-842.705048
4105.183729,-9918.759623,222.061783,-689.485948
4105.184059,-9992.780217,148.041188,-153.219100
4105.184389,-9252.574275,74.020594,459.657299
4105.184719,-9918.759623,518.144159,612.876398
4105.185049,-9770.718434,-222.061783,229.828649
4105.185378,-10140.821405,-296.082377,229.828649
4105.185708,-9548.656652,0.000000,306.438199
4105.186038,-9770.718434,0.000000,1149.143247
4105.186368,-9992.780217,0.000000,612.876398
4105.186698,-9474.636058,-518.144159,459.657299
4105.187028,-8956.491898,148.041188,383.047749
4105.187357,-9252.574275,148.041188,0.000000
4105.187687,-10362.883188,148.041188,536.266849
4105.188017,-10288.862594,-296.082377,612.876398
4105.188347,-9992.780217,0.000000,536.266849
4105.188677,-9474.636058,-370.102971,-229.828649
4105.189007,-9400.615463,-296.082377,0.000000
4105.189336,-10066.800811,-444.123565,612.876398
4105.189666,-10510.924376,74.020594,306.438199
4105.189996,-9474.636058,0.000000,-76.609550
4105.190326,-9770.718434,-148.041188,612.876398
4105.190656,-10214.842000,0.000000,1149.143247
4105.190986,-10288.862594,0.000000,306.438199
4105.191315,-10214.842000,0.000000,-536.266849
4105.191645,-9548.656652,0.000000,-612.876398
4105.191975,-9696.697840,0.000000,459.657299
4105.192305,-9252.574275,-518.144159,383.047749
4105.192635,-9326.594869,0.000000,689.485948
4105.192965,-9252.574275,0.000000,536.266849
4105.193294,-9696.697840,0.000000,689.485948
4105.193624,-10362.883188,-370.102971,0.000000
4105.193954,-9844.739029,-592.164754,0.000000
4105.194284,-9548.656652,-222.061783,1225.752797
4105.194614,-9030.512492,-74.020594,1455.581446
4105.194944,-8956.491898,-740.205942,383.047749
4105.195273,-9770.718434,0.000000,0.000000
4105.195603,-9844.739029,0.000000,153.219100
4105.195933,-10362.883188,0.000000,0.000000
4105.196263,-10362.883188,-444.123565,0.000000
4105.196593,-10066.800811,0.000000,689.485948
4105.196923,-9252.574275,0.000000,919.314598
4105.197252,-8734.430116,148.041188,0.000000
4105.197582,-9622.677246,0.000000,-842.705048
4105.197912,-10732.986159,444.123565,-612.876398
4105.198242,-10584.944971,444.123565,0.000000
4105.198572,-10140.821405,222.061783,0.000000
4105.198902,-9548.656652,222.061783,-459.657299
4105.199231,-9474.636058,-296.082377,153.219100
4105.199561,-9474.636058,222.061783,-306.438199
4105.199891,-9770.718434,518.144159,-459.657299
4105.200221,-9474.636058,74.020594,306.438199
4105.200551,-9696.697840,296.082377,995.924147
4105.200881,-10436.903782,740.205942,229.828649
4105.201210,-9992.780217,0.000000,-689.485948
4105.201540,-9400.615463,222.061783,-459.657299
4105.201870,-9622.677246,0.000000,76.609550
4105.202200,-9622.677246,0.000000,0.000000
4105.202530,-9104.533087,0.000000,0.000000
4105.202860,-8956.491898,296.082377,306.438199
4105.203190,-8956.491898,592.164754,459.657299
4105.203519,-10066.800811,592.164754,383.047749
4105.203849,-10955.047942,888.247130,0.000000
4105.204179,-10510.924376,0.000000,459.657299
4105.204509,-9252.574275,666.185348,76.609550
4105.204839,-9770.718434,370.102971,459.657299
4105.205169,-10140.821405,148.041188,76.609550
4105.205498,-9918.759623,0.000000,229.828649
4105.205828,-9770.718434,370.102971,459.657299
4105.206158,-9696.697840,296.082377,0.000000
4105.206488,-10436.903782,370.102971,459.657299
4105.206818,-9252.574275,0.000000,1225.752797
4105.207148,-8808.450710,74.020594,766.095498
4105.207477,-9252.574275,0.000000,153.219100
4105.207807,-10658.965565,222.061783,153.219100
4105.208137,-10807.006753,222.061783,0.000000
4105.208467,-10436.903782,0.000000,536.266849
4105.208797,-9474.636058,148.041188,383.047749
4105.209127,-9474.636058,0.000000,689.485948
4105.209456,-9400.615463,148.041188,612.876398
4105.209786,-9474.636058,-296.082377,0.000000
4105.210116,-9474.636058,0.000000,76.609550
4105.210446,-10214.842000,-296.082377,766.095498
4105.210776,-10732.986159,222.061783,1455.581446
4105.211106,-9622.677246,-666.185348,766.095498
4105.211435,-9548.656652,0.000000,536.266849
4105.211765,-9474.636058,0.000000,229.828649
4105.212095,-9622.677246,-148.041188,0.000000
4105.212425,-9474.636058,148.041188,-229.828649
4105.212755,-10436.903782,592.164754,459.657299
4105.213085,-10362.883188,1036.288319,612.876398
4105.213414,-10881.027347,148.041188,-306.438199
4105.213744,-9770.718434,0.000000,-919.314598
4105.214074,-9548.656652,-296.082377,0.000000
4105.214404,-9400.615463,0.000000,0.000000
4105.214734,-9622.677246,-296.082377,0.000000
4105.215064,-9622.677246,0.000000,0.000000
4105.215393,-9474.636058,222.061783,0.000000
4105.215723,-10066.800811,444.123565,-153.219100
4105.216053,-10510.924376,518.144159,-842.705048
4105.216383,-10066.800811,222.061783,-536.266849
4105.216713,-9992.780217,296.082377,-76.609550
4105.217043,-9992.780217,222.061783,306.438199
4105.217372,-10066.800811,0.000000,995.924147
4105.217702,-9844.739029,0.000000,306.438199
4105.218032,-9696.697840,0.000000,459.657299
4105.218362,-9770.718434,592.164754,0.000000
4105.218692,-9622.677246,0.000000,-612.876398
4105.219022,-10066.800811,444.123565,-766.095498
4105.219351,-9400.615463,0.000000,0.000000
4105.219681,-10066.800811,296.082377,229.828649
4105.220011,-9992.780217,74.020594,306.438199
4105.220341,-9770.718434,0.000000,689.485948
4105.220671,-9326.594869,0.000000,229.828649
4105.221001,-9400.615463,-370.102971,0.000000
4105.221330,-10140.821405,296.082377,612.876398
4105.221660,-9992.780217,0.000000,766.095498
4105.221990,-9844.739029,74.020594,536.266849
4105.222320,-9178.553681,-370.102971,536.266849
4105.222650,-8808.450710,-518.144159,766.095498
4105.222980,-9474.636058,0.000000,766.095498
4105.223309,-9696.697840,0.000000,306.438199
4105.223639,-9548.656652,0.000000,0.000000
4105.223969,-9622.677246,222.061783,76.609550
4105.224299,-9622.677246,296.082377,0.000000
4105.224629,-10066.800811,0.000000,76.609550
4105.224959,-9474.636058,74.020594,-383.047749
4105.225288,-9326.594869,74.020594,0.000000
4105.225618,-9770.718434,370.102971,459.657299
4105.225948,-9992.780217,296.082377,-76.609550
4105.226278,-10214.842000,592.164754,-306.438199
4105.226608,-10214.842000,0.000000,0.000000
4105.226938,-10288.862594,-148.041188,612.876398
4105.227267,-10140.821405,0.000000,153.219100
4105.227597,-9696.697840,74.020594,0.000000
4105.227927,-9770.718434,222.061783,383.047749
4105.228257,-9548.656652,74.020594,766.095498
4105.228587,-9696.697840,296.082377,306.438199
4105.228917,-10140.821405,296.082377,689.485948
4105.229246,-9918.759623,296.082377,229.828649
4105.229576,-10362.883188,148.041188,459.657299
4105.229906,-9918.759623,148.041188,536.266849
4105.230236,-9992.780217,-222.061783,383.047749
4105.230566,-9992.780217,222.061783,0.000000
4105.230896,-9622.677246,0.000000,-612.876398
4105.231225,-9474.636058,148.041188,-1072.533697
4105.231555,-9622.677246,148.041188,-536.266849
4105.231885,-9696.697840,74.020594,-459.657299
4105.232215,-9622.677246,-222.061783,0.000000
4105.232545,-9326.594869,296.082377,1072.533697
4105.232875,-9770.718434,0.000000,1072.533697
4105.233204,-10510.924376,74.020594,1072.533697
4105.233534,-10066.800811,-148.041188,306.438199
4105.233864,-9992.780217,0.000000,536.266849
4105.234194,-9474.636058,-222.061783,306.438199
4105.234524,-9474.636058,-370.102971,76.609550
4105.234854,-9030.512492,0.000000,459.657299
4105.235183,-9548.656652,-296.082377,766.095498
4105.235513,-9622.677246,0.000000,995.924147
4105.235843,-9918.759623,74.020594,306.438199
4105.236173,-10066.800811,0.000000,-842.705048
4105.236503,-9918.759623,-370.102971,-689.485948
4105.236833,-9474.636058,444.123565,76.609550
4105.237162,-9548.656652,-74.020594,689.485948
4105.237492,-10140.821405,296.082377,689.485948
4105.237822,-10436.903782,148.041188,766.095498
4105.238152,-9474.636058,148.041188,-153.219100
4105.238482,-9622.677246,-518.144159,-612.876398
4105.238812,-9770.718434,0.000000,459.657299
4105.239141,-9770.718434,-444.123565,919.314598
4105.239471,-9696.697840,-148.041188,919.314598
4105.239801,-8956.491898,0.000000,306.438199
4105.240131,-9326.594869,-370.102971,-306.438199
4105.240461,-9622.677246,222.061783,0.000000
4105.240791,-10436.903782,222.061783,0.000000
4105.241120,-10362.883188,0.000000,383.047749
4105.241450,-10732.986159,0.000000,229.828649
4105.241780,-9844.739029,0.000000,306.438199
4105.242110,-9030.512492,-888.247130,0.000000
4105.242440,-9030.512492,0.000000,-306.438199
4105.242770,-9622.677246,-518.144159,383.047749
4105.243099,-10288.862594,0.000000,1072.533697
4105.243429,-9844.739029,0.000000,536.266849
4105.243759,-10066.800811,-296.082377,536.266849
4105.244089,-10214.842000,0.000000,612.876398
4105.244419,-10066.800811,0.000000,153.219100
4105.244749,-8734.430116,-370.102971,-383.047749
4105.245078,-8956.491898,-370.102971,0.000000
4105.245408,-9474.636058,222.061783,612.876398
4105.245738,-10658.965565,-296.082377,766.095498
4105.246068,-10140.821405,148.041188,153.219100
4105.246398,-9474.636058,-444.123565,0.000000
4105.246728,-9474.636058,0.000000,76.609550
4105.247057,-9030.512492,-888.247130,383.047749
4105.247387,-9326.594869,0.000000,383.047749
4105.247717,-9474.636058,0.000000,536.266849
4105.248047,-9474.636058,74.020594,0.000000
4105.248377,-10214.842000,222.061783,0.000000
4105.248707,-10362.883188,296.082377,0.000000
4105.249036,-9770.718434,74.020594,0.000000
4105.249366,-9548.656652,74.020594,0.000000
4105.249696,-9104.533087,0.000000,383.047749
4105.250026,-9844.739029,0.000000,536.266849
4105.250356,-9696.697840,444.123565,536.266849
4105.250686,-9770.718434,74.020594,-153.219100
4105.251015,-9178.553681,0.000000,-76.609550
4105.251345,-9622.677246,444.123565,-306.438199
4105.251675,-10066.800811,666.185348,-536.266849
4105.252005,-9918.759623,296.082377,-306.438199
4105.252335,-9178.553681,296.082377,-76.609550
4105.252665,-9918.759623,296.082377,76.609550
4105.252994,-10214.842000,962.267725,153.219100
4105.253324,-10288.862594,518.144159,-459.657299
4105.253654,-9992.780217,444.123565,-612.876398
4105.253984,-9918.759623,444.123565,-612.876398
4105.254314,-9030.512492,222.061783,0.000000
4105.254644,-9474.636058,370.102971,153.219100
4105.254974,-10288.862594,666.185348,1149.143247
4105.255304,-10066.800811,370.102971,842.705048
4105.255633,-10436.903782,592.164754,-153.219100
4105.255963,-9918.759623,814.226536,-1225.752797
4105.256293,-9770.718434,74.020594,-919.314598
4105.256623,-9178.553681,740.205942,-459.657299
4105.256953,-9400.615463,148.041188,383.047749
4105.257283,-9252.574275,370.102971,842.705048
4105.257613,-9844.739029,740.205942,995.924147
4105.257943,-10066.800811,1184.329507,-153.219100
4105.258273,-10436.903782,296.082377,-459.657299
4105.258603,-10066.800811,444.123565,-306.438199
4105.258933,-9474.636058,0.000000,306.438199
4105.259262,-9400.615463,74.020594,842.705048
4105.259592,-8808.450710,148.041188,153.219100
4105.259922,-9252.574275,148.041188,0.000000
4105.260252,-9548.656652,222.061783,0.000000
4105.260582,-10658.965565,296.082377,0.000000
4105.260912,-10732.986159,592.164754,612.876398
4105.261242,-9992.780217,0.000000,919.314598
4105.261572,-9252.574275,-222.061783,766.095498
4105.261902,-9030.512492,-888.247130,842.705048
4105.262232,-8956.491898,-518.144159,153.219100
4105.262561,-9400.615463,-592.164754,536.266849
4105.262891,-9548.656652,0.000000,76.609550
4105.263221,-9918.759623,-592.164754,229.828649
4105.263551,-9918.759623,-296.082377,459.657299
4105.263881,-9030.512492,-370.102971,306.438199
4105.264211,-9474.636058,-148.041188,459.657299
4105.264541,-9770.718434,-296.082377,536.266849
4105.264871,-9844.739029,-592.164754,459.657299
4105.265201,-9770.718434,-814.226536,306.438199
4105.265531,-10140.821405,0.000000,612.876398
4105.265860,-10288.862594,0.000000,612.876398
4105.266190,-10140.821405,-296.082377,0.000000
4105.266520,-9326.594869,-518.144159,-383.047749
4105.266850,-9770.718434,-296.082377,-383.047749
4105.267180,-9918.759623,0.000000,0.000000
4105.267510,-10362.883188,-74.020594,459.657299
4105.267840,-9992.780217,-370.102971,919.314598
4105.268170,-10362.883188,-222.061783,306.438199
4105.268500,-10658.965565,-370.102971,689.485948
4105.268830,-9992.780217,-888.247130,612.876398
4105.269160,-9548.656652,-888.247130,766.095498
4105.269489,-9326.594869,-740.205942,76.609550
4105.269819,-9474.636058,-370.102971,842.705048
4105.270149,-9770.718434,518.144159,536.266849
4105.270479,-9474.636058,0.000000,-229.828649
4105.270809,-10066.800811,222.061783,-1072.533697
4105.271139,-10066.800811,0.000000,0.000000
4105.271469,-10140.821405,0.000000,0.000000
4105.271799,-10140.821405,-296.082377,536.266849
4105.272129,-8808.450710,-296.082377,383.047749
4105.272459,-9252.574275,-592.164754,689.485948
4105.272788,-9622.677246,-518.144159,689.485948
4105.273118,-9844.739029,0.000000,536.266849
4105.273448,-9770.718434,148.041188,1302.362347
4105.273778,-9548.656652,814.226536,306.438199
4105.274108,-10214.842000,296.082377,0.000000
4105.274438,-9844.739029,74.020594,-306.438199
4105.274768,-9104.533087,0.000000,-612.876398
4105.275098,-8586.388927,148.041188,-1225.752797
4105.275428,-9474.636058,370.102971,-153.219100
4105.275758,-9696.697840,370.102971,0.000000
4105.276088,-10436.903782,740.205942,536.266849
4105.276417,-9622.677246,444.123565,-229.828649
4105.276747,-9844.739029,444.123565,-766.095498
4105.277077,-9178.553681,444.123565,0.000000
4105.277407,-9474.636058,444.123565,689.485948
4105.277737,-9770.718434,1036.288319,1072.533697
4105.278067,-10140.821405,666.185348,383.047749
4105.278397,-9622.677246,666.185348,-76.609550
4105.278727,-9326.594869,592.164754,-995.924147
4105.279057,-10214.842000,592.164754,-842.705048
4105.279387,-10584.944971,518.144159,-536.266849
4105.279716,-9474.636058,518.144159,459.657299
4105.280046,-9326.594869,814.226536,536.266849
4105.280376,-9992.780217,962.267725,0.000000
4105.280706,-10658.965565,592.164754,-306.438199
4105.281036,-10362.883188,370.102971,0.000000
4105.281366,-9844.739029,148.041188,0.000000
4105.281696,-10436.903782,296.082377,536.266849
4105.282026,-10436.903782,0.000000,383.047749
4105.282356,-9844.739029,0.000000,689.485948
4105.282686,-9400.615463,0.000000,536.266849
4105.283015,-9770.718434,-444.123565,0.000000
4105.283345,-10214.842000,-518.144159,612.876398
4105.283675,-9622.677246,-592.164754,612.876398
4105.284005,-8882.471304,-814.226536,919.314598
4105.284335,-8808.450710,-1184.329507,383.047749
4105.284665,-9400.615463,-740.205942,536.266849
4105.284995,-9548.656652,-666.185348,689.485948
4105.285325,-9918.759623,-814.226536,383.047749
4105.285655,-8956.491898,-1332.370696,-76.609550
4105.285985,-9252.574275,-444.123565,536.266849
4105.286315,-8808.450710,-814.226536,919.314598
4105.286644,-9474.636058,-518.144159,383.047749
4105.286974,-9696.697840,-592.164754,153.219100
4105.287304,-9696.697840,-518.144159,-459.657299
4105.287634,-9474.636058,-222.061783,-306.438199
4105.287964,-9474.636058,0.000000,0.000000
4105.288294,-10362.883188,222.061783,0.000000
4105.288624,-10362.883188,74.020594,0.000000
4105.288954,-10140.821405,222.061783,-229.828649
4105.289284,-9844.739029,-666.185348,-689.485948
4105.289614,-10066.800811,148.041188,76.609550
4105.289943,-10436.903782,222.061783,459.657299
4105.290273,-10066.800811,148.041188,689.485948
4105.290603,-9770.718434,666.185348,-459.657299
4105.290933,-10066.800811,444.123565,-306.438199
4105.291263,-10658.965565,518.144159,0.000000
4105.291593,-10807.006753,222.061783,-459.657299
4105.291923,-9844.739029,370.102971,-383.047749
4105.292253,-9622.677246,444.123565,0.000000
4105.292583,-9992.780217,444.123565,229.828649
4105.292913,-10214.842000,370.102971,153.219100
4105.293243,-9474.636058,222.061783,0.000000
4105.293572,-9992.780217,814.226536,76.609550
4105.293902,-9918.759623,222.061783,383.047749
4105.294232,-9622.677246,0.000000,995.924147
4105.294562,-9400.615463,0.000000,1225.752797
4105.294892,-9104.533087,296.082377,1149.143247
4105.295222,-10362.883188,148.041188,919.314598
4105.295552,-9770.718434,0.000000,0.000000
4105.295882,-9104.533087,74.020594,76.609550
4105.296212,-8734.430116,370.102971,-536.266849
4105.296542,-9252.574275,444.123565,306.438199
4105.296871,-9770.718434,148.041188,153.219100
4105.297201,-9474.636058,148.041188,229.828649
4105.297531,-9104.533087,222.061783,919.314598
4105.297861,-9548.656652,148.041188,383.047749
4105.298191,-9548.656652,444.123565,306.438199
4105.298521,-9326.594869,592.164754,-306.438199
4105.298851,-9104.533087,518.144159,0.000000
4105.299181,-9622.677246,444.123565,-306.438199
4105.299511,-10658.965565,592.164754,0.000000
4105.299841,-10288.862594,370.102971,229.828649
4105.300170,-9474.636058,222.061783,0.000000
4105.300500,-8956.491898,148.041188,-919.314598
4105.300830,-9992.780217,148.041188,76.609550
4105.301160,-9770.718434,518.144159,-459.657299
4105.301490,-9696.697840,74.020594,-842.705048
4105.301820,-9770.718434,444.123565,-153.219100
4105.302150,-10732.986159,518.144159,689.485948
4105.302480,-10362.883188,74.020594,842.705048
4105.302810,-9992.780217,-296.082377,-229.828649
4105.303140,-9622.677246,-444.123565,-919.314598
4105.303470,-9252.574275,-666.185348,-153.219100
4105.303799,-9252.574275,-592.164754,459.657299
4105.304129,-9400.615463,-148.041188,306.438199
4105.304459,-10066.800811,370.102971,1072.533697
4105.304789,-10881.027347,148.041188,536.266849
4105.305119,-11029.068536,222.061783,306.438199
4105.305449,-10658.965565,-370.102971,0.000000
4105.305779,-10066.800811,-740.205942,766.095498
4105.306109,-9104.533087,-666.185348,1378.971896
4105.306439,-9030.512492,-518.144159,459.657299
4105.306769,-9474.636058,-370.102971,0.000000
4105.307098,-10214.842000,-370.102971,76.609550
4105.307428,-10362.883188,-444.123565,0.000000
4105.307758,-10066.800811,-444.123565,-153.219100
4105.308088,-9770.718434,-666.185348,153.219100
4105.308418,-9548.656652,-888.247130,1149.143247
4105.308748,-8882.471304,-518.144159,1149.143247
4105.309078,-9474.636058,-296.082377,689.485948
4105.309408,-10584.944971,-148.041188,0.000000
4105.309738,-10436.903782,0.000000,153.219100
4105.310068,-9770.718434,0.000000,919.314598
4105.310398,-9400.615463,0.000000,995.924147
4105.310727,-9918.759623,-148.041188,459.657299
4105.311057,-9252.574275,0.000000,-76.609550
4105.311387,-9400.615463,-444.123565,-459.657299
4105.311717,-9844.739029,444.123565,-383.047749
4105.312047,-9844.739029,0.000000,306.438199
4105.312377,-9696.697840,370.102971,689.485948
4105.312707,-9326.594869,296.082377,689.485948
4105.313037,-9770.718434,666.185348,0.000000
4105.313367,-10288.862594,888.247130,-612.876398
4105.313697,-9844.739029,666.185348,-689.485948
4105.314026,-9622.677246,296.082377,-612.876398
4105.314356,-9548.656652,592.164754,153.219100
4105.314686,-9770.718434,814.226536,919.314598
4105.315016,-10066.800811,296.082377,842.705048
4105.315346,-10066.800811,370.102971,-383.047749
4105.315676,-9474.636058,444.123565,-153.219100
4105.316006,-9104.533087,592.164754,0.000000
4105.316336,-9400.615463,888.247130,383.047749
4105.316666,-9770.718434,814.226536,1225.752797
4105.316996,-10658.965565,1036.288319,1072.533697
4105.317325,-10510.924376,962.267725,229.828649
4105.317655,-9474.636058,222.061783,-1072.533697
4105.317985,-9252.574275,518.144159,-842.705048
4105.318315,-9178.553681,518.144159,76.609550
4105.318645,-9030.512492,666.185348,766.095498
4105.318975,-8586.388927,592.164754,229.828649
4105.319305,-9548.656652,962.267725,-306.438199
4105.319635,-10510.924376,814.226536,153.219100
4105.319965,-11473.192101,888.247130,153.219100
4105.320295,-10955.047942,222.061783,229.828649
4105.320625,-10214.842000,0.000000,612.876398
4105.320954,-8586.388927,-148.041188,689.485948
4105.321284,-8364.327145,-296.082377,229.828649
4105.321614,-9178.553681,296.082377,76.609550
4105.321944,-9918.759623,222.061783,995.924147
4105.322274,-10807.006753,370.102971,1149.143247
4105.322604,-10510.924376,-148.041188,76.609550
4105.322934,-10436.903782,-222.061783,229.828649
4105.323264,-9474.636058,-370.102971,0.000000
4105.323594,-8956.491898,-444.123565,-612.876398
4105.323924,-8956.491898,-518.144159,-689.485948
4105.324253,-9622.677246,0.000000,153.219100
4105.324583,-10362.883188,74.020594,383.047749
4105.324913,-11029.068536,-370.102971,995.924147
4105.325243,-10881.027347,-444.123565,459.657299
4105.325573,-10362.883188,-814.226536,1072.533697
4105.325903,-9474.636058,-370.102971,612.876398
4105.326233,-9030.512492,-666.185348,0.000000
4105.326563,-9030.512492,-666.185348,-383.047749
4105.326893,-9326.594869,0.000000,-76.609550
4105.327223,-9548.656652,222.061783,-383.047749
4105.327553,-9918.759623,740.205942,-536.266849
4105.327882,-10214.842000,666.185348,-842.705048
4105.328212,-10436.903782,0.000000,-919.314598
4105.328542,-10066.800811,-296.082377,-1225.752797
4105.328872,-9326.594869,-740.205942,-383.047749
4105.329202,-9918.759623,-74.020594,459.657299
4105.329532,-9770.718434,-444.123565,1302.362347
4105.329862,-9844.739029,-444.123565,1302.362347
4105.330192,-9622.677246,-444.123565,919.314598
4105.330522,-10436.903782,-370.102971,459.657299
4105.330852,-10436.903782,-148.041188,383.047749
4105.331181,-9622.677246,-296.082377,229.828649
4105.331511,-9104.533087,0.000000,76.609550
4105.331841,-8734.430116,222.061783,76.609550
4105.332171,-9252.574275,74.020594,-306.438199
4105.332501,-9548.656652,148.041188,-536.266849
4105.332831,-10214.842000,74.020594,-842.705048
4105.333161,-10584.944971,0.000000,0.000000
4105.333491,-9474.636058,-222.061783,842.705048
4105.333821,-9400.615463,-370.102971,1149.143247
4105.334151,-9770.718434,-444.123565,1225.752797
4105.334480,-9844.739029,0.000000,1149.143247
4105.334810,-9548.656652,0.000000,1072.533697
4105.335140,-9770.718434,370.102971,1225.752797
4105.335470,-10140.821405,444.123565,1225.752797
4105.335800,-10140.821405,222.061783,919.314598
4105.336130,-9622.677246,0.000000,-229.828649
4105.336460,-9252.574275,-74.020594,-1225.752797
4105.336790,-9474.636058,0.000000,-383.047749
4105.337120,-9844.739029,0.000000,153.219100
4105.337450,-8660.409521,0.000000,306.438199
4105.337780,-8512.368333,0.000000,76.609550
4105.338109,-9622.677246,222.061783,459.657299
4105.338439,-10807.006753,222.061783,0.000000
4105.338769,-10362.883188,0.000000,-383.047749
4105.339099,-10066.800811,0.000000,229.828649
4105.339429,-9992.780217,-74.020594,995.924147
4105.339759,-9844.739029,-222.061783,1225.752797
4105.340089,-9474.636058,-592.164754,766.095498
4105.340419,-9252.574275,0.000000,-76.609550
4105.340749,-9400.615463,0.000000,-612.876398
4105.341079,-9844.739029,148.041188,-383.047749
4105.341408,-9770.718434,0.000000,306.438199
4105.341738,-9918.759623,370.102971,766.095498
4105.342068,-9770.718434,0.000000,229.828649
4105.342398,-9992.780217,-444.123565,-383.047749
4105.342728,-10436.903782,-74.020594,-689.485948
4105.343058,-9992.780217,148.041188,153.219100
4105.343388,-10066.800811,296.082377,76.609550
4105.343718,-9622.677246,148.041188,-76.609550
4105.344048,-9548.656652,370.102971,0.000000
4105.344378,-10807.006753,592.164754,229.828649
4105.344708,-10436.903782,148.041188,0.000000
4105.345037,-9992.780217,-370.102971,229.828649
4105.345367,-9252.574275,-222.061783,76.609550
4105.345697,-9474.636058,-518.144159,766.095498
4105.346027,-8956.491898,0.000000,0.000000
4105.346357,-9252.574275,-74.020594,-459.657299
4105.346687,-9252.574275,148.041188,-76.609550
4105.347017,-10436.903782,444.123565,919.314598
4105.347347,-11251.130318,740.205942,1532.190996
4105.347677,-10362.883188,-222.061783,919.314598
4105.348007,-9252.574275,74.020594,842.705048
4105.348336,-9030.512492,-74.020594,0.000000
4105.348666,-9474.636058,222.061783,-1072.533697
4105.348996,-9844.739029,-74.020594,-689.485948
4105.349326,-9992.780217,444.123565,536.266849
4105.349656,-9548.656652,1036.288319,1225.752797
4105.349986,-10288.862594,592.164754,612.876398
4105.350316,-9622.677246,740.205942,76.609550
4105.350646,-9252.574275,518.144159,-383.047749
4105.350976,-9918.759623,1184.329507,-766.095498
4105.351306,-9992.780217,148.041188,-229.828649
4105.351635,-10140.821405,1036.288319,459.657299
4105.351965,-9548.656652,444.123565,1149.143247
4105.352295,-9696.697840,666.185348,0.000000
4105.352625,-9844.739029,74.020594,-766.095498
4105.352955,-9696.697840,222.061783,-689.485948
4105.353285,-9104.533087,148.041188,0.000000
4105.353615,-9178.553681,666.185348,842.705048
4105.353945,-9696.697840,592.164754,766.095498
4105.354275,-10362.883188,222.061783,229.828649
4105.354604,-9400.615463,222.061783,229.828649
4105.354934,-10140.821405,0.000000,-383.047749
4105.355264,-10955.047942,148.041188,-153.219100
4105.355594,-10066.800811,-666.185348,306.438199
4105.355924,-8438.347739,-296.082377,612.876398
4105.356254,-8438.347739,-444.123565,383.047749
4105.356584,-9252.574275,222.061783,229.828649
4105.356913,-10066.800811,0.000000,-153.219100
4105.357243,-9696.697840,-296.082377,459.657299
4105.357573,-9992.780217,-370.102971,383.047749
4105.357903,-10658.965565,0.000000,1302.362347
4105.358233,-10140.821405,-814.226536,1762.019645
4105.358563,-8956.491898,-814.226536,459.657299
4105.358893,-8586.388927,-592.164754,-229.828649
4105.359222,-10140.821405,148.041188,0.000000
4105.359552,-10362.883188,0.000000,536.266849
4105.359882,-10436.903782,-222.061783,229.828649
4105.360212,-10066.800811,0.000000,766.095498
4105.360542,-10436.903782,-148.041188,536.266849
4105.360872,-10140.821405,-444.123565,-612.876398
4105.361202,-9030.512492,-1184.329507,-1608.800546
4105.361531,-8660.409521,-296.082377,-306.438199
4105.361861,-9474.636058,-592.164754,459.657299
4105.362191,-10214.842000,-370.102971,1685.410096
4105.362521,-10066.800811,-296.082377,1225.752797
4105.362851,-10066.800811,-370.102971,1149.143247
4105.363181,-10288.862594,-592.164754,919.314598
4105.363510,-9844.739029,-1036.288319,-306.438199
4105.363840,-8956.491898,-666.185348,-76.609550
4105.364170,-8956.491898,-518.144159,383.047749
4105.364500,-9104.533087,222.061783,995.924147
4105.364830,-9696.697840,370.102971,536.266849
4105.365160,-10288.862594,740.205942,-153.219100
4105.365490,-10732.986159,592.164754,-1225.752797
4105.365819,-10732.986159,962.267725,-1072.533697
4105.366149,-9992.780217,222.061783,-612.876398
4105.366479,-9326.594869,740.205942,0.000000
4105.366809,-9548.656652,444.123565,1072.533697
4105.367139,-9548.656652,962.267725,1072.533697
4105.367469,-9696.697840,888.247130,-153.219100
4105.367799,-10362.883188,1702.473667,-995.924147
4105.368128,-10288.862594,666.185348,-842.705048
4105.368458,-10214.842000,1258.350101,689.485948
4105.368788,-9696.697840,962.267725,1378.971896
4105.369118,-9770.718434,1036.288319,995.924147
4105.369448,-9770.718434,962.267725,383.047749
4105.369778,-9992.780217,888.247130,-306.438199
4105.370108,-9474.636058,1036.288319,-612.876398
4105.370437,-10436.903782,1554.432478,459.657299
4105.370767,-10214.842000,1332.370696,459.657299
4105.371097,-10214.842000,444.123565,76.609550
4105.371427,-9918.759623,814.226536,153.219100
4105.371757,-9474.636058,-148.041188,0.000000
4105.372087,-9252.574275,370.102971,0.000000
4105.372417,-8660.409521,0.000000,383.047749
4105.372746,-8808.450710,74.020594,2298.286494
4105.373076,-9252.574275,296.082377,1762.019645
4105.373406,-10732.986159,592.164754,689.485948
4105.373736,-10881.027347,0.000000,-536.266849
4105.374066,-10140.821405,-222.061783,306.438199
4105.374396,-8956.491898,-592.164754,766.095498
4105.374726,-9030.512492,-444.123565,1149.143247
4105.375055,-8808.450710,-296.082377,229.828649
4105.375385,-8882.471304,-444.123565,-459.657299
4105.375715,-9548.656652,296.082377,-689.485948
4105.376045,-10140.821405,222.061783,-1225.752797
4105.376375,-11029.068536,74.020594,-306.438199
4105.376705,-10066.800811,-444.123565,0.000000
4105.377035,-9252.574275,-370.102971,1225.752797
4105.377364,-9474.636058,-370.102971,-306.438199
4105.377694,-10214.842000,0.000000,-229.828649
4105.378024,-10584.944971,-222.061783,-229.828649
4105.378354,-9992.780217,0.000000,-766.095498
4105.378684,-10436.903782,-592.164754,-383.047749
4105.379014,-10732.986159,-444.123565,689.485948
4105.379344,-9844.739029,-814.226536,1608.800546
4105.379673,-10066.800811,-740.205942,842.705048
4105.380003,-10362.883188,-1406.391290,76.609550
4105.380333,-10510.924376,-1184.329507,306.438199
4105.380663,-9992.780217,-444.123565,689.485948
4105.380993,-9400.615463,-1258.350101,76.609550
4105.381323,-9252.574275,-444.123565,1149.143247
4105.381653,-9548.656652,-1332.370696,1225.752797
4105.381982,-10584.944971,-740.205942,1072.533697
4105.382312,-10214.842000,-1480.411884,612.876398
4105.382642,-9548.656652,-1184.329507,306.438199
4105.382972,-9252.574275,-1110.308913,995.924147
4105.383302,-8956.491898,-222.061783,919.314598
4105.383632,-9030.512492,-222.061783,459.657299
4105.383962,-9622.677246,0.000000,-306.438199
4105.384291,-9770.718434,-370.102971,-306.438199
4105.384621,-10658.965565,0.000000,-229.828649
4105.384951,-10436.903782,-296.082377,0.000000
4105.385281,-9696.697840,-370.102971,766.095498
4105.385611,-8586.388927,0.000000,919.314598
4105.385941,-9178.553681,74.020594,-842.705048
4105.386271,-10362.883188,592.164754,-689.485948
4105.386600,-10436.903782,592.164754,-459.657299
4105.386930,-9696.697840,666.185348,0.000000
4105.387260,-9696.697840,370.102971,689.485948
4105.387590,-10214.842000,296.082377,306.438199
4105.387920,-9844.739029,0.000000,995.924147
4105.388250,-8660.409521,74.020594,-229.828649
4105.388580,-8734.430116,222.061783,-383.047749
4105.388909,-9770.718434,740.205942,229.828649
4105.389239,-10214.842000,814.226536,995.924147
4105.389569,-10436.903782,1184.329507,536.266849
4105.389899,-9326.594869,148.041188,0.000000
4105.390229,-9918.759623,814.226536,76.609550
4105.390559,-9548.656652,444.123565,0.000000
4105.390889,-9474.636058,518.144159,76.609550
4105.391218,-9474.636058,518.144159,536.266849
4105.391548,-10214.842000,740.205942,153.219100
4105.391878,-9992.780217,888.247130,-229.828649
4105.392208,-9844.739029,74.020594,-689.485948
4105.392538,-9326.594869,666.185348,0.000000
4105.392868,-8660.409521,0.000000,842.705048
4105.393197,-8808.450710,444.123565,612.876398
4105.393527,-9770.718434,74.020594,76.609550
4105.393857,-10140.821405,296.082377,0.000000
4105.394187,-9992.780217,-74.020594,0.000000
4105.394517,-9770.718434,0.000000,0.000000
4105.394847,-9326.594869,-444.123565,76.609550
4105.395177,-8956.491898,-296.082377,919.314598
4105.395506,-9104.533087,74.020594,536.266849
4105.395836,-9548.656652,0.000000,-153.219100
4105.396166,-10066.800811,0.000000,-306.438199
4105.396496,-10510.924376,0.000000,536.266849
4105.396826,-10362.883188,74.020594,0.000000
4105.397156,-9844.739029,74.020594,536.266849
4105.397486,-10140.821405,0.000000,229.828649
4105.397815,-9918.759623,-148.041188,-689.485948
4105.398145,-9770.718434,-148.041188,-995.924147
4105.398475,-10436.903782,74.020594,-995.924147
4105.398805,-10214.842000,148.041188,536.266849
4105.399135,-10584.944971,74.020594,306.438199
4105.399465,-10214.842000,-222.061783,383.047749
4105.399795,-9400.615463,-296.082377,-689.485948
4105.400124,-9844.739029,-296.082377,0.000000
4105.400454,-10140.821405,-370.102971,766.095498
4105.400784,-10362.883188,-296.082377,1225.752797
4105.401114,-9696.697840,0.000000,536.266849
4105.401444,-9548.656652,0.000000,612.876398
4105.401774,-9696.697840,296.082377,0.000000
4105.402104,-10214.842000,222.061783,-919.314598
4105.402433,-10362.883188,370.102971,-536.266849
4105.402763,-9474.636058,148.041188,459.657299
4105.403093,-8882.471304,74.020594,306.438199
4105.403423,-9474.636058,74.020594,229.828649
4105.403753,-10214.842000,148.041188,0.000000
4105.404083,-10066.800811,-296.082377,459.657299
4105.404413,-10140.821405,-296.082377,459.657299
4105.404742,-9474.636058,-518.144159,919.314598
4105.405072,-9326.594869,0.000000,1455.581446
4105.405402,-8882.471304,222.061783,1991.848295
4105.405732,-9400.615463,0.000000,689.485948
4105.406062,-9622.677246,370.102971,-306.438199
4105.406392,-10214.842000,518.144159,-536.266849
4105.406722,-9474.636058,296.082377,-153.219100
4105.407051,-9400.615463,444.123565,-383.047749
4105.407381,-9178.553681,518.144159,-153.219100
4105.407711,-9770.718434,148.041188,-229.828649
4105.408041,-9474.636058,74.020594,-842.705048
4105.408371,-8808.450710,-370.102971,-1072.533697
4105.408701,-9252.574275,222.061783,-689.485948
4105.409031,-9252.574275,296.082377,766.095498
4105.409360,-10140.821405,740.205942,1762.019645
4105.409690,-9770.718434,74.020594,1378.971896
4105.410020,-9770.718434,0.000000,306.438199
4105.410350,-9696.697840,0.000000,-306.438199
4105.410680,-10066.800811,74.020594,-459.657299
4105.411010,-10288.862594,370.102971,383.047749
4105.411340,-9696.697840,222.061783,842.705048
4105.411669,-9474.636058,0.000000,612.876398
4105.411999,-9104.533087,0.000000,-689.485948
4105.412329,-9104.533087,0.000000,-919.314598
4105.412659,-9548.656652,148.041188,0.000000
4105.412989,-9696.697840,370.102971,612.876398
4105.413319,-10362.883188,296.082377,766.095498
4105.413649,-10584.944971,296.082377,383.047749
4105.413978,-9770.718434,0.000000,-1072.533697
4105.414308,-9548.656652,222.061783,-1378.971896
4105.414638,-9696.697840,-370.102971,-612.876398
4105.414968,-9918.759623,0.000000,383.047749
4105.415298,-9622.677246,370.102971,1532.190996
4105.415628,-9622.677246,0.000000,995.924147
4105.415958,-9918.759623,-296.082377,153.219100
4105.416287,-10066.800811,0.000000,76.609550
4105.416617,-10288.862594,222.061783,153.219100
4105.416947,-10436.903782,-370.102971,459.657299
4105.417277,-9844.739029,0.000000,766.095498
4105.417607,-9918.759623,-222.061783,1225.752797
4105.417937,-9622.677246,0.000000,229.828649
4105.418267,-9400.615463,222.061783,-76.609550
4105.418596,-10362.883188,296.082377,-459.657299
4105.418926,-10140.821405,74.020594,229.828649
4105.419256,-9770.718434,222.061783,995.924147
4105.419586,-9474.636058,296.082377,842.705048
4105.419916,-9326.594869,0.000000,383.047749
4105.420246,-9474.636058,0.000000,842.705048
4105.420576,-9474.636058,0.000000,-153.219100
4105.420905,-10140.821405,222.061783,-383.047749
4105.421235,-10510.924376,0.000000,536.266849
4105.421565,-10066.800811,370.102971,689.485948
4105.421895,-10066.800811,148.041188,153.219100
4105.422225,-9548.656652,0.000000,-306.438199
4105.422555,-8956.491898,-518.144159,0.000000
4105.422884,-8882.471304,0.000000,0.000000
4105.423214,-9474.636058,296.082377,-229.828649
4105.423544,-9844.739029,222.061783,459.657299
4105.423874,-10066.800811,222.061783,1072.533697
4105.424204,-10140.821405,74.020594,383.047749
4105.424534,-9474.636058,0.000000,-306.438199
4105.424864,-9548.656652,74.020594,-153.219100
4105.425193,-9474.636058,444.123565,536.266849
4105.425523,-9474.636058,-296.082377,153.219100
4105.425853,-9696.697840,444.123565,0.000000
4105.426183,-9992.780217,0.000000,842.705048
4105.426513,-10288.862594,74.020594,0.000000
4105.426843,-9548.656652,0.000000,-459.657299
4105.427173,-9474.636058,0.000000,-536.266849
4105.427502,-9252.574275,0.000000,0.000000
4105.427832,-9104.533087,0.000000,689.485948
4105.428162,-9252.574275,222.061783,459.657299
4105.428492,-9178.553681,74.020594,0.000000
4105.428822,-10140.821405,370.102971,153.219100
4105.429152,-10288.862594,74.020594,229.828649
4105.429482,-10732.986159,-74.020594,536.266849
4105.429811,-9622.677246,0.000000,383.047749
4105.430141,-9474.636058,-370.102971,842.705048
4105.430471,-9400.615463,74.020594,383.047749
4105.430801,-9400.615463,0.000000,0.000000
4105.431131,-10362.883188,74.020594,0.000000
4105.431461,-10362.883188,370.102971,-306.438199
4105.431791,-9918.759623,74.020594,-612.876398
4105.432120,-9844.739029,0.000000,-306.438199
4105.432450,-9548.656652,0.000000,766.095498
4105.432780,-9696.697840,0.000000,1149.143247
4105.433110,-10066.800811,0.000000,919.314598
4105.433440,-10288.862594,0.000000,76.609550
4105.433770,-10436.903782,148.041188,536.266849
4105.434100,-9992.780217,0.000000,229.828649
4105.434429,-9326.594869,-444.123565,0.000000
4105.434759,-9770.718434,-222.061783,306.438199
4105.435089,-9992.780217,-74.020594,536.266849
4105.435419,-9474.636058,-444.123565,0.000000
4105.435749,-9474.636058,-740.205942,229.828649
4105.436079,-9992.780217,-296.082377,689.485948
4105.436409,-10140.821405,0.000000,919.314598
4105.436738,-9992.780217,-296.082377,383.047749
4105.437068,-9918.759623,0.000000,0.000000
4105.437398,-9844.739029,-148.041188,842.705048
4105.437728,-9178.553681,0.000000,229.828649
4105.438058,-9622.677246,370.102971,153.219100
4105.438388,-10066.800811,370.102971,383.047749
4105.438718,-9918.759623,0.000000,919.314598
4105.439047,-10214.842000,592.164754,842.705048
4105.439377,-9918.759623,0.000000,0.000000
4105.439707,-9918.759623,592.164754,-689.485948
4105.440037,-10066.800811,74.020594,-229.828649
4105.440367,-9326.594869,0.000000,76.609550
4105.440697,-8586.388927,0.000000,229.828649
4105.441027,-9474.636058,666.185348,766.095498
4105.441356,-9770.718434,148.041188,459.657299
4105.441686,-9844.739029,444.123565,76.609550
4105.442016,-10436.903782,740.205942,-766.095498
4105.442346,-10362.883188,0.000000,-76.609550
4105.442676,-9770.718434,370.102971,153.219100
4105.443006,-8734.430116,-296.082377,76.609550
4105.443336,-9030.512492,74.020594,536.266849
4105.443665,-9400.615463,0.000000,1225.752797
4105.443995,-9844.739029,666.185348,306.438199
4105.444325,-10362.883188,370.102971,-612.876398
4105.444655,-9770.718434,518.144159,-919.314598
4105.444985,-9326.594869,296.082377,-76.609550
4105.445315,-9474.636058,518.144159,76.609550
4105.445645,-9918.759623,0.000000,536.266849
4105.445974,-9844.739029,0.000000,306.438199
4105.446304,-9844.739029,74.020594,229.828649
4105.446634,-9770.718434,0.000000,0.000000
4105.446964,-9992.780217,148.041188,-76.609550
4105.447294,-9548.656652,370.102971,459.657299
4105.447624,-9696.697840,296.082377,612.876398
4105.447954,-9844.739029,222.061783,459.657299
4105.448283,-9918.759623,74.020594,306.438199
4105.448613,-10510.924376,222.061783,383.047749
4105.448943,-9770.718434,74.020594,536.266849
4105.449273,-9844.739029,-444.123565,536.266849
4105.449603,-9622.677246,0.000000,76.609550
4105.449933,-10362.883188,0.000000,383.047749
4105.450263,-9770.718434,222.061783,0.000000
4105.450592,-9030.512492,222.061783,-536.266849
4105.450922,-9696.697840,962.267725,459.657299
4105.451252,-10362.883188,518.144159,0.000000
4105.451582,-10732.986159,296.082377,-919.314598
4105.451912,-9992.780217,222.061783,-1302.362347
4105.452242,-10140.821405,740.205942,-995.924147
4105.452571,-9770.718434,148.041188,-229.828649
4105.452901,-9252.574275,0.000000,229.828649
4105.453231,-9548.656652,-148.041188,153.219100
4105.453561,-10214.842000,-444.123565,766.095498
4105.453891,-9696.697840,0.000000,306.438199
4105.454221,-9474.636058,-222.061783,-76.609550
4105.454551,-9474.636058,370.102971,459.657299
4105.454880,-9770.718434,222.061783,919.314598
4105.455210,-10288.862594,814.226536,153.219100
4105.455540,-9770.718434,148.041188,-995.924147
4105.455870,-9548.656652,148.041188,-612.876398
4105.456200,-9696.697840,-518.144159,76.609550
4105.456530,-9992.780217,-592.164754,153.219100
4105.456859,-9474.636058,-592.164754,536.266849
4105.457189,-8512.368333,-74.020594,919.314598
4105.457519,-9178.553681,-222.061783,536.266849
4105.457849,-10362.883188,0.000000,766.095498
4105.458179,-10955.047942,0.000000,383.047749
4105.458509,-10510.924376,-148.041188,1149.143247
4105.458838,-9178.553681,-370.102971,1225.752797
4105.459168,-9474.636058,-222.061783,459.657299
4105.459498,-9474.636058,0.000000,-383.047749
4105.459828,-9400.615463,-592.164754,-306.438199
4105.460158,-9548.656652,74.020594,-229.828649
4105.460487,-10140.821405,148.041188,153.219100
4105.460817,-10881.027347,74.020594,689.485948
4105.461147,-9992.780217,-370.102971,766.095498
4105.461477,-9474.636058,-296.082377,229.828649
4105.461807,-9400.615463,-444.123565,-306.438199
4105.462137,-10362.883188,148.041188,842.705048
4105.462466,-10288.862594,74.020594,229.828649
4105.462796,-9992.780217,0.000000,229.828649
4105.463126,-9918.759623,0.000000,0.000000
4105.463456,-9918.759623,74.020594,1378.971896
4105.463786,-9548.656652,0.000000,459.657299
4105.464115,-9770.718434,-370.102971,306.438199
4105.464445,-9400.615463,-370.102971,0.000000
4105.464775,-9918.759623,-148.041188,229.828649
4105.465105,-10362.883188,148.041188,76.609550
4105.465435,-9844.739029,-592.164754,-153.219100
4105.465764,-9548.656652,-296.082377,919.314598
4105.466094,-9548.656652,-518.144159,1225.752797
4105.466424,-9474.636058,0.000000,0.000000
4105.466754,-9326.594869,0.000000,0.000000
4105.467084,-9474.636058,222.061783,689.485948
4105.467414,-10140.821405,148.041188,383.047749
4105.467743,-10362.883188,370.102971,-459.657299
4105.468073,-10140.821405,-148.041188,-306.438199
4105.468403,-10066.800811,0.000000,459.657299
4105.468733,-8882.471304,-444.123565,0.000000
4105.469063,-8882.471304,-592.164754,-383.047749
4105.469392,-8512.368333,0.000000,-766.095498
4105.469722,-9622.677246,518.144159,383.047749
4105.470052,-9770.718434,814.226536,1225.752797
4105.470382,-10436.903782,222.061783,383.047749
4105.470712,-11029.068536,592.164754,76.609550
4105.471042,-10658.965565,0.000000,612.876398
4105.471371,-10658.965565,222.061783,383.047749
4105.471701,-9844.739029,-444.123565,0.000000
4105.472031,-9474.636058,518.144159,689.485948
4105.472361,-9030.512492,148.041188,0.000000
4105.472691,-9622.677246,518.144159,-306.438199
4105.473020,-9770.718434,296.082377,-612.876398
4105.473350,-10066.800811,444.123565,459.657299
4105.473680,-10140.821405,740.205942,459.657299
4105.474010,-9992.780217,148.041188,0.000000
4105.474340,-10214.842000,74.020594,-383.047749
4105.474670,-9548.656652,-222.061783,229.828649
4105.474999,-9178.553681,296.082377,383.047749
4105.475329,-8956.491898,74.020594,0.000000
4105.475659,-9696.697840,518.144159,153.219100
4105.475989,-10214.842000,518.144159,153.219100
4105.476319,-9474.636058,592.164754,-612.876398
4105.476648,-9548.656652,296.082377,-842.705048
4105.476978,-10140.821405,1110.308913,0.000000
4105.477308,-9844.739029,370.102971,306.438199
4105.477638,-9326.594869,666.185348,-383.047749
4105.477968,-8734.430116,666.185348,-459.657299
4105.478298,-10066.800811,1332.370696,0.000000
4105.478627,-10436.903782,666.185348,-383.047749
4105.478957,-10362.883188,1036.288319,-689.485948
4105.479287,-9770.718434,888.247130,-689.485948
4105.479617,-10066.800811,592.164754,459.657299
4105.479947,-9770.718434,222.061783,1149.143247
4105.480276,-8956.491898,0.000000,919.314598
4105.480606,-9252.574275,1036.288319,383.047749
4105.480936,-9770.718434,370.102971,1225.752797
4105.481266,-11103.089130,962.267725,1149.143247
4105.481596,-10436.903782,0.000000,229.828649
4105.481926,-9770.718434,444.123565,919.314598
4105.482255,-9400.615463,0.000000,229.828649
4105.482585,-9696.697840,74.020594,153.219100
4105.482915,-9770.718434,0.000000,229.828649
4105.483245,-9844.739029,148.041188,459.657299
4105.483575,-9474.636058,444.123565,842.705048
4105.483904,-10214.842000,0.000000,459.657299
4105.484234,-10288.862594,0.000000,306.438199
4105.484564,-10066.800811,-444.123565,229.828649
4105.484894,-9844.739029,-296.082377,383.047749
4105.485224,-9918.759623,-1110.308913,153.219100
4105.485554,-9548.656652,-888.247130,689.485948
4105.485883,-8956.491898,-666.185348,1608.800546
4105.486213,-8808.450710,0.000000,1225.752797
4105.486543,-9474.636058,-666.185348,459.657299
4105.486873,-9918.759623,-370.102971,306.438199
4105.487203,-9696.697840,-962.267725,-153.219100
4105.487532,-9326.594869,-962.267725,-459.657299
4105.487862,-9400.615463,-666.185348,0.000000
4105.488192,-9622.677246,-740.205942,766.095498
4105.488522,-9844.739029,-740.205942,76.609550
4105.488852,-9252.574275,-592.164754,-689.485948
4105.489182,-9474.636058,-296.082377,-995.924147
4105.489511,-10436.903782,-370.102971,153.219100
4105.489841,-10510.924376,0.000000,459.657299
4105.490171,-9992.780217,-740.205942,0.000000
4105.490501,-9992.780217,-666.185348,306.438199
4105.490831,-9770.718434,-814.226536,536.266849
4105.491160,-9622.677246,-222.061783,229.828649
4105.491490,-9770.718434,-740.205942,-229.828649
4105.491820,-9918.759623,-296.082377,1149.143247
4105.492150,-9844.739029,74.020594,612.876398
4105.492480,-10584.944971,296.082377,229.828649
4105.492810,-10510.924376,-296.082377,-306.438199
4105.493139,-10436.903782,0.000000,0.000000
4105.493469,-9770.718434,0.000000,536.266849
4105.493799,-10214.842000,0.000000,459.657299
4105.494129,-10066.800811,0.000000,612.876398
4105.494459,-9844.739029,0.000000,306.438199
4105.494788,-9474.636058,222.061783,-76.609550
4105.495118,-9474.636058,148.041188,-459.657299
4105.495448,-10584.944971,222.061783,0.000000
4105.495778,-10066.800811,0.000000,1378.971896
4105.496108,-9400.615463,666.185348,689.485948
4105.496438,-9326.594869,-148.041188,689.485948
4105.496767,-9770.718434,0.000000,306.438199
4105.497097,-9992.780217,74.020594,612.876398
4105.497427,-9696.697840,148.041188,0.000000
4105.497757,-8808.450710,74.020594,0.000000
4105.498087,-9104.533087,296.082377,689.485948
4105.498416,-9252.574275,592.164754,766.095498
4105.498746,-9992.780217,518.144159,153.219100
4105.499076,-9918.759623,740.205942,-153.219100
4105.499406,-9696.697840,666.185348,-536.266849
4105.499736,-9918.759623,740.205942,-383.047749
4105.500066,-9474.636058,962.267725,-229.828649
4105.500395,-9474.636058,740.205942,-76.609550
4105.500725,-9474.636058,1332.370696,306.438199
4105.501055,-9622.677246,1036.288319,-536.266849
4105.501385,-10288.862594,888.247130,-1072.533697
4105.501715,-9918.759623,888.247130,-842.705048
4105.502044,-10066.800811,962.267725,229.828649
4105.502374,-9696.697840,814.226536,0.000000
4105.502704,-9178.553681,592.164754,-306.438199
4105.503034,-9992.780217,740.205942,153.219100
4105.503364,-10140.821405,1110.308913,76.609550
4105.503694,-9992.780217,666.185348,0.000000
4105.504023,-9844.739029,370.102971,-306.438199
4105.504353,-9548.656652,444.123565,76.609550
4105.504683,-9696.697840,296.082377,76.609550
4105.505013,-9622.677246,148.041188,0.000000
4105.505343,-9770.718434,-74.020594,383.047749
4105.505672,-9696.697840,0.000000,153.219100
4105.506002,-9400.615463,444.123565,0.000000
4105.506332,-9696.697840,-222.061783,0.000000
4105.506662,-9770.718434,222.061783,306.438199
4105.506992,-9844.739029,148.041188,0.000000
4105.507322,-10288.862594,-222.061783,153.219100
4105.507651,-9844.739029,-296.082377,76.609550
4105.507981,-9918.759623,-296.082377,842.705048
4105.508311,-9992.780217,-518.144159,995.924147
4105.508641,-9326.594869,-1036.288319,459.657299
4105.508971,-9252.574275,-1184.329507,0.000000
4105.509300,-9178.553681,-444.123565,0.000000
4105.509630,-9622.677246,-666.185348,536.266849
4105.509960,-9548.656652,-370.102971,383.047749
4105.510290,-9326.594869,-148.041188,0.000000
4105.510620,-10214.842000,0.000000,1225.752797
4105.510950,-10436.903782,-74.020594,1072.533697
4105.511279,-10658.965565,-370.102971,0.000000
4105.511609,-10140.821405,-518.144159,-1149.143247
4105.511939,-9400.615463,-592.164754,-229.828649
4105.512269,-9178.553681,-444.123565,-229.828649
4105.512599,-9474.636058,-518.144159,0.000000
4105.512928,-10066.800811,222.061783,536.266849
4105.513258,-10362.883188,370.102971,842.705048
4105.513588,-10362.883188,74.020594,0.000000
4105.513918,-10288.862594,0.000000,-842.705048
4105.514248,-9918.759623,-148.041188,-306.438199
4105.514578,-9622.677246,-148.041188,-612.876398
4105.514907,-9474.636058,-222.061783,0.000000
4105.515237,-9178.553681,-518.144159,306.438199
4105.515567,-9770.718434,-148.041188,766.095498
4105.515897,-10140.821405,444.123565,1685.410096
4105.516227,-10362.883188,0.000000,306.438199
4105.516556,-10362.883188,148.041188,76.609550
4105.516886,-9474.636058,0.000000,306.438199
4105.517216,-9104.533087,74.020594,383.047749
4105.517546,-9622.677246,-296.082377,76.609550
4105.517876,-9474.636058,296.082377,0.000000
4105.518205,-9622.677246,74.020594,0.000000
4105.518535,-9178.553681,296.082377,0.000000
4105.518865,-9622.677246,518.144159,612.876398
4105.519195,-10658.965565,888.247130,1149.143247
4105.519525,-10510.924376,592.164754,1149.143247
4105.519855,-9770.718434,0.000000,306.438199
4105.520184,-9252.574275,148.041188,153.219100
4105.520514,-9178.553681,0.000000,536.266849
4105.520844,-9474.636058,592.164754,536.266849
4105.521174,-9844.739029,370.102971,536.266849
4105.521504,-9770.718434,296.082377,0.000000
4105.521833,-9400.615463,518.144159,-689.485948
4105.522163,-9622.677246,814.226536,-1149.143247
4105.522493,-9992.780217,518.144159,-995.924147
4105.522823,-9992.780217,666.185348,0.000000
4105.523153,-9326.594869,222.061783,0.000000
4105.523483,-9622.677246,296.082377,0.000000
4105.523812,-9992.780217,148.041188,76.609550
4105.524142,-9844.739029,74.020594,0.000000
4105.524472,-9844.739029,518.144159,153.219100
4105.524802,-9326.594869,222.061783,0.000000
4105.525132,-10214.842000,0.000000,383.047749
4105.525461,-10140.821405,148.041188,919.314598
4105.525791,-9400.615463,296.082377,1302.362347
4105.526121,-9844.739029,148.041188,0.000000
4105.526451,-9992.780217,740.205942,-306.438199
4105.526781,-10510.924376,518.144159,-229.828649
4105.527111,-9918.759623,444.123565,0.000000
4105.527440,-9844.739029,0.000000,-766.095498
4105.527770,-10214.842000,222.061783,-229.828649
4105.528100,-9548.656652,0.000000,306.438199
4105.528430,-9104.533087,0.000000,306.438199
4105.528760,-9770.718434,0.000000,459.657299
4105.529089,-10140.821405,0.000000,536.266849
4105.529419,-9918.759623,-592.164754,919.314598
4105.529749,-9696.697840,0.000000,766.095498
4105.530079,-9474.636058,370.102971,919.314598
4105.530409,-10066.800811,0.000000,153.219100
4105.530739,-9696.697840,0.000000,383.047749
4105.531068,-9992.780217,-148.041188,0.000000
4105.531398,-9844.739029,0.000000,-306.438199
4105.531728,-9474.636058,0.000000,0.000000
4105.532058,-9030.512492,-444.123565,-76.609550
4105.532388,-8882.471304,-444.123565,-383.047749
4105.532717,-9326.594869,-148.041188,153.219100
4105.533047,-10066.800811,222.061783,1302.362347
4105.533377,-10066.800811,222.061783,766.095498
4105.533707,-10214.842000,-222.061783,383.047749
4105.534037,-10066.800811,0.000000,229.828649
4105.534367,-9918.759623,-222.061783,536.266849
4105.534696,-9770.718434,0.000000,229.828649
4105.535026,-9548.656652,-148.041188,536.266849
4105.535356,-9400.615463,0.000000,536.266849
4105.535686,-9104.533087,222.061783,995.924147
4105.536016,-10066.800811,74.020594,536.266849
4105.536345,-10584.944971,0.000000,-153.219100
4105.536675,-10510.924376,-148.041188,0.000000
4105.537005,-9548.656652,-370.102971,0.000000
4105.537335,-9104.533087,-222.061783,306.438199
4105.537665,-9474.636058,222.061783,536.266849
4105.537995,-9548.656652,0.000000,612.876398
4105.538324,-9622.677246,0.000000,459.657299
4105.538654,-9918.759623,222.061783,842.705048
4105.538984,-10362.883188,74.020594,766.095498
4105.539314,-10362.883188,-444.123565,689.485948
4105.539644,-9474.636058,-518.144159,383.047749
4105.539973,-8734.430116,-740.205942,612.876398
4105.540303,-9474.636058,-296.082377,536.266849
4105.540633,-10066.800811,-222.061783,459.657299
4105.540963,-9474.636058,-370.102971,0.000000
4105.541293,-9548.656652,0.000000,-153.219100
4105.541623,-9844.739029,296.082377,459.657299
4105.541952,-10436.903782,444.123565,229.828649
4105.542282,-9844.739029,222.061783,-536.266849
4105.542612,-10214.842000,74.020594,-153.219100
4105.542942,-9918.759623,0.000000,459.657299
4105.543272,-9992.780217,0.000000,766.095498
4105.543601,-9992.780217,-592.164754,536.266849
4105.543931,-9770.718434,-370.102971,383.047749
4105.544261,-10288.862594,0.000000,689.485948
4105.544591,-9770.718434,0.000000,-306.438199
4105.544921,-9474.636058,0.000000,-153.219100
4105.545251,-9992.780217,74.020594,612.876398
4105.545580,-9696.697840,370.102971,1532.190996
4105.545910,-10140.821405,0.000000,766.095498
4105.546240,-10436.903782,0.000000,-383.047749
4105.546570,-10362.883188,-74.020594,153.219100
4105.546900,-9844.739029,-222.061783,0.000000
4105.547229,-9400.615463,-296.082377,153.219100
4105.547559,-8586.388927,-518.144159,766.095498
4105.547889,-8660.409521,-296.082377,842.705048
4105.548219,-9326.594869,296.082377,995.924147
4105.548549,-9770.718434,444.123565,153.219100
4105.548879,-10510.924376,592.164754,-229.828649
4105.549208,-9696.697840,444.123565,-919.314598
4105.549538,-9918.759623,444.123565,-383.047749
4105.549868,-9918.759623,74.020594,919.314598
4105.550198,-9770.718434,0.000000,1072.533697
4105.550528,-9252.574275,148.041188,229.828649
4105.550857,-8882.471304,148.041188,-306.438199
4105.551187,-10214.842000,888.247130,0.000000
4105.551517,-10881.027347,814.226536,306.438199
4105.551847,-10362.883188,1036.288319,306.438199
4105.552177,-9992.780217,592.164754,-153.219100
4105.552507,-10288.862594,0.000000,-153.219100
4105.552836,-10584.944971,666.185348,0.000000
4105.553166,-9474.636058,296.082377,153.219100
4105.553496,-9696.697840,370.102971,0.000000
4105.553826,-9400.615463,592.164754,-76.609550
4105.554156,-9696.697840,592.164754,383.047749
4105.554485,-9622.677246,814.226536,-76.609550
4105.554815,-10066.800811,148.041188,-306.438199
4105.555145,-10658.965565,222.061783,0.000000
4105.555474,-9992.780217,592.164754,536.266849
4105.555804,-9474.636058,444.123565,0.000000
4105.556134,-8734.430116,74.020594,-229.828649
4105.556464,-9992.780217,222.061783,0.000000
4105.556793,-10214.842000,444.123565,76.609550
4105.557123,-9474.636058,0.000000,-689.485948
4105.557453,-9178.553681,-74.020594,306.438199
4105.557782,-9548.656652,0.000000,1225.752797
4105.558112,-9622.677246,0.000000,1455.581446
4105.558442,-9622.677246,-148.041188,459.657299
4105.558772,-9770.718434,0.000000,-383.047749
4105.559101,-10066.800811,0.000000,-536.266849
4105.559431,-9696.697840,0.000000,0.000000
4105.559761,-9696.697840,-148.041188,229.828649
4105.560090,-9770.718434,-148.041188,229.828649
4105.560420,-9622.677246,-370.102971,919.314598
4105.560750,-9770.718434,-370.102971,306.438199
4105.561080,-9696.697840,-444.123565,-842.705048
4105.561409,-9844.739029,0.000000,0.000000
4105.561739,-9474.636058,-148.041188,536.266849
4105.562069,-9030.512492,-148.041188,-153.219100
4105.562398,-9622.677246,-370.102971,0.000000
4105.562728,-10066.800811,-518.144159,766.095498
4105.563058,-10140.821405,-444.123565,1225.752797
4105.563388,-10140.821405,-740.205942,0.000000
4105.563717,-9622.677246,-666.185348,459.657299
4105.564047,-9622.677246,-592.164754,995.924147
4105.564377,-9770.718434,-370.102971,383.047749
4105.564706,-9622.677246,-666.185348,0.000000
4105.565036,-10066.800811,-444.123565,0.000000
4105.565366,-9918.759623,0.000000,536.266849
4105.565696,-9918.759623,-296.082377,536.266849
4105.566025,-10362.883188,148.041188,536.266849
4105.566355,-9992.780217,-370.102971,766.095498
4105.566685,-9770.718434,-814.226536,-383.047749
4105.567014,-9400.615463,-444.123565,-612.876398
4105.567344,-9918.759623,0.000000,229.828649
4105.567674,-10066.800811,0.000000,536.266849
4105.568004,-9696.697840,222.061783,689.485948
4105.568333,-10362.883188,296.082377,536.266849
4105.568663,-10362.883188,370.102971,0.000000
4105.568993,-10436.903782,0.000000,0.000000
4105.569322,-10214.842000,0.000000,0.000000
4105.569652,-9844.739029,-148.041188,306.438199
4105.569982,-9400.615463,-296.082377,229.828649
4105.570312,-8808.450710,-444.123565,459.657299
4105.570641,-8808.450710,148.041188,0.000000
4105.570971,-9400.615463,148.041188,-229.828649
4105.571301,-10140.821405,888.247130,-76.609550
4105.571630,-10436.903782,444.123565,536.266849
4105.571960,-9918.759623,296.082377,0.000000
4105.572290,-9326.594869,0.000000,76.609550
4105.572620,-9474.636058,0.000000,766.095498
4105.572949,-8882.471304,74.020594,842.705048
4105.573279,-9104.533087,296.082377,153.219100
4105.573609,-9178.553681,296.082377,0.000000
4105.573938,-10140.821405,666.185348,229.828649
4105.574268,-10658.965565,888.247130,0.000000
4105.574598,-10140.821405,222.061783,-383.047749
4105.574928,-9548.656652,518.144159,-459.657299
4105.575257,-9326.594869,444.123565,153.219100
4105.575587,-9326.594869,592.164754,0.000000
4105.575917,-9770.718434,1184.329507,229.828649
4105.576246,-9770.718434,814.226536,-536.266849
4105.576576,-9918.759623,444.123565,-383.047749
4105.576906,-9770.718434,370.102971,-459.657299
4105.577235,-10140.821405,0.000000,689.485948
4105.577565,-9992.780217,296.082377,1072.533697
4105.577895,-9178.553681,370.102971,842.705048
4105.578225,-9104.533087,296.082377,306.438199
4105.578554,-9474.636058,592.164754,-153.219100
4105.578884,-9770.718434,666.185348,0.000000
4105.579214,-10436.903782,740.205942,0.000000
4105.579543,-10436.903782,296.082377,-306.438199
4105.579873,-10140.821405,222.061783,0.000000
4105.580203,-8290.306550,0.000000,229.828649
4105.580533,-8512.368333,0.000000,0.000000
4105.580862,-9474.636058,444.123565,229.828649
4105.581192,-10214.842000,962.267725,383.047749
4105.581522,-10732.986159,888.247130,536.266849
4105.581851,-9918.759623,592.164754,0.000000
4105.582181,-10288.862594,444.123565,459.657299
4105.582511,-10214.842000,-222.061783,459.657299
4105.582841,-9474.636058,-296.082377,0.000000
4105.583170,-8882.471304,-740.205942,-383.047749
4105.583500,-9770.718434,-296.082377,0.000000
4105.583830,-10436.903782,74.020594,995.924147
4105.584159,-10066.800811,148.041188,153.219100
4105.584489,-9030.512492,-444.123565,0.000000
4105.584819,-9992.780217,0.000000,-76.609550
4105.585149,-9992.780217,-370.102971,229.828649
4105.585478,-9474.636058,-666.185348,153.219100
4105.585808,-9104.533087,-1036.288319,-153.219100
4105.586138,-9326.594869,-740.205942,1072.533697
4105.586467,-10140.821405,-740.205942,1378.971896
4105.586797,-9696.697840,-814.226536,612.876398
4105.587127,-9474.636058,-370.102971,-1225.752797
4105.587457,-9400.615463,-592.164754,76.609550
4105.587786,-9918.759623,-296.082377,995.924147
4105.588116,-10288.862594,-296.082377,1072.533697
4105.588446,-10140.821405,-370.102971,229.828649
4105.588775,-9622.677246,296.082377,0.000000
4105.589105,-9992.780217,-296.082377,-459.657299
4105.589435,-10066.800811,-296.082377,-995.924147
4105.589765,-9770.718434,-666.185348,-153.219100
4105.590094,-9474.636058,0.000000,689.485948
4105.590424,-9400.615463,-370.102971,1378.971896
4105.590754,-9844.739029,-666.185348,229.828649
4105.591083,-9696.697840,-222.061783,306.438199
4105.591413,-9622.677246,0.000000,-842.705048
4105.591743,-9622.677246,222.061783,459.657299
4105.592073,-9696.697840,-148.041188,689.485948
4105.592402,-10510.924376,222.061783,995.924147
4105.592732,-9992.780217,0.000000,612.876398
4105.593062,-10214.842000,0.000000,306.438199
4105.593391,-10214.842000,-296.082377,0.000000
4105.593721,-9992.780217,-222.061783,0.000000
4105.594051,-9252.574275,-148.041188,-383.047749
4105.594381,-8512.368333,74.020594,-383.047749
4105.594710,-8956.491898,222.061783,459.657299
4105.595040,-9474.636058,0.000000,612.876398
4105.595370,-9548.656652,370.102971,612.876398
4105.595699,-9696.697840,74.020594,689.485948
4105.596029,-10436.903782,444.123565,612.876398
4105.596359,-10140.821405,148.041188,766.095498
4105.596689,-9844.739029,370.102971,-76.609550
4105.597018,-9252.574275,0.000000,-459.657299
4105.597348,-9178.553681,0.000000,0.000000
4105.597678,-9474.636058,518.144159,383.047749
4105.598007,-9992.780217,222.061783,76.609550
4105.598337,-10066.800811,370.102971,-383.047749
4105.598667,-9548.656652,444.123565,0.000000
4105.598997,-9844.739029,148.041188,229.828649
4105.599326,-9844.739029,296.082377,0.000000
4105.599656,-9844.739029,222.061783,0.000000
4105.599986,-9548.656652,666.185348,229.828649
4105.600315,-9696.697840,814.226536,306.438199
4105.600645,-10362.883188,592.164754,0.000000
4105.600975,-10288.862594,444.123565,-153.219100
4105.601305,-9992.780217,740.205942,-306.438199
4105.601634,-9696.697840,814.226536,-383.047749
4105.601964,-9844.739029,148.041188,-995.924147
4105.602294,-9918.759623,148.041188,-229.828649
4105.602623,-9104.533087,0.000000,0.000000
4105.602953,-9030.512492,296.082377,0.000000
4105.603283,-9696.697840,666.185348,-306.438199
4105.603613,-10584.944971,666.185348,76.609550
4105.603942,-10288.862594,740.205942,0.000000
4105.604272,-9844.739029,592.164754,-306.438199
4105.604602,-10140.821405,74.020594,229.828649
4105.604931,-10140.821405,0.000000,689.485948
4105.605261,-9696.697840,-370.102971,383.047749
4105.605591,-8882.471304,-74.020594,459.657299
4105.605920,-9030.512492,-296.082377,919.314598
4105.606250,-9474.636058,-74.020594,612.876398
4105.606580,-9696.697840,74.020594,76.609550
4105.606910,-9474.636058,74.020594,-536.266849
4105.607239,-10362.883188,148.041188,536.266849
4105.607569,-10436.903782,148.041188,689.485948
4105.607899,-9992.780217,518.144159,689.485948
4105.608228,-9770.718434,148.041188,0.000000
4105.608558,-9548.656652,370.102971,612.876398
4105.608888,-9918.759623,222.061783,306.438199
4105.609218,-10066.800811,0.000000,536.266849
4105.609547,-10214.842000,74.020594,0.000000
4105.609877,-9844.739029,74.020594,1149.143247
4105.610207,-9844.739029,74.020594,1225.752797
4105.610536,-10214.842000,-296.082377,459.657299
4105.610866,-9400.615463,-148.041188,76.609550
4105.611196,-9400.615463,222.061783,0.000000
4105.611526,-10066.800811,962.267725,-383.047749
4105.611855,-10288.862594,0.000000,-306.438199
4105.612185,-10140.821405,74.020594,-612.876398
4105.612515,-9474.636058,0.000000,536.266849
4105.612844,-9696.697840,0.000000,1378.971896
4105.613174,-10140.821405,-444.123565,1302.362347
4105.613504,-9844.739029,-592.164754,1149.143247
4105.613834,-9252.574275,-148.041188,459.657299
4105.614163,-9474.636058,74.020594,0.000000
4105.614493,-10510.924376,222.061783,-383.047749
4105.614823,-10214.842000,74.020594,689.485948
4105.615152,-9400.615463,74.020594,1072.533697
4105.615482,-9992.780217,-296.082377,383.047749
4105.615812,-9548.656652,0.000000,0.000000
4105.616142,-9474.636058,-222.061783,-995.924147
4105.616471,-9030.512492,0.000000,-612.876398
4105.616801,-9252.574275,-222.061783,0.000000
4105.617131,-9844.739029,0.000000,919.314598
4105.617460,-9918.759623,222.061783,766.095498
4105.617790,-9474.636058,-148.041188,229.828649
4105.618120,-9770.718434,0.000000,0.000000
4105.618450,-10658.965565,222.061783,1149.143247
4105.618779,-11029.068536,-74.020594,536.266849
4105.619109,-9474.636058,-296.082377,229.828649
4105.619439,-8808.450710,-370.102971,536.266849
4105.619768,-9474.636058,0.000000,1685.410096
4105.620098,-10066.800811,222.061783,995.924147
4105.620428,-10436.903782,370.102971,-459.657299
4105.620758,-9918.759623,370.102971,-1225.752797
4105.621087,-10288.862594,444.123565,-459.657299
4105.621417,-10066.800811,0.000000,0.000000
4105.621747,-9326.594869,0.000000,-536.266849
4105.622076,-8882.471304,0.000000,-153.219100
4105.622406,-9326.594869,0.000000,0.000000
4105.622736,-10436.903782,222.061783,0.000000
4105.623066,-10658.965565,222.061783,229.828649
4105.623395,-9918.759623,148.041188,536.266849
4105.623725,-9918.759623,296.082377,459.657299
4105.624055,-9400.615463,666.185348,766.095498
4105.624384,-9844.739029,296.082377,-612.876398
4105.624714,-10362.883188,666.185348,-1072.533697
4105.625044,-9918.759623,222.061783,-919.314598
4105.625374,-9696.697840,0.000000,153.219100
4105.625703,-9770.718434,148.041188,306.438199
4105.626033,-9326.594869,370.102971,1225.752797
4105.626363,-9326.594869,518.144159,459.657299
4105.626692,-9770.718434,444.123565,-612.876398
4105.627022,-9844.739029,518.144159,-919.314598
4105.627352,-10140.821405,592.164754,0.000000
4105.627682,-10140.821405,518.144159,76.609550
4105.628011,-10140.821405,148.041188,306.438199
4105.628341,-9104.533087,444.123565,76.609550
4105.628671,-9030.512492,0.000000,-153.219100
4105.629000,-9400.615463,370.102971,-766.095498
4105.629330,-9844.739029,222.061783,-153.219100
4105.629660,-10510.924376,370.102971,919.314598
4105.629990,-9844.739029,370.102971,1991.848295
4105.630319,-10288.862594,222.061783,1608.800546
4105.630649,-10066.800811,222.061783,612.876398
4105.630979,-9992.780217,0.000000,383.047749
4105.631308,-9696.697840,518.144159,-229.828649
4105.631638,-9622.677246,222.061783,-459.657299
4105.631968,-10140.821405,296.082377,0.000000
4105.632298,-9548.656652,0.000000,1302.362347
4105.632627,-9326.594869,-518.144159,612.876398
4105.632957,-9770.718434,-74.020594,153.219100
4105.633287,-9548.656652,-148.041188,-536.266849
4105.633616,-9770.718434,-666.185348,153.219100
4105.633946,-9548.656652,-74.020594,153.219100
4105.634276,-9918.759623,0.000000,995.924147
4105.634605,-10658.965565,74.020594,1838.629195
4105.634935,-10584.944971,0.000000,1915.238745
4105.635265,-10140.821405,-370.102971,306.438199
4105.635595,-9548.656652,-370.102971,-459.657299
4105.635924,-9178.553681,-592.164754,229.828649
4105.636254,-9622.677246,0.000000,306.438199
4105.636584,-10066.800811,-518.144159,0.000000
4105.636913,-9326.594869,-444.123565,76.609550
4105.637243,-9622.677246,-518.144159,153.219100
4105.637573,-9548.656652,-370.102971,-306.438199
4105.637903,-9844.739029,-592.164754,-689.485948
4105.638232,-9252.574275,-370.102971,76.609550
4105.638562,-9474.636058,-518.144159,1072.533697
4105.638892,-9548.656652,-592.164754,306.438199
4105.639221,-9474.636058,-1036.288319,-229.828649
4105.639551,-9918.759623,-888.247130,-229.828649
4105.639881,-9770.718434,-148.041188,306.438199
4105.640211,-9918.759623,-444.123565,612.876398
4105.640540,-9844.739029,-370.102971,76.609550
4105.640870,-9696.697840,-296.082377,612.876398
4105.641200,-10214.842000,148.041188,842.705048
4105.641529,-10436.903782,-74.020594,-689.485948
4105.641859,-10658.965565,-148.041188,-383.047749
4105.642189,-10214.842000,74.020594,0.000000
4105.642519,-9474.636058,222.061783,-459.657299
4105.642848,-9696.697840,0.000000,-383.047749
4105.643178,-9622.677246,0.000000,76.609550
4105.643508,-10066.800811,222.061783,0.000000
4105.643837,-10066.800811,296.082377,-306.438199
4105.644167,-9992.780217,-592.164754,0.000000
4105.644497,-9252.574275,-518.144159,153.219100
4105.644827,-9400.615463,-74.020594,842.705048
4105.645156,-10066.800811,0.000000,766.095498
4105.645486,-10584.944971,148.041188,536.266849
4105.645816,-9844.739029,222.061783,383.047749
4105.646145,-9548.656652,370.102971,306.438199
4105.646475,-9548.656652,370.102971,229.828649
4105.646805,-9844.739029,370.102971,536.266849
4105.647135,-9696.697840,222.061783,229.828649
4105.647464,-9178.553681,222.061783,0.000000
4105.647794,-9252.574275,222.061783,-689.485948
4105.648124,-9178.553681,518.144159,-306.438199
4105.648453,-9622.677246,666.185348,-459.657299
4105.648783,-9326.594869,888.247130,-229.828649
4105.649113,-9252.574275,666.185348,-536.266849
4105.649443,-10288.862594,592.164754,612.876398
4105.649772,-9918.759623,370.102971,919.314598
4105.650102,-10214.842000,222.061783,919.314598
4105.650432,-9992.780217,370.102971,0.000000
4105.650761,-9474.636058,370.102971,612.876398
4105.651091,-9696.697840,666.185348,612.876398
4105.651421,-9252.574275,444.123565,-153.219100
4105.651751,-9548.656652,888.247130,-153.219100
4105.652080,-9474.636058,962.267725,-383.047749
4105.652410,-10436.903782,1554.432478,-766.095498
4105.652740,-10362.883188,518.144159,-229.828649
4105.653069,-9548.656652,518.144159,-306.438199
4105.653399,-9622.677246,370.102971,153.219100
4105.653729,-9992.780217,518.144159,306.438199
4105.654059,-9696.697840,74.020594,0.000000
4105.654389,-9178.553681,148.041188,0.000000
4105.654718,-9326.594869,592.164754,689.485948
4105.655048,-10288.862594,814.226536,1072.533697
4105.655378,-10658.965565,296.082377,76.609550
4105.655708,-9992.780217,0.000000,153.219100
4105.656038,-9252.574275,0.000000,612.876398
4105.656367,-9474.636058,0.000000,0.000000
4105.656697,-9696.697840,-148.041188,229.828649
4105.657027,-9474.636058,-444.123565,-383.047749
4105.657357,-9104.533087,-148.041188,0.000000
4105.657686,-10066.800811,0.000000,536.266849
4105.658016,-10066.800811,222.061783,689.485948
4105.658346,-10066.800811,-148.041188,766.095498
4105.658676,-9400.615463,0.000000,306.438199
4105.659006,-9548.656652,-444.123565,-76.609550
4105.659335,-10362.883188,-518.144159,-306.438199
4105.659665,-9844.739029,-814.226536,612.876398
4105.659995,-9400.615463,-666.185348,459.657299
4105.660325,-8882.471304,-592.164754,0.000000
4105.660655,-9474.636058,-148.041188,383.047749
4105.660984,-9770.718434,-74.020594,306.438199
4105.661314,-9696.697840,0.000000,0.000000
4105.661644,-10658.965565,0.000000,76.609550
4105.661974,-10436.903782,0.000000,459.657299
4105.662304,-9622.677246,296.082377,-153.219100
4105.662633,-9548.656652,-370.102971,0.000000
4105.662963,-9844.739029,0.000000,0.000000
4105.663293,-10214.842000,-518.144159,383.047749
4105.663623,-9696.697840,0.000000,536.266849
4105.663953,-9326.594869,-370.102971,0.000000
4105.664282,-9400.615463,0.000000,306.438199
4105.664612,-9844.739029,0.000000,842.705048
4105.664942,-10288.862594,0.000000,1072.533697
4105.665272,-9992.780217,148.041188,-229.828649
4105.665602,-9770.718434,0.000000,0.000000
4105.665931,-9992.780217,-148.041188,689.485948
4105.666261,-9770.718434,-444.123565,536.266849
4105.666591,-9844.739029,74.020594,536.266849
4105.666921,-9844.739029,-888.247130,536.266849
4105.667250,-8734.430116,-444.123565,459.657299
4105.667580,-8734.430116,-222.061783,766.095498
4105.667910,-9474.636058,296.082377,689.485948
4105.668240,-9918.759623,444.123565,1149.143247
4105.668570,-9474.636058,370.102971,306.438199
4105.668899,-9400.615463,222.061783,-383.047749
4105.669229,-9696.697840,296.082377,-689.485948
4105.669559,-10510.924376,74.020594,0.000000
4105.669889,-9918.759623,-518.144159,383.047749
4105.670219,-9400.615463,-222.061783,229.828649
4105.670548,-9400.615463,0.000000,842.705048
4105.670878,-9548.656652,0.000000,1225.752797
4105.671208,-9474.636058,222.061783,229.828649
4105.671538,-9474.636058,370.102971,0.000000
4105.671868,-10214.842000,518.144159,689.485948
4105.672197,-10584.944971,888.247130,1072.533697
4105.672527,-11325.150913,518.144159,459.657299
4105.672857,-9918.759623,222.061783,-766.095498
4105.673187,-9030.512492,148.041188,-612.876398
4105.673517,-9326.594869,370.102971,-536.266849
4105.673846,-9696.697840,296.082377,-612.876398
4105.674176,-9992.780217,370.102971,0.000000
4105.674506,-10066.800811,592.164754,383.047749
4105.674836,-9992.780217,518.144159,229.828649
4105.675166,-10584.944971,148.041188,-383.047749
4105.675495,-10066.800811,74.020594,0.000000
4105.675825,-9918.759623,222.061783,1532.190996
4105.676155,-9770.718434,518.144159,1455.581446
4105.676485,-9844.739029,148.041188,0.000000
4105.676814,-9548.656652,0.000000,-306.438199
4105.677144,-8586.388927,-370.102971,0.000000
4105.677474,-9326.594869,370.102971,0.000000
4105.677804,-10436.903782,740.205942,0.000000
4105.678134,-10436.903782,296.082377,-459.657299
4105.678463,-9474.636058,-222.061783,-919.314598
4105.678793,-8882.471304,-518.144159,-1302.362347
4105.679123,-9400.615463,-148.041188,0.000000
4105.679453,-10288.862594,222.061783,766.095498
4105.679783,-9918.759623,-222.061783,459.657299
4105.680112,-9770.718434,0.000000,153.219100
4105.680442,-10140.821405,222.061783,0.000000
4105.680772,-10807.006753,222.061783,0.000000
4105.681102,-10140.821405,-296.082377,459.657299
4105.681432,-8660.409521,-740.205942,0.000000
4105.681761,-8808.450710,-296.082377,459.657299
4105.682091,-8808.450710,148.041188,153.219100
4105.682421,-9992.780217,-444.123565,-536.266849
4105.682751,-10066.800811,0.000000,-383.047749
4105.683081,-10140.821405,148.041188,306.438199
4105.683410,-10066.800811,148.041188,612.876398
4105.683740,-9548.656652,0.000000,536.266849
4105.684070,-9474.636058,-222.061783,766.095498
4105.684400,-9696.697840,444.123565,1072.533697
4105.684730,-10510.924376,296.082377,76.609550
4105.685059,-10510.924376,0.000000,-1149.143247
4105.685389,-9992.780217,-74.020594,0.000000
4105.685719,-9400.615463,-222.061783,842.705048
4105.686049,-8882.471304,222.061783,842.705048
4105.686378,-9548.656652,444.123565,-383.047749
4105.686708,-9844.739029,370.102971,229.828649
4105.687038,-9844.739029,148.041188,689.485948
4105.687368,-10732.986159,222.061783,76.609550
4105.687698,-10881.027347,74.020594,153.219100
4105.688027,-9548.656652,-148.041188,995.924147
4105.688357,-8808.450710,296.082377,689.485948
4105.688687,-8808.450710,148.041188,383.047749
4105.689017,-9622.677246,444.123565,-153.219100
4105.689347,-10214.842000,148.041188,-612.876398
4105.689676,-9770.718434,518.144159,-459.657299
4105.690006,-10066.800811,222.061783,383.047749
4105.690336,-10658.965565,370.102971,1149.143247
4105.690666,-10658.965565,444.123565,919.314598
4105.690996,-9474.636058,-296.082377,0.000000
4105.691325,-9104.533087,-444.123565,-383.047749
4105.691655,-9844.739029,74.020594,306.438199
4105.691985,-10066.800811,370.102971,1225.752797
4105.692315,-9918.759623,148.041188,383.047749
4105.692645,-9474.636058,0.000000,0.000000
4105.692974,-9696.697840,222.061783,229.828649
4105.693304,-10362.883188,-296.082377,0.000000
4105.693634,-10066.800811,-518.144159,-459.657299
4105.693964,-9696.697840,-814.226536,383.047749
4105.694294,-8882.471304,-444.123565,919.314598
4105.694623,-8808.450710,-518.144159,1302.362347
4105.694953,-9548.656652,518.144159,459.657299
4105.695283,-9622.677246,592.164754,153.219100
4105.695613,-10214.842000,444.123565,-153.219100
4105.695942,-10584.944971,888.247130,-383.047749
4105.696272,-10658.965565,518.144159,0.000000
4105.696602,-10288.862594,0.000000,0.000000
4105.696932,-8660.409521,0.000000,-153.219100
4105.697262,-8956.491898,0.000000,-995.924147
4105.697591,-9030.512492,0.000000,-1532.190996
4105.697921,-9474.636058,222.061783,-919.314598
4105.698251,-10288.862594,370.102971,459.657299
4105.698581,-9992.780217,74.020594,1072.533697
4105.698911,-10584.944971,0.000000,1302.362347
4105.699240,-9844.739029,-148.041188,1072.533697
4105.699570,-9326.594869,-370.102971,383.047749
4105.699900,-9548.656652,0.000000,0.000000
4105.700230,-10140.821405,370.102971,76.609550
4105.700560,-10140.821405,666.185348,612.876398
4105.700889,-9770.718434,592.164754,0.000000
4105.701219,-9622.677246,444.123565,0.000000
4105.701549,-10214.842000,444.123565,-459.657299
4105.701879,-10140.821405,0.000000,-842.705048
4105.702209,-9326.594869,-148.041188,-1225.752797
4105.702538,-9178.553681,0.000000,-536.266849
4105.702868,-9474.636058,518.144159,919.314598
4105.703198,-10214.842000,592.164754,995.924147
4105.703528,-10066.800811,666.185348,153.219100
4105.703857,-9918.759623,0.000000,-306.438199
4105.704187,-10288.862594,518.144159,612.876398
4105.704517,-9622.677246,74.020594,919.314598
4105.704847,-9770.718434,0.000000,459.657299
4105.705177,-9178.553681,-148.041188,536.266849
4105.705506,-8956.491898,0.000000,459.657299
4105.705836,-9474.636058,222.061783,-383.047749
4105.706166,-9326.594869,0.000000,-306.438199
4105.706496,-9992.780217,370.102971,0.000000
4105.706826,-9918.759623,148.041188,995.924147
4105.707155,-10214.842000,0.000000,1302.362347
4105.707485,-10214.842000,-222.061783,766.095498
4105.707815,-9844.739029,0.000000,229.828649
4105.708145,-9252.574275,-296.082377,-383.047749
4105.708475,-8734.430116,74.020594,-459.657299
4105.708804,-9844.739029,74.020594,689.485948
4105.709134,-10955.047942,370.102971,1685.410096
4105.709464,-10658.965565,74.020594,995.924147
4105.709794,-9770.718434,-74.020594,-383.047749
4105.710124,-9030.512492,0.000000,-612.876398
4105.710453,-10140.821405,370.102971,0.000000
4105.710783,-9844.739029,0.000000,612.876398
4105.711113,-9400.615463,-222.061783,229.828649
4105.711443,-9844.739029,148.041188,612.876398
4105.711773,-10510.924376,518.144159,0.000000
4105.712102,-10584.944971,0.000000,-459.657299
4105.712432,-9844.739029,-666.185348,-306.438199
4105.712762,-9104.533087,-296.082377,612.876398
4105.713092,-9474.636058,0.000000,1302.362347
4105.713421,-9252.574275,-370.102971,766.095498
4105.713751,-9104.533087,-592.164754,459.657299
4105.714081,-9474.636058,74.020594,459.657299
4105.714411,-10362.883188,592.164754,76.609550
4105.714741,-11399.171507,370.102971,-306.438199
4105.715070,-9844.739029,-370.102971,-766.095498
4105.715400,-9104.533087,0.000000,-153.219100
4105.715730,-9178.553681,0.000000,0.000000
4105.716060,-9474.636058,-222.061783,229.828649
4105.716390,-9474.636058,-370.102971,459.657299
4105.716719,-9104.533087,-518.144159,842.705048
4105.717049,-9696.697840,0.000000,842.705048
4105.717379,-10214.842000,0.000000,153.219100
4105.717709,-9622.677246,0.000000,306.438199
4105.718039,-9770.718434,0.000000,383.047749
4105.718368,-9622.677246,0.000000,689.485948
4105.718698,-10288.862594,0.000000,76.609550
4105.719028,-9474.636058,0.000000,0.000000
4105.719358,-9178.553681,0.000000,-306.438199
4105.719688,-9400.615463,0.000000,-306.438199
4105.720017,-10066.800811,-74.020594,0.000000
4105.720347,-10362.883188,-148.041188,995.924147
4105.720677,-9622.677246,0.000000,459.657299
4105.721007,-9400.615463,74.020594,153.219100
4105.721337,-10214.842000,0.000000,766.095498
4105.721666,-11177.109724,518.144159,842.705048
4105.721996,-10214.842000,74.020594,-153.219100
4105.722326,-9770.718434,0.000000,-842.705048
4105.722656,-9400.615463,-148.041188,0.000000
4105.722985,-9548.656652,370.102971,612.876398
4105.723315,-9918.759623,222.061783,0.000000
4105.723645,-9696.697840,-74.020594,153.219100
4105.723975,-10288.862594,0.000000,536.266849
4105.724305,-10066.800811,-148.041188,612.876398
4105.724634,-10436.903782,-296.082377,306.438199
4105.724964,-9918.759623,-148.041188,76.609550
4105.725294,-8882.471304,0.000000,229.828649
4105.725624,-9622.677246,296.082377,612.876398
4105.725954,-10066.800811,296.082377,0.000000
4105.726283,-10807.006753,518.144159,-153.219100
4105.726613,-10436.903782,0.000000,229.828649
4105.726943,-9474.636058,0.000000,459.657299
4105.727273,-9326.594869,0.000000,229.828649
4105.727603,-9400.615463,222.061783,153.219100
4105.727932,-9178.553681,370.102971,0.000000
4105.728262,-9474.636058,666.185348,-689.485948
4105.728592,-9992.780217,666.185348,-383.047749
4105.728922,-10362.883188,296.082377,153.219100
4105.729252,-9770.718434,666.185348,612.876398
4105.729581,-10140.821405,444.123565,612.876398
4105.729911,-9992.780217,296.082377,-76.609550
4105.730241,-9844.739029,-222.061783,76.609550
4105.730571,-9474.636058,148.041188,76.609550
4105.730901,-8956.491898,444.123565,459.657299
4105.731230,-10140.821405,592.164754,536.266849
4105.731560,-9992.780217,148.041188,766.095498
4105.731890,-9770.718434,148.041188,0.000000
4105.732220,-10066.800811,0.000000,-459.657299
4105.732549,-10066.800811,0.000000,306.438199
4105.732879,-9992.780217,0.000000,689.485948
4105.733209,-9178.553681,222.061783,459.657299
4105.733539,-9252.574275,0.000000,612.876398
4105.733869,-10066.800811,0.000000,919.314598
4105.734198,-9918.759623,296.082377,-306.438199
4105.734528,-9400.615463,0.000000,-459.657299
4105.734858,-9474.636058,-296.082377,-1378.971896
4105.735188,-9770.718434,-592.164754,-306.438199
4105.735518,-9696.697840,-222.061783,459.657299
4105.735847,-8512.368333,-666.185348,-76.609550
4105.736177,-8808.450710,-296.082377,229.828649
4105.736507,-10584.944971,444.123565,536.266849
4105.736837,-10955.047942,74.020594,689.485948
4105.737167,-10436.903782,0.000000,153.219100
4105.737496,-10584.944971,-222.061783,459.657299
4105.737826,-9844.739029,-370.102971,612.876398
4105.738156,-9622.677246,0.000000,153.219100
4105.738486,-8808.450710,-296.082377,-306.438199
4105.738816,-9178.553681,-296.082377,383.047749
4105.739145,-9474.636058,444.123565,76.609550
4105.739475,-10362.883188,222.061783,153.219100
4105.739805,-10436.903782,296.082377,-612.876398
4105.740135,-9548.656652,0.000000,-306.438199
4105.740465,-10436.903782,222.061783,0.000000
4105.740794,-10584.944971,0.000000,153.219100
4105.741124,-10807.006753,-444.123565,536.266849
4105.741454,-10066.800811,74.020594,612.876398
4105.741784,-9326.594869,-148.041188,1225.752797
4105.742113,-9400.615463,-592.164754,842.705048
4105.742443,-8956.491898,-296.082377,689.485948
4105.742773,-9770.718434,0.000000,1072.533697
4105.743103,-10214.842000,74.020594,612.876398
4105.743433,-10510.924376,-296.082377,459.657299
4105.743762,-9770.718434,-592.164754,1225.752797
4105.744092,-9400.615463,-296.082377,919.314598
4105.744422,-9918.759623,-814.226536,995.924147
4105.744752,-10066.800811,-592.164754,459.657299
4105.745082,-9326.594869,0.000000,76.609550
4105.745411,-9104.533087,0.000000,-612.876398
4105.745741,-9030.512492,0.000000,0.000000
4105.746071,-10214.842000,296.082377,689.485948
4105.746401,-10362.883188,0.000000,766.095498
4105.746731,-9770.718434,148.041188,229.828649
4105.747060,-9548.656652,-296.082377,-1072.533697
4105.747390,-9474.636058,-222.061783,-689.485948
4105.747720,-9400.615463,0.000000,689.485948
4105.748050,-8808.450710,0.000000,842.705048
4105.748380,-9474.636058,370.102971,306.438199
4105.748709,-9992.780217,666.185348,229.828649
4105.749039,-10732.986159,814.226536,-76.609550
4105.749369,-11029.068536,518.144159,-842.705048
4105.749699,-10732.986159,148.041188,-1225.752797
4105.750028,-9918.759623,0.000000,0.000000
4105.750358,-8956.491898,0.000000,-153.219100
4105.750688,-8216.285956,-518.144159,-383.047749
4105.751018,-9326.594869,0.000000,-229.828649
4105.751348,-10214.842000,444.123565,0.000000
4105.751677,-10436.903782,666.185348,0.000000
4105.752007,-10658.965565,370.102971,-306.438199
4105.752337,-9844.739029,74.020594,0.000000
4105.752667,-9548.656652,74.020594,612.876398
4105.752997,-8956.491898,148.041188,842.705048
4105.753326,-9474.636058,0.000000,76.609550
4105.753656,-10214.842000,0.000000,459.657299
4105.753986,-9844.739029,518.144159,766.095498
4105.754316,-9844.739029,74.020594,153.219100
4105.754646,-9548.656652,0.000000,-459.657299
4105.754975,-9474.636058,0.000000,0.000000
4105.755305,-9400.615463,148.041188,306.438199
4105.755635,-8956.491898,0.000000,-383.047749
4105.755965,-9474.636058,0.000000,-306.438199
4105.756294,-10066.800811,0.000000,689.485948
4105.756624,-9770.718434,74.020594,1608.800546
4105.756954,-10066.800811,296.082377,1302.362347
4105.757284,-10362.883188,148.041188,842.705048
4105.757613,-10510.924376,148.041188,766.095498
4105.757943,-9696.697840,0.000000,0.000000
4105.758273,-9178.553681,0.000000,-76.609550
4105.758603,-9400.615463,296.082377,612.876398
4105.758932,-9548.656652,148.041188,919.314598
4105.759262,-9770.718434,74.020594,0.000000
4105.759592,-9622.677246,148.041188,-995.924147
4105.759922,-9770.718434,370.102971,-1378.971896
4105.760251,-9918.759623,518.144159,-459.657299
4105.760581,-10140.821405,370.102971,229.828649
4105.760911,-10214.842000,-222.061783,536.266849
4105.761241,-9696.697840,74.020594,1072.533697
4105.761570,-9252.574275,-296.082377,1302.362347
4105.761900,-10436.903782,0.000000,-459.657299
4105.762230,-9474.636058,-370.102971,-612.876398
4105.762560,-9030.512492,-370.102971,-766.095498
4105.762889,-9104.533087,0.000000,766.095498
4105.763219,-9474.636058,0.000000,612.876398
4105.763549,-10362.883188,222.061783,766.095498
4105.763879,-10066.800811,222.061783,766.095498
4105.764208,-9992.780217,-296.082377,0.000000
4105.764538,-10436.903782,0.000000,-153.219100
4105.764868,-10140.821405,222.061783,383.047749
4105.765198,-9770.718434,-148.041188,306.438199
4105.765527,-8734.430116,0.000000,0.000000
4105.765857,-9918.759623,148.041188,0.000000
4105.766187,-10584.944971,444.123565,153.219100
4105.766517,-9622.677246,0.000000,229.828649
4105.766846,-10288.862594,-222.061783,-229.828649
4105.767176,-9770.718434,-222.061783,0.000000
4105.767506,-9548.656652,0.000000,919.314598
4105.767836,-9178.553681,-296.082377,612.876398
4105.768165,-8660.409521,-296.082377,306.438199
4105.768495,-9030.512492,0.000000,459.657299
4105.768825,-10140.821405,74.020594,1149.143247
4105.769155,-10362.883188,0.000000,842.705048
4105.769484,-10658.965565,-148.041188,306.438199
4105.769814,-10214.842000,0.000000,383.047749
4105.770144,-9400.615463,-222.061783,229.828649
4105.770474,-8512.368333,148.041188,-76.609550
4105.770803,-8808.450710,148.041188,-306.438199
4105.771133,-9548.656652,222.061783,76.609550
4105.771463,-9474.636058,148.041188,766.095498
4105.771793,-10732.986159,666.185348,-153.219100
4105.772122,-10732.986159,444.123565,-689.485948
4105.772452,-10584.944971,444.123565,-536.266849
4105.772782,-9696.697840,222.061783,-612.876398
4105.773112,-9400.615463,-74.020594,-459.657299
4105.773441,-9548.656652,0.000000,689.485948
4105.773771,-9178.553681,0.000000,919.314598
4105.774101,-9474.636058,74.020594,919.314598
4105.774431,-9548.656652,0.000000,0.000000
4105.774760,-9474.636058,296.082377,76.609550
4105.775090,-10881.027347,592.164754,76.609550
4105.775420,-10362.883188,0.000000,0.000000
4105.775750,-9622.677246,74.020594,0.000000
4105.776079,-9178.553681,222.061783,459.657299
4105.776409,-9030.512492,222.061783,153.219100
4105.776739,-10362.883188,74.020594,0.000000
4105.777069,-10436.903782,148.041188,-612.876398
4105.777398,-9474.636058,-222.061783,459.657299
4105.777728,-9400.615463,0.000000,689.485948
4105.778058,-9770.718434,0.000000,1072.533697
4105.778387,-10288.862594,0.000000,1302.362347
4105.778717,-9548.656652,370.102971,1608.800546
4105.779047,-8808.450710,0.000000,459.657299
4105.779377,-9844.739029,148.041188,76.609550
4105.779706,-10436.903782,296.082377,306.438199
4105.780036,-10584.944971,814.226536,612.876398
4105.780366,-9400.615463,74.020594,229.828649
4105.780696,-9622.677246,0.000000,-306.438199
4105.781025,-9400.615463,-296.082377,-153.219100
4105.781355,-9252.574275,0.000000,-766.095498
4105.781685,-9474.636058,0.000000,-229.828649
4105.782015,-9770.718434,-370.102971,153.219100
4105.782344,-10436.903782,222.061783,1225.752797
4105.782674,-9992.780217,592.164754,1455.581446
4105.783004,-9326.594869,296.082377,536.266849
4105.783334,-10066.800811,0.000000,76.609550
4105.783663,-10288.862594,0.000000,153.219100
4105.783993,-9770.718434,-296.082377,-383.047749
4105.784323,-9252.574275,-518.144159,-536.266849
4105.784653,-9252.574275,74.020594,689.485948
4105.784982,-9918.759623,-148.041188,689.485948
4105.785312,-9474.636058,222.061783,0.000000
4105.785642,-9474.636058,74.020594,-459.657299
4105.785972,-10955.047942,518.144159,306.438199
4105.786301,-10732.986159,296.082377,919.314598
4105.786631,-10658.965565,-296.082377,995.924147
4105.786961,-9622.677246,0.000000,459.657299
4105.787291,-9622.677246,-370.102971,459.657299
4105.787620,-10214.842000,0.000000,0.000000
4105.787950,-9474.636058,-148.041188,-1225.752797
4105.788280,-9030.512492,-518.144159,-1149.143247
4105.788610,-9400.615463,222.061783,459.657299
4105.788939,-9844.739029,-148.041188,1302.362347
4105.789269,-10584.944971,-222.061783,919.314598
4105.789599,-10584.944971,-296.082377,76.609550
4105.789929,-9622.677246,-740.205942,-306.438199
4105.790258,-9474.636058,-814.226536,-459.657299
4105.790588,-8956.491898,-666.185348,612.876398
4105.790918,-9326.594869,-444.123565,1455.581446
4105.791248,-9252.574275,148.041188,2068.457845
4105.791577,-9844.739029,222.061783,76.609550
4105.791907,-10436.903782,444.123565,-1225.752797
4105.792237,-11103.089130,370.102971,-1149.143247
4105.792567,-10140.821405,296.082377,0.000000
4105.792896,-8956.491898,-518.144159,0.000000
4105.793226,-8882.471304,0.000000,766.095498
4105.793556,-9252.574275,0.000000,1072.533697
4105.793886,-10140.821405,74.020594,0.000000
4105.794215,-10214.842000,148.041188,-1149.143247
4105.794545,-10214.842000,0.000000,-766.095498
4105.794875,-9918.759623,222.061783,842.705048
4105.795205,-9474.636058,0.000000,1302.362347
4105.795534,-9844.739029,518.144159,1378.971896
4105.795864,-9548.656652,0.000000,612.876398
4105.796194,-9696.697840,0.000000,-919.314598
4105.796524,-10140.821405,-370.102971,-995.924147
4105.796853,-9252.574275,1110.308913,842.705048
4105.797183,-10214.842000,222.061783,1149.143247
4105.797513,-9696.697840,888.247130,536.266849
4105.797843,-9104.533087,444.123565,-459.657299
4105.798172,-10362.883188,444.123565,-536.266849
4105.798502,-10362.883188,518.144159,0.000000
4105.798832,-9992.780217,74.020594,383.047749
4105.799162,-9770.718434,74.020594,536.266849
4105.799491,-8956.491898,148.041188,612.876398
4105.799821,-9548.656652,962.267725,689.485948
4105.800151,-9548.656652,444.123565,-459.657299
4105.800481,-10066.800811,518.144159,-766.095498
4105.800810,-10140.821405,296.082377,0.000000
4105.801140,-9326.594869,444.123565,1225.752797
4105.801470,-9992.780217,814.226536,1378.971896
4105.801800,-9474.636058,740.205942,0.000000
4105.802129,-9770.718434,814.226536,-995.924147
4105.802459,-10362.883188,296.082377,-1302.362347
4105.802789,-9992.780217,0.000000,-1149.143247
4105.803119,-9622.677246,0.000000,-306.438199
4105.803448,-8882.471304,222.061783,1302.362347
4105.803778,-8808.450710,0.000000,1608.800546
4105.804108,-9844.739029,296.082377,536.266849
4105.804438,-10066.800811,74.020594,-383.047749
4105.804767,-10584.944971,444.123565,153.219100
4105.805097,-9992.780217,74.020594,0.000000
4105.805427,-9474.636058,-370.102971,229.828649
4105.805757,-9696.697840,-296.082377,842.705048
4105.806086,-8956.491898,-444.123565,919.314598
4105.806416,-8882.471304,-296.082377,0.000000
4105.806746,-9844.739029,-370.102971,-76.609550
4105.807075,-9770.718434,0.000000,0.000000
4105.807405,-9770.718434,592.164754,229.828649
4105.807735,-9474.636058,296.082377,153.219100
4105.808065,-10066.800811,0.000000,229.828649
4105.808394,-10288.862594,-148.041188,536.266849
4105.808724,-9918.759623,-296.082377,0.000000
4105.809054,-10436.903782,-296.082377,-153.219100
4105.809384,-10140.821405,-592.164754,612.876398
4105.809713,-9474.636058,-518.144159,1455.581446
4105.810043,-8956.491898,-222.061783,995.924147
4105.810373,-9252.574275,0.000000,306.438199
4105.810703,-10510.924376,0.000000,306.438199
4105.811032,-10510.924376,222.061783,536.266849
4105.811362,-10807.006753,74.020594,306.438199
4105.811692,-10436.903782,-148.041188,0.000000
4105.812022,-9104.533087,-296.082377,383.047749
4105.812351,-8660.409521,-592.164754,383.047749
4105.812681,-9104.533087,0.000000,-306.438199
4105.813011,-9844.739029,-592.164754,0.000000
4105.813341,-10658.965565,0.000000,689.485948
4105.813670,-9918.759623,148.041188,842.705048
4105.814000,-10066.800811,0.000000,995.924147
4105.814330,-10214.842000,0.000000,1225.752797
4105.814660,-10288.862594,0.000000,536.266849
4105.814989,-9696.697840,-296.082377,-536.266849
4105.815319,-9400.615463,222.061783,-842.705048
4105.815649,-10066.800811,-222.061783,153.219100
4105.815979,-10288.862594,0.000000,1455.581446
4105.816308,-9770.718434,74.020594,459.657299
4105.816638,-9474.636058,-74.020594,-995.924147
4105.816968,-9474.636058,0.000000,0.000000
4105.817298,-10436.903782,-222.061783,0.000000
4105.817627,-9178.553681,-370.102971,76.609550
4105.817957,-9178.553681,-74.020594,689.485948
4105.818287,-10066.800811,222.061783,1072.533697
4105.818617,-9992.780217,-222.061783,689.485948
4105.818946,-9770.718434,0.000000,0.000000
4105.819276,-9696.697840,0.000000,-306.438199
4105.819606,-10362.883188,148.041188,-76.609550
4105.819936,-9918.759623,0.000000,612.876398
4105.820265,-8882.471304,0.000000,612.876398
4105.820595,-9030.512492,148.041188,536.266849
4105.820925,-9400.615463,740.205942,229.828649
4105.821255,-10436.903782,666.185348,-995.924147
4105.821584,-10658.965565,518.144159,-1685.410096
4105.821914,-10140.821405,148.041188,-459.657299
4105.822244,-9992.780217,-222.061783,0.000000
4105.822574,-9474.636058,74.020594,383.047749
4105.822903,-8956.491898,-222.061783,459.657299
4105.823233,-9474.636058,370.102971,459.657299
4105.823563,-9474.636058,74.020594,0.000000
4105.823893,-10214.842000,74.020594,383.047749
4105.824222,-10214.842000,296.082377,76.609550
4105.824552,-9992.780217,148.041188,919.314598
4105.824882,-9844.739029,74.020594,153.219100
4105.825212,-8808.450710,0.000000,-383.047749
4105.825541,-9326.594869,74.020594,-612.876398
4105.825871,-9770.718434,222.061783,-306.438199
4105.826201,-9992.780217,222.061783,0.000000
4105.826531,-9992.780217,148.041188,536.266849
4105.826860,-9400.615463,296.082377,1149.143247
4105.827190,-9400.615463,0.000000,766.095498
4105.827520,-10066.800811,370.102971,0.000000
4105.827850,-10288.862594,-222.061783,0.000000
4105.828179,-9992.780217,148.041188,919.314598
4105.828509,-8734.430116,0.000000,306.438199
4105.828839,-9474.636058,444.123565,383.047749
4105.829169,-9992.780217,222.061783,306.438199
4105.829498,-10066.800811,370.102971,536.266849
4105.829828,-9030.512492,-222.061783,-612.876398
4105.830158,-9400.615463,0.000000,-612.876398
4105.830488,-10362.883188,296.082377,689.485948
4105.830817,-9474.636058,74.020594,995.924147
4105.831147,-9400.615463,148.041188,766.095498
4105.831477,-10288.862594,296.082377,459.657299
4105.831807,-11325.150913,222.061783,229.828649
4105.832136,-11029.068536,-296.082377,0.000000
4105.832466,-8956.491898,74.020594,-153.219100
4105.832796,-8438.347739,-444.123565,459.657299
4105.833126,-9918.759623,296.082377,1225.752797
4105.833455,-10214.842000,0.000000,1302.362347
4105.833785,-10140.821405,0.000000,0.000000
4105.834115,-9770.718434,0.000000,-766.095498
4105.834445,-10140.821405,74.020594,-229.828649
4105.834774,-10288.862594,296.082377,0.000000
4105.835104,-8882.471304,0.000000,689.485948
4105.835434,-9252.574275,-444.123565,459.657299
4105.835764,-10732.986159,74.020594,919.314598
