#time,accel_x,accel_y,accel_z
3570.312114,-8734.430116,-3627.009116,-3524.039291
3570.312444,-9400.615463,-1850.514855,-1532.190996
3570.312773,-11251.130318,-1702.473667,-153.219100
3570.313103,-9770.718434,-814.226536,-612.876398
3570.313433,-8512.368333,-1110.308913,-1762.019645
3570.313763,-9400.615463,74.020594,-2068.457845
3570.314092,-10362.883188,296.082377,-1378.971896
3570.314422,-10362.883188,518.144159,-766.095498
3570.314752,-10140.821405,296.082377,-612.876398
3570.315082,-10140.821405,0.000000,-1149.143247
3570.315411,-9770.718434,0.000000,-919.314598
3570.315741,-9992.780217,-518.144159,-612.876398
3570.316071,-9178.553681,0.000000,-306.438199
3570.316401,-8882.471304,444.123565,-1302.362347
3570.316730,-8956.491898,740.205942,-1072.533697
3570.317060,-9474.636058,888.247130,-153.219100
3570.317390,-9696.697840,1702.473667,306.438199
3570.317720,-9770.718434,2146.597232,153.219100
3570.318050,-9918.759623,1628.453072,-536.266849
3570.318379,-9326.594869,1406.391290,-1225.752797
3570.318709,-9770.718434,962.267725,-1225.752797
3570.319039,-9770.718434,814.226536,-612.876398
3570.319369,-9770.718434,1036.288319,0.000000
3570.319698,-9844.739029,888.247130,-459.657299
3570.320028,-9844.739029,1110.308913,0.000000
3570.320358,-8586.388927,1628.453072,-229.828649
3570.320688,-11177.109724,1036.288319,-2451.505594
3570.321017,-10362.883188,740.205942,-3294.210641
3570.321347,-7105.977043,0.000000,-1378.971896
3570.321677,-9474.636058,444.123565,-153.219100
3570.322007,-10214.842000,444.123565,1072.533697
3570.322336,-8956.491898,0.000000,1149.143247
3570.322666,-9326.594869,-962.267725,229.828649
3570.322996,-9326.594869,-1036.288319,0.000000
3570.323326,-9326.594869,-592.164754,1532.190996
3570.323655,-10066.800811,-74.020594,1532.190996
3570.323985,-10436.903782,148.041188,536.266849
3570.324315,-10436.903782,0.000000,-76.609550
3570.324645,-10214.842000,0.000000,-459.657299
3570.324975,-10214.842000,222.061783,-842.705048
3570.325304,-11103.089130,-592.164754,-612.876398
3570.325634,-10214.842000,-740.205942,-1532.190996
3570.325964,-9696.697840,-1776.494261,-1608.800546
3570.326294,-9030.512492,-1702.473667,-1302.362347
3570.326623,-8956.491898,-2294.638420,-76.609550
3570.326953,-9104.533087,-1850.514855,153.219100
3570.327283,-9030.512492,-1776.494261,-229.828649
3570.327613,-9030.512492,-1998.556043,229.828649
3570.327942,-9844.739029,-1258.350101,2451.505594
3570.328272,-10807.006753,-1258.350101,2604.724693
3570.328602,-11399.171507,-666.185348,2911.162892
3570.328932,-10881.027347,-1332.370696,919.314598
3570.329261,-10807.006753,-444.123565,-1072.533697
3570.329591,-10955.047942,-814.226536,-1532.190996
3570.329921,-10955.047942,-1258.350101,-1915.238745
3570.330251,-10362.883188,-888.247130,-2374.896044
3570.330580,-8808.450710,-1184.329507,-3217.601092
3570.330910,-8142.265362,-1332.370696,-1915.238745
3570.331240,-8808.450710,-962.267725,-459.657299
3570.331570,-9030.512492,-1036.288319,1072.533697
3570.331899,-9104.533087,-740.205942,1378.971896
3570.332229,-9474.636058,-370.102971,2068.457845
3570.332559,-10584.944971,0.000000,2528.115143
3570.332889,-11621.233289,0.000000,3140.991542
3570.333219,-11473.192101,296.082377,1915.238745
3570.333548,-11399.171507,370.102971,-536.266849
3570.333878,-10732.986159,0.000000,-1915.238745
3570.334208,-9992.780217,0.000000,-1915.238745
3570.334540,-8956.491898,0.000000,-1302.362347
3570.334870,-7698.141797,148.041188,-995.924147
3570.335200,-7550.100608,148.041188,-1072.533697
3570.335530,-7476.080014,592.164754,-459.657299
3570.335860,-8142.265362,666.185348,306.438199
3570.336190,-9326.594869,1406.391290,1072.533697
3570.336520,-10140.821405,1554.432478,1225.752797
3570.336850,-11177.109724,1406.391290,842.705048
3570.337181,-11621.233289,1480.411884,842.705048
3570.337511,-11917.315666,1184.329507,76.609550
3570.337841,-11325.150913,444.123565,-995.924147
3570.338171,-9548.656652,74.020594,-1915.238745
3570.338501,-8216.285956,0.000000,-1915.238745
3570.338831,-7772.162391,74.020594,-995.924147
3570.339161,-7105.977043,74.020594,612.876398
3570.339491,-7624.121203,1110.308913,1532.190996
3570.339821,-8660.409521,1332.370696,1225.752797
3570.340151,-9992.780217,2072.576638,536.266849
3570.340481,-11473.192101,1850.514855,766.095498
3570.340811,-12583.501014,1776.494261,995.924147
3570.341141,-12509.480420,888.247130,306.438199
3570.341471,-11917.315666,148.041188,-459.657299
3570.341801,-11029.068536,-370.102971,-766.095498
3570.342131,-9992.780217,-814.226536,-536.266849
3570.342461,-8586.388927,-1036.288319,0.000000
3570.342791,-7698.141797,-1036.288319,536.266849
3570.343121,-7105.977043,-74.020594,842.705048
3570.343451,-7402.059420,592.164754,1685.410096
3570.343781,-8956.491898,592.164754,1838.629195
3570.344111,-10807.006753,592.164754,1455.581446
3570.344441,-11843.295072,148.041188,536.266849
3570.344771,-12361.439231,0.000000,-689.485948
3570.345101,-12435.459826,-1406.391290,0.000000
3570.345431,-11621.233289,-2368.659014,459.657299
3570.345761,-10436.903782,-2590.720797,-306.438199
3570.346091,-8956.491898,-2516.700203,-1302.362347
3570.346421,-7550.100608,-2738.761985,-1378.971896
3570.346751,-7031.956449,-2146.597232,-536.266849
3570.347081,-7105.977043,-1406.391290,306.438199
3570.347411,-7476.080014,-1184.329507,0.000000
3570.347741,-8290.306550,-962.267725,229.828649
3570.348071,-9844.739029,-814.226536,689.485948
3570.348401,-11621.233289,-1258.350101,919.314598
3570.348731,-12435.459826,-1702.473667,1225.752797
3570.349061,-11917.315666,-2294.638420,842.705048
3570.349391,-11843.295072,-2590.720797,1072.533697
3570.349721,-10955.047942,-2590.720797,1072.533697
3570.350051,-9696.697840,-2072.576638,306.438199
3570.350381,-8290.306550,-1702.473667,-306.438199
3570.350711,-7105.977043,-1332.370696,-995.924147
3570.351041,-7254.018232,-592.164754,-1072.533697
3570.351371,-8142.265362,0.000000,-383.047749
3570.351701,-9548.656652,148.041188,383.047749
3570.352031,-11103.089130,74.020594,919.314598
3570.352361,-11991.336260,-370.102971,842.705048
3570.352691,-12731.542202,-666.185348,1378.971896
3570.353021,-12879.583391,-1110.308913,1608.800546
3570.353351,-12139.377449,-1110.308913,689.485948
3570.353681,-10436.903782,-1850.514855,76.609550
3570.354011,-8512.368333,-1850.514855,-306.438199
3570.354341,-7254.018232,-1110.308913,0.000000
3570.354671,-6957.935855,0.000000,766.095498
3570.355001,-7105.977043,444.123565,842.705048
3570.355331,-7328.038826,1258.350101,153.219100
3570.355661,-8364.327145,1850.514855,-76.609550
3570.355991,-10584.944971,2220.617826,536.266849
3570.356322,-12879.583391,2442.679609,612.876398
3570.356652,-13249.686362,1776.494261,229.828649
3570.356982,-12435.459826,888.247130,-766.095498
3570.357312,-11029.068536,74.020594,-612.876398
3570.357642,-9548.656652,74.020594,-536.266849
3570.357972,-8290.306550,74.020594,76.609550
3570.358302,-6661.853478,666.185348,153.219100
3570.358632,-5773.606348,1406.391290,306.438199
3570.358962,-6291.750507,3256.906145,1685.410096
3570.359292,-8068.244768,3923.091493,1378.971896
3570.359622,-9992.780217,4145.153275,689.485948
3570.359952,-11769.274478,4145.153275,-919.314598
3570.360282,-12435.459826,3108.864956,-1838.629195
3570.360612,-12583.501014,2220.617826,-1378.971896
3570.360942,-12509.480420,1554.432478,-459.657299
3570.361272,-11621.233289,1036.288319,-689.485948
3570.361602,-9548.656652,444.123565,-1608.800546
3570.361932,-7772.162391,666.185348,-1378.971896
3570.362262,-7476.080014,888.247130,-229.828649
3570.362592,-7846.182985,1628.453072,1838.629195
3570.362922,-7772.162391,2146.597232,2451.505594
3570.363252,-7698.141797,2294.638420,2145.067394
3570.363582,-9474.636058,2738.761985,766.095498
3570.363912,-11251.130318,2220.617826,459.657299
3570.364242,-12509.480420,1628.453072,0.000000
3570.364572,-12731.542202,592.164754,-153.219100
3570.364902,-11769.274478,-296.082377,-153.219100
3570.365232,-10510.924376,-1110.308913,919.314598
3570.365562,-9474.636058,-1480.411884,1302.362347
3570.365892,-8364.327145,-1184.329507,1685.410096
3570.366222,-7550.100608,-740.205942,1378.971896
3570.366552,-7328.038826,0.000000,1072.533697
3570.366882,-7698.141797,666.185348,1072.533697
3570.367212,-8808.450710,1036.288319,1455.581446
3570.367542,-10066.800811,888.247130,842.705048
3570.367872,-11399.171507,370.102971,0.000000
3570.368202,-11843.295072,-592.164754,-383.047749
3570.368532,-12213.398043,-1628.453072,76.609550
3570.368862,-11547.212695,-2368.659014,995.924147
3570.369192,-10658.965565,-2886.803174,766.095498
3570.369522,-8956.491898,-2590.720797,-229.828649
3570.369852,-8068.244768,-2368.659014,0.000000
3570.370182,-7846.182985,-1554.432478,536.266849
3570.370512,-8290.306550,-1036.288319,995.924147
3570.370842,-8142.265362,-592.164754,536.266849
3570.371172,-8438.347739,-148.041188,-76.609550
3570.371502,-9992.780217,-296.082377,76.609550
3570.371832,-11843.295072,-296.082377,612.876398
3570.372162,-13471.748144,-962.267725,1225.752797
3570.372492,-13249.686362,-1628.453072,919.314598
3570.372822,-12361.439231,-1998.556043,229.828649
3570.373152,-10362.883188,-2368.659014,766.095498
3570.373482,-9548.656652,-2368.659014,76.609550
3570.373812,-8364.327145,-1702.473667,76.609550
3570.374142,-7402.059420,-1332.370696,0.000000
3570.374472,-6513.812290,-518.144159,229.828649
3570.374802,-7402.059420,0.000000,459.657299
3570.375133,-8882.471304,444.123565,536.266849
3570.375463,-10732.986159,518.144159,153.219100
3570.375793,-11769.274478,0.000000,-306.438199
3570.376123,-11991.336260,-888.247130,536.266849
3570.376453,-12065.356855,-1258.350101,1608.800546
3570.376783,-11991.336260,-1332.370696,1455.581446
3570.377113,-10807.006753,-1258.350101,0.000000
3570.377443,-8364.327145,-2146.597232,-1302.362347
3570.377773,-7105.977043,-1184.329507,-1991.848295
3570.378103,-7105.977043,-740.205942,-766.095498
3570.378433,-7179.997637,0.000000,306.438199
3570.378763,-7031.956449,666.185348,689.485948
3570.379093,-7550.100608,888.247130,-306.438199
3570.379423,-9400.615463,1036.288319,-306.438199
3570.379753,-11473.192101,1110.308913,0.000000
3570.380083,-12731.542202,740.205942,0.000000
3570.380413,-12361.439231,74.020594,383.047749
3570.380743,-11473.192101,-296.082377,995.924147
3570.381073,-10436.903782,-592.164754,536.266849
3570.381403,-9326.594869,-296.082377,0.000000
3570.381733,-8216.285956,148.041188,-383.047749
3570.382063,-7698.141797,1036.288319,-689.485948
3570.382393,-7550.100608,1776.494261,76.609550
3570.382723,-7846.182985,2368.659014,612.876398
3570.383053,-9178.553681,3034.844362,306.438199
3570.383383,-10881.027347,2664.741391,-842.705048
3570.383713,-11843.295072,2146.597232,-1532.190996
3570.384043,-12065.356855,1332.370696,-1072.533697
3570.384373,-11917.315666,962.267725,919.314598
3570.384703,-12065.356855,296.082377,1378.971896
3570.385033,-10955.047942,148.041188,383.047749
3570.385363,-8956.491898,-74.020594,0.000000
3570.385693,-7772.162391,0.000000,383.047749
3570.386023,-7994.224174,592.164754,919.314598
3570.386353,-8216.285956,1332.370696,1838.629195
3570.386683,-7846.182985,1924.535449,1608.800546
3570.387013,-8586.388927,2294.638420,459.657299
3570.387343,-10066.800811,1998.556043,0.000000
3570.387673,-11991.336260,2072.576638,306.438199
3570.388003,-12731.542202,1406.391290,383.047749
3570.388333,-12213.398043,296.082377,612.876398
3570.388663,-11473.192101,222.061783,0.000000
3570.388993,-10140.821405,-666.185348,383.047749
3570.389323,-9252.574275,-444.123565,306.438199
3570.389653,-7920.203579,-148.041188,383.047749
3570.389983,-7402.059420,296.082377,919.314598
3570.390313,-7105.977043,740.205942,1762.019645
3570.390643,-7772.162391,1554.432478,1608.800546
3570.390973,-9696.697840,1776.494261,1072.533697
3570.391303,-10955.047942,1702.473667,-153.219100
3570.391633,-11991.336260,1036.288319,-536.266849
3570.391963,-12213.398043,74.020594,-229.828649
3570.392293,-12139.377449,-222.061783,383.047749
3570.392623,-11621.233289,-1332.370696,76.609550
3570.392953,-9622.677246,-2072.576638,-1149.143247
3570.393283,-8290.306550,-1776.494261,-2374.896044
3570.393613,-7254.018232,-1110.308913,-1455.581446
3570.393943,-7624.121203,-592.164754,229.828649
3570.394274,-7846.182985,0.000000,995.924147
3570.394604,-7994.224174,222.061783,612.876398
3570.394934,-8586.388927,222.061783,76.609550
3570.395264,-10288.862594,0.000000,0.000000
3570.395594,-12065.356855,-666.185348,459.657299
3570.395924,-12731.542202,-1110.308913,459.657299
3570.396254,-11843.295072,-2072.576638,1072.533697
3570.396584,-11325.150913,-2072.576638,1225.752797
3570.396914,-9844.739029,-2368.659014,919.314598
3570.397244,-8882.471304,-1924.535449,229.828649
3570.397574,-7698.141797,-1628.453072,-612.876398
3570.397904,-7476.080014,-962.267725,-383.047749
3570.398234,-7624.121203,0.000000,229.828649
3570.398564,-8364.327145,296.082377,842.705048
3570.398894,-9770.718434,444.123565,0.000000
3570.399224,-11473.192101,222.061783,-459.657299
3570.399554,-12139.377449,-592.164754,-306.438199
3570.399884,-11917.315666,-1258.350101,995.924147
3570.400214,-12065.356855,-1776.494261,1455.581446
3570.400544,-11621.233289,-2146.597232,1225.752797
3570.400874,-9770.718434,-2294.638420,-229.828649
3570.401204,-8364.327145,-2294.638420,-995.924147
3570.401534,-7550.100608,-1406.391290,-612.876398
3570.401864,-8142.265362,-592.164754,459.657299
3570.402194,-7846.182985,74.020594,766.095498
3570.402524,-7846.182985,296.082377,306.438199
3570.402854,-9030.512492,1036.288319,459.657299
3570.403184,-10881.027347,666.185348,153.219100
3570.403514,-12731.542202,592.164754,536.266849
3570.403844,-12953.603985,148.041188,612.876398
3570.404174,-12361.439231,-74.020594,153.219100
3570.404504,-11177.109724,-370.102971,306.438199
3570.404834,-9844.739029,-814.226536,-306.438199
3570.405164,-8808.450710,-666.185348,-306.438199
3570.405494,-7550.100608,-148.041188,-536.266849
3570.405824,-7179.997637,444.123565,536.266849
3570.406154,-7105.977043,1184.329507,1532.190996
3570.406484,-8142.265362,1924.535449,1225.752797
3570.406814,-9696.697840,1998.556043,383.047749
3570.407144,-11621.233289,2368.659014,0.000000
3570.407474,-12287.418637,1332.370696,-536.266849
3570.407804,-12361.439231,962.267725,842.705048
3570.408134,-12361.439231,222.061783,1455.581446
3570.408464,-11103.089130,0.000000,459.657299
3570.408794,-9622.677246,-222.061783,-1378.971896
3570.409124,-8142.265362,-444.123565,-1608.800546
3570.409454,-7476.080014,-148.041188,-536.266849
3570.409784,-7624.121203,1036.288319,842.705048
3570.410114,-7698.141797,1776.494261,1072.533697
3570.410444,-7402.059420,1480.411884,612.876398
3570.410774,-8882.471304,2294.638420,0.000000
3570.411104,-10955.047942,1776.494261,536.266849
3570.411434,-12731.542202,1924.535449,383.047749
3570.411764,-12213.398043,444.123565,612.876398
3570.412094,-11843.295072,0.000000,612.876398
3570.412424,-10732.986159,-592.164754,919.314598
3570.412754,-9844.739029,-1332.370696,536.266849
3570.413085,-8808.450710,-370.102971,0.000000
3570.413415,-7476.080014,-370.102971,-76.609550
3570.413745,-7254.018232,962.267725,383.047749
3570.414075,-7772.162391,1554.432478,766.095498
3570.414405,-8734.430116,2220.617826,766.095498
3570.414735,-10066.800811,1924.535449,-153.219100
3570.415065,-11473.192101,1554.432478,-1072.533697
3570.415395,-11991.336260,518.144159,-459.657299
3570.415725,-11843.295072,74.020594,229.828649
3570.416055,-12139.377449,-592.164754,1072.533697
3570.416385,-11251.130318,-1480.411884,383.047749
3570.416715,-9548.656652,-1776.494261,-536.266849
3570.417045,-8068.244768,-1776.494261,-689.485948
3570.417375,-8068.244768,-740.205942,612.876398
3570.417705,-8068.244768,-148.041188,1302.362347
3570.418035,-7698.141797,370.102971,766.095498
3570.418365,-8068.244768,888.247130,229.828649
3570.418695,-9622.677246,666.185348,153.219100
3570.419025,-11695.253884,814.226536,536.266849
3570.419355,-12953.603985,0.000000,306.438199
3570.419685,-12435.459826,-740.205942,0.000000
3570.420015,-11695.253884,-1406.391290,0.000000
3570.420345,-10732.986159,-1924.535449,536.266849
3570.420675,-9622.677246,-2146.597232,229.828649
3570.421005,-7920.203579,-1924.535449,-153.219100
3570.421335,-6957.935855,-1480.411884,76.609550
3570.421665,-6661.853478,-370.102971,689.485948
3570.421995,-7254.018232,518.144159,1302.362347
3570.422325,-8882.471304,888.247130,1072.533697
3570.422655,-10510.924376,1184.329507,536.266849
3570.422985,-12065.356855,740.205942,-306.438199
3570.423315,-12583.501014,-148.041188,0.000000
3570.423645,-12435.459826,-740.205942,689.485948
3570.423975,-12287.418637,-1332.370696,612.876398
3570.424305,-11325.150913,-1332.370696,-689.485948
3570.424635,-9104.533087,-1850.514855,-1532.190996
3570.424965,-7550.100608,-1480.411884,-1915.238745
3570.425295,-7328.038826,-962.267725,-995.924147
3570.425625,-7179.997637,0.000000,76.609550
3570.425955,-7105.977043,296.082377,0.000000
3570.426285,-7698.141797,666.185348,0.000000
3570.426615,-9696.697840,1184.329507,76.609550
3570.426945,-11621.233289,888.247130,995.924147
3570.427275,-12953.603985,370.102971,995.924147
3570.427605,-12879.583391,-370.102971,689.485948
3570.427935,-11991.336260,-888.247130,689.485948
3570.428265,-10510.924376,-1480.411884,842.705048
3570.428595,-9030.512492,-1480.411884,229.828649
3570.428925,-7698.141797,-888.247130,-76.609550
3570.429255,-6809.894666,-148.041188,-919.314598
3570.429585,-6809.894666,740.205942,0.000000
3570.429915,-7402.059420,1554.432478,76.609550
3570.430245,-9326.594869,2072.576638,0.000000
3570.430575,-10881.027347,2072.576638,-612.876398
3570.430905,-11843.295072,1184.329507,-612.876398
3570.431235,-12065.356855,222.061783,-306.438199
3570.431565,-12287.418637,-148.041188,689.485948
3570.431895,-11991.336260,-962.267725,1149.143247
3570.432226,-10436.903782,-1332.370696,229.828649
3570.432556,-8734.430116,-1110.308913,-306.438199
3570.432886,-7476.080014,-444.123565,0.000000
3570.433216,-7624.121203,-222.061783,842.705048
3570.433546,-7698.141797,888.247130,1225.752797
3570.433875,-7846.182985,1406.391290,383.047749
3570.434205,-8586.388927,2146.597232,-383.047749
3570.434535,-10510.924376,1998.556043,-306.438199
3570.434865,-12361.439231,1776.494261,0.000000
3570.435195,-13323.706956,962.267725,0.000000
3570.435525,-12509.480420,-74.020594,0.000000
3570.435855,-11695.253884,-740.205942,0.000000
3570.436185,-10362.883188,-1184.329507,306.438199
3570.436515,-9178.553681,-1184.329507,383.047749
3570.436845,-7624.121203,-518.144159,766.095498
3570.437175,-6957.935855,-296.082377,842.705048
3570.437505,-6735.874072,518.144159,1149.143247
3570.437835,-7698.141797,1628.453072,1762.019645
3570.438165,-10066.800811,1850.514855,1149.143247
3570.438495,-11103.089130,1628.453072,76.609550
3570.438825,-12213.398043,814.226536,-229.828649
3570.439155,-12361.439231,222.061783,459.657299
3570.439484,-12731.542202,-518.144159,919.314598
3570.439814,-11917.315666,-888.247130,536.266849
3570.440144,-10140.821405,-1406.391290,-459.657299
3570.440474,-7920.203579,-1702.473667,-1838.629195
3570.440804,-7179.997637,-1036.288319,-842.705048
3570.441134,-7624.121203,0.000000,153.219100
3570.441464,-7402.059420,296.082377,612.876398
3570.441794,-7328.038826,444.123565,612.876398
3570.442124,-8734.430116,888.247130,76.609550
3570.442454,-10436.903782,666.185348,536.266849
3570.442784,-12435.459826,296.082377,459.657299
3570.443114,-12731.542202,-148.041188,689.485948
3570.443444,-12287.418637,-1110.308913,306.438199
3570.443774,-11547.212695,-1332.370696,995.924147
3570.444104,-9844.739029,-1776.494261,1225.752797
3570.444434,-8586.388927,-1406.391290,612.876398
3570.444764,-7772.162391,-888.247130,153.219100
3570.445094,-7254.018232,296.082377,-229.828649
3570.445423,-6957.935855,814.226536,229.828649
3570.445753,-8512.368333,1628.453072,0.000000
3570.446083,-9992.780217,1480.411884,76.609550
3570.446413,-11547.212695,1332.370696,-306.438199
3570.446743,-12065.356855,592.164754,-383.047749
3570.447073,-12287.418637,0.000000,76.609550
3570.447403,-12139.377449,-740.205942,1149.143247
3570.447733,-11547.212695,-1406.391290,612.876398
3570.448063,-9548.656652,-1554.432478,76.609550
3570.448393,-8142.265362,-1258.350101,229.828649
3570.448723,-7846.182985,-666.185348,766.095498
3570.449053,-7624.121203,0.000000,1378.971896
3570.449383,-7624.121203,814.226536,766.095498
3570.449713,-7476.080014,1184.329507,306.438199
3570.450043,-9104.533087,1628.453072,76.609550
3570.450373,-11325.150913,1554.432478,0.000000
3570.450703,-13027.624579,1480.411884,0.000000
3570.451033,-12805.562797,666.185348,76.609550
3570.451362,-11843.295072,-296.082377,-766.095498
3570.451692,-10732.986159,-962.267725,-306.438199
3570.452022,-9548.656652,-1406.391290,76.609550
3570.452352,-8438.347739,-666.185348,229.828649
3570.452682,-7254.018232,-444.123565,383.047749
3570.453012,-6809.894666,444.123565,919.314598
3570.453342,-7328.038826,1332.370696,1149.143247
3570.453672,-8586.388927,1776.494261,766.095498
3570.454002,-10140.821405,2146.597232,766.095498
3570.454332,-11547.212695,1554.432478,0.000000
3570.454662,-12435.459826,1110.308913,76.609550
3570.454992,-12065.356855,0.000000,306.438199
3570.455322,-12213.398043,0.000000,76.609550
3570.455652,-11325.150913,-1036.288319,0.000000
3570.455982,-9400.615463,-1036.288319,-1149.143247
3570.456312,-7772.162391,-1036.288319,-1149.143247
3570.456642,-7254.018232,0.000000,0.000000
3570.456972,-7402.059420,0.000000,842.705048
3570.457301,-7402.059420,962.267725,766.095498
3570.457631,-8364.327145,1332.370696,76.609550
3570.457961,-9622.677246,1332.370696,536.266849
3570.458291,-11473.192101,1480.411884,842.705048
3570.458621,-12731.542202,592.164754,766.095498
3570.458951,-12509.480420,-444.123565,459.657299
3570.459281,-11917.315666,-1110.308913,459.657299
3570.459611,-10436.903782,-1184.329507,0.000000
3570.459941,-9252.574275,-1850.514855,612.876398
3570.460271,-8068.244768,-1258.350101,306.438199
3570.460601,-7031.956449,-444.123565,76.609550
3570.460931,-6883.915261,666.185348,0.000000
3570.461261,-7624.121203,1258.350101,153.219100
3570.461591,-9178.553681,1554.432478,-306.438199
3570.461921,-10658.965565,1406.391290,-383.047749
3570.462251,-11843.295072,740.205942,-689.485948
3570.462581,-12139.377449,0.000000,153.219100
3570.462911,-11843.295072,-962.267725,689.485948
3570.463240,-11843.295072,-1480.411884,689.485948
3570.463570,-10658.965565,-1776.494261,153.219100
3570.463900,-8956.491898,-1998.556043,-459.657299
3570.464230,-7402.059420,-1850.514855,0.000000
3570.464560,-7254.018232,-740.205942,766.095498
3570.464890,-7624.121203,0.000000,689.485948
3570.465220,-7402.059420,962.267725,0.000000
3570.465550,-8586.388927,740.205942,-383.047749
3570.465880,-10288.862594,1036.288319,-229.828649
3570.466210,-12213.398043,814.226536,229.828649
3570.466540,-12879.583391,518.144159,153.219100
3570.466870,-12509.480420,-148.041188,459.657299
3570.467200,-11917.315666,-1110.308913,0.000000
3570.467530,-10584.944971,-1406.391290,0.000000
3570.467860,-9548.656652,-1554.432478,229.828649
3570.468190,-7846.182985,-1036.288319,-383.047749
3570.468520,-7105.977043,-592.164754,306.438199
3570.468850,-6957.935855,0.000000,766.095498
3570.469179,-7476.080014,444.123565,1072.533697
3570.469509,-8512.368333,1258.350101,612.876398
3570.469839,-10807.006753,1406.391290,0.000000
3570.470169,-11991.336260,814.226536,0.000000
3570.470499,-12139.377449,0.000000,153.219100
3570.470829,-12509.480420,148.041188,1225.752797
3570.471159,-11843.295072,-740.205942,766.095498
3570.471489,-10658.965565,-962.267725,0.000000
3570.471819,-8586.388927,-1184.329507,-1378.971896
3570.472149,-7254.018232,-888.247130,-1608.800546
3570.472479,-7179.997637,-222.061783,-612.876398
3570.472809,-7476.080014,296.082377,459.657299
3570.473139,-7476.080014,1036.288319,76.609550
3570.473469,-8142.265362,1184.329507,0.000000
3570.473799,-9474.636058,1776.494261,-536.266849
3570.474129,-11769.274478,1036.288319,459.657299
3570.474459,-12287.418637,592.164754,689.485948
3570.474789,-12213.398043,74.020594,919.314598
3570.475118,-11547.212695,-222.061783,689.485948
3570.475448,-10881.027347,-814.226536,1302.362347
3570.475778,-9400.615463,-814.226536,612.876398
3570.476108,-8142.265362,-370.102971,0.000000
3570.476438,-7476.080014,222.061783,229.828649
3570.476768,-7476.080014,1406.391290,459.657299
3570.477098,-8290.306550,1998.556043,459.657299
3570.477428,-9474.636058,2294.638420,0.000000
3570.477758,-10955.047942,2220.617826,-612.876398
3570.478088,-11695.253884,1628.453072,-612.876398
3570.478418,-11917.315666,814.226536,-76.609550
3570.478748,-12139.377449,444.123565,689.485948
3570.479078,-11843.295072,-518.144159,536.266849
3570.479408,-9918.759623,-814.226536,-306.438199
3570.479738,-8438.347739,-1258.350101,-383.047749
3570.480068,-7550.100608,-814.226536,459.657299
3570.480398,-7920.203579,-222.061783,1838.629195
3570.480728,-7846.182985,518.144159,1838.629195
3570.481057,-7772.162391,888.247130,689.485948
3570.481387,-8808.450710,1776.494261,-229.828649
3570.481717,-10362.883188,1628.453072,-612.876398
3570.482047,-12065.356855,1184.329507,-306.438199
3570.482377,-12213.398043,444.123565,-76.609550
3570.482707,-12139.377449,-148.041188,-383.047749
3570.483037,-11029.068536,-1184.329507,-229.828649
3570.483367,-9992.780217,-1184.329507,-153.219100
3570.483697,-8512.368333,-1406.391290,383.047749
3570.484027,-7624.121203,-1110.308913,76.609550
3570.484357,-7031.956449,-444.123565,766.095498
3570.484687,-7179.997637,592.164754,1378.971896
3570.485017,-7698.141797,1110.308913,689.485948
3570.485347,-9548.656652,1332.370696,766.095498
3570.485677,-11325.150913,1258.350101,0.000000
3570.486007,-12287.418637,518.144159,-306.438199
3570.486337,-12139.377449,74.020594,76.609550
3570.486667,-12287.418637,-518.144159,842.705048
3570.486996,-11843.295072,-1036.288319,229.828649
3570.487326,-10140.821405,-1258.350101,-995.924147
3570.487656,-8586.388927,-1480.411884,-1838.629195
3570.487986,-7772.162391,-740.205942,-1608.800546
3570.488316,-7476.080014,-740.205942,-76.609550
3570.488646,-7846.182985,296.082377,919.314598
3570.488976,-8142.265362,666.185348,612.876398
3570.489306,-8808.450710,1406.391290,-383.047749
3570.489636,-10362.883188,888.247130,306.438199
3570.489966,-12065.356855,370.102971,306.438199
3570.490296,-12509.480420,0.000000,1378.971896
3570.490626,-12139.377449,-888.247130,1378.971896
3570.490956,-11251.130318,-1036.288319,1762.019645
3570.491286,-9992.780217,-1702.473667,842.705048
3570.491616,-8956.491898,-1258.350101,536.266849
3570.491946,-7846.182985,-666.185348,0.000000
3570.492276,-7254.018232,0.000000,766.095498
3570.492605,-7328.038826,888.247130,842.705048
3570.492935,-8068.244768,1110.308913,459.657299
3570.493265,-9696.697840,1628.453072,-536.266849
3570.493595,-11251.130318,1406.391290,-919.314598
3570.493925,-11917.315666,962.267725,-766.095498
3570.494255,-12213.398043,222.061783,306.438199
3570.494585,-12287.418637,-518.144159,1378.971896
3570.494915,-11473.192101,-1184.329507,689.485948
3570.495245,-10140.821405,-1332.370696,0.000000
3570.495575,-8068.244768,-1850.514855,-459.657299
3570.495905,-7402.059420,-962.267725,153.219100
3570.496235,-7994.224174,-222.061783,1225.752797
3570.496565,-7698.141797,518.144159,1302.362347
3570.496895,-7698.141797,1036.288319,76.609550
3570.497225,-8882.471304,1702.473667,-536.266849
3570.497555,-11029.068536,1480.411884,-459.657299
3570.497885,-12435.459826,814.226536,0.000000
3570.498215,-13027.624579,444.123565,0.000000
3570.498544,-11991.336260,-518.144159,0.000000
3570.498874,-10955.047942,-814.226536,0.000000
3570.499204,-10066.800811,-1406.391290,76.609550
3570.499534,-8882.471304,-1184.329507,0.000000
3570.499864,-7624.121203,-814.226536,229.828649
3570.500194,-7179.997637,296.082377,919.314598
3570.500524,-7179.997637,1110.308913,1225.752797
3570.500854,-8734.430116,1776.494261,1302.362347
3570.501184,-9918.759623,1850.514855,153.219100
3570.501514,-11399.171507,1332.370696,-766.095498
3570.501844,-12065.356855,814.226536,-383.047749
3570.502174,-11991.336260,0.000000,842.705048
3570.502504,-12213.398043,-592.164754,766.095498
3570.502834,-11251.130318,-1332.370696,229.828649
3570.503164,-9400.615463,-1702.473667,-1225.752797
3570.503494,-7550.100608,-1702.473667,-1532.190996
3570.503824,-7031.956449,-666.185348,-536.266849
3570.504154,-7550.100608,74.020594,459.657299
3570.504483,-7994.224174,1036.288319,689.485948
3570.504813,-8068.244768,962.267725,229.828649
3570.505143,-9326.594869,1480.411884,153.219100
3570.505473,-10955.047942,1036.288319,536.266849
3570.505803,-12213.398043,148.041188,766.095498
3570.506133,-12361.439231,-296.082377,919.314598
3570.506463,-11991.336260,-1036.288319,1532.190996
3570.506793,-10436.903782,-1258.350101,536.266849
3570.507123,-9696.697840,-1406.391290,536.266849
3570.507453,-8660.409521,-1184.329507,76.609550
3570.507783,-7254.018232,-74.020594,76.609550
3570.508113,-7031.956449,814.226536,0.000000
3570.508443,-7698.141797,1628.453072,383.047749
3570.508773,-9400.615463,2146.597232,0.000000
3570.509103,-10510.924376,2220.617826,-689.485948
3570.509433,-11769.274478,1554.432478,-995.924147
3570.509763,-12139.377449,740.205942,-612.876398
3570.510093,-12435.459826,-222.061783,306.438199
3570.510422,-12213.398043,-740.205942,919.314598
3570.510752,-10955.047942,-888.247130,153.219100
3570.511082,-9178.553681,-1480.411884,-383.047749
3570.511412,-7846.182985,-1406.391290,-459.657299
3570.511742,-7846.182985,-666.185348,689.485948
3570.512072,-7772.162391,0.000000,1608.800546
3570.512402,-7550.100608,666.185348,1455.581446
3570.512732,-7994.224174,962.267725,0.000000
3570.513062,-9474.636058,1110.308913,0.000000
3570.513392,-11917.315666,962.267725,689.485948
3570.513722,-12879.583391,592.164754,459.657299
3570.514052,-12509.480420,-444.123565,153.219100
3570.514382,-11473.192101,-1332.370696,383.047749
3570.514712,-10436.903782,-1924.535449,689.485948
3570.515042,-8956.491898,-1776.494261,0.000000
3570.515372,-7920.203579,-1332.370696,0.000000
3570.515702,-7031.956449,-666.185348,0.000000
3570.516032,-6661.853478,518.144159,689.485948
3570.516361,-7402.059420,1258.350101,919.314598
3570.516691,-9326.594869,1924.535449,536.266849
3570.517021,-10881.027347,1628.453072,0.000000
3570.517351,-12139.377449,1110.308913,-766.095498
3570.517681,-11991.336260,0.000000,-459.657299
3570.518011,-12361.439231,-740.205942,459.657299
3570.518341,-12139.377449,-1184.329507,919.314598
3570.518671,-10658.965565,-1332.370696,-153.219100
3570.519001,-8882.471304,-1702.473667,-1455.581446
3570.519331,-7476.080014,-592.164754,-1149.143247
3570.519661,-7402.059420,-518.144159,0.000000
3570.519991,-7550.100608,296.082377,766.095498
3570.520321,-7698.141797,888.247130,153.219100
3570.520651,-8882.471304,1332.370696,383.047749
3570.520981,-10140.821405,1480.411884,0.000000
3570.521311,-11991.336260,1110.308913,153.219100
3570.521641,-12805.562797,444.123565,153.219100
3570.521971,-12213.398043,-444.123565,612.876398
3570.522300,-11695.253884,-1184.329507,1149.143247
3570.522630,-10362.883188,-1776.494261,1225.752797
3570.522960,-9252.574275,-1110.308913,919.314598
3570.523290,-7994.224174,-592.164754,229.828649
3570.523620,-7254.018232,296.082377,306.438199
3570.523950,-7105.977043,1110.308913,153.219100
3570.524280,-8216.285956,1998.556043,0.000000
3570.524610,-9696.697840,2368.659014,0.000000
3570.524940,-11325.150913,2516.700203,-383.047749
3570.525270,-11991.336260,1036.288319,-306.438199
3570.525600,-12213.398043,370.102971,0.000000
3570.525930,-12139.377449,-444.123565,383.047749
3570.526260,-11621.233289,-1110.308913,842.705048
3570.526590,-10066.800811,-1480.411884,-229.828649
3570.526920,-8068.244768,-1776.494261,-612.876398
3570.527250,-7105.977043,-1184.329507,459.657299
3570.527580,-7328.038826,0.000000,1532.190996
3570.527910,-7698.141797,962.267725,1838.629195
3570.528239,-7994.224174,1554.432478,459.657299
3570.528569,-9030.512492,1850.514855,-153.219100
3570.528899,-10807.006753,1776.494261,-229.828649
3570.529229,-12213.398043,1406.391290,153.219100
3570.529559,-12879.583391,518.144159,0.000000
3570.529889,-12435.459826,-222.061783,0.000000
3570.530219,-10881.027347,-1110.308913,-153.219100
3570.530549,-9622.677246,-1258.350101,229.828649
3570.530879,-8808.450710,-888.247130,76.609550
3570.531209,-7624.121203,-740.205942,612.876398
3570.531539,-6809.894666,222.061783,842.705048
3570.531869,-7105.977043,1184.329507,1455.581446
3570.532199,-8438.347739,1628.453072,1225.752797
3570.532529,-10288.862594,1850.514855,1072.533697
3570.532859,-11399.171507,1850.514855,76.609550
3570.533189,-12361.439231,814.226536,-536.266849
3570.533519,-11843.295072,0.000000,612.876398
3570.533849,-12139.377449,-592.164754,919.314598
3570.534178,-11769.274478,-888.247130,536.266849
3570.534508,-9548.656652,-1332.370696,-842.705048
3570.534838,-7846.182985,-1480.411884,-1149.143247
3570.535168,-7402.059420,-592.164754,-919.314598
3570.535498,-7402.059420,0.000000,459.657299
3570.535828,-7402.059420,444.123565,1072.533697
3570.536158,-7698.141797,740.205942,689.485948
3570.536488,-9104.533087,1332.370696,229.828649
3570.536817,-10955.047942,1110.308913,459.657299
3570.537147,-12731.542202,592.164754,383.047749
3570.537477,-13027.624579,0.000000,1149.143247
3570.537807,-12287.418637,-1036.288319,1685.410096
3570.538136,-11325.150913,-1332.370696,1685.410096
3570.538466,-9770.718434,-1628.453072,1378.971896
3570.538796,-8290.306550,-962.267725,229.828649
3570.539126,-7328.038826,-444.123565,-1072.533697
3570.539455,-7254.018232,296.082377,-229.828649
3570.539785,-7624.121203,1258.350101,153.219100
3570.540115,-8438.347739,1776.494261,459.657299
3570.540445,-9992.780217,2072.576638,-229.828649
3570.540774,-11473.192101,1480.411884,-1378.971896
3570.541104,-12435.459826,518.144159,-1225.752797
3570.541434,-12065.356855,-370.102971,0.000000
3570.541764,-12213.398043,-1110.308913,1149.143247
3570.542093,-11251.130318,-1628.453072,766.095498
3570.542423,-9104.533087,-1924.535449,0.000000
3570.542753,-7550.100608,-1776.494261,-383.047749
3570.543083,-7105.977043,-740.205942,76.609550
3570.543412,-8068.244768,74.020594,766.095498
3570.543742,-7698.141797,370.102971,1072.533697
3570.544072,-7994.224174,962.267725,0.000000
3570.544402,-9252.574275,1110.308913,0.000000
3570.544731,-11621.233289,1406.391290,-536.266849
3570.545061,-12583.501014,666.185348,-383.047749
3570.545391,-12657.521608,0.000000,-229.828649
3570.545721,-11843.295072,-1036.288319,0.000000
3570.546050,-10436.903782,-1554.432478,383.047749
3570.546380,-9326.594869,-1702.473667,689.485948
3570.546710,-8142.265362,-1184.329507,229.828649
3570.547040,-7476.080014,-148.041188,229.828649
3570.547369,-7254.018232,444.123565,383.047749
3570.547699,-7920.203579,1480.411884,1072.533697
3570.548029,-9252.574275,1776.494261,1072.533697
3570.548359,-10732.986159,1850.514855,612.876398
3570.548689,-11843.295072,1332.370696,-689.485948
3570.549018,-12361.439231,444.123565,-919.314598
3570.549348,-12065.356855,-296.082377,0.000000
3570.549678,-11843.295072,-1184.329507,919.314598
3570.550008,-10955.047942,-888.247130,306.438199
3570.550337,-9326.594869,-1184.329507,-612.876398
3570.550667,-7772.162391,-1184.329507,-1149.143247
3570.550997,-7402.059420,-518.144159,-536.266849
3570.551327,-7772.162391,296.082377,229.828649
3570.551656,-7476.080014,814.226536,229.828649
3570.551986,-8216.285956,1110.308913,383.047749
3570.552316,-9400.615463,888.247130,76.609550
3570.552646,-11177.109724,592.164754,536.266849
3570.552975,-12139.377449,370.102971,459.657299
3570.553305,-11917.315666,0.000000,612.876398
3570.553635,-11843.295072,-814.226536,1225.752797
3570.553965,-10658.965565,-1258.350101,1072.533697
3570.554294,-9622.677246,-1480.411884,995.924147
3570.554624,-8290.306550,-222.061783,-919.314598
3570.554954,-7698.141797,74.020594,-459.657299
3570.555284,-7550.100608,1110.308913,229.828649
3570.555613,-8068.244768,1628.453072,306.438199
3570.555943,-9252.574275,1998.556043,76.609550
3570.556273,-11029.068536,1924.535449,0.000000
3570.556603,-11843.295072,1332.370696,-689.485948
3570.556932,-12065.356855,296.082377,0.000000
3570.557262,-11843.295072,-222.061783,842.705048
3570.557592,-11621.233289,-740.205942,1225.752797
3570.557922,-11029.068536,-1036.288319,842.705048
3570.558251,-9104.533087,-1480.411884,-229.828649
3570.558581,-7846.182985,-1480.411884,0.000000
3570.558911,-7476.080014,0.000000,306.438199
3570.559241,-8068.244768,148.041188,1608.800546
3570.559571,-7920.203579,666.185348,1378.971896
3570.559900,-8364.327145,1036.288319,612.876398
3570.560230,-9622.677246,1110.308913,-459.657299
3570.560560,-11473.192101,814.226536,0.000000
3570.560890,-12287.418637,222.061783,76.609550
3570.561219,-11991.336260,-296.082377,383.047749
3570.561549,-11399.171507,-1036.288319,612.876398
3570.561879,-10214.842000,-814.226536,0.000000
3570.562209,-9474.636058,-962.267725,229.828649
3570.562538,-8290.306550,-444.123565,76.609550
3570.562868,-7476.080014,0.000000,0.000000
3570.563198,-7105.977043,814.226536,306.438199
3570.563528,-7994.224174,1184.329507,995.924147
3570.563857,-8956.491898,1628.453072,612.876398
3570.564187,-10658.965565,1628.453072,-383.047749
3570.564517,-11399.171507,1036.288319,-1532.190996
3570.564847,-11843.295072,296.082377,-459.657299
3570.565176,-11843.295072,-296.082377,306.438199
3570.565506,-11769.274478,-740.205942,612.876398
3570.565836,-10436.903782,-1258.350101,0.000000
3570.566166,-8882.471304,-1332.370696,-1302.362347
3570.566495,-7920.203579,-1036.288319,-1532.190996
3570.566825,-7772.162391,-592.164754,-306.438199
3570.567155,-7624.121203,74.020594,0.000000
3570.567485,-7402.059420,0.000000,459.657299
3570.567814,-8216.285956,888.247130,459.657299
3570.568144,-9918.759623,814.226536,459.657299
3570.568474,-11917.315666,814.226536,536.266849
3570.568804,-11991.336260,296.082377,995.924147
3570.569133,-12287.418637,-296.082377,1149.143247
3570.569463,-11843.295072,-814.226536,1608.800546
3570.569793,-10807.006753,-1628.453072,1225.752797
3570.570123,-9548.656652,-1258.350101,842.705048
3570.570453,-8142.265362,-740.205942,0.000000
3570.570782,-7550.100608,-296.082377,-76.609550
3570.571112,-7476.080014,666.185348,612.876398
3570.571442,-7846.182985,1184.329507,766.095498
3570.571772,-9474.636058,1850.514855,536.266849
3570.572101,-10881.027347,1332.370696,-536.266849
3570.572431,-11843.295072,1036.288319,-919.314598
3570.572761,-11917.315666,0.000000,0.000000
3570.573091,-11843.295072,-148.041188,76.609550
3570.573420,-11547.212695,-1554.432478,536.266849
3570.573750,-10140.821405,-1480.411884,-153.219100
3570.574080,-8290.306550,-1850.514855,-766.095498
3570.574410,-7550.100608,-1184.329507,76.609550
3570.574739,-7179.997637,-666.185348,1072.533697
3570.575069,-7698.141797,518.144159,1072.533697
3570.575399,-7624.121203,814.226536,1149.143247
3570.575729,-8660.409521,1480.411884,536.266849
3570.576058,-10066.800811,1480.411884,153.219100
3570.576388,-12139.377449,888.247130,229.828649
3570.576718,-12435.459826,444.123565,153.219100
3570.577048,-12287.418637,74.020594,229.828649
3570.577377,-11399.171507,-518.144159,306.438199
3570.577707,-9918.759623,-1480.411884,306.438199
3570.578037,-8808.450710,-1036.288319,-229.828649
3570.578367,-7772.162391,-370.102971,-229.828649
3570.578696,-7402.059420,370.102971,0.000000
3570.579026,-7476.080014,1110.308913,536.266849
3570.579356,-8586.388927,1776.494261,842.705048
3570.579686,-9918.759623,1702.473667,766.095498
3570.580015,-11177.109724,1776.494261,-612.876398
3570.580345,-11769.274478,814.226536,-459.657299
3570.580675,-11843.295072,222.061783,76.609550
3570.581005,-12361.439231,-74.020594,919.314598
3570.581335,-11843.295072,-444.123565,459.657299
3570.581664,-10066.800811,-888.247130,-1072.533697
3570.581994,-8364.327145,-1480.411884,-1608.800546
3570.582324,-7476.080014,-1110.308913,-995.924147
3570.582654,-7772.162391,0.000000,76.609550
3570.582983,-7476.080014,370.102971,459.657299
3570.583313,-7402.059420,518.144159,766.095498
3570.583643,-8142.265362,1258.350101,229.828649
3570.583973,-10510.924376,1184.329507,76.609550
3570.584302,-11991.336260,1110.308913,536.266849
3570.584632,-12583.501014,222.061783,612.876398
3570.584962,-11991.336260,-814.226536,842.705048
3570.585292,-11177.109724,-1184.329507,1455.581446
3570.585621,-10214.842000,-1776.494261,1532.190996
3570.585951,-8882.471304,-1332.370696,153.219100
3570.586281,-7846.182985,-444.123565,-995.924147
3570.586611,-7254.018232,0.000000,-459.657299
3570.586940,-7550.100608,814.226536,0.000000
3570.587270,-8364.327145,1628.453072,459.657299
3570.587600,-10066.800811,1554.432478,0.000000
3570.587930,-11251.130318,1480.411884,-1072.533697
3570.588259,-11917.315666,666.185348,-1149.143247
3570.588589,-11991.336260,0.000000,-689.485948
3570.588919,-12287.418637,-740.205942,0.000000
3570.589249,-11325.150913,-1628.453072,-153.219100
3570.589578,-9400.615463,-1924.535449,-306.438199
3570.589908,-7846.182985,-2072.576638,-229.828649
3570.590238,-7476.080014,-1480.411884,383.047749
3570.590568,-7179.997637,-888.247130,1378.971896
3570.590897,-7698.141797,518.144159,1378.971896
3570.591227,-8068.244768,888.247130,612.876398
3570.591557,-9474.636058,1184.329507,536.266849
3570.591887,-11177.109724,1036.288319,383.047749
3570.592216,-12805.562797,518.144159,153.219100
3570.592546,-12657.521608,0.000000,0.000000
3570.592876,-12139.377449,-1036.288319,0.000000
3570.593206,-11103.089130,-1258.350101,0.000000
3570.593536,-9844.739029,-1406.391290,153.219100
3570.593865,-8438.347739,-1332.370696,76.609550
3570.594195,-7328.038826,-518.144159,0.000000
3570.594525,-6809.894666,222.061783,842.705048
3570.594855,-6957.935855,1258.350101,1762.019645
3570.595184,-8808.450710,1628.453072,1455.581446
3570.595514,-10436.903782,1850.514855,383.047749
3570.595844,-11769.274478,1628.453072,-76.609550
3570.596174,-12065.356855,1036.288319,0.000000
3570.596503,-12509.480420,0.000000,1149.143247
3570.596833,-12879.583391,-370.102971,842.705048
3570.597163,-11473.192101,-814.226536,0.000000
3570.597493,-9178.553681,-1702.473667,-1378.971896
3570.597822,-7624.121203,-1184.329507,-1302.362347
3570.598152,-7624.121203,-444.123565,-383.047749
3570.598482,-7698.141797,222.061783,536.266849
3570.598812,-7402.059420,814.226536,459.657299
3570.599141,-7846.182985,1332.370696,229.828649
3570.599471,-8882.471304,1258.350101,229.828649
3570.599801,-11325.150913,1480.411884,306.438199
3570.600131,-12731.542202,1036.288319,536.266849
3570.600460,-12583.501014,-222.061783,689.485948
3570.600790,-11769.274478,-1110.308913,919.314598
3570.601120,-10510.924376,-1480.411884,1225.752797
3570.601450,-9548.656652,-1554.432478,919.314598
3570.601779,-8364.327145,-518.144159,76.609550
3570.602109,-7105.977043,-222.061783,-612.876398
3570.602439,-7105.977043,1110.308913,0.000000
3570.602769,-7476.080014,1702.473667,459.657299
3570.603098,-9326.594869,2368.659014,842.705048
3570.603428,-10436.903782,2368.659014,-306.438199
3570.603758,-11547.212695,1554.432478,-1455.581446
3570.604088,-11991.336260,666.185348,-919.314598
3570.604418,-12139.377449,0.000000,0.000000
3570.604747,-11917.315666,-888.247130,919.314598
3570.605077,-10658.965565,-1184.329507,229.828649
3570.605407,-8956.491898,-1850.514855,-689.485948
3570.605737,-7476.080014,-1480.411884,229.828649
3570.606066,-7105.977043,-666.185348,1685.410096
3570.606396,-7698.141797,74.020594,2221.676944
3570.606726,-7402.059420,666.185348,1838.629195
3570.607056,-8586.388927,1184.329507,383.047749
3570.607385,-9992.780217,1184.329507,229.828649
3570.607715,-12139.377449,1332.370696,0.000000
3570.608045,-12953.603985,592.164754,-306.438199
3570.608375,-12583.501014,-222.061783,-229.828649
3570.608704,-11621.233289,-1184.329507,-76.609550
3570.609034,-10066.800811,-1702.473667,76.609550
3570.609364,-8956.491898,-1258.350101,76.609550
3570.609694,-7846.182985,-1036.288319,-383.047749
3570.610023,-7254.018232,-296.082377,306.438199
3570.610353,-6587.832884,0.000000,1072.533697
3570.610683,-8438.347739,1184.329507,2068.457845
3570.611013,-10362.883188,1702.473667,1532.190996
3570.611342,-11029.068536,1332.370696,0.000000
3570.611672,-11769.274478,814.226536,-995.924147
3570.612002,-12213.398043,0.000000,-612.876398
3570.612332,-12435.459826,-518.144159,306.438199
3570.612661,-11621.233289,-1110.308913,76.609550
3570.612991,-10140.821405,-1036.288319,-995.924147
3570.613321,-7994.224174,-1628.453072,-1991.848295
3570.613651,-7476.080014,-1332.370696,-1302.362347
3570.613980,-7698.141797,-666.185348,-306.438199
3570.614310,-7698.141797,0.000000,1072.533697
3570.614640,-7179.997637,296.082377,612.876398
3570.614970,-8586.388927,740.205942,383.047749
3570.615300,-10066.800811,814.226536,229.828649
3570.615629,-11843.295072,518.144159,0.000000
3570.615959,-12065.356855,0.000000,842.705048
3570.616289,-12361.439231,-814.226536,766.095498
3570.616619,-11621.233289,-962.267725,919.314598
3570.616948,-10362.883188,-1406.391290,919.314598
3570.617278,-9178.553681,-1110.308913,0.000000
3570.617608,-8216.285956,-814.226536,-229.828649
3570.617938,-7254.018232,0.000000,-689.485948
3570.618267,-7179.997637,740.205942,76.609550
3570.618597,-8364.327145,1628.453072,842.705048
3570.618927,-9770.718434,1628.453072,612.876398
3570.619257,-11399.171507,1628.453072,-306.438199
3570.619586,-11843.295072,1036.288319,-1225.752797
3570.619916,-11991.336260,222.061783,-612.876398
3570.620246,-12213.398043,-296.082377,612.876398
3570.620576,-11843.295072,-444.123565,1532.190996
3570.620905,-9622.677246,-1480.411884,229.828649
3570.621235,-8142.265362,-1406.391290,76.609550
3570.621565,-7772.162391,-814.226536,459.657299
3570.621895,-7772.162391,-222.061783,1838.629195
3570.622224,-7846.182985,962.267725,1608.800546
3570.622554,-8068.244768,1406.391290,842.705048
3570.622884,-8808.450710,1776.494261,153.219100
3570.623214,-10807.006753,1924.535449,-383.047749
3570.623543,-12065.356855,1702.473667,-766.095498
3570.623873,-12583.501014,814.226536,-383.047749
3570.624203,-12435.459826,148.041188,-383.047749
3570.624533,-10881.027347,-370.102971,0.000000
3570.624862,-9400.615463,-740.205942,689.485948
3570.625192,-8586.388927,-740.205942,229.828649
3570.625522,-7846.182985,-148.041188,229.828649
3570.625852,-7402.059420,518.144159,612.876398
3570.626182,-7550.100608,962.267725,1915.238745
3570.626511,-8734.430116,1480.411884,2068.457845
3570.626841,-10140.821405,2072.576638,1149.143247
3570.627171,-11325.150913,1776.494261,-383.047749
3570.627501,-11917.315666,888.247130,-1302.362347
3570.627830,-12065.356855,222.061783,-76.609550
3570.628160,-12139.377449,0.000000,0.000000
3570.628490,-11473.192101,-888.247130,0.000000
3570.628820,-9474.636058,-1036.288319,-1149.143247
3570.629149,-8290.306550,-1110.308913,-1072.533697
3570.629479,-7920.203579,-666.185348,-689.485948
3570.629809,-8142.265362,-296.082377,306.438199
3570.630139,-7994.224174,296.082377,1072.533697
3570.630468,-7772.162391,592.164754,919.314598
3570.630798,-8956.491898,740.205942,766.095498
3570.631128,-10584.944971,592.164754,536.266849
3570.631458,-11917.315666,296.082377,153.219100
3570.631787,-12139.377449,-148.041188,612.876398
3570.632117,-12287.418637,-1258.350101,689.485948
3570.632447,-11029.068536,-1628.453072,995.924147
3570.632777,-9770.718434,-1702.473667,1072.533697
3570.633106,-8438.347739,-1406.391290,0.000000
3570.633436,-7846.182985,-592.164754,-383.047749
3570.633766,-7254.018232,-148.041188,76.609550
3570.634096,-7698.141797,814.226536,383.047749
3570.634425,-8734.430116,962.267725,689.485948
3570.634755,-9770.718434,888.247130,153.219100
3570.635085,-11547.212695,888.247130,-1149.143247
3570.635415,-11695.253884,74.020594,-1378.971896
3570.635745,-11843.295072,-444.123565,-306.438199
3570.636075,-11917.315666,-1036.288319,1072.533697
3570.636405,-11177.109724,-1332.370696,459.657299
3570.636734,-9400.615463,-1850.514855,-229.828649
3570.637064,-8068.244768,-1776.494261,-76.609550
3570.637394,-7698.141797,-1184.329507,459.657299
3570.637724,-8068.244768,-222.061783,1532.190996
3570.638054,-7698.141797,0.000000,1915.238745
3570.638384,-8068.244768,666.185348,1149.143247
3570.638714,-9548.656652,1258.350101,919.314598
3570.639043,-10807.006753,888.247130,689.485948
3570.639373,-12583.501014,1184.329507,0.000000
3570.639703,-13027.624579,592.164754,0.000000
3570.640033,-12361.439231,0.000000,229.828649
3570.640363,-11177.109724,-740.205942,229.828649
3570.640693,-9696.697840,-962.267725,383.047749
3570.641023,-8438.347739,-666.185348,0.000000
3570.641353,-7698.141797,-370.102971,0.000000
3570.641682,-7550.100608,518.144159,919.314598
3570.642012,-7698.141797,1036.288319,2298.286494
3570.642342,-8734.430116,1406.391290,1685.410096
3570.642672,-10288.862594,1850.514855,459.657299
3570.643002,-11325.150913,1332.370696,-766.095498
3570.643332,-11769.274478,888.247130,-536.266849
3570.643662,-12287.418637,296.082377,459.657299
3570.643991,-11991.336260,-222.061783,459.657299
3570.644321,-10807.006753,-666.185348,-383.047749
3570.644651,-8882.471304,-1036.288319,-2145.067394
3570.644981,-8216.285956,-814.226536,-1225.752797
3570.645311,-7772.162391,-666.185348,-153.219100
3570.645641,-7920.203579,74.020594,842.705048
3570.645971,-7698.141797,592.164754,842.705048
3570.646300,-7476.080014,814.226536,459.657299
3570.646630,-9030.512492,1258.350101,153.219100
3570.646960,-10732.986159,888.247130,0.000000
3570.647290,-11991.336260,592.164754,153.219100
3570.647620,-12139.377449,0.000000,76.609550
3570.647950,-11843.295072,-740.205942,1072.533697
3570.648280,-10510.924376,-1554.432478,1378.971896
3570.648609,-9770.718434,-1406.391290,995.924147
3570.648939,-8068.244768,-1258.350101,306.438199
3570.649269,-7920.203579,-592.164754,0.000000
3570.649599,-7402.059420,518.144159,536.266849
3570.649929,-7994.224174,1258.350101,689.485948
3570.650259,-9474.636058,1924.535449,459.657299
3570.650589,-10955.047942,2072.576638,-459.657299
3570.650919,-11769.274478,1332.370696,-1685.410096
3570.651248,-11991.336260,518.144159,-995.924147
3570.651578,-12213.398043,-148.041188,-229.828649
3570.651908,-11843.295072,-740.205942,0.000000
3570.652238,-10436.903782,-1554.432478,0.000000
3570.652568,-8734.430116,-1850.514855,-153.219100
3570.652898,-7476.080014,-1702.473667,0.000000
3570.653228,-7920.203579,-1184.329507,766.095498
3570.653557,-7698.141797,0.000000,1455.581446
3570.653887,-7772.162391,814.226536,1685.410096
3570.654217,-8734.430116,1184.329507,766.095498
3570.654547,-10288.862594,1184.329507,229.828649
3570.654877,-12065.356855,1036.288319,76.609550
3570.655207,-12731.542202,666.185348,0.000000
3570.655537,-12361.439231,-74.020594,-459.657299
3570.655866,-11769.274478,-666.185348,-76.609550
3570.656196,-10214.842000,-1480.411884,76.609550
3570.656526,-8956.491898,-1480.411884,306.438199
3570.656856,-7846.182985,-1184.329507,0.000000
3570.657186,-7179.997637,0.000000,153.219100
3570.657516,-6957.935855,148.041188,1072.533697
3570.657846,-8142.265362,1258.350101,1225.752797
3570.658175,-9696.697840,1702.473667,1072.533697
3570.658505,-11177.109724,1480.411884,306.438199
3570.658835,-11843.295072,1036.288319,-536.266849
3570.659165,-11843.295072,222.061783,153.219100
3570.659495,-12287.418637,-666.185348,1072.533697
3570.659825,-11769.274478,-1036.288319,306.438199
3570.660155,-9992.780217,-1184.329507,-306.438199
3570.660484,-8586.388927,-1258.350101,-1149.143247
3570.660814,-7920.203579,-1036.288319,-842.705048
3570.661144,-7920.203579,-222.061783,0.000000
3570.661474,-7772.162391,444.123565,612.876398
3570.661804,-7402.059420,666.185348,612.876398
3570.662134,-8364.327145,1036.288319,0.000000
3570.662464,-10066.800811,1110.308913,0.000000
3570.662794,-11695.253884,814.226536,229.828649
3570.663123,-11843.295072,0.000000,689.485948
3570.663453,-12139.377449,-370.102971,459.657299
3570.663783,-11547.212695,-740.205942,1302.362347
3570.664113,-10362.883188,-1258.350101,1149.143247
3570.664443,-9178.553681,-1110.308913,459.657299
3570.664773,-7994.224174,-592.164754,0.000000
3570.665103,-7179.997637,-74.020594,0.000000
3570.665432,-7402.059420,1036.288319,229.828649
3570.665762,-8216.285956,1628.453072,229.828649
3570.666092,-9474.636058,1850.514855,0.000000
3570.666422,-11103.089130,1628.453072,-1072.533697
3570.666752,-11769.274478,814.226536,-1302.362347
3570.667082,-11991.336260,74.020594,-536.266849
3570.667412,-12065.356855,-370.102971,76.609550
3570.667741,-11473.192101,-962.267725,689.485948
3570.668071,-9770.718434,-1406.391290,153.219100
3570.668401,-8586.388927,-1776.494261,0.000000
3570.668731,-7920.203579,-1258.350101,536.266849
3570.669061,-7772.162391,-444.123565,1838.629195
3570.669391,-7994.224174,518.144159,1685.410096
3570.669721,-7994.224174,1110.308913,1225.752797
3570.670050,-8956.491898,1110.308913,306.438199
3570.670380,-10732.986159,1480.411884,-306.438199
3570.670710,-12583.501014,1184.329507,-383.047749
3570.671040,-12953.603985,814.226536,-229.828649
3570.671370,-12213.398043,-518.144159,-459.657299
3570.671700,-11103.089130,-962.267725,76.609550
3570.672030,-9992.780217,-1184.329507,153.219100
3570.672359,-8512.368333,-1184.329507,0.000000
3570.672689,-7550.100608,-592.164754,0.000000
3570.673019,-6957.935855,-370.102971,1072.533697
3570.673349,-7105.977043,740.205942,1991.848295
3570.673679,-8734.430116,1184.329507,2068.457845
3570.674009,-9992.780217,1702.473667,1149.143247
3570.674339,-11769.274478,1554.432478,0.000000
3570.674669,-11991.336260,814.226536,-689.485948
3570.674998,-12287.418637,222.061783,0.000000
3570.675328,-12213.398043,-370.102971,383.047749
3570.675658,-11399.171507,-740.205942,0.000000
3570.675988,-8956.491898,-1184.329507,-1225.752797
3570.676318,-8068.244768,-888.247130,-1608.800546
3570.676648,-7698.141797,-888.247130,-995.924147
3570.676978,-7772.162391,-296.082377,383.047749
3570.677307,-7105.977043,0.000000,919.314598
3570.677637,-7624.121203,666.185348,1149.143247
3570.677967,-8660.409521,1036.288319,612.876398
3570.678297,-10807.006753,888.247130,459.657299
3570.678627,-12361.439231,888.247130,919.314598
3570.678957,-12953.603985,296.082377,383.047749
3570.679287,-12139.377449,-518.144159,459.657299
3570.679616,-11029.068536,-1184.329507,919.314598
3570.679946,-9770.718434,-1702.473667,689.485948
3570.680276,-8290.306550,-1110.308913,0.000000
3570.680606,-7550.100608,-666.185348,-229.828649
3570.680936,-6957.935855,74.020594,0.000000
3570.681266,-7031.956449,1036.288319,153.219100
3570.681596,-8438.347739,2294.638420,0.000000
3570.681925,-10510.924376,1850.514855,-229.828649
3570.682255,-11769.274478,1332.370696,-842.705048
3570.682585,-12139.377449,444.123565,-689.485948
3570.682915,-11917.315666,-444.123565,842.705048
3570.683245,-12065.356855,-740.205942,536.266849
3570.683575,-11029.068536,-1258.350101,0.000000
3570.683905,-9252.574275,-1702.473667,-766.095498
3570.684235,-7772.162391,-1554.432478,0.000000
3570.684564,-7476.080014,-888.247130,1149.143247
3570.684894,-7772.162391,74.020594,1915.238745
3570.685224,-7698.141797,740.205942,1685.410096
3570.685554,-8216.285956,1258.350101,536.266849
3570.685884,-10362.883188,1628.453072,153.219100
3570.686214,-11843.295072,1406.391290,-306.438199
3570.686544,-13027.624579,1110.308913,-459.657299
3570.686873,-12657.521608,0.000000,0.000000
3570.687203,-11843.295072,-1036.288319,229.828649
3570.687533,-10732.986159,-1184.329507,153.219100
3570.687863,-9178.553681,-1184.329507,306.438199
3570.688193,-8216.285956,-1036.288319,153.219100
3570.688523,-7328.038826,-444.123565,459.657299
3570.688853,-7031.956449,148.041188,1762.019645
3570.689182,-7476.080014,1110.308913,2145.067394
3570.689512,-9474.636058,1702.473667,1685.410096
3570.689842,-11251.130318,1776.494261,76.609550
3570.690172,-12065.356855,1036.288319,-842.705048
3570.690502,-12361.439231,222.061783,-612.876398
3570.690832,-12361.439231,-222.061783,0.000000
3570.691162,-11917.315666,-518.144159,612.876398
3570.691491,-10066.800811,-1184.329507,-153.219100
3570.691821,-8586.388927,-1184.329507,-1455.581446
3570.692151,-7328.038826,-1406.391290,-1455.581446
3570.692481,-7328.038826,-666.185348,0.000000
3570.692811,-7624.121203,444.123565,2068.457845
3570.693141,-7179.997637,518.144159,1225.752797
3570.693471,-7698.141797,740.205942,383.047749
3570.693800,-9474.636058,888.247130,0.000000
3570.694130,-11769.274478,814.226536,0.000000
3570.694460,-12731.542202,370.102971,0.000000
3570.694790,-12287.418637,-592.164754,766.095498
3570.695120,-11177.109724,-888.247130,995.924147
3570.695450,-10214.842000,-1332.370696,995.924147
3570.695780,-9474.636058,-1036.288319,919.314598
3570.696110,-7994.224174,-592.164754,-612.876398
3570.696439,-7402.059420,0.000000,-842.705048
3570.696769,-7105.977043,814.226536,76.609550
3570.697099,-7846.182985,1776.494261,1302.362347
3570.697429,-9696.697840,1850.514855,306.438199
3570.697759,-11103.089130,1850.514855,-383.047749
3570.698089,-11843.295072,1258.350101,-1685.410096
3570.698419,-12213.398043,518.144159,-1225.752797
3570.698748,-12361.439231,-74.020594,536.266849
3570.699078,-12065.356855,-592.164754,1149.143247
3570.699408,-10436.903782,-1406.391290,459.657299
3570.699738,-8586.388927,-1406.391290,-306.438199
3570.700068,-7698.141797,-814.226536,0.000000
3570.700398,-7550.100608,-518.144159,842.705048
3570.700728,-7846.182985,370.102971,1762.019645
3570.701057,-7698.141797,962.267725,1149.143247
3570.701387,-8808.450710,1702.473667,919.314598
3570.701717,-10510.924376,1480.411884,229.828649
3570.702047,-12213.398043,1036.288319,0.000000
3570.702377,-12805.562797,444.123565,-306.438199
3570.702707,-12435.459826,-74.020594,0.000000
3570.703037,-11325.150913,-1110.308913,153.219100
3570.703366,-9622.677246,-1702.473667,612.876398
3570.703696,-8660.409521,-1184.329507,383.047749
3570.704026,-7698.141797,-814.226536,0.000000
3570.704356,-7105.977043,-74.020594,459.657299
3570.704686,-6957.935855,666.185348,1302.362347
3570.705016,-8364.327145,1406.391290,1608.800546
3570.705346,-10066.800811,1628.453072,1149.143247
3570.705675,-10807.006753,1258.350101,-383.047749
3570.706005,-11843.295072,370.102971,-919.314598
3570.706335,-12139.377449,-222.061783,-689.485948
3570.706665,-12287.418637,-592.164754,612.876398
3570.706995,-11547.212695,-1036.288319,383.047749
3570.707325,-10066.800811,-1110.308913,-995.924147
3570.707655,-8364.327145,-1258.350101,-1838.629195
3570.707985,-7846.182985,-592.164754,-689.485948
3570.708314,-7846.182985,-370.102971,76.609550
3570.708644,-7772.162391,148.041188,995.924147
3570.708974,-7476.080014,370.102971,612.876398
3570.709304,-8660.409521,592.164754,306.438199
3570.709634,-10658.965565,814.226536,76.609550
3570.709964,-12139.377449,518.144159,459.657299
3570.710294,-12509.480420,0.000000,612.876398
3570.710623,-11991.336260,-518.144159,689.485948
3570.710953,-10807.006753,-1110.308913,1072.533697
3570.711283,-9770.718434,-1776.494261,612.876398
3570.711613,-8808.450710,-1036.288319,612.876398
3570.711943,-7772.162391,-814.226536,0.000000
3570.712273,-7402.059420,0.000000,459.657299
3570.712603,-7402.059420,888.247130,1072.533697
3570.712932,-8512.368333,1184.329507,689.485948
3570.713262,-9918.759623,1406.391290,0.000000
3570.713592,-11473.192101,1332.370696,-842.705048
3570.713922,-11695.253884,592.164754,-1149.143247
3570.714252,-11695.253884,-148.041188,0.000000
3570.714582,-11843.295072,-444.123565,766.095498
3570.714912,-11251.130318,-888.247130,536.266849
3570.715241,-9844.739029,-1406.391290,-153.219100
3570.715571,-8142.265362,-1628.453072,-306.438199
3570.715901,-7550.100608,-962.267725,306.438199
3570.716231,-7624.121203,-370.102971,1608.800546
3570.716561,-7698.141797,444.123565,1685.410096
3570.716891,-7846.182985,1184.329507,1149.143247
3570.717221,-9326.594869,1480.411884,153.219100
3570.717550,-11251.130318,1554.432478,-383.047749
3570.717880,-12657.521608,1258.350101,-76.609550
3570.718210,-12805.562797,666.185348,0.000000
3570.718540,-12213.398043,-296.082377,0.000000
3570.718870,-11251.130318,-444.123565,0.000000
3570.719200,-9918.759623,-962.267725,-383.047749
3570.719530,-8586.388927,-888.247130,-383.047749
3570.719860,-7624.121203,-518.144159,76.609550
3570.720189,-7105.977043,74.020594,1149.143247
3570.720519,-7476.080014,1036.288319,2068.457845
3570.720849,-8586.388927,1110.308913,1302.362347
3570.721179,-10362.883188,1406.391290,1225.752797
3570.721509,-11621.233289,1184.329507,-153.219100
3570.721839,-12361.439231,444.123565,-383.047749
3570.722169,-11991.336260,296.082377,995.924147
3570.722498,-12287.418637,-444.123565,1378.971896
3570.722828,-11251.130318,-962.267725,0.000000
3570.723158,-9178.553681,-1258.350101,-1608.800546
3570.723488,-7698.141797,-1110.308913,-1838.629195
3570.723818,-7476.080014,-740.205942,-689.485948
3570.724148,-7254.018232,-148.041188,766.095498
3570.724478,-7402.059420,370.102971,842.705048
3570.724807,-7920.203579,888.247130,229.828649
3570.725137,-9030.512492,1184.329507,0.000000
3570.725467,-11473.192101,1258.350101,459.657299
3570.725797,-12361.439231,592.164754,0.000000
3570.726127,-12361.439231,-222.061783,229.828649
3570.726457,-11991.336260,-666.185348,1302.362347
3570.726787,-10658.965565,-1258.350101,1685.410096
3570.727116,-9474.636058,-1258.350101,689.485948
3570.727446,-8438.347739,-888.247130,-229.828649
3570.727776,-7846.182985,-148.041188,-306.438199
3570.728106,-7402.059420,592.164754,153.219100
3570.728436,-8142.265362,1480.411884,689.485948
3570.728766,-9252.574275,1924.535449,229.828649
3570.729096,-10807.006753,2294.638420,-229.828649
3570.729426,-11769.274478,1702.473667,-766.095498
3570.729755,-12287.418637,666.185348,-76.609550
3570.730085,-12213.398043,74.020594,459.657299
3570.730415,-11991.336260,-666.185348,1072.533697
3570.730745,-10732.986159,-1332.370696,536.266849
3570.731075,-8808.450710,-1850.514855,153.219100
3570.731405,-7846.182985,-1258.350101,229.828649
3570.731735,-7624.121203,-814.226536,1302.362347
3570.732064,-7698.141797,0.000000,1991.848295
3570.732394,-7698.141797,814.226536,1915.238745
3570.732724,-8438.347739,1110.308913,919.314598
3570.733054,-9918.759623,1406.391290,153.219100
3570.733384,-11843.295072,814.226536,0.000000
3570.733714,-12657.521608,444.123565,-383.047749
3570.734044,-12139.377449,-222.061783,-766.095498
3570.734373,-11399.171507,-888.247130,-383.047749
3570.734703,-10140.821405,-1184.329507,76.609550
3570.735033,-8882.471304,-1702.473667,0.000000
3570.735363,-7550.100608,-1036.288319,0.000000
3570.735693,-7105.977043,-740.205942,76.609550
3570.736023,-7031.956449,222.061783,1225.752797
3570.736353,-7624.121203,814.226536,1991.848295
3570.736682,-9474.636058,1184.329507,1149.143247
3570.737012,-10881.027347,1258.350101,0.000000
3570.737342,-11769.274478,666.185348,-612.876398
3570.737672,-12287.418637,148.041188,-459.657299
3570.738002,-11991.336260,-370.102971,383.047749
3570.738332,-11843.295072,-296.082377,383.047749
3570.738662,-10881.027347,-888.247130,-383.047749
3570.738992,-9326.594869,-1332.370696,-2068.457845
3570.739321,-7994.224174,-740.205942,-1915.238745
3570.739651,-7624.121203,-740.205942,-536.266849
3570.739981,-7624.121203,222.061783,842.705048
3570.740311,-7550.100608,370.102971,689.485948
3570.740641,-8512.368333,962.267725,153.219100
3570.740971,-10066.800811,1554.432478,306.438199
3570.741301,-11843.295072,814.226536,0.000000
3570.741630,-12657.521608,444.123565,459.657299
3570.741960,-12435.459826,-148.041188,995.924147
3570.742290,-11547.212695,-814.226536,1378.971896
3570.742620,-10214.842000,-1628.453072,1072.533697
3570.742950,-9178.553681,-1332.370696,459.657299
3570.743280,-8364.327145,-962.267725,-306.438199
3570.743610,-7550.100608,0.000000,-229.828649
3570.743939,-7179.997637,592.164754,459.657299
3570.744269,-7846.182985,1480.411884,919.314598
3570.744599,-9474.636058,1702.473667,76.609550
3570.744929,-10955.047942,1702.473667,-612.876398
3570.745259,-11325.150913,296.082377,-766.095498
3570.745589,-11843.295072,148.041188,-383.047749
3570.745919,-11843.295072,-370.102971,306.438199
3570.746249,-11695.253884,-1036.288319,766.095498
3570.746578,-9992.780217,-1554.432478,153.219100
3570.746908,-8290.306550,-1702.473667,-383.047749
3570.747238,-7846.182985,-962.267725,229.828649
3570.747568,-7846.182985,-296.082377,1149.143247
3570.747898,-7920.203579,296.082377,1991.848295
3570.748228,-7994.224174,1184.329507,1302.362347
3570.748558,-8956.491898,1628.453072,0.000000
3570.748887,-10732.986159,1628.453072,-536.266849
3570.749217,-12657.521608,1184.329507,-383.047749
3570.749547,-13101.645173,814.226536,-229.828649
3570.749877,-12287.418637,-148.041188,-306.438199
3570.750207,-11103.089130,-740.205942,-229.828649
3570.750537,-9770.718434,-1258.350101,0.000000
3570.750867,-8882.471304,-1036.288319,612.876398
3570.751197,-7846.182985,-592.164754,0.000000
3570.751526,-7402.059420,-296.082377,612.876398
3570.751856,-7031.956449,518.144159,1762.019645
3570.752186,-8438.347739,962.267725,2068.457845
3570.752516,-9918.759623,1406.391290,1532.190996
3570.752846,-11547.212695,1332.370696,0.000000
3570.753176,-11843.295072,518.144159,-766.095498
3570.753506,-12287.418637,0.000000,-459.657299
3570.753835,-12509.480420,-74.020594,536.266849
3570.754165,-11769.274478,-1110.308913,153.219100
3570.754495,-9548.656652,-1184.329507,-919.314598
3570.754825,-7920.203579,-1480.411884,-1991.848295
3570.755155,-7550.100608,-888.247130,-1149.143247
3570.755485,-7402.059420,-740.205942,306.438199
3570.755815,-7328.038826,296.082377,1302.362347
3570.756145,-7476.080014,592.164754,919.314598
3570.756474,-8734.430116,1110.308913,306.438199
3570.756804,-10807.006753,1036.288319,306.438199
3570.757134,-12509.480420,592.164754,842.705048
3570.757464,-12361.439231,0.000000,612.876398
3570.757794,-12139.377449,-444.123565,612.876398
3570.758124,-10807.006753,-888.247130,995.924147
3570.758454,-10066.800811,-1332.370696,766.095498
3570.758783,-8882.471304,-666.185348,0.000000
3570.759113,-7846.182985,-370.102971,-153.219100
3570.759443,-7550.100608,666.185348,0.000000
3570.759773,-7402.059420,1406.391290,459.657299
3570.760103,-8512.368333,1776.494261,153.219100
3570.760433,-10288.862594,2072.576638,0.000000
3570.760763,-11769.274478,1850.514855,-536.266849
3570.761092,-12287.418637,740.205942,-995.924147
3570.761422,-12361.439231,296.082377,-76.609550
3570.761752,-12139.377449,-444.123565,383.047749
3570.762082,-11177.109724,-1110.308913,306.438199
3570.762412,-9326.594869,-1406.391290,0.000000
3570.762742,-7920.203579,-1480.411884,229.828649
3570.763072,-7402.059420,-740.205942,1455.581446
3570.763402,-7846.182985,148.041188,2145.067394
3570.763731,-7846.182985,1036.288319,2068.457845
3570.764061,-7994.224174,1480.411884,306.438199
3570.764391,-9474.636058,1776.494261,-459.657299
3570.764721,-11473.192101,1702.473667,-306.438199
3570.765051,-12657.521608,1480.411884,-612.876398
3570.765381,-12731.542202,444.123565,-383.047749
3570.765711,-11991.336260,-444.123565,-536.266849
3570.766040,-10584.944971,-740.205942,229.828649
3570.766370,-9326.594869,-1258.350101,459.657299
3570.766700,-8364.327145,-962.267725,536.266849
3570.767030,-7402.059420,-740.205942,1302.362347
3570.767360,-7031.956449,222.061783,1838.629195
3570.767690,-7328.038826,1110.308913,2374.896044
3570.768020,-9178.553681,1924.535449,1685.410096
3570.768350,-10658.965565,1924.535449,0.000000
3570.768679,-11843.295072,1332.370696,-919.314598
3570.769009,-12213.398043,740.205942,-919.314598
3570.769339,-12731.542202,296.082377,229.828649
3570.769669,-12139.377449,-740.205942,459.657299
3570.769999,-10658.965565,-1184.329507,-536.266849
3570.770329,-8660.409521,-1480.411884,-1685.410096
3570.770659,-7550.100608,-1036.288319,-1378.971896
3570.770988,-7698.141797,0.000000,0.000000
3570.771318,-7920.203579,370.102971,919.314598
3570.771648,-7772.162391,888.247130,689.485948
3570.771978,-8882.471304,1332.370696,153.219100
3570.772308,-10362.883188,1554.432478,153.219100
3570.772638,-11917.315666,962.267725,-153.219100
3570.772968,-12953.603985,222.061783,0.000000
3570.773298,-12361.439231,-518.144159,76.609550
3570.773627,-11843.295072,-814.226536,1149.143247
3570.773957,-10066.800811,-1628.453072,1225.752797
3570.774287,-9030.512492,-1776.494261,229.828649
3570.774617,-8142.265362,-962.267725,-76.609550
3570.774947,-7550.100608,-222.061783,0.000000
3570.775277,-6957.935855,518.144159,153.219100
3570.775607,-7920.203579,1036.288319,689.485948
3570.775936,-9474.636058,1406.391290,612.876398
3570.776266,-11029.068536,1628.453072,0.000000
3570.776596,-12139.377449,962.267725,-995.924147
3570.776926,-11843.295072,0.000000,-766.095498
3570.777256,-12065.356855,-592.164754,153.219100
3570.777586,-11621.233289,-1184.329507,383.047749
3570.777916,-10288.862594,-1850.514855,459.657299
3570.778245,-8438.347739,-2072.576638,0.000000
3570.778575,-7550.100608,-1702.473667,76.609550
3570.778905,-7624.121203,-888.247130,919.314598
3570.779235,-7698.141797,222.061783,2068.457845
3570.779565,-7402.059420,592.164754,1072.533697
3570.779895,-8438.347739,1036.288319,0.000000
3570.780225,-10510.924376,1332.370696,-459.657299
3570.780555,-12213.398043,740.205942,0.000000
3570.780884,-12657.521608,444.123565,0.000000
3570.781214,-12287.418637,-592.164754,153.219100
3570.781544,-11399.171507,-1036.288319,0.000000
3570.781874,-10066.800811,-1258.350101,229.828649
3570.782204,-8660.409521,-1480.411884,0.000000
3570.782534,-7846.182985,-814.226536,-229.828649
3570.782864,-7031.956449,-222.061783,306.438199
3570.783193,-7179.997637,740.205942,1149.143247
3570.783523,-7698.141797,1258.350101,1378.971896
3570.783853,-9770.718434,1628.453072,536.266849
3570.784183,-11103.089130,1628.453072,-459.657299
3570.784513,-11991.336260,740.205942,-766.095498
3570.784843,-12435.459826,222.061783,0.000000
3570.785173,-12213.398043,-592.164754,1149.143247
3570.785503,-11769.274478,-962.267725,689.485948
3570.785832,-9696.697840,-1332.370696,-229.828649
3570.786162,-8438.347739,-1554.432478,-1225.752797
3570.786492,-7772.162391,-740.205942,-919.314598
3570.786822,-7772.162391,-370.102971,229.828649
3570.787152,-7772.162391,518.144159,919.314598
3570.787482,-7402.059420,592.164754,459.657299
3570.787812,-8290.306550,1258.350101,0.000000
3570.788141,-10140.821405,1036.288319,0.000000
3570.788471,-11991.336260,888.247130,229.828649
3570.788801,-12139.377449,0.000000,229.828649
3570.789131,-12065.356855,-518.144159,536.266849
3570.789461,-11547.212695,-592.164754,919.314598
3570.789791,-10214.842000,-1110.308913,842.705048
3570.790121,-9178.553681,-888.247130,306.438199
3570.790451,-7846.182985,-444.123565,-153.219100
3570.790780,-7550.100608,296.082377,76.609550
3570.791110,-7402.059420,1036.288319,689.485948
3570.791440,-8364.327145,1332.370696,1072.533697
3570.791770,-9844.739029,2072.576638,76.609550
3570.792100,-10510.924376,1776.494261,-459.657299
3570.792430,-11621.233289,888.247130,-1378.971896
3570.792760,-11843.295072,222.061783,-766.095498
3570.793089,-12065.356855,-148.041188,153.219100
3570.793419,-11473.192101,-740.205942,842.705048
3570.793749,-9844.739029,-1332.370696,0.000000
3570.794079,-8216.285956,-1406.391290,0.000000
3570.794409,-7698.141797,-740.205942,842.705048
3570.794739,-7920.203579,0.000000,1532.190996
3570.795069,-8142.265362,370.102971,2145.067394
3570.795398,-7846.182985,1110.308913,1149.143247
3570.795728,-8956.491898,1702.473667,612.876398
3570.796058,-11029.068536,1702.473667,153.219100
3570.796388,-12361.439231,1480.411884,-459.657299
3570.796718,-12731.542202,888.247130,-536.266849
3570.797048,-12065.356855,0.000000,-689.485948
3570.797378,-10955.047942,-740.205942,0.000000
3570.797708,-9548.656652,-888.247130,-76.609550
3570.798037,-8586.388927,-1036.288319,76.609550
3570.798367,-7624.121203,-518.144159,383.047749
3570.798697,-7105.977043,0.000000,1378.971896
3570.799027,-7328.038826,814.226536,1762.019645
3570.799357,-8438.347739,1332.370696,1685.410096
3570.799687,-10214.842000,1702.473667,459.657299
3570.800017,-11547.212695,1554.432478,0.000000
3570.800346,-12139.377449,518.144159,-689.485948
3570.800676,-12435.459826,-370.102971,689.485948
3570.801006,-12213.398043,-518.144159,459.657299
3570.801336,-11251.130318,-1258.350101,0.000000
3570.801666,-9252.574275,-1628.453072,-1225.752797
3570.801996,-8068.244768,-1258.350101,-1915.238745
3570.802326,-7550.100608,-888.247130,-842.705048
3570.802656,-8068.244768,-74.020594,153.219100
3570.802985,-7994.224174,296.082377,306.438199
3570.803315,-8068.244768,666.185348,536.266849
3570.803645,-9104.533087,666.185348,76.609550
3570.803975,-10955.047942,222.061783,229.828649
3570.804305,-11991.336260,0.000000,153.219100
3570.804635,-12139.377449,-518.144159,76.609550
3570.804965,-11843.295072,-1110.308913,306.438199
3570.805294,-11029.068536,-1184.329507,919.314598
3570.805624,-10066.800811,-1554.432478,919.314598
3570.805954,-8882.471304,-1258.350101,153.219100
3570.806284,-7476.080014,-666.185348,-306.438199
3570.806614,-7254.018232,-222.061783,0.000000
3570.806944,-7476.080014,518.144159,229.828649
3570.807274,-8808.450710,1110.308913,383.047749
3570.807604,-10066.800811,1184.329507,-689.485948
3570.807933,-11251.130318,888.247130,-689.485948
3570.808263,-11621.233289,0.000000,-459.657299
3570.808593,-11843.295072,-444.123565,229.828649
3570.808923,-11917.315666,-1110.308913,1225.752797
3570.809253,-11177.109724,-1036.288319,459.657299
3570.809583,-9474.636058,-1480.411884,0.000000
3570.809913,-8364.327145,-1406.391290,383.047749
3570.810242,-7994.224174,-1036.288319,995.924147
3570.810572,-7698.141797,0.000000,1762.019645
3570.810902,-7846.182985,296.082377,995.924147
3570.811232,-8068.244768,814.226536,229.828649
3570.811562,-9474.636058,1406.391290,229.828649
3570.811892,-11103.089130,1184.329507,0.000000
3570.812222,-12657.521608,1110.308913,76.609550
3570.812551,-12435.459826,296.082377,-306.438199
3570.812881,-11843.295072,-592.164754,-383.047749
3570.813211,-10881.027347,-814.226536,76.609550
3570.813541,-9474.636058,-1184.329507,153.219100
3570.813871,-8068.244768,-962.267725,306.438199
3570.814201,-7402.059420,-148.041188,995.924147
3570.814531,-6883.915261,296.082377,1302.362347
3570.814861,-7550.100608,740.205942,1532.190996
3570.815190,-9030.512492,1776.494261,1455.581446
3570.815520,-10510.924376,1850.514855,229.828649
3570.815850,-11473.192101,1628.453072,-459.657299
3570.816180,-11917.315666,1184.329507,-612.876398
3570.816510,-12213.398043,666.185348,76.609550
3570.816840,-12213.398043,0.000000,0.000000
3570.817170,-10881.027347,-296.082377,-1225.752797
3570.817499,-8956.491898,-592.164754,-2528.115143
3570.817829,-7772.162391,-592.164754,-1149.143247
3570.818159,-7846.182985,0.000000,0.000000
3570.818489,-7920.203579,370.102971,842.705048
3570.818819,-7698.141797,1110.308913,459.657299
3570.819149,-7994.224174,1628.453072,0.000000
3570.819479,-9770.718434,1628.453072,0.000000
3570.819809,-11843.295072,1406.391290,0.000000
3570.820138,-12657.521608,814.226536,459.657299
3570.820468,-12657.521608,814.226536,-229.828649
3570.820798,-11917.315666,-370.102971,229.828649
3570.821128,-10732.986159,-814.226536,612.876398
3570.821458,-9770.718434,-962.267725,153.219100
3570.821788,-8142.265362,-1110.308913,-459.657299
3570.822118,-7772.162391,-222.061783,383.047749
3570.822447,-7254.018232,370.102971,689.485948
3570.822777,-7772.162391,1110.308913,1225.752797
3570.823107,-9030.512492,1332.370696,689.485948
3570.823437,-10436.903782,1702.473667,-229.828649
3570.823767,-11325.150913,888.247130,-1149.143247
3570.824097,-11843.295072,222.061783,-306.438199
3570.824427,-12213.398043,-518.144159,383.047749
3570.824757,-11695.253884,-1702.473667,919.314598
3570.825086,-10584.944971,-1480.411884,0.000000
3570.825416,-8734.430116,-1998.556043,-766.095498
3570.825746,-7624.121203,-1554.432478,76.609550
3570.826076,-7179.997637,-1110.308913,1838.629195
3570.826406,-7698.141797,0.000000,2145.067394
3570.826736,-7920.203579,666.185348,1455.581446
3570.827066,-8438.347739,1036.288319,766.095498
3570.827395,-10288.862594,1036.288319,-153.219100
3570.827725,-12139.377449,962.267725,-689.485948
3570.828055,-12731.542202,592.164754,-842.705048
3570.828385,-12583.501014,-370.102971,-689.485948
3570.828715,-11399.171507,-888.247130,-536.266849
3570.829045,-9844.739029,-1776.494261,0.000000
3570.829375,-8956.491898,-1702.473667,0.000000
3570.829704,-7994.224174,-1036.288319,306.438199
3570.830034,-7402.059420,-962.267725,1378.971896
3570.830364,-6513.812290,0.000000,2221.676944
3570.830694,-8142.265362,1036.288319,2145.067394
3570.831024,-9918.759623,1258.350101,1378.971896
3570.831354,-11547.212695,1332.370696,0.000000
3570.831684,-12287.418637,740.205942,-1378.971896
3570.832014,-12583.501014,222.061783,-383.047749
3570.832343,-12509.480420,-592.164754,383.047749
3570.832673,-12139.377449,-740.205942,536.266849
3570.833003,-10140.821405,-1110.308913,-612.876398
3570.833333,-8068.244768,-1554.432478,-995.924147
3570.833663,-7550.100608,-1184.329507,-919.314598
3570.833993,-7550.100608,-370.102971,306.438199
3570.834323,-7624.121203,0.000000,1072.533697
3570.834652,-7698.141797,592.164754,536.266849
3570.834982,-8660.409521,1110.308913,842.705048
3570.835312,-10214.842000,962.267725,383.047749
3570.835642,-11991.336260,592.164754,76.609550
3570.835972,-12435.459826,370.102971,0.000000
3570.836302,-12361.439231,-592.164754,0.000000
3570.836632,-11177.109724,-1184.329507,842.705048
3570.836962,-9696.697840,-1480.411884,612.876398
3570.837292,-8586.388927,-1184.329507,689.485948
3570.837622,-7476.080014,-592.164754,153.219100
3570.837952,-7105.977043,0.000000,76.609550
3570.838282,-7105.977043,962.267725,383.047749
3570.838611,-8512.368333,1776.494261,306.438199
3570.838941,-9770.718434,2368.659014,-76.609550
3570.839271,-11399.171507,1924.535449,-766.095498
3570.839601,-11991.336260,962.267725,-1225.752797
3570.839931,-11991.336260,370.102971,-689.485948
3570.840261,-11843.295072,222.061783,0.000000
3570.840591,-11547.212695,-740.205942,229.828649
3570.840921,-9400.615463,-1258.350101,0.000000
3570.841251,-7772.162391,-1332.370696,76.609550
3570.841581,-7254.018232,-518.144159,1149.143247
3570.841911,-7698.141797,592.164754,2145.067394
3570.842241,-7846.182985,1036.288319,1762.019645
3570.842571,-8068.244768,1702.473667,766.095498
3570.842901,-9474.636058,2294.638420,0.000000
3570.843231,-11399.171507,2146.597232,-383.047749
3570.843560,-12879.583391,1776.494261,-306.438199
3570.843890,-13101.645173,962.267725,-383.047749
3570.844220,-12139.377449,0.000000,-536.266849
3570.844550,-10807.006753,-888.247130,-383.047749
3570.844880,-9400.615463,-1110.308913,76.609550
3570.845210,-8512.368333,-740.205942,842.705048
3570.845540,-7254.018232,-222.061783,919.314598
3570.845870,-7105.977043,444.123565,995.924147
3570.846200,-7550.100608,1258.350101,2145.067394
3570.846530,-9030.512492,1776.494261,1838.629195
3570.846860,-11029.068536,2294.638420,995.924147
3570.847190,-11917.315666,1628.453072,0.000000
3570.847520,-11917.315666,518.144159,-612.876398
3570.847850,-12065.356855,0.000000,0.000000
3570.848180,-12361.439231,-592.164754,766.095498
3570.848509,-10732.986159,-1036.288319,229.828649
3570.848839,-8956.491898,-1406.391290,-1149.143247
3570.849169,-7550.100608,-1258.350101,-1149.143247
3570.849499,-7328.038826,-592.164754,-229.828649
3570.849829,-7698.141797,0.000000,766.095498
3570.850159,-7550.100608,888.247130,689.485948
3570.850489,-8068.244768,888.247130,383.047749
3570.850819,-9400.615463,1110.308913,0.000000
3570.851149,-11177.109724,592.164754,76.609550
3570.851479,-12213.398043,0.000000,76.609550
3570.851809,-11991.336260,-888.247130,229.828649
3570.852139,-11473.192101,-1184.329507,229.828649
3570.852469,-10510.924376,-1258.350101,919.314598
3570.852799,-9696.697840,-1480.411884,689.485948
3570.853129,-8290.306550,-1110.308913,-306.438199
3570.853458,-7254.018232,-740.205942,-383.047749
3570.853788,-7105.977043,74.020594,-76.609550
3570.854118,-7402.059420,814.226536,0.000000
3570.854448,-9030.512492,1554.432478,536.266849
3570.854778,-10510.924376,1184.329507,-536.266849
3570.855108,-11843.295072,962.267725,-1225.752797
3570.855438,-11843.295072,222.061783,-459.657299
3570.855768,-12213.398043,-592.164754,306.438199
3570.856098,-11843.295072,-1110.308913,995.924147
3570.856428,-10955.047942,-1776.494261,306.438199
3570.856758,-8660.409521,-2072.576638,-459.657299
3570.857088,-7550.100608,-2146.597232,229.828649
3570.857418,-7179.997637,-888.247130,995.924147
3570.857748,-7846.182985,0.000000,1608.800546
3570.858078,-8290.306550,666.185348,536.266849
3570.858407,-8660.409521,962.267725,-459.657299
3570.858737,-9770.718434,1184.329507,229.828649
3570.859067,-11843.295072,888.247130,612.876398
3570.859397,-13249.686362,370.102971,612.876398
3570.859727,-12509.480420,-222.061783,612.876398
3570.860057,-11325.150913,-1480.411884,306.438199
3570.860387,-10362.883188,-1702.473667,76.609550
3570.860717,-9030.512492,-1702.473667,383.047749
3570.861047,-8142.265362,-1036.288319,229.828649
3570.861377,-7105.977043,-444.123565,919.314598
3570.861707,-6809.894666,592.164754,1532.190996
3570.862037,-7476.080014,962.267725,1225.752797
3570.862367,-9548.656652,1406.391290,919.314598
3570.862697,-11325.150913,1628.453072,0.000000
3570.863026,-12065.356855,962.267725,76.609550
3570.863356,-12361.439231,296.082377,536.266849
3570.863686,-12213.398043,-444.123565,1455.581446
3570.864016,-11843.295072,-592.164754,995.924147
3570.864346,-9844.739029,-962.267725,-766.095498
3570.864676,-8364.327145,-1184.329507,-2221.676944
3570.865006,-7698.141797,-592.164754,-1608.800546
3570.865336,-7698.141797,0.000000,-229.828649
3570.865666,-7920.203579,666.185348,766.095498
3570.865996,-7476.080014,888.247130,153.219100
3570.866326,-8142.265362,1110.308913,-766.095498
3570.866656,-9844.739029,1036.288319,-383.047749
3570.866986,-11843.295072,444.123565,306.438199
3570.867316,-12361.439231,518.144159,689.485948
3570.867646,-11991.336260,-518.144159,1149.143247
3570.867975,-11177.109724,-814.226536,1149.143247
3570.868305,-10362.883188,-1036.288319,1072.533697
3570.868635,-8956.491898,-814.226536,229.828649
3570.868965,-7698.141797,-740.205942,-536.266849
3570.869295,-7105.977043,0.000000,-153.219100
3570.869625,-7179.997637,962.267725,0.000000
3570.869955,-7476.080014,1702.473667,-229.828649
3570.870285,-9622.677246,1850.514855,0.000000
3570.870615,-11177.109724,1924.535449,-766.095498
3570.870945,-12065.356855,1554.432478,-1302.362347
3570.871275,-12065.356855,444.123565,-536.266849
3570.871605,-11991.336260,0.000000,459.657299
3570.871935,-11843.295072,-740.205942,995.924147
3570.872265,-10288.862594,-1332.370696,76.609550
3570.872595,-8290.306550,-1480.411884,-306.438199
3570.872924,-7179.997637,-592.164754,-76.609550
3570.873254,-7476.080014,-370.102971,1378.971896
3570.873584,-7994.224174,592.164754,1685.410096
3570.873914,-7550.100608,1036.288319,995.924147
3570.874244,-9030.512492,1776.494261,0.000000
3570.874574,-10658.965565,1702.473667,0.000000
3570.874904,-12509.480420,1184.329507,536.266849
3570.875234,-13027.624579,888.247130,0.000000
3570.875564,-12509.480420,0.000000,-306.438199
3570.875894,-11251.130318,-888.247130,0.000000
3570.876224,-10066.800811,-1036.288319,383.047749
3570.876554,-8808.450710,-1110.308913,383.047749
3570.876884,-7402.059420,-888.247130,76.609550
3570.877214,-6957.935855,148.041188,536.266849
3570.877544,-6957.935855,666.185348,995.924147
3570.877873,-8438.347739,1924.535449,1915.238745
3570.878203,-10436.903782,2072.576638,1149.143247
3570.878533,-12213.398043,2368.659014,153.219100
3570.878863,-12435.459826,1036.288319,-306.438199
3570.879193,-12509.480420,296.082377,0.000000
3570.879523,-12213.398043,-740.205942,842.705048
3570.879853,-11695.253884,-962.267725,-383.047749
3570.880183,-9326.594869,-1332.370696,-919.314598
3570.880513,-7698.141797,-1554.432478,-1991.848295
3570.880843,-7105.977043,-814.226536,-842.705048
3570.881173,-7624.121203,0.000000,459.657299
3570.881503,-8068.244768,740.205942,459.657299
3570.881833,-7550.100608,666.185348,-153.219100
3570.882163,-8808.450710,888.247130,0.000000
3570.882493,-10584.944971,962.267725,612.876398
3570.882822,-12361.439231,814.226536,306.438199
3570.883152,-12213.398043,-148.041188,1149.143247
3570.883482,-12139.377449,-962.267725,842.705048
3570.883812,-11029.068536,-1184.329507,1149.143247
3570.884142,-9844.739029,-1776.494261,689.485948
3570.884472,-8586.388927,-1332.370696,383.047749
3570.884802,-7624.121203,-740.205942,0.000000
3570.885132,-7179.997637,296.082377,-306.438199
3570.885462,-7402.059420,814.226536,-459.657299
3570.885792,-8438.347739,1480.411884,-229.828649
3570.886122,-10362.883188,1702.473667,-459.657299
3570.886452,-11695.253884,1554.432478,-1072.533697
3570.886782,-12139.377449,222.061783,-612.876398
3570.887112,-11695.253884,-740.205942,229.828649
3570.887442,-12139.377449,-592.164754,766.095498
3570.887771,-11399.171507,-1480.411884,612.876398
3570.888101,-9770.718434,-1702.473667,0.000000
3570.888431,-8216.285956,-1406.391290,-459.657299
3570.888761,-7328.038826,-1332.370696,766.095498
3570.889091,-7698.141797,0.000000,1225.752797
3570.889421,-7920.203579,592.164754,689.485948
3570.889751,-8068.244768,740.205942,-153.219100
3570.890081,-9326.594869,1184.329507,-306.438199
3570.890411,-11325.150913,1184.329507,306.438199
3570.890741,-12805.562797,666.185348,536.266849
3570.891071,-12657.521608,-296.082377,306.438199
3570.891401,-11843.295072,-888.247130,-536.266849
3570.891731,-10881.027347,-1480.411884,306.438199
3570.892061,-9326.594869,-1924.535449,0.000000
3570.892391,-8364.327145,-1258.350101,0.000000
3570.892720,-7105.977043,-370.102971,0.000000
3570.893050,-7105.977043,296.082377,919.314598
3570.893380,-7476.080014,1184.329507,1302.362347
3570.893710,-9178.553681,2146.597232,689.485948
3570.894040,-10881.027347,2220.617826,76.609550
3570.894370,-11769.274478,1332.370696,-766.095498
3570.894700,-12139.377449,740.205942,0.000000
3570.895030,-12065.356855,-148.041188,612.876398
3570.895360,-11843.295072,-592.164754,995.924147
3570.895690,-10732.986159,-962.267725,-536.266849
3570.896020,-9178.553681,-1258.350101,-1685.410096
3570.896350,-7698.141797,-814.226536,-1762.019645
3570.896680,-7402.059420,-296.082377,-689.485948
3570.897010,-7698.141797,444.123565,383.047749
3570.897340,-7994.224174,1184.329507,689.485948
3570.897669,-8364.327145,1332.370696,0.000000
3570.897999,-9326.594869,1184.329507,0.000000
3570.898329,-11325.150913,814.226536,153.219100
3570.898659,-12657.521608,444.123565,689.485948
3570.898989,-12287.418637,-592.164754,766.095498
3570.899319,-11547.212695,-1110.308913,995.924147
3570.899649,-10362.883188,-1110.308913,1072.533697
3570.899979,-9474.636058,-1258.350101,536.266849
3570.900309,-8364.327145,-666.185348,0.000000
3570.900639,-7624.121203,-148.041188,-306.438199
3570.900969,-7105.977043,592.164754,153.219100
3570.901299,-7772.162391,1702.473667,536.266849
3570.901629,-9474.636058,1850.514855,76.609550
3570.901959,-10584.944971,1924.535449,-76.609550
3570.902288,-11843.295072,1258.350101,-689.485948
3570.902618,-11843.295072,814.226536,0.000000
3570.902948,-12361.439231,222.061783,536.266849
3570.903278,-11991.336260,-666.185348,536.266849
3570.903608,-10732.986159,-962.267725,229.828649
3570.903938,-8882.471304,-1554.432478,0.000000
3570.904268,-7624.121203,-1332.370696,0.000000
3570.904598,-7179.997637,-592.164754,766.095498
3570.904928,-7772.162391,222.061783,1225.752797
3570.905258,-7846.182985,888.247130,995.924147
3570.905588,-8512.368333,1702.473667,76.609550
3570.905918,-10140.821405,1628.453072,306.438199
3570.906248,-12213.398043,1184.329507,459.657299
3570.906578,-13101.645173,666.185348,536.266849
3570.906908,-12805.562797,148.041188,0.000000
3570.907237,-11695.253884,-1110.308913,0.000000
3570.907567,-10214.842000,-1110.308913,229.828649
3570.907897,-9104.533087,-1628.453072,459.657299
3570.908227,-7846.182985,-740.205942,229.828649
3570.908557,-7105.977043,-370.102971,842.705048
3570.908887,-7031.956449,666.185348,1149.143247
3570.909217,-8068.244768,1184.329507,1149.143247
3570.909547,-9918.759623,1776.494261,842.705048
3570.909877,-11399.171507,1702.473667,76.609550
3570.910207,-12361.439231,1110.308913,0.000000
3570.910537,-12287.418637,148.041188,229.828649
3570.910867,-12287.418637,-592.164754,919.314598
3570.911197,-11547.212695,-888.247130,383.047749
3570.911527,-10066.800811,-1406.391290,-612.876398
3570.911857,-8290.306550,-1628.453072,-1608.800546
3570.912186,-7254.018232,-814.226536,-842.705048
3570.912516,-7105.977043,-74.020594,0.000000
3570.912846,-7402.059420,592.164754,766.095498
3570.913176,-7698.141797,740.205942,0.000000
3570.913506,-8660.409521,1184.329507,0.000000
3570.913836,-10140.821405,1036.288319,0.000000
3570.914166,-12139.377449,962.267725,689.485948
3570.914496,-12805.562797,74.020594,1149.143247
3570.914826,-12065.356855,-740.205942,1072.533697
3570.915156,-11251.130318,-1332.370696,766.095498
3570.915486,-10066.800811,-1184.329507,1072.533697
3570.915816,-9104.533087,-962.267725,153.219100
3570.916146,-7994.224174,-740.205942,-229.828649
3570.916476,-7328.038826,148.041188,-229.828649
3570.916806,-7105.977043,1332.370696,-76.609550
3570.917135,-8290.306550,1924.535449,0.000000
3570.917465,-9770.718434,1924.535449,-306.438199
3570.917795,-11325.150913,1850.514855,-689.485948
3570.918125,-12139.377449,1258.350101,-919.314598
3570.918455,-12435.459826,296.082377,-229.828649
3570.918785,-12287.418637,-518.144159,919.314598
3570.919115,-11769.274478,-814.226536,919.314598
3570.919445,-10066.800811,-1184.329507,229.828649
3570.919775,-7994.224174,-1554.432478,-689.485948
3570.920105,-7254.018232,-1036.288319,229.828649
3570.920435,-7550.100608,-296.082377,1762.019645
3570.920765,-7328.038826,296.082377,1685.410096
3570.921095,-7846.182985,814.226536,842.705048
3570.921425,-9326.594869,1480.411884,229.828649
3570.921755,-10881.027347,1258.350101,0.000000
3570.922084,-12657.521608,962.267725,153.219100
3570.922414,-13027.624579,0.000000,459.657299
3570.922744,-12435.459826,0.000000,306.438199
3570.923074,-11251.130318,-814.226536,0.000000
3570.923404,-9844.739029,-1184.329507,76.609550
3570.923734,-8364.327145,-1184.329507,153.219100
3570.924064,-7328.038826,-518.144159,0.000000
3570.924394,-6809.894666,0.000000,689.485948
3570.924724,-7179.997637,740.205942,1608.800546
3570.925054,-8660.409521,1258.350101,1532.190996
3570.925384,-10807.006753,1998.556043,1455.581446
3570.925714,-11769.274478,1406.391290,0.000000
3570.926044,-12657.521608,962.267725,-383.047749
3570.926374,-12509.480420,222.061783,459.657299
3570.926704,-12435.459826,-148.041188,1302.362347
3570.927033,-11769.274478,-740.205942,229.828649
3570.927363,-9400.615463,-1110.308913,-1149.143247
3570.927693,-7624.121203,-1184.329507,-1838.629195
3570.928023,-7031.956449,-740.205942,-1302.362347
3570.928353,-7476.080014,0.000000,-76.609550
3570.928683,-7550.100608,518.144159,306.438199
3570.929013,-7994.224174,740.205942,0.000000
3570.929343,-8882.471304,888.247130,0.000000
3570.929673,-10658.965565,740.205942,0.000000
3570.930003,-12731.542202,370.102971,612.876398
3570.930333,-12731.542202,0.000000,1072.533697
3570.930663,-12139.377449,-740.205942,1072.533697
3570.930993,-10955.047942,-962.267725,1225.752797
3570.931323,-9548.656652,-1184.329507,612.876398
3570.931653,-8364.327145,-740.205942,153.219100
3570.931982,-7550.100608,-222.061783,-766.095498
3570.932312,-7179.997637,444.123565,-689.485948
3570.932642,-7328.038826,1258.350101,-229.828649
3570.932972,-8660.409521,1406.391290,76.609550
3570.933302,-10214.842000,1554.432478,0.000000
3570.933632,-11547.212695,962.267725,-766.095498
3570.933962,-11991.336260,222.061783,-995.924147
3570.934292,-12139.377449,-148.041188,153.219100
3570.934622,-12065.356855,-518.144159,1072.533697
3570.934952,-11177.109724,-1258.350101,919.314598
3570.935282,-8956.491898,-1480.411884,229.828649
3570.935612,-7846.182985,-1406.391290,0.000000
3570.935942,-7254.018232,-962.267725,459.657299
3570.936272,-7624.121203,0.000000,1302.362347
3570.936602,-7772.162391,296.082377,1302.362347
3570.936931,-8290.306550,1110.308913,229.828649
3570.937261,-9326.594869,1110.308913,-306.438199
3570.937591,-11399.171507,1184.329507,0.000000
3570.937921,-12953.603985,888.247130,153.219100
3570.938251,-12805.562797,148.041188,0.000000
3570.938581,-11843.295072,-666.185348,153.219100
3570.938911,-10362.883188,-1332.370696,306.438199
3570.939241,-9104.533087,-1776.494261,459.657299
3570.939571,-7846.182985,-1258.350101,459.657299
3570.939901,-7550.100608,-518.144159,459.657299
3570.940231,-6735.874072,74.020594,383.047749
3570.940560,-7105.977043,518.144159,1532.190996
3570.940890,-9252.574275,1184.329507,1532.190996
3570.941220,-10807.006753,1702.473667,536.266849
3570.941550,-12065.356855,1184.329507,-689.485948
3570.941880,-12287.418637,518.144159,-306.438199
3570.942210,-12509.480420,-222.061783,383.047749
3570.942540,-12139.377449,-444.123565,612.876398
3570.942870,-10881.027347,-1110.308913,0.000000
3570.943200,-8734.430116,-1332.370696,-1762.019645
3570.943530,-7402.059420,-1036.288319,-1915.238745
3570.943860,-7031.956449,-814.226536,-536.266849
3570.944189,-7476.080014,0.000000,306.438199
3570.944519,-7624.121203,518.144159,306.438199
3570.944849,-8068.244768,814.226536,306.438199
3570.945179,-9474.636058,666.185348,153.219100
3570.945509,-11843.295072,740.205942,842.705048
3570.945839,-12583.501014,444.123565,1225.752797
3570.946169,-12805.562797,-148.041188,995.924147
3570.946499,-11917.315666,-592.164754,995.924147
3570.946829,-10584.944971,-1110.308913,919.314598
3570.947159,-9326.594869,-888.247130,383.047749
3570.947488,-8142.265362,-592.164754,-229.828649
3570.947818,-7550.100608,0.000000,-459.657299
3570.948148,-6957.935855,666.185348,-459.657299
3570.948478,-7476.080014,1258.350101,0.000000
3570.948808,-9252.574275,1850.514855,229.828649
3570.949138,-10807.006753,1850.514855,0.000000
3570.949468,-11843.295072,962.267725,-766.095498
3570.949798,-11843.295072,370.102971,0.000000
3570.950128,-11991.336260,-296.082377,919.314598
3570.950458,-11843.295072,-666.185348,766.095498
3570.950787,-10955.047942,-1258.350101,0.000000
3570.951117,-8586.388927,-1480.411884,-76.609550
3570.951447,-7476.080014,-1184.329507,-306.438199
3570.951777,-7476.080014,-222.061783,459.657299
3570.952107,-7624.121203,74.020594,1455.581446
3570.952437,-7920.203579,1036.288319,306.438199
3570.952767,-8586.388927,1406.391290,-459.657299
3570.953097,-9918.759623,1406.391290,-995.924147
3570.953427,-11843.295072,1110.308913,-229.828649
3570.953757,-12657.521608,666.185348,-76.609550
3570.954087,-12287.418637,74.020594,383.047749
3570.954416,-11843.295072,-666.185348,536.266849
3570.954746,-9844.739029,-1184.329507,383.047749
3570.955076,-8586.388927,-1184.329507,153.219100
3570.955406,-7624.121203,-740.205942,459.657299
3570.955736,-7550.100608,-222.061783,689.485948
3570.956066,-7254.018232,888.247130,1378.971896
3570.956396,-7772.162391,1406.391290,1991.848295
3570.956726,-9696.697840,1554.432478,1072.533697
3570.957056,-11029.068536,1332.370696,-153.219100
3570.957386,-12065.356855,962.267725,-459.657299
3570.957715,-12139.377449,0.000000,-383.047749
3570.958045,-12139.377449,-444.123565,1072.533697
3570.958375,-12139.377449,-666.185348,766.095498
3570.958705,-10140.821405,-1184.329507,-306.438199
3570.959035,-8438.347739,-1406.391290,-1608.800546
3570.959365,-7031.956449,-888.247130,-1225.752797
3570.959695,-7550.100608,-592.164754,0.000000
3570.960025,-7846.182985,148.041188,995.924147
3570.960355,-7772.162391,370.102971,689.485948
3570.960685,-8512.368333,814.226536,229.828649
3570.961014,-10214.842000,444.123565,306.438199
3570.961344,-11843.295072,222.061783,536.266849
3570.961674,-12287.418637,0.000000,383.047749
3570.962004,-12361.439231,-592.164754,995.924147
3570.962334,-11399.171507,-1036.288319,995.924147
3570.962664,-9992.780217,-1480.411884,766.095498
3570.962994,-8808.450710,-962.267725,0.000000
3570.963324,-7920.203579,-592.164754,-459.657299
3570.963654,-7179.997637,0.000000,-383.047749
3570.963984,-7105.977043,666.185348,0.000000
3570.964314,-7994.224174,1110.308913,536.266849
3570.964643,-9844.739029,1406.391290,0.000000
3570.964973,-11473.192101,1480.411884,-306.438199
3570.965303,-11843.295072,740.205942,-612.876398
3570.965633,-11843.295072,0.000000,76.609550
3570.965963,-12139.377449,-296.082377,842.705048
3570.966293,-11695.253884,-962.267725,1149.143247
3570.966623,-9844.739029,-1332.370696,0.000000
3570.966953,-8216.285956,-1628.453072,-919.314598
3570.967283,-7402.059420,-1036.288319,-306.438199
3570.967613,-7846.182985,-370.102971,995.924147
3570.967942,-7550.100608,592.164754,1072.533697
3570.968272,-7920.203579,1036.288319,383.047749
3570.968602,-8956.491898,1406.391290,-383.047749
3570.968932,-10584.944971,1480.411884,76.609550
3570.969262,-12361.439231,1036.288319,-306.438199
3570.969592,-12731.542202,592.164754,229.828649
3570.969922,-11991.336260,-444.123565,612.876398
3570.970252,-10955.047942,-592.164754,383.047749
3570.970582,-9918.759623,-1184.329507,459.657299
3570.970912,-8586.388927,-1110.308913,0.000000
3570.971242,-7772.162391,-518.144159,459.657299
3570.971571,-7254.018232,74.020594,766.095498
3570.971901,-7105.977043,814.226536,842.705048
3570.972231,-8290.306550,1480.411884,766.095498
3570.972561,-10140.821405,1998.556043,689.485948
3570.972891,-11325.150913,1480.411884,-229.828649
3570.973221,-11991.336260,1036.288319,-383.047749
3570.973551,-12065.356855,740.205942,-689.485948
3570.973881,-12213.398043,-296.082377,919.314598
3570.974211,-11473.192101,-888.247130,229.828649
3570.974541,-9696.697840,-814.226536,-842.705048
3570.974870,-7772.162391,-888.247130,-1225.752797
3570.975200,-7179.997637,-740.205942,-842.705048
3570.975530,-7698.141797,0.000000,459.657299
3570.975860,-7846.182985,592.164754,689.485948
3570.976190,-8068.244768,888.247130,153.219100
3570.976520,-8808.450710,1110.308913,0.000000
3570.976850,-10362.883188,814.226536,306.438199
3570.977180,-11917.315666,296.082377,766.095498
3570.977510,-12435.459826,-222.061783,383.047749
3570.977840,-11843.295072,-814.226536,1072.533697
3570.978169,-10955.047942,-1036.288319,995.924147
3570.978499,-9696.697840,-1554.432478,766.095498
3570.978829,-8956.491898,-888.247130,536.266849
3570.979159,-7994.224174,-296.082377,0.000000
3570.979489,-7179.997637,222.061783,76.609550
3570.979819,-7698.141797,1036.288319,0.000000
3570.980149,-8882.471304,1702.473667,0.000000
3570.980479,-10658.965565,1850.514855,-459.657299
3570.980809,-11769.274478,1480.411884,-536.266849
3570.981139,-11917.315666,444.123565,-689.485948
3570.981469,-11843.295072,-148.041188,76.609550
3570.981798,-11991.336260,-1110.308913,995.924147
3570.982128,-11251.130318,-1628.453072,919.314598
3570.982458,-9178.553681,-1776.494261,0.000000
3570.982788,-7846.182985,-1554.432478,-612.876398
3570.983118,-7179.997637,-1184.329507,459.657299
3570.983448,-7328.038826,-370.102971,1608.800546
3570.983778,-7772.162391,518.144159,1685.410096
3570.984108,-8364.327145,740.205942,995.924147
3570.984438,-9474.636058,1110.308913,76.609550
3570.984768,-11473.192101,1036.288319,1072.533697
3570.985097,-13027.624579,592.164754,766.095498
3570.985427,-13027.624579,0.000000,689.485948
3570.985757,-12139.377449,-888.247130,0.000000
3570.986087,-10658.965565,-1258.350101,0.000000
3570.986417,-9030.512492,-1702.473667,-459.657299
3570.986747,-8438.347739,-962.267725,0.000000
3570.987077,-7254.018232,-370.102971,76.609550
3570.987407,-6809.894666,222.061783,383.047749
3570.987737,-6587.832884,962.267725,919.314598
3570.988067,-9030.512492,1628.453072,1378.971896
3570.988397,-11029.068536,1924.535449,766.095498
3570.988726,-12065.356855,1258.350101,-459.657299
3570.989056,-12583.501014,1036.288319,-383.047749
3570.989386,-12435.459826,0.000000,383.047749
3570.989716,-12287.418637,-222.061783,306.438199
3570.990046,-10732.986159,-888.247130,-306.438199
3570.990376,-8808.450710,-814.226536,-1762.019645
3570.990706,-7698.141797,-740.205942,-1915.238745
3570.991036,-7105.977043,-370.102971,-995.924147
3570.991366,-7476.080014,296.082377,306.438199
3570.991696,-7624.121203,740.205942,459.657299
3570.992025,-7920.203579,888.247130,-229.828649
3570.992355,-9474.636058,962.267725,229.828649
3570.992685,-11547.212695,888.247130,536.266849
3570.993015,-12583.501014,592.164754,995.924147
3570.993345,-12657.521608,296.082377,0.000000
3570.993675,-11991.336260,-444.123565,995.924147
3570.994005,-10436.903782,-888.247130,1072.533697
3570.994335,-9400.615463,-1036.288319,536.266849
3570.994665,-8216.285956,74.020594,306.438199
3570.994995,-7328.038826,148.041188,-76.609550
3570.995324,-7179.997637,888.247130,-153.219100
3570.995654,-7402.059420,1406.391290,0.000000
3570.995984,-9104.533087,1776.494261,0.000000
3570.996314,-10658.965565,1850.514855,-383.047749
3570.996644,-11991.336260,1332.370696,-689.485948
3570.996974,-11769.274478,296.082377,-536.266849
3570.997304,-12213.398043,-222.061783,383.047749
3570.997634,-11917.315666,-962.267725,766.095498
3570.997964,-10955.047942,-1258.350101,536.266849
3570.998294,-8956.491898,-1406.391290,0.000000
3570.998624,-7328.038826,-962.267725,229.828649
3570.998953,-7179.997637,-444.123565,995.924147
3570.999283,-8068.244768,518.144159,1608.800546
3570.999613,-7698.141797,888.247130,689.485948
3570.999943,-8586.388927,962.267725,0.000000
3571.000273,-9918.759623,1184.329507,-153.219100
3571.000603,-12065.356855,1258.350101,536.266849
3571.000933,-12657.521608,296.082377,-153.219100
3571.001263,-12731.542202,-370.102971,0.000000
3571.001593,-11547.212695,-962.267725,0.000000
3571.001923,-10362.883188,-1258.350101,383.047749
3571.002252,-8734.430116,-1332.370696,383.047749
3571.002582,-7846.182985,-962.267725,383.047749
3571.002912,-7105.977043,-296.082377,842.705048
3571.003242,-6809.894666,370.102971,1685.410096
3571.003572,-8290.306550,1702.473667,1225.752797
3571.003902,-9696.697840,1554.432478,1072.533697
3571.004232,-11399.171507,1406.391290,0.000000
3571.004562,-12139.377449,592.164754,-383.047749
3571.004892,-12509.480420,296.082377,229.828649
3571.005222,-12361.439231,-592.164754,306.438199
3571.005551,-11843.295072,-962.267725,229.828649
3571.005881,-9992.780217,-1258.350101,-383.047749
3571.006211,-8364.327145,-1184.329507,-1455.581446
3571.006541,-7328.038826,-1036.288319,-842.705048
3571.006871,-7698.141797,-444.123565,536.266849
3571.007201,-7846.182985,370.102971,1149.143247
3571.007531,-7920.203579,444.123565,766.095498
3571.007861,-8438.347739,444.123565,459.657299
3571.008191,-10288.862594,592.164754,229.828649
3571.008521,-12139.377449,592.164754,919.314598
3571.008851,-12731.542202,0.000000,919.314598
3571.009180,-12435.459826,-592.164754,1608.800546
3571.009510,-11473.192101,-1036.288319,1302.362347
3571.009840,-9918.759623,-1332.370696,842.705048
3571.010170,-8586.388927,-1184.329507,76.609550
3571.010500,-7550.100608,-370.102971,-689.485948
3571.010830,-6957.935855,148.041188,-842.705048
3571.011160,-6957.935855,814.226536,-229.828649
3571.011490,-8290.306550,1628.453072,76.609550
3571.011820,-10066.800811,1924.535449,-383.047749
3571.012150,-11473.192101,1406.391290,-1149.143247
3571.012479,-12065.356855,888.247130,-995.924147
3571.012809,-11769.274478,74.020594,-153.219100
3571.013139,-11991.336260,-370.102971,689.485948
3571.013469,-11695.253884,-888.247130,766.095498
3571.013799,-9770.718434,-814.226536,0.000000
3571.014129,-8216.285956,-1184.329507,-766.095498
3571.014459,-7476.080014,-666.185348,0.000000
3571.014789,-7476.080014,-296.082377,689.485948
3571.015119,-7476.080014,296.082377,1149.143247
3571.015449,-7698.141797,962.267725,536.266849
3571.015779,-8734.430116,1480.411884,229.828649
3571.016108,-11029.068536,1628.453072,229.828649
3571.016438,-12657.521608,1332.370696,459.657299
3571.016768,-13175.665768,814.226536,306.438199
3571.017098,-12361.439231,-222.061783,0.000000
3571.017428,-11029.068536,-518.144159,306.438199
3571.017758,-10140.821405,-1036.288319,383.047749
3571.018088,-8660.409521,-592.164754,76.609550
3571.018418,-7254.018232,-518.144159,612.876398
3571.018748,-6883.915261,444.123565,842.705048
3571.019078,-6883.915261,740.205942,2221.676944
3571.019407,-8734.430116,1776.494261,1532.190996
3571.019737,-10362.883188,1776.494261,459.657299
3571.020067,-11843.295072,1480.411884,-459.657299
3571.020397,-11991.336260,296.082377,-229.828649
3571.020727,-12065.356855,74.020594,459.657299
3571.021057,-11917.315666,-592.164754,919.314598
3571.021387,-10807.006753,-1036.288319,76.609550
3571.021717,-9252.574275,-1258.350101,-1302.362347
3571.022047,-8068.244768,-1036.288319,-2221.676944
3571.022377,-7476.080014,-740.205942,-842.705048
3571.022706,-7624.121203,-222.061783,612.876398
3571.023036,-7698.141797,444.123565,995.924147
3571.023366,-7698.141797,888.247130,229.828649
3571.023696,-8808.450710,666.185348,153.219100
3571.024026,-10584.944971,444.123565,153.219100
3571.024356,-12213.398043,148.041188,306.438199
3571.024686,-12065.356855,0.000000,459.657299
3571.025016,-11843.295072,-962.267725,459.657299
3571.025346,-10807.006753,-1332.370696,995.924147
3571.025676,-9770.718434,-1332.370696,842.705048
3571.026006,-8512.368333,-814.226536,0.000000
3571.026335,-7624.121203,-444.123565,-459.657299
3571.026665,-7402.059420,74.020594,-383.047749
3571.026995,-7846.182985,1110.308913,383.047749
3571.027325,-9030.512492,1110.308913,229.828649
3571.027655,-10362.883188,1258.350101,-459.657299
3571.027985,-11769.274478,962.267725,-842.705048
3571.028315,-11843.295072,148.041188,-1072.533697
3571.028645,-11769.274478,-444.123565,306.438199
3571.028975,-11843.295072,-592.164754,1072.533697
3571.029305,-11029.068536,-1406.391290,689.485948
3571.029634,-9178.553681,-1850.514855,-153.219100
3571.029964,-8068.244768,-1628.453072,-153.219100
3571.030294,-7920.203579,-1036.288319,612.876398
3571.030624,-7846.182985,-370.102971,1378.971896
3571.030954,-7550.100608,148.041188,1302.362347
3571.031284,-7772.162391,296.082377,536.266849
3571.031614,-9326.594869,888.247130,76.609550
3571.031944,-11325.150913,740.205942,306.438199
3571.032274,-12731.542202,518.144159,306.438199
3571.032604,-12583.501014,0.000000,306.438199
3571.032933,-11991.336260,-444.123565,383.047749
3571.033263,-10584.944971,-1110.308913,0.000000
3571.033593,-8956.491898,-1406.391290,0.000000
3571.033923,-7846.182985,-1036.288319,-306.438199
3571.034253,-7328.038826,-666.185348,383.047749
3571.034583,-7105.977043,444.123565,1149.143247
3571.034913,-7476.080014,814.226536,1608.800546
3571.035243,-8956.491898,1480.411884,919.314598
3571.035573,-10510.924376,1628.453072,76.609550
3571.035903,-11473.192101,1036.288319,-153.219100
3571.036233,-11917.315666,148.041188,-153.219100
3571.036562,-12065.356855,0.000000,459.657299
3571.036892,-12213.398043,-444.123565,919.314598
3571.037222,-11029.068536,-592.164754,-536.266849
3571.037552,-9030.512492,-592.164754,-1838.629195
3571.037882,-7846.182985,-666.185348,-1762.019645
3571.038212,-7920.203579,0.000000,-229.828649
3571.038542,-7698.141797,148.041188,689.485948
3571.038872,-7254.018232,962.267725,0.000000
3571.039202,-8068.244768,1184.329507,306.438199
3571.039532,-9474.636058,1406.391290,306.438199
3571.039861,-11399.171507,1110.308913,229.828649
3571.040191,-12657.521608,666.185348,153.219100
3571.040521,-12805.562797,74.020594,689.485948
3571.040851,-11917.315666,-370.102971,1149.143247
3571.041181,-10658.965565,-814.226536,1838.629195
3571.041511,-9696.697840,-814.226536,919.314598
3571.041841,-8734.430116,-148.041188,-306.438199
3571.042171,-7476.080014,0.000000,0.000000
3571.042501,-7105.977043,740.205942,-153.219100
3571.042831,-7920.203579,1480.411884,612.876398
3571.043160,-9178.553681,1998.556043,-76.609550
3571.043490,-10584.944971,1924.535449,-459.657299
3571.043820,-11769.274478,1406.391290,-689.485948
3571.044150,-12065.356855,740.205942,-306.438199
3571.044480,-12361.439231,592.164754,383.047749
3571.044810,-12139.377449,-666.185348,306.438199
3571.045140,-10584.944971,-888.247130,0.000000
3571.045470,-8586.388927,-1554.432478,0.000000
3571.045800,-7402.059420,-1332.370696,229.828649
3571.046130,-7179.997637,-666.185348,995.924147
3571.046460,-7772.162391,0.000000,1532.190996
3571.046789,-7402.059420,592.164754,995.924147
3571.047119,-8808.450710,1332.370696,459.657299
3571.047449,-10288.862594,1776.494261,-766.095498
3571.047779,-11991.336260,1184.329507,-76.609550
3571.048109,-12879.583391,740.205942,-459.657299
3571.048439,-12657.521608,0.000000,-229.828649
3571.048769,-11695.253884,-666.185348,-536.266849
3571.049099,-10140.821405,-1110.308913,-459.657299
3571.049429,-8586.388927,-1332.370696,-153.219100
3571.049759,-7698.141797,-962.267725,0.000000
3571.050088,-7105.977043,-592.164754,689.485948
3571.050418,-7105.977043,148.041188,1225.752797
3571.050748,-7846.182985,888.247130,1685.410096
3571.051078,-9622.677246,1406.391290,689.485948
3571.051408,-11103.089130,1110.308913,-306.438199
3571.051738,-11843.295072,814.226536,-1225.752797
3571.052068,-12435.459826,0.000000,0.000000
3571.052398,-12435.459826,-444.123565,459.657299
3571.052728,-11843.295072,-1036.288319,-383.047749
3571.053058,-9918.759623,-1332.370696,-766.095498
3571.053387,-8142.265362,-1776.494261,-1838.629195
3571.053717,-7624.121203,-1258.350101,-919.314598
3571.054047,-7550.100608,-888.247130,612.876398
3571.054377,-7550.100608,-148.041188,1378.971896
3571.054707,-7624.121203,74.020594,766.095498
3571.055037,-8290.306550,518.144159,0.000000
3571.055367,-10214.842000,370.102971,459.657299
3571.055697,-12139.377449,74.020594,689.485948
3571.056027,-12583.501014,-74.020594,842.705048
3571.056357,-12213.398043,-962.267725,995.924147
3571.056686,-11547.212695,-1332.370696,1072.533697
3571.057016,-10214.842000,-1480.411884,842.705048
3571.057346,-9104.533087,-666.185348,306.438199
3571.057676,-7994.224174,-444.123565,-383.047749
3571.058006,-7254.018232,-296.082377,-306.438199
3571.058336,-6883.915261,444.123565,306.438199
3571.058666,-7994.224174,888.247130,383.047749
3571.058996,-10140.821405,1554.432478,459.657299
3571.059326,-11547.212695,1554.432478,-689.485948
3571.059656,-12065.356855,814.226536,-842.705048
3571.059986,-11917.315666,-222.061783,-229.828649
3571.060315,-12139.377449,-296.082377,689.485948
3571.060645,-11769.274478,-518.144159,1149.143247
3571.060975,-10140.821405,-1184.329507,229.828649
3571.061305,-8512.368333,-1036.288319,-612.876398
3571.061635,-7105.977043,-740.205942,-153.219100
3571.061965,-7772.162391,0.000000,1072.533697
3571.062295,-7550.100608,370.102971,1072.533697
3571.062625,-7550.100608,1258.350101,536.266849
3571.062955,-8512.368333,2072.576638,76.609550
3571.063285,-10807.006753,1998.556043,0.000000
3571.063614,-12731.542202,1628.453072,-383.047749
3571.063944,-12953.603985,1110.308913,-306.438199
3571.064274,-12435.459826,148.041188,-306.438199
3571.064604,-10955.047942,-296.082377,0.000000
3571.064934,-9696.697840,-888.247130,0.000000
3571.065264,-8512.368333,-592.164754,153.219100
3571.065594,-7550.100608,-518.144159,229.828649
3571.065924,-6883.915261,370.102971,1378.971896
3571.066254,-6883.915261,1184.329507,1685.410096
3571.066584,-8364.327145,1776.494261,1838.629195
3571.066913,-10140.821405,1924.535449,1149.143247
3571.067243,-11843.295072,2368.659014,153.219100
3571.067573,-11843.295072,1332.370696,-383.047749
3571.067903,-12287.418637,1036.288319,0.000000
3571.068233,-12509.480420,296.082377,229.828649
3571.068563,-11621.233289,-74.020594,-612.876398
3571.068893,-9474.636058,-592.164754,-1149.143247
3571.069223,-7846.182985,-740.205942,-1608.800546
3571.069553,-7550.100608,-296.082377,-153.219100
3571.069883,-7476.080014,0.000000,1455.581446
3571.070212,-7402.059420,444.123565,1838.629195
3571.070542,-7698.141797,740.205942,919.314598
3571.070872,-9326.594869,1258.350101,306.438199
3571.071202,-11325.150913,1184.329507,612.876398
3571.071532,-12953.603985,1258.350101,229.828649
3571.071862,-12805.562797,222.061783,229.828649
3571.072192,-12139.377449,-740.205942,229.828649
3571.072522,-10807.006753,-1110.308913,689.485948
3571.072852,-9696.697840,-1628.453072,536.266849
3571.073182,-8586.388927,-1110.308913,306.438199
3571.073512,-7550.100608,-814.226536,153.219100
3571.073841,-7179.997637,0.000000,766.095498
3571.074171,-7328.038826,666.185348,1072.533697
3571.074501,-8512.368333,1184.329507,842.705048
3571.074831,-10214.842000,1036.288319,0.000000
3571.075161,-11621.233289,666.185348,-1149.143247
3571.075491,-11991.336260,0.000000,-1225.752797
3571.075821,-12435.459826,-296.082377,76.609550
3571.076151,-12065.356855,-1332.370696,766.095498
3571.076481,-11103.089130,-1480.411884,612.876398
3571.076811,-9326.594869,-1998.556043,-536.266849
3571.077140,-7402.059420,-1628.453072,-536.266849
3571.077470,-7402.059420,-1776.494261,306.438199
3571.077800,-7476.080014,-518.144159,1378.971896
3571.078130,-7254.018232,0.000000,1302.362347
3571.078460,-7994.224174,666.185348,612.876398
3571.078790,-9992.780217,1036.288319,0.000000
3571.079120,-12065.356855,1036.288319,-612.876398
3571.079450,-13175.665768,518.144159,-536.266849
3571.079780,-13027.624579,0.000000,-383.047749
3571.080110,-12065.356855,-592.164754,306.438199
3571.080439,-10436.903782,-1036.288319,229.828649
3571.080769,-9252.574275,-1036.288319,229.828649
3571.081099,-7550.100608,-1184.329507,-76.609550
3571.081429,-7254.018232,-592.164754,306.438199
3571.081759,-6809.894666,296.082377,1225.752797
3571.082089,-7402.059420,1036.288319,1915.238745
3571.082419,-9030.512492,1258.350101,1378.971896
3571.082749,-10732.986159,1554.432478,459.657299
3571.083079,-12213.398043,1332.370696,-689.485948
3571.083409,-12509.480420,814.226536,-229.828649
3571.083738,-12583.501014,296.082377,536.266849
3571.084068,-11917.315666,-370.102971,1225.752797
3571.084398,-10584.944971,-518.144159,76.609550
3571.084728,-8586.388927,-740.205942,-1455.581446
3571.085058,-7624.121203,-518.144159,-1455.581446
3571.085388,-7624.121203,-74.020594,0.000000
3571.085718,-7624.121203,592.164754,919.314598
3571.086048,-7402.059420,814.226536,1225.752797
3571.086378,-7994.224174,1258.350101,383.047749
3571.086708,-9770.718434,1332.370696,0.000000
3571.087038,-11621.233289,1702.473667,153.219100
3571.087367,-12435.459826,814.226536,0.000000
3571.087697,-12583.501014,74.020594,383.047749
3571.088027,-11473.192101,-444.123565,1225.752797
3571.088357,-9918.759623,-888.247130,1378.971896
3571.088687,-8882.471304,-1110.308913,612.876398
3571.089017,-8216.285956,-296.082377,0.000000
3571.089347,-7550.100608,148.041188,-383.047749
3571.089677,-7105.977043,740.205942,383.047749
3571.090007,-7476.080014,1332.370696,1149.143247
3571.090337,-9400.615463,1850.514855,459.657299
3571.090666,-11399.171507,1924.535449,-689.485948
3571.090996,-11843.295072,1110.308913,-1838.629195
3571.091326,-11843.295072,296.082377,-612.876398
3571.091656,-12213.398043,0.000000,76.609550
3571.091986,-11769.274478,-888.247130,766.095498
3571.092316,-10214.842000,-1406.391290,306.438199
3571.092646,-8290.306550,-1554.432478,0.000000
3571.092976,-7772.162391,-1184.329507,76.609550
3571.093306,-7624.121203,-888.247130,995.924147
3571.093636,-7698.141797,0.000000,1455.581446
3571.093965,-7920.203579,370.102971,1149.143247
3571.094295,-8734.430116,1036.288319,842.705048
3571.094625,-10436.903782,1110.308913,0.000000
3571.094955,-12509.480420,740.205942,0.000000
3571.095285,-13027.624579,518.144159,0.000000
3571.095615,-12879.583391,148.041188,153.219100
3571.095945,-11621.233289,-592.164754,0.000000
3571.096275,-10362.883188,-1184.329507,459.657299
3571.096605,-8882.471304,-1036.288319,0.000000
3571.096935,-7698.141797,-888.247130,-76.609550
3571.097264,-7328.038826,-592.164754,459.657299
3571.097594,-7031.956449,296.082377,1685.410096
3571.097924,-7994.224174,814.226536,1991.848295
3571.098254,-9548.656652,1036.288319,1225.752797
3571.098584,-11325.150913,1184.329507,306.438199
3571.098914,-12213.398043,814.226536,76.609550
3571.099244,-12583.501014,296.082377,0.000000
3571.099574,-12583.501014,0.000000,842.705048
3571.099904,-11695.253884,-592.164754,306.438199
3571.100234,-9770.718434,-888.247130,-919.314598
3571.100564,-8068.244768,-1184.329507,-1685.410096
3571.100893,-7179.997637,-888.247130,-1072.533697
3571.101223,-7179.997637,0.000000,919.314598
3571.101553,-7550.100608,74.020594,919.314598
3571.101883,-7550.100608,592.164754,383.047749
3571.102213,-8364.327145,666.185348,0.000000
3571.102543,-10066.800811,814.226536,0.000000
3571.102873,-12139.377449,370.102971,76.609550
3571.103203,-12583.501014,0.000000,459.657299
3571.103533,-12287.418637,-592.164754,1072.533697
3571.103863,-11029.068536,-1036.288319,995.924147
3571.104192,-9474.636058,-1332.370696,919.314598
3571.104522,-8660.409521,-962.267725,0.000000
3571.104852,-7920.203579,-444.123565,-689.485948
3571.105182,-7254.018232,0.000000,76.609550
3571.105512,-7105.977043,592.164754,842.705048
3571.105842,-8290.306550,1184.329507,383.047749
3571.106172,-10140.821405,1480.411884,-306.438199
3571.106502,-11251.130318,1110.308913,-1225.752797
3571.106832,-12065.356855,888.247130,-1302.362347
3571.107162,-11843.295072,0.000000,0.000000
3571.107491,-12213.398043,-444.123565,1149.143247
3571.107821,-11399.171507,-962.267725,995.924147
3571.108151,-9696.697840,-1554.432478,383.047749
3571.108481,-8660.409521,-1332.370696,76.609550
3571.108811,-8364.327145,-666.185348,459.657299
3571.109141,-7920.203579,-370.102971,1608.800546
3571.109471,-7550.100608,148.041188,1532.190996
3571.109801,-7772.162391,962.267725,689.485948
3571.110131,-9178.553681,1036.288319,76.609550
3571.110461,-11251.130318,1406.391290,0.000000
3571.110790,-12287.418637,888.247130,-306.438199
3571.111120,-12657.521608,740.205942,-153.219100
3571.111450,-12435.459826,0.000000,0.000000
3571.111780,-11029.068536,-592.164754,229.828649
3571.112110,-9770.718434,-888.247130,306.438199
3571.112440,-8438.347739,-1184.329507,0.000000
3571.112770,-7328.038826,-740.205942,229.828649
3571.113100,-7031.956449,-74.020594,1072.533697
3571.113430,-7105.977043,740.205942,2068.457845
3571.113760,-8438.347739,1110.308913,1915.238745
3571.114090,-10288.862594,1554.432478,689.485948
3571.114419,-11473.192101,1332.370696,-306.438199
3571.114749,-12213.398043,1110.308913,-766.095498
3571.115079,-12583.501014,666.185348,229.828649
3571.115409,-12509.480420,222.061783,306.438199
3571.115739,-11251.130318,-518.144159,-153.219100
3571.116069,-9326.594869,-814.226536,-1762.019645
3571.116399,-7920.203579,-962.267725,-1838.629195
3571.116729,-7772.162391,-444.123565,-383.047749
3571.117059,-7772.162391,222.061783,1072.533697
3571.117389,-7476.080014,592.164754,1685.410096
3571.117718,-7846.182985,1036.288319,995.924147
3571.118048,-9400.615463,1110.308913,383.047749
3571.118378,-11251.130318,1406.391290,0.000000
3571.118708,-12435.459826,1036.288319,0.000000
3571.119038,-12879.583391,296.082377,153.219100
3571.119368,-12213.398043,-296.082377,689.485948
3571.119698,-10510.924376,-444.123565,612.876398
3571.120028,-9474.636058,-962.267725,459.657299
3571.120358,-8364.327145,-962.267725,0.000000
3571.120688,-7698.141797,-666.185348,0.000000
3571.121017,-7328.038826,592.164754,842.705048
3571.121347,-7402.059420,888.247130,689.485948
3571.121677,-8734.430116,1554.432478,689.485948
3571.122007,-10214.842000,1554.432478,76.609550
3571.122337,-11621.233289,962.267725,-995.924147
3571.122667,-11917.315666,296.082377,-612.876398
3571.122997,-12213.398043,-148.041188,383.047749
3571.123327,-12139.377449,-1184.329507,842.705048
3571.123657,-10807.006753,-1554.432478,383.047749
3571.123987,-8586.388927,-1628.453072,0.000000
3571.124316,-7550.100608,-1554.432478,-536.266849
3571.124646,-7402.059420,-1110.308913,689.485948
3571.124976,-7920.203579,-296.082377,1378.971896
3571.125306,-7772.162391,444.123565,1302.362347
3571.125636,-8142.265362,592.164754,0.000000
3571.125966,-9548.656652,814.226536,-612.876398
3571.126296,-11547.212695,1036.288319,-459.657299
3571.126626,-12731.542202,740.205942,-842.705048
3571.126956,-13027.624579,0.000000,-536.266849
3571.127286,-12065.356855,-592.164754,-536.266849
3571.127616,-10658.965565,-1184.329507,0.000000
3571.127945,-9252.574275,-1480.411884,-229.828649
3571.128275,-8364.327145,-740.205942,-383.047749
3571.128605,-7624.121203,-666.185348,229.828649
3571.128935,-7254.018232,296.082377,1149.143247
3571.129265,-7624.121203,740.205942,1685.410096
3571.129595,-9252.574275,1480.411884,919.314598
