#time,accel_x,accel_y,accel_z
4078.707623,-10362.883188,-962.267725,2681.334243
4078.707953,-11029.068536,-222.061783,2298.286494
4078.708283,-11177.109724,-74.020594,2145.067394
4078.708614,-11029.068536,-518.144159,1762.019645
4078.708944,-9770.718434,-666.185348,2298.286494
4078.709274,-9030.512492,-1184.329507,2451.505594
4078.709604,-8660.409521,-1184.329507,2451.505594
4078.709934,-8956.491898,-1110.308913,1608.800546
4078.710264,-8734.430116,-1036.288319,536.266849
4078.710594,-9252.574275,-518.144159,0.000000
4078.710924,-9992.780217,148.041188,76.609550
4078.711254,-10436.903782,0.000000,842.705048
4078.711584,-10362.883188,444.123565,1149.143247
4078.711915,-10362.883188,370.102971,1072.533697
4078.712245,-10584.944971,0.000000,1378.971896
4078.712575,-10732.986159,-518.144159,1762.019645
4078.712905,-10510.924376,-518.144159,1762.019645
4078.713235,-9918.759623,-962.267725,2681.334243
4078.713565,-9400.615463,-1036.288319,3140.991542
4078.713895,-9844.739029,-1036.288319,3677.258390
4078.714225,-9696.697840,-1184.329507,2451.505594
4078.714555,-9844.739029,-592.164754,2987.772442
4078.714885,-9992.780217,-740.205942,2451.505594
4078.715215,-10658.965565,-666.185348,2374.896044
4078.715546,-10658.965565,-740.205942,2221.676944
4078.715876,-10510.924376,-962.267725,1991.848295
4078.716206,-10214.842000,-1332.370696,2068.457845
4078.716536,-10066.800811,-1554.432478,2451.505594
4078.716866,-9474.636058,-1998.556043,2221.676944
4078.717196,-8956.491898,-2442.679609,3064.381992
4078.717526,-8660.409521,-2664.741391,2987.772442
4078.717856,-9178.553681,-3108.864956,3370.820191
4078.718186,-8734.430116,-2812.782580,3524.039291
4078.718516,-11769.274478,-3923.091493,3064.381992
4078.718846,-9548.656652,-3627.009116,3677.258390
4078.719177,-10436.903782,-3552.988522,3294.210641
4078.719507,-10807.006753,-2590.720797,1685.410096
4078.719837,-10066.800811,-2590.720797,1302.362347
4078.720167,-10732.986159,-2072.576638,1838.629195
4078.720497,-10066.800811,-2812.782580,4519.963438
4078.720827,-10140.821405,-3404.947333,5439.278036
4078.721157,-11251.130318,-4145.153275,3907.087040
4078.721487,-9992.780217,-4441.235652,2298.286494
4078.721817,-10510.924376,-4737.318029,1225.752797
4078.722147,-9918.759623,-4293.194464,1455.581446
4078.722478,-9474.636058,-3849.070898,3370.820191
4078.722808,-9918.759623,-3552.988522,3677.258390
4078.723138,-10140.821405,-3182.885551,4136.915689
4078.723468,-10510.924376,-3330.926739,3064.381992
4078.723798,-10584.944971,-4145.153275,2834.553343
4078.724128,-9918.759623,-4737.318029,2911.162892
4078.724458,-9918.759623,-5551.544565,4596.572988
4078.724788,-9992.780217,-5107.421000,4290.134789
4078.725118,-9326.594869,-4959.379811,2834.553343
4078.725448,-9252.574275,-4145.153275,2374.896044
4078.725778,-9918.759623,-3182.885551,1762.019645
4078.726109,-10807.006753,-2368.659014,766.095498
4078.726439,-10881.027347,-2146.597232,1149.143247
4078.726769,-9474.636058,-3404.947333,1532.190996
4078.727099,-8734.430116,-3627.009116,3677.258390
4078.727429,-8956.491898,-4441.235652,4443.353888
4078.727759,-9548.656652,-4737.318029,3830.477490
4078.728089,-9548.656652,-4441.235652,2987.772442
4078.728419,-8808.450710,-3923.091493,1532.190996
4078.728749,-9474.636058,-3034.844362,2451.505594
4078.729079,-10140.821405,-2072.576638,3370.820191
4078.729410,-10584.944971,-1036.288319,3294.210641
4078.729740,-10362.883188,-518.144159,2374.896044
4078.730069,-10066.800811,-1184.329507,766.095498
4078.730399,-10066.800811,-1332.370696,842.705048
4078.730729,-9918.759623,-1702.473667,1302.362347
4078.731059,-9252.574275,-2220.617826,1838.629195
4078.731389,-8660.409521,-2220.617826,2145.067394
4078.731719,-8586.388927,-1850.514855,2451.505594
4078.732048,-9992.780217,-1406.391290,2757.943793
4078.732378,-10807.006753,-296.082377,3830.477490
4078.732708,-10807.006753,0.000000,2911.162892
4078.733038,-9992.780217,148.041188,1762.019645
4078.733368,-9474.636058,74.020594,1838.629195
4078.733698,-10362.883188,444.123565,2374.896044
4078.734028,-11177.109724,444.123565,2987.772442
4078.734357,-10288.862594,0.000000,1991.848295
4078.734687,-9326.594869,0.000000,536.266849
4078.735017,-8808.450710,-296.082377,153.219100
4078.735347,-9178.553681,-666.185348,1685.410096
4078.735677,-9548.656652,-296.082377,3064.381992
4078.736007,-9178.553681,-592.164754,2987.772442
4078.736336,-9104.533087,0.000000,1762.019645
4078.736666,-9770.718434,148.041188,1149.143247
4078.736996,-10955.047942,148.041188,1149.143247
4078.737326,-10955.047942,370.102971,1532.190996
4078.737656,-10362.883188,222.061783,1838.629195
4078.737986,-10214.842000,444.123565,2145.067394
4078.738315,-10066.800811,518.144159,1991.848295
4078.738645,-9474.636058,0.000000,766.095498
4078.738975,-9030.512492,-444.123565,459.657299
4078.739305,-9696.697840,-666.185348,689.485948
4078.739635,-9918.759623,-1628.453072,1149.143247
4078.739965,-9400.615463,-1628.453072,1455.581446
4078.740294,-8512.368333,-1998.556043,1455.581446
4078.740624,-8734.430116,-1258.350101,1455.581446
4078.740954,-9104.533087,-1036.288319,1072.533697
4078.741284,-9844.739029,-370.102971,229.828649
4078.741614,-10436.903782,370.102971,1149.143247
4078.741944,-10584.944971,148.041188,1685.410096
4078.742273,-10510.924376,-592.164754,2451.505594
4078.742603,-10807.006753,-962.267725,2451.505594
4078.742933,-9918.759623,-1406.391290,306.438199
4078.743263,-9622.677246,-1110.308913,-229.828649
4078.743593,-9030.512492,-1258.350101,-612.876398
4078.743923,-9696.697840,-1036.288319,0.000000
4078.744253,-9992.780217,-740.205942,689.485948
4078.744582,-10510.924376,-740.205942,-306.438199
4078.744912,-10658.965565,-962.267725,-536.266849
4078.745242,-9622.677246,-1332.370696,536.266849
4078.745572,-9548.656652,-1776.494261,1302.362347
4078.745902,-9474.636058,-1776.494261,1685.410096
4078.746232,-8734.430116,-1998.556043,1455.581446
4078.746561,-8734.430116,-1850.514855,1072.533697
4078.746891,-9474.636058,-1332.370696,1225.752797
4078.747221,-10955.047942,-888.247130,1072.533697
4078.747551,-11251.130318,-1406.391290,689.485948
4078.747881,-9992.780217,-1184.329507,0.000000
4078.748211,-8586.388927,-1258.350101,536.266849
4078.748540,-9104.533087,-1110.308913,1532.190996
4078.748870,-9844.739029,-1036.288319,1991.848295
4078.749200,-9770.718434,-518.144159,1302.362347
4078.749530,-9474.636058,-444.123565,0.000000
4078.749860,-10066.800811,0.000000,76.609550
4078.750190,-11621.233289,296.082377,612.876398
4078.750519,-11399.171507,0.000000,459.657299
4078.750849,-10066.800811,-444.123565,-612.876398
4078.751179,-8660.409521,-296.082377,-1225.752797
4078.751509,-9030.512492,-444.123565,-612.876398
4078.751839,-10510.924376,0.000000,459.657299
4078.752169,-9622.677246,-370.102971,1378.971896
4078.752498,-7994.224174,-296.082377,0.000000
4078.752828,-7846.182985,-370.102971,0.000000
4078.753158,-10066.800811,296.082377,1149.143247
4078.753488,-11177.109724,518.144159,1608.800546
4078.753818,-10881.027347,222.061783,766.095498
4078.754148,-9770.718434,518.144159,76.609550
4078.754478,-9178.553681,296.082377,76.609550
4078.754807,-10436.903782,592.164754,-76.609550
4078.755137,-9918.759623,962.267725,0.000000
4078.755467,-9326.594869,740.205942,-995.924147
4078.755797,-7698.141797,370.102971,-1455.581446
4078.756127,-9030.512492,814.226536,-995.924147
4078.756457,-9770.718434,740.205942,-153.219100
4078.756786,-9844.739029,814.226536,1072.533697
4078.757116,-9326.594869,1332.370696,766.095498
4078.757446,-9400.615463,592.164754,0.000000
4078.757776,-10584.944971,1184.329507,-689.485948
4078.758106,-11029.068536,814.226536,306.438199
4078.758436,-10881.027347,888.247130,306.438199
4078.758765,-9178.553681,1110.308913,0.000000
4078.759095,-8808.450710,1110.308913,-383.047749
4078.759425,-8882.471304,1258.350101,-459.657299
4078.759755,-9770.718434,1332.370696,-612.876398
4078.760085,-9696.697840,1480.411884,306.438199
4078.760415,-10362.883188,1036.288319,306.438199
4078.760744,-10584.944971,1332.370696,0.000000
4078.761074,-10510.924376,962.267725,229.828649
4078.761404,-10214.842000,888.247130,-229.828649
4078.761734,-9548.656652,740.205942,-766.095498
4078.762064,-10066.800811,814.226536,-1225.752797
4078.762394,-9400.615463,666.185348,-766.095498
4078.762723,-9030.512492,444.123565,383.047749
4078.763053,-8956.491898,888.247130,1608.800546
4078.763383,-9918.759623,74.020594,1608.800546
4078.763713,-10510.924376,0.000000,766.095498
4078.764043,-9770.718434,-296.082377,229.828649
4078.764373,-9474.636058,0.000000,0.000000
4078.764703,-9326.594869,74.020594,459.657299
4078.765032,-10140.821405,518.144159,383.047749
4078.765362,-9992.780217,666.185348,-76.609550
4078.765692,-9696.697840,814.226536,-229.828649
4078.766022,-10140.821405,740.205942,459.657299
4078.766352,-10732.986159,0.000000,766.095498
4078.766682,-10214.842000,0.000000,229.828649
4078.767011,-9400.615463,-592.164754,0.000000
4078.767341,-8586.388927,-222.061783,306.438199
4078.767671,-9326.594869,74.020594,153.219100
4078.768001,-9918.759623,74.020594,-689.485948
4078.768331,-10510.924376,74.020594,-689.485948
4078.768661,-10362.883188,296.082377,153.219100
4078.768990,-9992.780217,-222.061783,1302.362347
4078.769320,-9770.718434,-888.247130,1532.190996
4078.769650,-9622.677246,-444.123565,612.876398
4078.769980,-9178.553681,-1184.329507,306.438199
4078.770310,-9104.533087,-740.205942,383.047749
4078.770640,-9474.636058,-1184.329507,995.924147
4078.770969,-10362.883188,-222.061783,0.000000
4078.771299,-10510.924376,-740.205942,229.828649
4078.771629,-9622.677246,-518.144159,153.219100
4078.771959,-9548.656652,-666.185348,383.047749
4078.772289,-9918.759623,-740.205942,459.657299
4078.772619,-9844.739029,-814.226536,-76.609550
4078.772948,-10066.800811,-888.247130,-76.609550
4078.773278,-9400.615463,-1110.308913,766.095498
4078.773608,-9030.512492,-1406.391290,689.485948
4078.773938,-9326.594869,-814.226536,229.828649
4078.774268,-9474.636058,-1184.329507,76.609550
4078.774598,-9918.759623,-592.164754,0.000000
4078.774928,-9992.780217,-148.041188,919.314598
4078.775257,-10510.924376,-222.061783,612.876398
4078.775587,-10214.842000,-296.082377,612.876398
4078.775917,-10214.842000,-296.082377,383.047749
4078.776247,-9622.677246,-370.102971,76.609550
4078.776577,-9178.553681,-370.102971,-76.609550
4078.776907,-9252.574275,-222.061783,-536.266849
4078.777236,-9622.677246,-666.185348,153.219100
4078.777566,-10140.821405,222.061783,536.266849
4078.777896,-9770.718434,296.082377,842.705048
4078.778226,-9696.697840,74.020594,459.657299
4078.778556,-9400.615463,222.061783,-306.438199
4078.778886,-9770.718434,74.020594,0.000000
4078.779215,-9918.759623,148.041188,-229.828649
4078.779545,-10066.800811,518.144159,459.657299
4078.779875,-10510.924376,518.144159,0.000000
4078.780205,-10436.903782,222.061783,153.219100
4078.780535,-9992.780217,222.061783,76.609550
4078.780865,-8956.491898,74.020594,383.047749
4078.781194,-9178.553681,148.041188,0.000000
4078.781524,-9696.697840,518.144159,0.000000
4078.781854,-10214.842000,666.185348,153.219100
4078.782184,-9844.739029,814.226536,306.438199
4078.782514,-10066.800811,1184.329507,229.828649
4078.782844,-10362.883188,814.226536,-229.828649
4078.783173,-10066.800811,666.185348,-229.828649
4078.783503,-9474.636058,370.102971,383.047749
4078.783833,-9770.718434,518.144159,842.705048
4078.784163,-10140.821405,592.164754,383.047749
4078.784493,-9548.656652,370.102971,76.609550
4078.784823,-9474.636058,962.267725,229.828649
4078.785153,-9326.594869,666.185348,-383.047749
4078.785482,-9474.636058,444.123565,-383.047749
4078.785812,-10288.862594,592.164754,-153.219100
4078.786142,-9918.759623,518.144159,306.438199
4078.786472,-9400.615463,962.267725,612.876398
4078.786802,-9474.636058,518.144159,1072.533697
4078.787132,-9844.739029,222.061783,229.828649
4078.787461,-10140.821405,666.185348,-383.047749
4078.787791,-10510.924376,962.267725,-536.266849
4078.788121,-9474.636058,740.205942,0.000000
4078.788451,-9622.677246,518.144159,459.657299
4078.788781,-10066.800811,666.185348,0.000000
4078.789111,-10066.800811,518.144159,-612.876398
4078.789440,-9548.656652,74.020594,-459.657299
4078.789770,-9548.656652,-370.102971,-383.047749
4078.790100,-9326.594869,0.000000,459.657299
4078.790430,-9400.615463,-518.144159,689.485948
4078.790760,-9474.636058,-296.082377,612.876398
4078.791090,-9178.553681,-222.061783,612.876398
4078.791419,-9918.759623,-148.041188,536.266849
4078.791749,-10066.800811,-296.082377,0.000000
4078.792079,-10066.800811,-518.144159,306.438199
4078.792409,-9548.656652,-592.164754,536.266849
4078.792739,-9474.636058,-814.226536,1072.533697
4078.793069,-9400.615463,-666.185348,766.095498
4078.793398,-8882.471304,-592.164754,-76.609550
4078.793728,-9474.636058,-296.082377,-995.924147
4078.794058,-9400.615463,-592.164754,-536.266849
4078.794388,-9844.739029,0.000000,229.828649
4078.794718,-10436.903782,0.000000,689.485948
4078.795048,-10510.924376,-518.144159,766.095498
4078.795378,-10140.821405,-518.144159,689.485948
4078.795707,-9992.780217,-814.226536,1225.752797
4078.796037,-9770.718434,-666.185348,842.705048
4078.796367,-9622.677246,-740.205942,1302.362347
4078.796697,-9992.780217,-444.123565,689.485948
4078.797027,-9622.677246,-592.164754,689.485948
4078.797357,-10584.944971,0.000000,536.266849
4078.797686,-10658.965565,-296.082377,229.828649
4078.798016,-10510.924376,-370.102971,153.219100
4078.798346,-9548.656652,-370.102971,919.314598
4078.798676,-8956.491898,-444.123565,919.314598
4078.799006,-9474.636058,-592.164754,689.485948
4078.799336,-10140.821405,0.000000,0.000000
4078.799665,-10288.862594,-296.082377,-153.219100
4078.799995,-9548.656652,-592.164754,153.219100
4078.800325,-9548.656652,0.000000,229.828649
4078.800655,-10140.821405,0.000000,919.314598
4078.800985,-9770.718434,0.000000,306.438199
4078.801315,-9104.533087,-296.082377,536.266849
4078.801644,-9400.615463,-296.082377,1378.971896
4078.801974,-9696.697840,-74.020594,1072.533697
4078.802304,-10510.924376,74.020594,1072.533697
4078.802634,-10140.821405,-444.123565,383.047749
4078.802964,-9548.656652,-592.164754,76.609550
4078.803294,-9548.656652,-148.041188,306.438199
4078.803623,-9178.553681,-74.020594,383.047749
4078.803953,-8734.430116,0.000000,0.000000
4078.804283,-8290.306550,370.102971,153.219100
4078.804613,-8956.491898,444.123565,1225.752797
4078.804943,-10288.862594,444.123565,0.000000
4078.805273,-10584.944971,0.000000,-306.438199
4078.805603,-10584.944971,222.061783,-536.266849
4078.805932,-9770.718434,-370.102971,459.657299
4078.806262,-9326.594869,-74.020594,0.000000
4078.806592,-8586.388927,74.020594,-459.657299
4078.806922,-9030.512492,666.185348,-612.876398
4078.807252,-9474.636058,666.185348,229.828649
4078.807582,-10955.047942,1036.288319,306.438199
4078.807911,-11177.109724,1258.350101,306.438199
4078.808241,-10658.965565,666.185348,229.828649
4078.808571,-9696.697840,148.041188,-536.266849
4078.808901,-8734.430116,148.041188,0.000000
4078.809231,-9252.574275,148.041188,-459.657299
4078.809561,-9326.594869,148.041188,-689.485948
4078.809890,-9770.718434,962.267725,-459.657299
4078.810220,-9918.759623,1554.432478,0.000000
4078.810550,-10584.944971,1110.308913,383.047749
4078.810880,-10436.903782,592.164754,306.438199
4078.811210,-10140.821405,444.123565,229.828649
4078.811540,-9918.759623,74.020594,0.000000
4078.811869,-9326.594869,296.082377,689.485948
4078.812199,-8956.491898,0.000000,229.828649
4078.812529,-9622.677246,296.082377,0.000000
4078.812859,-10066.800811,888.247130,-153.219100
4078.813189,-9992.780217,1036.288319,612.876398
4078.813519,-9992.780217,148.041188,0.000000
4078.813848,-9474.636058,-222.061783,0.000000
4078.814178,-9474.636058,0.000000,459.657299
4078.814508,-9474.636058,-148.041188,689.485948
4078.814838,-9474.636058,-370.102971,1072.533697
4078.815168,-9844.739029,-148.041188,612.876398
4078.815498,-9992.780217,-296.082377,0.000000
4078.815828,-9918.759623,222.061783,76.609550
4078.816157,-9622.677246,74.020594,919.314598
4078.816487,-9918.759623,0.000000,1991.848295
4078.816817,-9992.780217,0.000000,995.924147
4078.817147,-10584.944971,296.082377,-306.438199
4078.817477,-9474.636058,-444.123565,-1072.533697
4078.817807,-9178.553681,0.000000,76.609550
4078.818136,-9770.718434,0.000000,229.828649
4078.818466,-9918.759623,0.000000,0.000000
4078.818796,-9992.780217,222.061783,-459.657299
4078.819126,-9844.739029,0.000000,383.047749
4078.819456,-10436.903782,-148.041188,1455.581446
4078.819786,-10214.842000,-222.061783,1149.143247
4078.820115,-9622.677246,-592.164754,919.314598
4078.820445,-8660.409521,-592.164754,612.876398
4078.820775,-9030.512492,-444.123565,306.438199
4078.821105,-9844.739029,-370.102971,0.000000
4078.821435,-10066.800811,-592.164754,-612.876398
4078.821765,-9696.697840,-148.041188,0.000000
4078.822094,-9252.574275,-370.102971,306.438199
4078.822424,-9104.533087,-444.123565,995.924147
4078.822754,-8734.430116,-444.123565,306.438199
4078.823084,-9696.697840,-74.020594,153.219100
4078.823414,-9918.759623,-370.102971,153.219100
4078.823744,-10362.883188,-74.020594,306.438199
4078.824073,-10214.842000,0.000000,-153.219100
4078.824403,-10214.842000,-222.061783,-383.047749
4078.824733,-9548.656652,222.061783,0.000000
4078.825063,-9400.615463,0.000000,76.609550
4078.825393,-10066.800811,370.102971,229.828649
4078.825723,-10362.883188,370.102971,383.047749
4078.826053,-10066.800811,0.000000,76.609550
4078.826382,-9400.615463,-370.102971,153.219100
4078.826712,-9400.615463,-296.082377,459.657299
4078.827042,-9844.739029,-518.144159,306.438199
4078.827372,-9992.780217,-518.144159,306.438199
4078.827702,-9548.656652,-296.082377,229.828649
4078.828032,-9178.553681,0.000000,612.876398
4078.828361,-9770.718434,222.061783,1149.143247
4078.828691,-10584.944971,592.164754,1072.533697
4078.829021,-10584.944971,592.164754,536.266849
4078.829351,-9622.677246,0.000000,76.609550
4078.829681,-9252.574275,0.000000,0.000000
4078.830011,-9474.636058,0.000000,76.609550
4078.830341,-9696.697840,0.000000,229.828649
4078.830670,-9474.636058,0.000000,0.000000
4078.831000,-9622.677246,0.000000,995.924147
4078.831330,-10140.821405,148.041188,383.047749
4078.831660,-9696.697840,-296.082377,-689.485948
4078.831990,-9770.718434,148.041188,-459.657299
4078.832320,-8956.491898,148.041188,383.047749
4078.832650,-9548.656652,666.185348,689.485948
4078.832980,-10214.842000,592.164754,-153.219100
4078.833310,-10214.842000,370.102971,0.000000
4078.833639,-10214.842000,666.185348,0.000000
4078.833969,-10436.903782,-148.041188,383.047749
4078.834299,-9696.697840,-370.102971,153.219100
4078.834629,-8882.471304,-296.082377,0.000000
4078.834959,-9548.656652,148.041188,0.000000
4078.835289,-9104.533087,296.082377,76.609550
4078.835619,-9474.636058,592.164754,-306.438199
4078.835949,-9548.656652,0.000000,-766.095498
4078.836278,-10214.842000,222.061783,-536.266849
4078.836608,-9770.718434,370.102971,306.438199
4078.836938,-10140.821405,74.020594,842.705048
4078.837268,-9992.780217,296.082377,536.266849
4078.837598,-9696.697840,0.000000,76.609550
4078.837928,-10214.842000,296.082377,689.485948
4078.838258,-9548.656652,0.000000,612.876398
4078.838588,-9770.718434,222.061783,0.000000
4078.838918,-9252.574275,222.061783,76.609550
4078.839247,-9844.739029,148.041188,0.000000
4078.839577,-9918.759623,444.123565,842.705048
4078.839907,-9548.656652,0.000000,919.314598
4078.840237,-9844.739029,74.020594,-229.828649
4078.840567,-9474.636058,0.000000,-995.924147
4078.840897,-9844.739029,370.102971,-383.047749
4078.841227,-9474.636058,0.000000,76.609550
4078.841557,-9030.512492,666.185348,-536.266849
4078.841887,-9400.615463,666.185348,-153.219100
4078.842216,-10288.862594,222.061783,0.000000
4078.842546,-9844.739029,222.061783,0.000000
4078.842876,-9770.718434,0.000000,-766.095498
4078.843206,-9770.718434,0.000000,153.219100
4078.843536,-10214.842000,0.000000,0.000000
4078.843866,-9992.780217,222.061783,229.828649
4078.844196,-8956.491898,0.000000,689.485948
4078.844526,-9400.615463,592.164754,0.000000
4078.844856,-10436.903782,518.144159,536.266849
4078.845185,-10955.047942,296.082377,229.828649
4078.845515,-9992.780217,592.164754,919.314598
4078.845845,-9548.656652,518.144159,612.876398
4078.846175,-10214.842000,444.123565,153.219100
4078.846505,-10066.800811,74.020594,-459.657299
4078.846835,-9474.636058,74.020594,-459.657299
4078.847165,-9030.512492,74.020594,76.609550
4078.847495,-9696.697840,74.020594,536.266849
4078.847825,-9770.718434,-370.102971,383.047749
4078.848154,-9844.739029,0.000000,306.438199
4078.848484,-9474.636058,0.000000,612.876398
4078.848814,-9770.718434,-370.102971,1378.971896
4078.849144,-10362.883188,-148.041188,1302.362347
4078.849474,-9992.780217,-666.185348,995.924147
4078.849804,-9178.553681,-666.185348,383.047749
4078.850134,-8956.491898,-740.205942,689.485948
4078.850464,-9474.636058,-296.082377,766.095498
4078.850793,-9844.739029,-74.020594,229.828649
4078.851123,-10066.800811,0.000000,-459.657299
4078.851453,-9474.636058,74.020594,76.609550
4078.851783,-10214.842000,-74.020594,306.438199
4078.852113,-9918.759623,0.000000,0.000000
4078.852443,-9326.594869,-592.164754,-229.828649
4078.852773,-9474.636058,0.000000,-306.438199
4078.853103,-9326.594869,0.000000,306.438199
4078.853433,-9770.718434,0.000000,0.000000
4078.853762,-9696.697840,0.000000,153.219100
4078.854092,-10288.862594,0.000000,0.000000
4078.854422,-9844.739029,296.082377,919.314598
4078.854752,-9844.739029,0.000000,766.095498
4078.855082,-9696.697840,0.000000,306.438199
4078.855412,-10066.800811,-148.041188,0.000000
4078.855742,-9474.636058,-74.020594,536.266849
4078.856072,-9400.615463,0.000000,612.876398
4078.856402,-9918.759623,222.061783,229.828649
4078.856731,-9770.718434,74.020594,-153.219100
4078.857061,-10140.821405,296.082377,0.000000
4078.857391,-9622.677246,444.123565,76.609550
4078.857721,-10140.821405,148.041188,-153.219100
4078.858051,-10066.800811,222.061783,-383.047749
4078.858381,-9770.718434,-74.020594,76.609550
4078.858711,-9474.636058,148.041188,536.266849
4078.859041,-9400.615463,0.000000,842.705048
4078.859371,-9844.739029,370.102971,153.219100
4078.859700,-10288.862594,0.000000,-536.266849
4078.860030,-9844.739029,0.000000,-995.924147
4078.860360,-9326.594869,0.000000,383.047749
4078.860690,-9844.739029,74.020594,1149.143247
4078.861020,-9770.718434,518.144159,612.876398
4078.861350,-9918.759623,444.123565,0.000000
4078.861680,-9548.656652,296.082377,-459.657299
4078.862010,-9548.656652,-370.102971,-612.876398
4078.862340,-10140.821405,518.144159,-153.219100
4078.862669,-9918.759623,0.000000,-306.438199
4078.862999,-9696.697840,444.123565,-383.047749
4078.863329,-9104.533087,148.041188,536.266849
4078.863659,-9548.656652,74.020594,383.047749
4078.863989,-9918.759623,0.000000,0.000000
4078.864319,-10510.924376,370.102971,459.657299
4078.864649,-10214.842000,370.102971,766.095498
4078.864979,-10510.924376,0.000000,1455.581446
4078.865308,-10140.821405,0.000000,612.876398
4078.865638,-9622.677246,-148.041188,-229.828649
4078.865968,-9326.594869,-148.041188,-689.485948
4078.866298,-8734.430116,0.000000,-153.219100
4078.866628,-9326.594869,74.020594,0.000000
4078.866958,-9474.636058,444.123565,153.219100
4078.867288,-10362.883188,592.164754,76.609550
4078.867618,-10288.862594,148.041188,306.438199
4078.867948,-10436.903782,-148.041188,229.828649
4078.868277,-10362.883188,-148.041188,229.828649
4078.868607,-9622.677246,-740.205942,153.219100
4078.868937,-8808.450710,-444.123565,459.657299
4078.869267,-8586.388927,-296.082377,1455.581446
4078.869597,-9844.739029,0.000000,1532.190996
4078.869927,-10288.862594,148.041188,1685.410096
4078.870257,-10658.965565,148.041188,306.438199
4078.870587,-9474.636058,0.000000,536.266849
4078.870917,-9400.615463,0.000000,842.705048
4078.871246,-9474.636058,-222.061783,459.657299
4078.871576,-9548.656652,-222.061783,0.000000
4078.871906,-9622.677246,296.082377,0.000000
4078.872236,-9622.677246,0.000000,229.828649
4078.872566,-10510.924376,0.000000,0.000000
4078.872896,-10584.944971,-148.041188,229.828649
4078.873226,-10436.903782,148.041188,229.828649
4078.873556,-9252.574275,-296.082377,919.314598
4078.873886,-9252.574275,-148.041188,383.047749
4078.874215,-9474.636058,0.000000,459.657299
4078.874545,-9844.739029,0.000000,383.047749
4078.874875,-9844.739029,148.041188,306.438199
4078.875205,-9400.615463,222.061783,536.266849
4078.875535,-10140.821405,370.102971,1149.143247
4078.875865,-10510.924376,148.041188,76.609550
4078.876195,-10584.944971,0.000000,0.000000
4078.876525,-9400.615463,-222.061783,0.000000
4078.876855,-9770.718434,0.000000,0.000000
4078.877184,-9548.656652,-296.082377,0.000000
4078.877514,-9844.739029,-148.041188,229.828649
4078.877844,-9844.739029,222.061783,459.657299
4078.878174,-9770.718434,296.082377,919.314598
4078.878504,-9770.718434,74.020594,306.438199
4078.878834,-9696.697840,74.020594,153.219100
4078.879164,-10140.821405,0.000000,383.047749
4078.879494,-10214.842000,0.000000,766.095498
4078.879823,-9918.759623,-74.020594,-766.095498
4078.880153,-9548.656652,-444.123565,0.000000
4078.880483,-9104.533087,-444.123565,-995.924147
4078.880813,-8808.450710,-222.061783,-459.657299
4078.881143,-8734.430116,-296.082377,383.047749
4078.881473,-9548.656652,-296.082377,306.438199
4078.881803,-9844.739029,-444.123565,536.266849
4078.882133,-10362.883188,-370.102971,919.314598
4078.882463,-9622.677246,-592.164754,1072.533697
4078.882792,-9474.636058,-222.061783,766.095498
4078.883122,-9548.656652,-444.123565,153.219100
4078.883452,-9992.780217,0.000000,0.000000
4078.883782,-9400.615463,296.082377,0.000000
4078.884112,-9696.697840,148.041188,-153.219100
4078.884442,-10140.821405,296.082377,-229.828649
4078.884772,-10140.821405,296.082377,-612.876398
4078.885102,-10066.800811,518.144159,-1072.533697
4078.885432,-9400.615463,222.061783,-459.657299
4078.885761,-9400.615463,296.082377,76.609550
4078.886091,-10214.842000,296.082377,76.609550
4078.886421,-10288.862594,444.123565,459.657299
4078.886751,-9696.697840,518.144159,1072.533697
4078.887081,-10214.842000,370.102971,919.314598
4078.887411,-10658.965565,518.144159,153.219100
4078.887741,-10584.944971,296.082377,-76.609550
4078.888071,-9844.739029,518.144159,0.000000
4078.888401,-9400.615463,296.082377,0.000000
4078.888730,-9844.739029,370.102971,153.219100
4078.889060,-9844.739029,296.082377,-229.828649
4078.889390,-9770.718434,444.123565,-612.876398
4078.889720,-9252.574275,222.061783,-842.705048
4078.890050,-9844.739029,74.020594,0.000000
4078.890380,-9918.759623,0.000000,919.314598
4078.890710,-9548.656652,0.000000,306.438199
4078.891040,-9992.780217,222.061783,383.047749
4078.891370,-9474.636058,74.020594,306.438199
4078.891699,-9696.697840,666.185348,0.000000
4078.892029,-9844.739029,592.164754,-229.828649
4078.892359,-9844.739029,148.041188,-306.438199
4078.892689,-9622.677246,0.000000,0.000000
4078.893019,-9622.677246,296.082377,383.047749
4078.893349,-9844.739029,0.000000,459.657299
4078.893679,-9326.594869,0.000000,-76.609550
4078.894009,-8956.491898,74.020594,-306.438199
4078.894338,-8660.409521,148.041188,-306.438199
4078.894668,-9844.739029,666.185348,76.609550
4078.894998,-10510.924376,222.061783,536.266849
4078.895328,-10436.903782,296.082377,306.438199
4078.895658,-9474.636058,148.041188,919.314598
4078.895988,-9844.739029,0.000000,536.266849
4078.896318,-9474.636058,0.000000,0.000000
4078.896648,-9992.780217,0.000000,0.000000
4078.896978,-9844.739029,296.082377,153.219100
4078.897307,-9622.677246,-74.020594,612.876398
4078.897637,-9918.759623,296.082377,1225.752797
4078.897967,-10066.800811,-74.020594,1072.533697
4078.898297,-9844.739029,-296.082377,383.047749
4078.898627,-8734.430116,148.041188,229.828649
4078.898957,-9252.574275,-222.061783,229.828649
4078.899287,-9696.697840,0.000000,459.657299
4078.899617,-10140.821405,0.000000,459.657299
4078.899947,-9770.718434,0.000000,-153.219100
4078.900276,-9770.718434,-222.061783,766.095498
4078.900606,-9696.697840,222.061783,842.705048
4078.900936,-10214.842000,-148.041188,306.438199
4078.901266,-9918.759623,-74.020594,229.828649
4078.901596,-9030.512492,74.020594,612.876398
4078.901926,-10066.800811,0.000000,689.485948
4078.902256,-10362.883188,0.000000,0.000000
4078.902586,-10362.883188,296.082377,-383.047749
4078.902916,-9474.636058,148.041188,0.000000
4078.903245,-9326.594869,-148.041188,153.219100
4078.903575,-10066.800811,592.164754,229.828649
4078.903905,-10510.924376,0.000000,0.000000
4078.904235,-9696.697840,-222.061783,-689.485948
4078.904565,-9474.636058,-518.144159,0.000000
4078.904895,-9770.718434,-814.226536,842.705048
4078.905225,-9696.697840,-740.205942,1072.533697
4078.905555,-9400.615463,-888.247130,1225.752797
4078.905885,-8586.388927,-666.185348,153.219100
4078.906214,-9030.512492,-518.144159,842.705048
4078.906544,-10288.862594,-296.082377,1072.533697
4078.906874,-10807.006753,-444.123565,1302.362347
4078.907204,-9918.759623,0.000000,536.266849
4078.907534,-9030.512492,-666.185348,1072.533697
4078.907864,-8956.491898,-296.082377,-153.219100
4078.908194,-9918.759623,-222.061783,-689.485948
4078.908524,-10140.821405,0.000000,-1149.143247
4078.908853,-9992.780217,0.000000,-459.657299
4078.909183,-9474.636058,222.061783,0.000000
4078.909513,-9622.677246,74.020594,383.047749
4078.909843,-9622.677246,0.000000,0.000000
4078.910173,-9696.697840,444.123565,0.000000
4078.910503,-9474.636058,-74.020594,-306.438199
4078.910833,-9992.780217,0.000000,-383.047749
4078.911163,-10436.903782,222.061783,306.438199
4078.911493,-9548.656652,148.041188,612.876398
4078.911822,-9104.533087,0.000000,306.438199
4078.912152,-9548.656652,0.000000,0.000000
4078.912482,-9548.656652,222.061783,0.000000
4078.912812,-9474.636058,148.041188,153.219100
4078.913142,-9844.739029,222.061783,383.047749
4078.913472,-9696.697840,74.020594,995.924147
4078.913802,-10362.883188,296.082377,383.047749
4078.914132,-9548.656652,0.000000,-995.924147
4078.914462,-9622.677246,74.020594,-919.314598
4078.914791,-9104.533087,0.000000,76.609550
4078.915121,-9548.656652,148.041188,766.095498
4078.915451,-9992.780217,888.247130,842.705048
4078.915781,-10214.842000,592.164754,306.438199
4078.916111,-9918.759623,962.267725,-306.438199
4078.916441,-9696.697840,370.102971,-459.657299
4078.916771,-9992.780217,666.185348,-612.876398
4078.917101,-9474.636058,370.102971,-306.438199
4078.917431,-10288.862594,740.205942,0.000000
4078.917760,-9474.636058,444.123565,153.219100
4078.918090,-9844.739029,296.082377,766.095498
4078.918420,-9844.739029,592.164754,0.000000
4078.918750,-10140.821405,74.020594,76.609550
4078.919080,-9770.718434,888.247130,383.047749
4078.919410,-9770.718434,296.082377,612.876398
4078.919740,-9918.759623,740.205942,306.438199
4078.920070,-9918.759623,222.061783,0.000000
4078.920400,-10362.883188,592.164754,-459.657299
4078.920729,-9622.677246,222.061783,0.000000
4078.921059,-9474.636058,592.164754,0.000000
4078.921389,-9326.594869,0.000000,459.657299
4078.921719,-10140.821405,370.102971,153.219100
4078.922049,-9992.780217,444.123565,0.000000
4078.922379,-10066.800811,0.000000,306.438199
4078.922709,-9844.739029,0.000000,-306.438199
4078.923039,-10140.821405,0.000000,-383.047749
4078.923368,-9844.739029,-222.061783,0.000000
4078.923698,-9474.636058,-296.082377,459.657299
4078.924028,-9474.636058,-74.020594,766.095498
4078.924358,-9326.594869,-222.061783,919.314598
4078.924688,-10140.821405,0.000000,766.095498
4078.925018,-9548.656652,444.123565,612.876398
4078.925348,-9992.780217,740.205942,536.266849
4078.925678,-10362.883188,-666.185348,-76.609550
4078.926008,-9992.780217,-962.267725,-766.095498
4078.926337,-9474.636058,-370.102971,229.828649
4078.926667,-8882.471304,-296.082377,383.047749
4078.926997,-9104.533087,-148.041188,229.828649
4078.927327,-9548.656652,-444.123565,766.095498
4078.927657,-10140.821405,-444.123565,612.876398
4078.927987,-10140.821405,0.000000,459.657299
4078.928317,-10214.842000,-222.061783,383.047749
4078.928647,-9992.780217,-296.082377,1149.143247
4078.928977,-9696.697840,-370.102971,842.705048
4078.929306,-10214.842000,-444.123565,689.485948
4078.929636,-9400.615463,-740.205942,306.438199
4078.929966,-9104.533087,0.000000,-153.219100
4078.930296,-9770.718434,-148.041188,-383.047749
4078.930626,-10140.821405,-296.082377,76.609550
4078.930956,-9548.656652,0.000000,689.485948
4078.931286,-9770.718434,444.123565,919.314598
4078.931616,-10436.903782,-148.041188,306.438199
4078.931945,-10510.924376,148.041188,-229.828649
4078.932275,-10066.800811,74.020594,-612.876398
4078.932605,-8882.471304,0.000000,-383.047749
4078.932935,-9770.718434,148.041188,919.314598
4078.933265,-9992.780217,296.082377,536.266849
4078.933594,-10658.965565,222.061783,0.000000
4078.933924,-9918.759623,296.082377,0.000000
4078.934254,-9770.718434,0.000000,-153.219100
4078.934584,-9992.780217,222.061783,229.828649
4078.934914,-9992.780217,-444.123565,153.219100
4078.935244,-9918.759623,148.041188,76.609550
4078.935573,-9252.574275,-444.123565,612.876398
4078.935903,-9770.718434,222.061783,229.828649
4078.936233,-10140.821405,370.102971,536.266849
4078.936563,-10066.800811,444.123565,-383.047749
4078.936893,-9178.553681,592.164754,459.657299
4078.937223,-9474.636058,0.000000,842.705048
4078.937552,-9992.780217,370.102971,766.095498
4078.937882,-9844.739029,0.000000,306.438199
4078.938212,-9474.636058,370.102971,-383.047749
4078.938542,-9104.533087,0.000000,-689.485948
4078.938872,-9178.553681,444.123565,-612.876398
4078.939202,-9844.739029,0.000000,0.000000
4078.939531,-10066.800811,370.102971,459.657299
4078.939861,-9104.533087,-148.041188,919.314598
4078.940191,-9400.615463,370.102971,842.705048
4078.940521,-9474.636058,666.185348,229.828649
4078.940851,-10066.800811,592.164754,-459.657299
4078.941181,-10214.842000,518.144159,-306.438199
4078.941510,-10288.862594,518.144159,229.828649
4078.941840,-10214.842000,666.185348,383.047749
4078.942170,-9992.780217,444.123565,766.095498
4078.942500,-10066.800811,592.164754,-383.047749
4078.942830,-8808.450710,592.164754,-76.609550
4078.943159,-9252.574275,148.041188,-536.266849
4078.943489,-9770.718434,296.082377,-536.266849
4078.943819,-10140.821405,444.123565,-383.047749
4078.944149,-9918.759623,740.205942,0.000000
4078.944479,-9400.615463,370.102971,229.828649
4078.944809,-9474.636058,814.226536,0.000000
4078.945138,-9992.780217,148.041188,0.000000
4078.945468,-10584.944971,518.144159,0.000000
4078.945798,-9992.780217,740.205942,1302.362347
4078.946128,-10658.965565,222.061783,1225.752797
4078.946458,-10140.821405,222.061783,612.876398
4078.946788,-9770.718434,296.082377,-612.876398
4078.947117,-9622.677246,222.061783,-689.485948
4078.947447,-9474.636058,-222.061783,-306.438199
4078.947777,-9548.656652,148.041188,-76.609550
4078.948107,-9622.677246,-296.082377,76.609550
4078.948437,-9770.718434,74.020594,459.657299
4078.948767,-9548.656652,296.082377,689.485948
4078.949096,-10658.965565,0.000000,612.876398
4078.949426,-10658.965565,-370.102971,153.219100
4078.949756,-10214.842000,-592.164754,689.485948
4078.950086,-9178.553681,-296.082377,919.314598
4078.950416,-8882.471304,-296.082377,1149.143247
4078.950746,-9326.594869,148.041188,766.095498
4078.951075,-9696.697840,0.000000,536.266849
4078.951405,-10362.883188,222.061783,-383.047749
4078.951735,-10436.903782,-148.041188,-153.219100
4078.952065,-10436.903782,-370.102971,0.000000
4078.952395,-9400.615463,-666.185348,0.000000
4078.952724,-8808.450710,-888.247130,-76.609550
4078.953054,-9252.574275,-148.041188,0.000000
4078.953384,-9548.656652,-740.205942,229.828649
4078.953714,-9992.780217,-370.102971,842.705048
4078.954044,-10066.800811,-740.205942,1149.143247
4078.954374,-10288.862594,0.000000,1378.971896
4078.954703,-9770.718434,-444.123565,1762.019645
4078.955033,-9696.697840,-444.123565,1149.143247
4078.955363,-8882.471304,-814.226536,229.828649
4078.955693,-9770.718434,148.041188,0.000000
4078.956023,-9252.574275,-222.061783,-306.438199
4078.956353,-9770.718434,0.000000,153.219100
4078.956682,-9918.759623,296.082377,229.828649
4078.957012,-10510.924376,-222.061783,306.438199
4078.957342,-9844.739029,0.000000,153.219100
4078.957672,-9252.574275,-592.164754,536.266849
4078.958002,-9770.718434,-370.102971,689.485948
4078.958332,-9474.636058,-444.123565,459.657299
4078.958661,-9696.697840,-222.061783,459.657299
4078.958991,-9400.615463,-296.082377,229.828649
4078.959321,-9770.718434,0.000000,1149.143247
4078.959651,-10140.821405,296.082377,1072.533697
4078.959981,-10658.965565,74.020594,536.266849
4078.960311,-9474.636058,74.020594,0.000000
4078.960640,-9104.533087,0.000000,153.219100
4078.960970,-9400.615463,296.082377,383.047749
4078.961300,-10214.842000,0.000000,306.438199
4078.961630,-9992.780217,74.020594,-306.438199
4078.961960,-9326.594869,0.000000,-766.095498
4078.962289,-9474.636058,370.102971,-766.095498
4078.962619,-9548.656652,222.061783,-612.876398
4078.962949,-9770.718434,0.000000,0.000000
4078.963279,-9474.636058,592.164754,536.266849
4078.963609,-9844.739029,370.102971,689.485948
4078.963939,-10214.842000,444.123565,689.485948
4078.964268,-10362.883188,148.041188,-76.609550
4078.964598,-9770.718434,222.061783,-612.876398
4078.964928,-9104.533087,0.000000,153.219100
4078.965258,-9770.718434,370.102971,1072.533697
4078.965588,-9992.780217,222.061783,919.314598
4078.965918,-10584.944971,0.000000,0.000000
4078.966247,-9622.677246,222.061783,0.000000
4078.966577,-9326.594869,148.041188,-689.485948
4078.966907,-9770.718434,444.123565,-383.047749
4078.967237,-9474.636058,148.041188,0.000000
4078.967567,-9696.697840,296.082377,0.000000
4078.967897,-9326.594869,148.041188,0.000000
4078.968226,-9474.636058,740.205942,-76.609550
4078.968556,-9622.677246,222.061783,-229.828649
4078.968886,-10732.986159,296.082377,76.609550
4078.969216,-9918.759623,222.061783,0.000000
4078.969546,-9252.574275,148.041188,229.828649
4078.969876,-9252.574275,0.000000,153.219100
4078.970205,-9474.636058,0.000000,459.657299
4078.970535,-10140.821405,592.164754,0.000000
4078.970865,-9474.636058,370.102971,76.609550
4078.971195,-10066.800811,444.123565,612.876398
4078.971525,-9992.780217,74.020594,536.266849
4078.971854,-10510.924376,0.000000,536.266849
4078.972184,-9770.718434,0.000000,459.657299
4078.972514,-9622.677246,-296.082377,536.266849
4078.972844,-9770.718434,444.123565,383.047749
4078.973174,-9918.759623,74.020594,-153.219100
4078.973504,-10066.800811,222.061783,-689.485948
4078.973833,-9252.574275,148.041188,-383.047749
4078.974163,-9770.718434,518.144159,76.609550
4078.974493,-9844.739029,-148.041188,76.609550
4078.974823,-10066.800811,-74.020594,76.609550
4078.975153,-8512.368333,0.000000,-536.266849
4078.975483,-9252.574275,-148.041188,383.047749
4078.975812,-10214.842000,222.061783,0.000000
4078.976142,-10436.903782,-296.082377,-153.219100
4078.976472,-9844.739029,444.123565,153.219100
4078.976802,-8956.491898,-74.020594,689.485948
4078.977132,-10288.862594,222.061783,612.876398
4078.977462,-9844.739029,-148.041188,612.876398
4078.977791,-10140.821405,74.020594,0.000000
4078.978121,-9400.615463,518.144159,76.609550
4078.978451,-9770.718434,0.000000,612.876398
4078.978781,-9992.780217,296.082377,-612.876398
4078.979111,-9622.677246,0.000000,-229.828649
4078.979441,-9474.636058,296.082377,-383.047749
4078.979770,-9104.533087,-444.123565,0.000000
4078.980100,-10140.821405,444.123565,0.000000
4078.980430,-10214.842000,148.041188,842.705048
4078.980760,-10955.047942,370.102971,229.828649
4078.981090,-9474.636058,-296.082377,995.924147
4078.981420,-9844.739029,-518.144159,1072.533697
4078.981749,-9326.594869,-296.082377,689.485948
4078.982079,-9474.636058,-592.164754,306.438199
4078.982409,-9474.636058,296.082377,0.000000
4078.982739,-9400.615463,-592.164754,459.657299
4078.983069,-10658.965565,518.144159,536.266849
4078.983398,-10140.821405,-148.041188,76.609550
4078.983728,-9918.759623,-740.205942,-842.705048
4078.984058,-8512.368333,-296.082377,76.609550
4078.984388,-9252.574275,-74.020594,459.657299
4078.984718,-9770.718434,296.082377,153.219100
4078.985048,-9844.739029,0.000000,-383.047749
4078.985377,-10066.800811,148.041188,229.828649
4078.985707,-9844.739029,0.000000,536.266849
4078.986037,-10066.800811,296.082377,306.438199
4078.986367,-9326.594869,-592.164754,306.438199
4078.986697,-9030.512492,-222.061783,612.876398
4078.987027,-9104.533087,74.020594,1149.143247
4078.987356,-10362.883188,0.000000,995.924147
4078.987686,-10066.800811,0.000000,0.000000
4078.988016,-9844.739029,0.000000,-766.095498
4078.988346,-9770.718434,740.205942,0.000000
4078.988676,-10140.821405,444.123565,153.219100
4078.989006,-9992.780217,740.205942,153.219100
4078.989335,-9400.615463,0.000000,-306.438199
4078.989665,-10066.800811,444.123565,-229.828649
4078.989995,-9548.656652,-222.061783,459.657299
4078.990325,-10214.842000,74.020594,766.095498
4078.990655,-9696.697840,0.000000,1225.752797
4078.990985,-9696.697840,0.000000,153.219100
4078.991314,-9622.677246,0.000000,0.000000
4078.991644,-9770.718434,-296.082377,459.657299
4078.991974,-9548.656652,148.041188,766.095498
4078.992304,-9696.697840,74.020594,689.485948
4078.992634,-10066.800811,518.144159,536.266849
4078.992963,-9474.636058,0.000000,536.266849
4078.993293,-9770.718434,-296.082377,-306.438199
4078.993623,-9474.636058,-222.061783,-459.657299
4078.993953,-9844.739029,-370.102971,-536.266849
4078.994283,-9104.533087,-222.061783,76.609550
4078.994613,-8586.388927,-222.061783,0.000000
4078.994942,-8808.450710,148.041188,612.876398
4078.995272,-10066.800811,-296.082377,229.828649
4078.995602,-10584.944971,444.123565,383.047749
4078.995932,-9548.656652,-148.041188,766.095498
4078.996262,-10362.883188,74.020594,1149.143247
4078.996592,-10140.821405,0.000000,995.924147
4078.996921,-10362.883188,-74.020594,0.000000
4078.997251,-8734.430116,-370.102971,-766.095498
4078.997581,-8512.368333,0.000000,-306.438199
4078.997911,-9548.656652,666.185348,306.438199
4078.998241,-10658.965565,592.164754,383.047749
4078.998571,-10436.903782,740.205942,229.828649
4078.998900,-9474.636058,148.041188,612.876398
4078.999230,-9770.718434,-148.041188,229.828649
4078.999560,-9622.677246,-148.041188,-459.657299
4078.999890,-9474.636058,0.000000,-229.828649
4079.000220,-8808.450710,0.000000,229.828649
4079.000550,-9474.636058,148.041188,919.314598
4079.000879,-10288.862594,592.164754,1072.533697
4079.001209,-10658.965565,148.041188,0.000000
4079.001539,-10066.800811,518.144159,0.000000
4079.001869,-9400.615463,0.000000,229.828649
4079.002199,-9696.697840,296.082377,383.047749
4079.002528,-9696.697840,0.000000,0.000000
4079.002858,-9400.615463,0.000000,0.000000
4079.003188,-8734.430116,-222.061783,0.000000
4079.003518,-9474.636058,148.041188,766.095498
4079.003848,-9992.780217,222.061783,229.828649
4079.004178,-10732.986159,222.061783,842.705048
4079.004507,-10066.800811,370.102971,995.924147
4079.004837,-9400.615463,-222.061783,1532.190996
4079.005167,-9992.780217,0.000000,1072.533697
4079.005497,-10214.842000,-592.164754,153.219100
4079.005827,-10214.842000,0.000000,0.000000
4079.006157,-9030.512492,-592.164754,-306.438199
4079.006486,-9030.512492,0.000000,-76.609550
4079.006816,-9252.574275,0.000000,0.000000
4079.007146,-9770.718434,-148.041188,229.828649
4079.007476,-9474.636058,222.061783,842.705048
4079.007806,-9770.718434,0.000000,995.924147
4079.008136,-10214.842000,518.144159,0.000000
4079.008465,-10140.821405,-814.226536,153.219100
4079.008795,-9844.739029,-518.144159,0.000000
4079.009125,-8882.471304,-666.185348,229.828649
4079.009455,-9400.615463,-370.102971,459.657299
4079.009785,-9918.759623,222.061783,306.438199
4079.010115,-10214.842000,0.000000,229.828649
4079.010444,-9622.677246,370.102971,229.828649
4079.010774,-9918.759623,-222.061783,536.266849
4079.011104,-10436.903782,0.000000,306.438199
4079.011434,-9844.739029,-370.102971,306.438199
4079.011764,-9474.636058,-148.041188,0.000000
4079.012093,-8660.409521,-592.164754,0.000000
4079.012423,-9474.636058,74.020594,0.000000
4079.012753,-10288.862594,222.061783,76.609550
4079.013083,-10881.027347,296.082377,76.609550
4079.013413,-9918.759623,444.123565,0.000000
4079.013743,-9474.636058,-592.164754,459.657299
4079.014072,-9918.759623,0.000000,536.266849
4079.014402,-9770.718434,0.000000,612.876398
4079.014732,-9844.739029,296.082377,-229.828649
4079.015062,-9104.533087,-518.144159,-612.876398
4079.015392,-9622.677246,222.061783,-536.266849
4079.015722,-9844.739029,74.020594,0.000000
4079.016051,-10732.986159,222.061783,536.266849
4079.016381,-9548.656652,148.041188,689.485948
4079.016711,-9326.594869,74.020594,1149.143247
4079.017041,-9622.677246,222.061783,766.095498
4079.017371,-10436.903782,296.082377,153.219100
4079.017701,-10436.903782,370.102971,-383.047749
4079.018030,-9474.636058,74.020594,-612.876398
4079.018360,-9326.594869,296.082377,-153.219100
4079.018690,-9326.594869,222.061783,76.609550
4079.019020,-9696.697840,370.102971,306.438199
4079.019350,-9400.615463,518.144159,383.047749
4079.019680,-9548.656652,148.041188,689.485948
4079.020009,-10214.842000,370.102971,459.657299
4079.020339,-10510.924376,222.061783,306.438199
4079.020669,-10362.883188,444.123565,0.000000
4079.020999,-9474.636058,-370.102971,153.219100
4079.021329,-9474.636058,74.020594,0.000000
4079.021658,-9326.594869,0.000000,229.828649
4079.021988,-9474.636058,222.061783,76.609550
4079.022318,-9030.512492,370.102971,153.219100
4079.022648,-10066.800811,592.164754,459.657299
4079.022978,-10214.842000,370.102971,153.219100
4079.023308,-10510.924376,444.123565,0.000000
4079.023637,-9474.636058,222.061783,0.000000
4079.023967,-9252.574275,-296.082377,-383.047749
4079.024297,-9548.656652,296.082377,-153.219100
4079.024627,-9696.697840,0.000000,-383.047749
4079.024957,-10140.821405,592.164754,-612.876398
4079.025287,-9104.533087,518.144159,306.438199
4079.025616,-9918.759623,222.061783,842.705048
4079.025946,-10066.800811,518.144159,689.485948
4079.026276,-10140.821405,-74.020594,76.609550
4079.026606,-10066.800811,-74.020594,229.828649
4079.026936,-9400.615463,-666.185348,153.219100
4079.027266,-9992.780217,148.041188,459.657299
4079.027595,-9548.656652,-296.082377,153.219100
4079.027925,-9770.718434,222.061783,-459.657299
4079.028255,-9918.759623,74.020594,612.876398
4079.028585,-10436.903782,74.020594,1149.143247
4079.028915,-10140.821405,0.000000,1378.971896
4079.029245,-10362.883188,-370.102971,229.828649
4079.029574,-9622.677246,74.020594,76.609550
4079.029904,-9178.553681,-592.164754,689.485948
4079.030234,-9696.697840,0.000000,229.828649
4079.030564,-9696.697840,-296.082377,-383.047749
4079.030894,-9844.739029,0.000000,229.828649
4079.031223,-9400.615463,0.000000,1072.533697
4079.031553,-10140.821405,0.000000,1378.971896
4079.031883,-9918.759623,-222.061783,766.095498
4079.032213,-9770.718434,-444.123565,0.000000
4079.032542,-9548.656652,0.000000,-153.219100
4079.032872,-9474.636058,-518.144159,0.000000
4079.033202,-9844.739029,222.061783,919.314598
4079.033532,-9844.739029,-296.082377,459.657299
4079.033862,-10436.903782,518.144159,383.047749
4079.034191,-9326.594869,148.041188,459.657299
4079.034521,-10140.821405,0.000000,-383.047749
4079.034851,-9622.677246,74.020594,-459.657299
4079.035181,-10066.800811,-370.102971,-536.266849
4079.035510,-9696.697840,0.000000,76.609550
4079.035840,-9770.718434,-666.185348,612.876398
4079.036170,-9918.759623,518.144159,0.000000
4079.036500,-9548.656652,0.000000,-153.219100
4079.036830,-10140.821405,74.020594,-306.438199
4079.037159,-9548.656652,0.000000,459.657299
4079.037489,-9992.780217,148.041188,306.438199
4079.037819,-9548.656652,0.000000,-153.219100
4079.038149,-10214.842000,0.000000,-766.095498
4079.038478,-9104.533087,-296.082377,-919.314598
4079.038808,-8956.491898,-296.082377,-612.876398
4079.039138,-9252.574275,148.041188,76.609550
4079.039468,-9622.677246,0.000000,76.609550
4079.039798,-9918.759623,0.000000,612.876398
4079.040127,-9770.718434,-222.061783,1149.143247
4079.040457,-10362.883188,0.000000,153.219100
4079.040787,-9918.759623,0.000000,0.000000
4079.041117,-10066.800811,0.000000,0.000000
4079.041447,-9474.636058,296.082377,1149.143247
4079.041776,-9178.553681,74.020594,1149.143247
4079.042106,-9548.656652,222.061783,459.657299
4079.042436,-10066.800811,518.144159,0.000000
4079.042766,-10362.883188,592.164754,153.219100
4079.043095,-9992.780217,0.000000,153.219100
4079.043425,-10066.800811,0.000000,459.657299
4079.043755,-9400.615463,0.000000,612.876398
4079.044085,-9400.615463,0.000000,459.657299
4079.044415,-9030.512492,222.061783,306.438199
4079.044744,-9622.677246,0.000000,919.314598
4079.045074,-10436.903782,814.226536,842.705048
4079.045404,-10955.047942,222.061783,1225.752797
4079.045734,-10732.986159,518.144159,1302.362347
4079.046063,-9844.739029,0.000000,1302.362347
4079.046393,-9474.636058,0.000000,229.828649
4079.046723,-9030.512492,-74.020594,-306.438199
4079.047053,-9474.636058,370.102971,-536.266849
4079.047383,-9474.636058,518.144159,153.219100
4079.047712,-10140.821405,666.185348,76.609550
4079.048042,-10288.862594,740.205942,536.266849
4079.048372,-10732.986159,518.144159,0.000000
4079.048702,-9992.780217,518.144159,383.047749
4079.049031,-9252.574275,0.000000,995.924147
4079.049361,-9548.656652,222.061783,536.266849
4079.049691,-9030.512492,0.000000,153.219100
4079.050021,-9918.759623,518.144159,229.828649
4079.050351,-9696.697840,222.061783,-229.828649
4079.050680,-10066.800811,370.102971,-689.485948
4079.051010,-10584.944971,370.102971,-153.219100
4079.051340,-10584.944971,-666.185348,153.219100
4079.051670,-9622.677246,0.000000,995.924147
4079.051999,-9104.533087,-370.102971,1302.362347
4079.052329,-9326.594869,0.000000,76.609550
4079.052659,-9770.718434,-74.020594,-536.266849
4079.052989,-10214.842000,296.082377,-1072.533697
4079.053319,-9770.718434,0.000000,-689.485948
4079.053648,-9326.594869,148.041188,0.000000
4079.053978,-9548.656652,0.000000,229.828649
4079.054308,-10066.800811,-444.123565,76.609550
4079.054638,-9400.615463,-370.102971,229.828649
4079.054968,-9326.594869,-814.226536,383.047749
4079.055297,-9326.594869,-296.082377,0.000000
4079.055627,-9400.615463,-222.061783,-229.828649
4079.055957,-9918.759623,0.000000,0.000000
4079.056287,-9474.636058,0.000000,76.609550
4079.056616,-9474.636058,0.000000,0.000000
4079.056946,-9770.718434,222.061783,-153.219100
4079.057276,-10510.924376,0.000000,-995.924147
4079.057606,-9770.718434,0.000000,0.000000
4079.057936,-9400.615463,-592.164754,306.438199
4079.058265,-9918.759623,74.020594,0.000000
4079.058595,-9474.636058,-518.144159,0.000000
4079.058925,-9400.615463,0.000000,76.609550
4079.059255,-9178.553681,0.000000,612.876398
4079.059584,-10288.862594,666.185348,919.314598
4079.059914,-10436.903782,518.144159,459.657299
4079.060244,-10362.883188,592.164754,0.000000
4079.060574,-9696.697840,814.226536,459.657299
4079.060904,-10658.965565,1036.288319,766.095498
4079.061233,-10881.027347,444.123565,0.000000
4079.061563,-10066.800811,0.000000,-842.705048
4079.061893,-9622.677246,592.164754,-536.266849
4079.062223,-9030.512492,0.000000,0.000000
4079.062552,-10140.821405,370.102971,766.095498
4079.062882,-9696.697840,296.082377,1072.533697
4079.063212,-9992.780217,296.082377,612.876398
4079.063542,-9548.656652,222.061783,0.000000
4079.063872,-9918.759623,-296.082377,536.266849
4079.064201,-9918.759623,-370.102971,766.095498
4079.064531,-9178.553681,-518.144159,612.876398
4079.064861,-8882.471304,-222.061783,689.485948
4079.065191,-8882.471304,-444.123565,995.924147
4079.065521,-9252.574275,0.000000,919.314598
4079.065850,-9548.656652,148.041188,689.485948
4079.066180,-10140.821405,370.102971,612.876398
4079.066510,-9400.615463,518.144159,995.924147
4079.066840,-9918.759623,0.000000,1072.533697
4079.067169,-9844.739029,148.041188,459.657299
4079.067499,-10362.883188,0.000000,-229.828649
4079.067829,-9474.636058,0.000000,-76.609550
4079.068159,-8734.430116,-518.144159,0.000000
4079.068489,-8956.491898,0.000000,229.828649
4079.068818,-9400.615463,962.267725,1072.533697
4079.069148,-10807.006753,888.247130,1072.533697
4079.069478,-10955.047942,1036.288319,689.485948
4079.069808,-10732.986159,222.061783,-229.828649
4079.070137,-10436.903782,0.000000,-1149.143247
4079.070467,-9844.739029,-296.082377,-919.314598
4079.070797,-8808.450710,-592.164754,0.000000
4079.071127,-8438.347739,-444.123565,153.219100
4079.071457,-8660.409521,296.082377,-536.266849
4079.071786,-9104.533087,370.102971,-536.266849
4079.072116,-10066.800811,1036.288319,0.000000
4079.072446,-10807.006753,740.205942,0.000000
4079.072776,-11251.130318,592.164754,689.485948
4079.073105,-10362.883188,0.000000,689.485948
4079.073435,-10436.903782,-222.061783,842.705048
4079.073765,-9474.636058,-148.041188,0.000000
4079.074095,-8586.388927,-592.164754,-612.876398
4079.074425,-9252.574275,222.061783,-842.705048
4079.074754,-9548.656652,370.102971,-153.219100
4079.075084,-9918.759623,666.185348,383.047749
4079.075414,-10140.821405,740.205942,1149.143247
4079.075744,-10955.047942,518.144159,919.314598
4079.076073,-10140.821405,0.000000,76.609550
4079.076403,-9918.759623,-148.041188,-536.266849
4079.076733,-9030.512492,0.000000,-306.438199
4079.077063,-9400.615463,-666.185348,459.657299
4079.077393,-9844.739029,222.061783,76.609550
4079.077722,-9400.615463,0.000000,-306.438199
4079.078052,-10214.842000,592.164754,76.609550
4079.078382,-9696.697840,0.000000,383.047749
4079.078712,-9918.759623,-222.061783,689.485948
4079.079042,-8586.388927,-296.082377,153.219100
4079.079371,-9252.574275,-148.041188,383.047749
4079.079701,-9918.759623,-370.102971,459.657299
4079.080031,-10140.821405,-814.226536,76.609550
4079.080361,-9844.739029,-148.041188,-153.219100
4079.080690,-9400.615463,-222.061783,-612.876398
4079.081020,-9992.780217,296.082377,-76.609550
4079.081350,-9252.574275,0.000000,766.095498
4079.081680,-9104.533087,148.041188,842.705048
4079.082010,-9178.553681,518.144159,995.924147
4079.082339,-11103.089130,148.041188,-459.657299
4079.082669,-10658.965565,-148.041188,-229.828649
4079.082999,-9622.677246,-888.247130,153.219100
4079.083329,-9326.594869,-518.144159,0.000000
4079.083658,-9474.636058,-1184.329507,0.000000
4079.083988,-9770.718434,-666.185348,842.705048
4079.084318,-9104.533087,-740.205942,1838.629195
4079.084648,-9696.697840,0.000000,1532.190996
4079.084978,-10066.800811,-296.082377,689.485948
4079.085307,-10732.986159,0.000000,612.876398
4079.085637,-9622.677246,0.000000,0.000000
4079.085967,-9178.553681,-592.164754,76.609550
4079.086297,-10288.862594,0.000000,-306.438199
4079.086626,-10436.903782,-740.205942,0.000000
4079.086956,-9400.615463,0.000000,153.219100
4079.087286,-8956.491898,74.020594,383.047749
4079.087616,-9696.697840,148.041188,689.485948
4079.087946,-10362.883188,-296.082377,1149.143247
4079.088275,-10584.944971,370.102971,306.438199
4079.088605,-9622.677246,0.000000,0.000000
4079.088935,-9696.697840,0.000000,0.000000
4079.089265,-9474.636058,814.226536,-153.219100
4079.089595,-10288.862594,74.020594,76.609550
4079.089924,-10214.842000,888.247130,76.609550
4079.090254,-9918.759623,148.041188,153.219100
4079.090584,-10214.842000,518.144159,0.000000
4079.090914,-9622.677246,74.020594,0.000000
4079.091243,-10140.821405,222.061783,0.000000
4079.091573,-9104.533087,0.000000,-153.219100
4079.091903,-9474.636058,370.102971,0.000000
4079.092233,-9474.636058,740.205942,-459.657299
4079.092563,-10066.800811,296.082377,-383.047749
4079.092892,-9918.759623,1110.308913,229.828649
4079.093222,-9474.636058,666.185348,1149.143247
4079.093552,-10288.862594,740.205942,689.485948
4079.093882,-10658.965565,0.000000,0.000000
4079.094211,-9696.697840,-296.082377,-229.828649
4079.094541,-8586.388927,-296.082377,0.000000
4079.094871,-8660.409521,0.000000,0.000000
4079.095201,-8956.491898,592.164754,229.828649
4079.095531,-9770.718434,814.226536,-229.828649
4079.095860,-9548.656652,962.267725,-229.828649
4079.096190,-9622.677246,740.205942,76.609550
4079.096520,-11177.109724,888.247130,0.000000
4079.096850,-10436.903782,74.020594,459.657299
4079.097179,-9474.636058,370.102971,153.219100
4079.097509,-8586.388927,-518.144159,-306.438199
4079.097839,-9030.512492,-444.123565,0.000000
4079.098169,-9178.553681,-370.102971,0.000000
4079.098499,-9696.697840,0.000000,0.000000
4079.098828,-9548.656652,296.082377,383.047749
4079.099158,-10140.821405,0.000000,1225.752797
4079.099488,-10436.903782,0.000000,995.924147
4079.099818,-10214.842000,-518.144159,229.828649
4079.100148,-9696.697840,-370.102971,-229.828649
4079.100477,-9030.512492,-888.247130,0.000000
4079.100807,-9770.718434,-592.164754,459.657299
4079.101137,-9696.697840,-592.164754,612.876398
4079.101467,-9992.780217,-370.102971,229.828649
4079.101796,-9326.594869,0.000000,153.219100
4079.102126,-9548.656652,-444.123565,229.828649
4079.102456,-10066.800811,370.102971,153.219100
4079.102786,-9622.677246,-370.102971,0.000000
4079.103116,-10066.800811,0.000000,0.000000
4079.103445,-10066.800811,-814.226536,-459.657299
4079.103775,-10362.883188,-740.205942,229.828649
4079.104105,-10066.800811,-814.226536,229.828649
4079.104435,-9918.759623,-666.185348,0.000000
4079.104764,-9178.553681,-148.041188,842.705048
4079.105094,-9696.697840,0.000000,1685.410096
4079.105424,-10214.842000,148.041188,1225.752797
4079.105754,-10436.903782,0.000000,612.876398
4079.106084,-10881.027347,0.000000,536.266849
4079.106413,-9696.697840,-1480.411884,76.609550
4079.106743,-9548.656652,-814.226536,0.000000
4079.107073,-9030.512492,-1036.288319,-229.828649
4079.107403,-9326.594869,-370.102971,153.219100
4079.107732,-8586.388927,0.000000,689.485948
4079.108062,-8882.471304,592.164754,536.266849
4079.108392,-9844.739029,592.164754,0.000000
4079.108722,-10584.944971,370.102971,-536.266849
4079.109052,-10881.027347,814.226536,-229.828649
4079.109381,-9918.759623,0.000000,76.609550
4079.109711,-9548.656652,0.000000,229.828649
4079.110041,-9252.574275,0.000000,766.095498
4079.110371,-9696.697840,592.164754,0.000000
4079.110700,-9178.553681,1184.329507,229.828649
4079.111030,-10362.883188,740.205942,842.705048
4079.111360,-10658.965565,888.247130,536.266849
4079.111690,-10288.862594,0.000000,459.657299
4079.112020,-9696.697840,814.226536,-306.438199
4079.112349,-9474.636058,296.082377,459.657299
4079.112679,-9992.780217,444.123565,229.828649
4079.113009,-9474.636058,222.061783,-229.828649
4079.113339,-9770.718434,962.267725,-919.314598
4079.113669,-9474.636058,740.205942,153.219100
4079.113998,-9770.718434,814.226536,1149.143247
4079.114328,-9548.656652,296.082377,919.314598
4079.114658,-10066.800811,296.082377,306.438199
4079.114988,-9844.739029,444.123565,0.000000
4079.115317,-9770.718434,-222.061783,0.000000
4079.115647,-9474.636058,0.000000,0.000000
4079.115977,-8734.430116,0.000000,0.000000
4079.116307,-9030.512492,444.123565,-842.705048
4079.116637,-8808.450710,296.082377,0.000000
4079.116966,-9992.780217,740.205942,153.219100
4079.117296,-10214.842000,222.061783,-153.219100
4079.117626,-10658.965565,74.020594,-306.438199
4079.117956,-10214.842000,0.000000,459.657299
4079.118285,-9326.594869,-666.185348,536.266849
4079.118615,-8882.471304,74.020594,306.438199
4079.118945,-9326.594869,-444.123565,-612.876398
4079.119275,-10066.800811,296.082377,-842.705048
4079.119605,-9474.636058,0.000000,0.000000
4079.119934,-10510.924376,296.082377,689.485948
4079.120264,-10584.944971,148.041188,536.266849
4079.120594,-10584.944971,222.061783,689.485948
4079.120924,-9474.636058,148.041188,0.000000
4079.121253,-9104.533087,-296.082377,0.000000
4079.121583,-9844.739029,222.061783,-612.876398
4079.121913,-10214.842000,-370.102971,153.219100
4079.122243,-10066.800811,222.061783,153.219100
4079.122573,-8956.491898,0.000000,306.438199
4079.122902,-9770.718434,222.061783,76.609550
4079.123232,-10658.965565,-296.082377,383.047749
4079.123562,-10066.800811,-74.020594,306.438199
4079.123892,-9474.636058,-444.123565,383.047749
4079.124222,-9992.780217,-666.185348,766.095498
4079.124551,-10066.800811,296.082377,842.705048
4079.124881,-10288.862594,0.000000,459.657299
4079.125211,-9844.739029,444.123565,-383.047749
4079.125541,-9622.677246,0.000000,-383.047749
4079.125870,-10732.986159,444.123565,153.219100
4079.126200,-10510.924376,0.000000,-383.047749
4079.126530,-10362.883188,-148.041188,536.266849
4079.126860,-9548.656652,-592.164754,995.924147
4079.127190,-9326.594869,-888.247130,1225.752797
4079.127519,-8660.409521,0.000000,76.609550
4079.127849,-8660.409521,-592.164754,-153.219100
4079.128179,-9326.594869,296.082377,0.000000
4079.128509,-9622.677246,148.041188,689.485948
4079.128838,-10288.862594,444.123565,1455.581446
4079.129168,-9696.697840,74.020594,306.438199
4079.129498,-10066.800811,222.061783,-76.609550
4079.129828,-9326.594869,-666.185348,-306.438199
4079.130158,-8808.450710,-444.123565,-689.485948
4079.130487,-8216.285956,74.020594,-1072.533697
4079.130817,-8956.491898,74.020594,-76.609550
4079.131147,-9622.677246,888.247130,0.000000
4079.131477,-9770.718434,888.247130,612.876398
4079.131806,-10881.027347,1036.288319,612.876398
4079.132136,-10510.924376,222.061783,76.609550
4079.132466,-10732.986159,74.020594,766.095498
4079.132796,-9696.697840,74.020594,766.095498
4079.133126,-9622.677246,-296.082377,306.438199
4079.133455,-9474.636058,148.041188,-229.828649
4079.133785,-9770.718434,0.000000,-766.095498
4079.134115,-9400.615463,740.205942,-612.876398
4079.134445,-9104.533087,518.144159,76.609550
4079.134774,-9844.739029,962.267725,-76.609550
4079.135104,-10288.862594,370.102971,0.000000
4079.135434,-10955.047942,296.082377,0.000000
4079.135764,-10066.800811,-296.082377,0.000000
4079.136093,-10066.800811,-296.082377,459.657299
4079.136423,-9844.739029,-222.061783,536.266849
4079.136753,-9696.697840,-962.267725,229.828649
4079.137083,-9030.512492,0.000000,536.266849
4079.137412,-8882.471304,-148.041188,1072.533697
4079.137742,-10288.862594,740.205942,1149.143247
4079.138072,-10584.944971,296.082377,766.095498
4079.138402,-10510.924376,296.082377,919.314598
4079.138732,-9326.594869,-370.102971,459.657299
4079.139061,-9844.739029,-370.102971,459.657299
4079.139391,-9474.636058,-370.102971,0.000000
4079.139721,-9400.615463,-1110.308913,-306.438199
4079.140051,-9326.594869,0.000000,229.828649
4079.140380,-9622.677246,0.000000,919.314598
4079.140710,-10362.883188,592.164754,1149.143247
4079.141040,-9696.697840,74.020594,536.266849
4079.141370,-10362.883188,518.144159,76.609550
4079.141699,-10066.800811,74.020594,229.828649
4079.142029,-10066.800811,-296.082377,459.657299
4079.142359,-9474.636058,-592.164754,306.438199
4079.142689,-9548.656652,-888.247130,229.828649
4079.143018,-9770.718434,222.061783,536.266849
4079.143348,-9696.697840,-444.123565,766.095498
4079.143678,-10436.903782,444.123565,229.828649
4079.144008,-10140.821405,-222.061783,0.000000
4079.144338,-10288.862594,148.041188,689.485948
4079.144667,-9104.533087,-370.102971,229.828649
4079.144997,-9474.636058,0.000000,459.657299
4079.145327,-9252.574275,0.000000,-383.047749
4079.145657,-9918.759623,0.000000,-689.485948
4079.145986,-9474.636058,740.205942,-459.657299
4079.146316,-9548.656652,148.041188,306.438199
4079.146646,-10066.800811,592.164754,536.266849
4079.146976,-9844.739029,148.041188,0.000000
4079.147305,-9844.739029,222.061783,0.000000
4079.147635,-9622.677246,-518.144159,306.438199
4079.147965,-9252.574275,0.000000,0.000000
4079.148295,-9400.615463,-74.020594,0.000000
4079.148624,-10140.821405,370.102971,76.609550
4079.148954,-9474.636058,444.123565,0.000000
4079.149284,-9844.739029,0.000000,76.609550
4079.149614,-10066.800811,148.041188,0.000000
4079.149944,-10436.903782,0.000000,536.266849
4079.150273,-9252.574275,74.020594,459.657299
4079.150603,-8438.347739,-518.144159,612.876398
4079.150933,-9104.533087,0.000000,153.219100
4079.151263,-9844.739029,-296.082377,0.000000
4079.151592,-11029.068536,518.144159,-383.047749
4079.151922,-9844.739029,74.020594,0.000000
4079.152252,-9548.656652,0.000000,536.266849
4079.152582,-9696.697840,444.123565,459.657299
4079.152911,-9474.636058,0.000000,0.000000
4079.153241,-9400.615463,370.102971,-842.705048
4079.153571,-9474.636058,74.020594,-536.266849
4079.153901,-10732.986159,222.061783,0.000000
4079.154230,-10658.965565,74.020594,153.219100
4079.154560,-10140.821405,148.041188,842.705048
4079.154890,-9474.636058,-148.041188,1149.143247
4079.155220,-9696.697840,-518.144159,1302.362347
4079.155550,-9844.739029,74.020594,766.095498
4079.155879,-10214.842000,444.123565,383.047749
4079.156209,-9992.780217,1184.329507,383.047749
4079.156539,-9622.677246,74.020594,612.876398
4079.156869,-10436.903782,814.226536,229.828649
4079.157198,-9844.739029,0.000000,-76.609550
4079.157528,-10436.903782,0.000000,-383.047749
4079.157858,-9030.512492,-296.082377,76.609550
4079.158188,-9474.636058,-296.082377,689.485948
4079.158517,-9030.512492,0.000000,1149.143247
4079.158847,-9770.718434,74.020594,383.047749
4079.159177,-10140.821405,222.061783,842.705048
4079.159507,-9474.636058,0.000000,995.924147
4079.159836,-9918.759623,444.123565,536.266849
4079.160166,-9918.759623,518.144159,383.047749
4079.160496,-10214.842000,444.123565,229.828649
4079.160826,-9400.615463,148.041188,-76.609550
4079.161156,-9548.656652,222.061783,-766.095498
4079.161485,-9548.656652,74.020594,-766.095498
4079.161815,-10066.800811,0.000000,-153.219100
4079.162145,-9326.594869,296.082377,76.609550
4079.162475,-8734.430116,-148.041188,229.828649
4079.162804,-9622.677246,814.226536,536.266849
4079.163134,-10140.821405,370.102971,-536.266849
4079.163464,-11029.068536,666.185348,-306.438199
4079.163794,-9548.656652,148.041188,-76.609550
4079.164123,-9918.759623,370.102971,0.000000
4079.164453,-9400.615463,518.144159,-536.266849
4079.164783,-9992.780217,148.041188,0.000000
4079.165113,-9474.636058,296.082377,-153.219100
4079.165442,-9030.512492,-74.020594,-153.219100
4079.165772,-9696.697840,962.267725,153.219100
4079.166102,-9992.780217,222.061783,76.609550
4079.166432,-10214.842000,222.061783,-229.828649
4079.166762,-9252.574275,0.000000,0.000000
4079.167091,-9770.718434,148.041188,-612.876398
4079.167421,-9548.656652,0.000000,-306.438199
4079.167751,-9696.697840,0.000000,0.000000
4079.168081,-8882.471304,296.082377,306.438199
4079.168410,-9326.594869,0.000000,689.485948
4079.168740,-9696.697840,444.123565,1072.533697
4079.169070,-10584.944971,-592.164754,0.000000
4079.169400,-11029.068536,-296.082377,-229.828649
4079.169729,-9178.553681,-592.164754,459.657299
4079.170059,-9178.553681,-592.164754,995.924147
4079.170389,-9252.574275,-222.061783,536.266849
4079.170719,-9474.636058,-74.020594,76.609550
4079.171048,-9400.615463,296.082377,383.047749
4079.171378,-10066.800811,0.000000,306.438199
4079.171708,-10807.006753,296.082377,919.314598
4079.172038,-10510.924376,0.000000,536.266849
4079.172368,-9992.780217,-222.061783,612.876398
4079.172697,-9030.512492,-814.226536,612.876398
4079.173027,-9474.636058,-148.041188,0.000000
4079.173357,-9992.780217,-370.102971,0.000000
4079.173687,-10066.800811,0.000000,0.000000
4079.174016,-9178.553681,0.000000,459.657299
4079.174346,-9696.697840,148.041188,766.095498
4079.174676,-10362.883188,740.205942,995.924147
4079.175006,-10807.006753,0.000000,383.047749
4079.175335,-10214.842000,0.000000,-229.828649
4079.175665,-9770.718434,-296.082377,612.876398
4079.175995,-10584.944971,0.000000,919.314598
4079.176325,-9474.636058,0.000000,0.000000
4079.176654,-9622.677246,74.020594,-383.047749
4079.176984,-8882.471304,74.020594,0.000000
4079.177314,-9178.553681,-74.020594,306.438199
4079.177644,-10140.821405,370.102971,842.705048
4079.177974,-10288.862594,-370.102971,153.219100
4079.178303,-9326.594869,0.000000,153.219100
4079.178633,-8364.327145,0.000000,842.705048
4079.178963,-9918.759623,296.082377,383.047749
4079.179293,-10214.842000,296.082377,229.828649
4079.179622,-10362.883188,370.102971,-76.609550
4079.179952,-9622.677246,370.102971,306.438199
4079.180282,-10066.800811,148.041188,229.828649
4079.180612,-10436.903782,148.041188,689.485948
4079.180941,-9844.739029,-370.102971,0.000000
4079.181271,-8660.409521,148.041188,-536.266849
4079.181601,-8660.409521,148.041188,-306.438199
4079.181931,-9992.780217,444.123565,-383.047749
4079.182260,-9548.656652,370.102971,-306.438199
4079.182590,-10140.821405,592.164754,-229.828649
4079.182920,-9918.759623,740.205942,76.609550
4079.183250,-10881.027347,370.102971,306.438199
4079.183580,-10214.842000,0.000000,0.000000
4079.183909,-9696.697840,-370.102971,-459.657299
4079.184239,-8734.430116,222.061783,76.609550
4079.184569,-9178.553681,0.000000,689.485948
4079.184899,-10214.842000,518.144159,919.314598
4079.185228,-10362.883188,-74.020594,689.485948
4079.185558,-10584.944971,518.144159,153.219100
4079.185888,-9474.636058,-296.082377,459.657299
4079.186218,-9030.512492,-222.061783,229.828649
4079.186547,-8734.430116,-148.041188,76.609550
4079.186877,-9548.656652,-370.102971,-76.609550
4079.187207,-9696.697840,296.082377,0.000000
4079.187537,-9918.759623,148.041188,536.266849
4079.187866,-10584.944971,296.082377,0.000000
4079.188196,-10214.842000,74.020594,0.000000
4079.188526,-10140.821405,74.020594,153.219100
4079.188856,-8808.450710,-370.102971,689.485948
4079.189186,-9178.553681,-74.020594,459.657299
4079.189515,-9474.636058,-74.020594,306.438199
4079.189845,-10436.903782,0.000000,0.000000
4079.190175,-10214.842000,74.020594,383.047749
4079.190505,-9400.615463,-444.123565,612.876398
4079.190834,-9918.759623,74.020594,-306.438199
4079.191164,-9474.636058,0.000000,-766.095498
4079.191494,-9918.759623,592.164754,-689.485948
4079.191824,-9178.553681,0.000000,-383.047749
4079.192153,-10214.842000,370.102971,76.609550
4079.192483,-10584.944971,296.082377,229.828649
4079.192813,-10510.924376,74.020594,-229.828649
4079.193143,-9696.697840,74.020594,-229.828649
4079.193472,-9474.636058,-74.020594,76.609550
4079.193802,-10066.800811,0.000000,153.219100
4079.194132,-10214.842000,-222.061783,1072.533697
4079.194462,-9844.739029,222.061783,229.828649
4079.194792,-8956.491898,0.000000,612.876398
4079.195121,-9622.677246,222.061783,1225.752797
4079.195451,-10510.924376,518.144159,995.924147
4079.195781,-10658.965565,518.144159,-153.219100
4079.196111,-9400.615463,222.061783,0.000000
4079.196440,-9252.574275,-370.102971,536.266849
4079.196770,-9474.636058,0.000000,383.047749
4079.197100,-9400.615463,-444.123565,-383.047749
4079.197430,-9178.553681,148.041188,-229.828649
4079.197759,-8956.491898,-444.123565,76.609550
4079.198089,-9622.677246,0.000000,229.828649
4079.198419,-10288.862594,0.000000,383.047749
4079.198749,-10807.006753,0.000000,995.924147
4079.199078,-9030.512492,0.000000,1455.581446
4079.199408,-9622.677246,-222.061783,919.314598
4079.199738,-10362.883188,518.144159,229.828649
4079.200068,-10214.842000,0.000000,-689.485948
4079.200398,-9474.636058,518.144159,-689.485948
4079.200727,-8956.491898,0.000000,0.000000
4079.201057,-10214.842000,592.164754,1072.533697
4079.201387,-10732.986159,0.000000,306.438199
4079.201717,-10584.944971,74.020594,0.000000
4079.202046,-9474.636058,222.061783,-153.219100
4079.202376,-9474.636058,74.020594,0.000000
4079.202706,-9992.780217,444.123565,-459.657299
4079.203036,-10288.862594,0.000000,306.438199
4079.203365,-10066.800811,444.123565,459.657299
4079.203695,-9178.553681,-148.041188,229.828649
4079.204025,-9844.739029,148.041188,0.000000
4079.204355,-9992.780217,0.000000,153.219100
4079.204684,-10362.883188,0.000000,459.657299
4079.205014,-9252.574275,-444.123565,995.924147
4079.205344,-9548.656652,-148.041188,1762.019645
4079.205674,-9696.697840,-370.102971,383.047749
4079.206004,-10066.800811,-74.020594,383.047749
4079.206333,-9400.615463,222.061783,-153.219100
4079.206663,-9474.636058,0.000000,-306.438199
4079.206993,-10066.800811,0.000000,-383.047749
4079.207323,-10436.903782,0.000000,306.438199
4079.207652,-10214.842000,296.082377,383.047749
4079.207982,-9178.553681,-222.061783,842.705048
4079.208312,-10066.800811,0.000000,459.657299
4079.208642,-9622.677246,-222.061783,0.000000
4079.208971,-9918.759623,-222.061783,-689.485948
4079.209301,-9326.594869,74.020594,-459.657299
4079.209631,-9696.697840,74.020594,0.000000
4079.209961,-10288.862594,592.164754,229.828649
4079.210290,-9548.656652,148.041188,306.438199
4079.210620,-10214.842000,444.123565,76.609550
4079.210950,-9548.656652,0.000000,-76.609550
4079.211280,-10288.862594,222.061783,-306.438199
4079.211610,-9918.759623,-444.123565,0.000000
4079.211939,-9622.677246,0.000000,0.000000
4079.212269,-9474.636058,148.041188,1072.533697
4079.212599,-10066.800811,296.082377,76.609550
4079.212929,-10362.883188,444.123565,229.828649
4079.213258,-10362.883188,-296.082377,-766.095498
4079.213588,-10140.821405,296.082377,-229.828649
4079.213918,-9548.656652,0.000000,536.266849
4079.214248,-9696.697840,370.102971,383.047749
4079.214577,-8660.409521,-444.123565,0.000000
4079.214907,-10066.800811,444.123565,-995.924147
4079.215237,-9474.636058,296.082377,-536.266849
4079.215567,-9474.636058,0.000000,-612.876398
4079.215896,-9474.636058,666.185348,536.266849
4079.216226,-9548.656652,0.000000,766.095498
4079.216556,-9918.759623,518.144159,689.485948
4079.216886,-9622.677246,148.041188,76.609550
4079.217216,-9918.759623,0.000000,306.438199
4079.217545,-9474.636058,-296.082377,-153.219100
4079.217875,-9844.739029,444.123565,153.219100
4079.218205,-9400.615463,296.082377,0.000000
4079.218535,-9474.636058,222.061783,306.438199
4079.218864,-9992.780217,740.205942,0.000000
4079.219194,-10288.862594,74.020594,-306.438199
4079.219524,-10288.862594,370.102971,0.000000
4079.219854,-9326.594869,-74.020594,536.266849
4079.220183,-8956.491898,444.123565,919.314598
4079.220513,-9104.533087,0.000000,612.876398
4079.220843,-9918.759623,592.164754,0.000000
4079.221173,-9770.718434,962.267725,0.000000
4079.221502,-10732.986159,444.123565,306.438199
4079.221832,-10436.903782,592.164754,306.438199
4079.222162,-10510.924376,0.000000,0.000000
4079.222492,-9326.594869,518.144159,-383.047749
4079.222822,-8438.347739,0.000000,689.485948
4079.223151,-9992.780217,296.082377,383.047749
4079.223481,-9622.677246,148.041188,0.000000
4079.223811,-10140.821405,222.061783,-459.657299
4079.224141,-9548.656652,296.082377,306.438199
4079.224470,-10140.821405,-222.061783,919.314598
4079.224800,-10510.924376,0.000000,995.924147
4079.225130,-10214.842000,-962.267725,306.438199
4079.225460,-8882.471304,0.000000,612.876398
4079.225789,-9030.512492,-888.247130,995.924147
4079.226119,-9992.780217,0.000000,766.095498
4079.226449,-9770.718434,-148.041188,153.219100
4079.226779,-9622.677246,222.061783,-1225.752797
4079.227108,-9622.677246,-296.082377,0.000000
4079.227438,-10214.842000,-370.102971,76.609550
4079.227768,-9770.718434,-370.102971,383.047749
4079.228098,-9696.697840,-666.185348,153.219100
4079.228428,-9178.553681,0.000000,0.000000
4079.228757,-9178.553681,-814.226536,76.609550
4079.229087,-10140.821405,0.000000,0.000000
4079.229417,-9844.739029,-444.123565,-153.219100
4079.229747,-9918.759623,74.020594,-689.485948
4079.230076,-9918.759623,0.000000,0.000000
4079.230406,-10214.842000,0.000000,229.828649
4079.230736,-9844.739029,74.020594,383.047749
4079.231066,-9844.739029,-592.164754,0.000000
4079.231395,-9622.677246,-518.144159,229.828649
4079.231725,-9400.615463,-814.226536,1072.533697
4079.232055,-9548.656652,0.000000,383.047749
4079.232385,-9474.636058,-370.102971,76.609550
4079.232715,-9918.759623,444.123565,0.000000
4079.233044,-9104.533087,-518.144159,153.219100
4079.233374,-10362.883188,296.082377,229.828649
4079.233704,-10214.842000,592.164754,612.876398
4079.234034,-11029.068536,148.041188,919.314598
4079.234364,-10066.800811,0.000000,459.657299
4079.234694,-9474.636058,-592.164754,612.876398
4079.235023,-9696.697840,0.000000,612.876398
4079.235353,-9104.533087,-518.144159,0.000000
4079.235683,-9474.636058,222.061783,459.657299
4079.236013,-8586.388927,-518.144159,536.266849
4079.236343,-9400.615463,222.061783,153.219100
4079.236672,-9918.759623,518.144159,-229.828649
4079.237002,-10732.986159,222.061783,306.438199
4079.237332,-9696.697840,592.164754,689.485948
4079.237662,-9548.656652,0.000000,1149.143247
4079.237992,-9844.739029,-74.020594,689.485948
4079.238321,-9844.739029,-222.061783,459.657299
4079.238651,-9918.759623,740.205942,689.485948
4079.238981,-9474.636058,222.061783,76.609550
4079.239311,-10436.903782,1110.308913,0.000000
4079.239641,-10362.883188,962.267725,-306.438199
4079.239970,-10436.903782,814.226536,-459.657299
4079.240300,-9400.615463,666.185348,-459.657299
4079.240630,-9474.636058,148.041188,0.000000
4079.240960,-9770.718434,814.226536,-1378.971896
4079.241290,-9622.677246,0.000000,-1072.533697
4079.241620,-9548.656652,370.102971,-919.314598
4079.241949,-9474.636058,-370.102971,-76.609550
4079.242279,-10288.862594,1184.329507,766.095498
4079.242609,-9992.780217,74.020594,919.314598
4079.242939,-10658.965565,370.102971,306.438199
4079.243269,-9622.677246,444.123565,842.705048
4079.243598,-10140.821405,592.164754,536.266849
4079.243928,-9918.759623,296.082377,76.609550
4079.244258,-9548.656652,0.000000,-459.657299
4079.244588,-9548.656652,370.102971,-459.657299
4079.244918,-9252.574275,0.000000,0.000000
4079.245247,-9770.718434,740.205942,-995.924147
4079.245577,-9696.697840,444.123565,-612.876398
4079.245907,-10140.821405,444.123565,-306.438199
4079.246237,-9326.594869,444.123565,0.000000
4079.246567,-9918.759623,148.041188,689.485948
4079.246897,-9770.718434,0.000000,919.314598
4079.247226,-9770.718434,-222.061783,612.876398
4079.247556,-9696.697840,296.082377,459.657299
4079.247886,-9326.594869,-518.144159,306.438199
4079.248216,-9400.615463,74.020594,306.438199
4079.248546,-9844.739029,0.000000,153.219100
4079.248875,-10362.883188,0.000000,536.266849
4079.249205,-9252.574275,0.000000,842.705048
4079.249535,-9252.574275,0.000000,-459.657299
4079.249865,-9178.553681,74.020594,-229.828649
4079.250195,-10066.800811,-74.020594,-995.924147
4079.250524,-10214.842000,592.164754,-229.828649
4079.250854,-9844.739029,-296.082377,995.924147
4079.251184,-10140.821405,148.041188,995.924147
4079.251514,-9992.780217,-592.164754,459.657299
4079.251844,-10214.842000,74.020594,0.000000
4079.252173,-8512.368333,0.000000,689.485948
4079.252503,-9770.718434,370.102971,459.657299
4079.252833,-10362.883188,444.123565,0.000000
4079.253163,-10955.047942,370.102971,153.219100
4079.253493,-10066.800811,74.020594,0.000000
4079.253823,-9474.636058,-296.082377,0.000000
4079.254152,-9696.697840,0.000000,0.000000
4079.254482,-9400.615463,-740.205942,-76.609550
4079.254812,-9548.656652,-74.020594,-76.609550
4079.255142,-8290.306550,0.000000,536.266849
4079.255472,-9696.697840,0.000000,842.705048
4079.255801,-10362.883188,0.000000,383.047749
4079.256131,-10436.903782,-222.061783,0.000000
4079.256461,-9474.636058,0.000000,0.000000
4079.256791,-9992.780217,-888.247130,229.828649
4079.257121,-10288.862594,148.041188,766.095498
4079.257450,-9696.697840,-592.164754,459.657299
4079.257780,-9622.677246,222.061783,0.000000
4079.258110,-9030.512492,0.000000,689.485948
4079.258440,-10066.800811,148.041188,612.876398
4079.258770,-10066.800811,74.020594,0.000000
4079.259099,-10584.944971,222.061783,-536.266849
4079.259429,-9252.574275,222.061783,-1149.143247
4079.259759,-9104.533087,-518.144159,383.047749
4079.260089,-9252.574275,148.041188,383.047749
4079.260419,-9400.615463,-222.061783,0.000000
4079.260749,-9844.739029,592.164754,-229.828649
4079.261078,-9252.574275,-518.144159,459.657299
4079.261408,-10436.903782,222.061783,1072.533697
4079.261738,-10066.800811,-74.020594,919.314598
4079.262068,-10436.903782,-296.082377,689.485948
4079.262398,-9326.594869,0.000000,383.047749
4079.262727,-9030.512492,-518.144159,153.219100
4079.263057,-10066.800811,1036.288319,689.485948
4079.263387,-11103.089130,0.000000,229.828649
4079.263717,-10436.903782,1036.288319,0.000000
4079.264047,-9104.533087,518.144159,229.828649
4079.264376,-10140.821405,222.061783,229.828649
4079.264706,-9844.739029,-74.020594,-76.609550
4079.265036,-9622.677246,444.123565,0.000000
4079.265366,-9400.615463,0.000000,459.657299
4079.265696,-9548.656652,0.000000,919.314598
4079.266025,-9844.739029,296.082377,612.876398
4079.266355,-10362.883188,-222.061783,306.438199
4079.266685,-9992.780217,592.164754,383.047749
4079.267015,-8734.430116,-296.082377,1072.533697
4079.267345,-10288.862594,888.247130,995.924147
4079.267675,-10214.842000,592.164754,383.047749
4079.268004,-10510.924376,814.226536,0.000000
4079.268334,-9622.677246,518.144159,-229.828649
4079.268664,-10066.800811,148.041188,-306.438199
4079.268994,-9548.656652,518.144159,0.000000
4079.269324,-9326.594869,444.123565,-153.219100
4079.269653,-8882.471304,518.144159,76.609550
4079.269983,-8734.430116,0.000000,153.219100
4079.270313,-10362.883188,444.123565,0.000000
4079.270643,-10584.944971,222.061783,153.219100
4079.270973,-10214.842000,444.123565,-76.609550
4079.271302,-9178.553681,74.020594,536.266849
4079.271632,-9252.574275,-444.123565,612.876398
4079.271962,-9770.718434,296.082377,306.438199
4079.272292,-9992.780217,-74.020594,0.000000
4079.272622,-10214.842000,370.102971,76.609550
4079.272951,-10140.821405,-444.123565,1072.533697
4079.273281,-10436.903782,148.041188,842.705048
4079.273611,-9696.697840,0.000000,0.000000
4079.273941,-9992.780217,0.000000,-383.047749
4079.274271,-8882.471304,-222.061783,-383.047749
4079.274601,-9696.697840,0.000000,-153.219100
4079.274930,-10436.903782,518.144159,842.705048
4079.275260,-10510.924376,444.123565,306.438199
4079.275590,-10658.965565,888.247130,842.705048
4079.275920,-9844.739029,-148.041188,383.047749
4079.276250,-10510.924376,296.082377,-766.095498
4079.276579,-9770.718434,-518.144159,0.000000
4079.276909,-9844.739029,0.000000,229.828649
4079.277239,-8956.491898,-666.185348,689.485948
4079.277569,-9474.636058,0.000000,766.095498
4079.277899,-9770.718434,222.061783,766.095498
4079.278228,-10214.842000,74.020594,-383.047749
4079.278558,-9548.656652,592.164754,-306.438199
4079.278888,-9548.656652,-370.102971,229.828649
4079.279218,-9770.718434,518.144159,689.485948
4079.279548,-9696.697840,-518.144159,229.828649
4079.279877,-9844.739029,74.020594,0.000000
4079.280207,-8808.450710,-518.144159,76.609550
4079.280537,-9178.553681,0.000000,306.438199
4079.280867,-9474.636058,0.000000,919.314598
4079.281197,-11029.068536,296.082377,1072.533697
4079.281527,-10066.800811,296.082377,1532.190996
4079.281856,-9474.636058,-148.041188,919.314598
4079.282186,-10140.821405,222.061783,229.828649
4079.282516,-10214.842000,-148.041188,-306.438199
4079.282846,-9992.780217,444.123565,-459.657299
4079.283176,-9104.533087,0.000000,76.609550
4079.283505,-9622.677246,666.185348,383.047749
4079.283835,-9918.759623,444.123565,229.828649
4079.284165,-10510.924376,148.041188,-229.828649
4079.284495,-9548.656652,0.000000,536.266849
4079.284825,-10066.800811,0.000000,2145.067394
4079.285154,-10436.903782,0.000000,1149.143247
4079.285484,-10140.821405,-740.205942,383.047749
4079.285814,-9326.594869,-148.041188,-76.609550
4079.286144,-8660.409521,-740.205942,153.219100
4079.286474,-10140.821405,592.164754,459.657299
4079.286804,-10214.842000,296.082377,459.657299
4079.287133,-10658.965565,296.082377,0.000000
4079.287463,-9548.656652,148.041188,459.657299
4079.287793,-10362.883188,74.020594,612.876398
4079.288123,-10362.883188,0.000000,-383.047749
4079.288453,-9030.512492,-1036.288319,-536.266849
4079.288782,-8142.265362,-74.020594,-383.047749
4079.289112,-8290.306550,-1110.308913,0.000000
4079.289442,-9844.739029,148.041188,153.219100
4079.289772,-10288.862594,0.000000,383.047749
4079.290102,-10214.842000,222.061783,0.000000
4079.290431,-9252.574275,148.041188,612.876398
4079.290761,-9992.780217,-296.082377,612.876398
4079.291091,-10288.862594,0.000000,76.609550
4079.291421,-9326.594869,-740.205942,-995.924147
4079.291751,-8956.491898,0.000000,-919.314598
4079.292080,-8734.430116,-148.041188,-229.828649
4079.292410,-9844.739029,592.164754,-306.438199
4079.292740,-10066.800811,148.041188,-229.828649
4079.293070,-10510.924376,370.102971,383.047749
4079.293400,-9770.718434,666.185348,612.876398
4079.293730,-10214.842000,0.000000,229.828649
4079.294059,-10362.883188,222.061783,229.828649
4079.294389,-9992.780217,0.000000,612.876398
4079.294719,-9918.759623,962.267725,306.438199
4079.295049,-9400.615463,0.000000,153.219100
4079.295379,-9844.739029,888.247130,153.219100
4079.295708,-9992.780217,148.041188,153.219100
4079.296038,-10510.924376,592.164754,459.657299
4079.296368,-9400.615463,296.082377,766.095498
4079.296698,-9992.780217,148.041188,383.047749
4079.297028,-9622.677246,148.041188,76.609550
4079.297357,-9770.718434,-222.061783,0.000000
4079.297687,-9474.636058,740.205942,153.219100
4079.298017,-9178.553681,0.000000,383.047749
4079.298347,-10288.862594,1258.350101,612.876398
4079.298677,-10436.903782,592.164754,995.924147
4079.299006,-10658.965565,814.226536,536.266849
4079.299336,-9252.574275,740.205942,229.828649
4079.299666,-10066.800811,592.164754,-229.828649
4079.299996,-9992.780217,444.123565,-153.219100
4079.300326,-9622.677246,74.020594,0.000000
4079.300656,-9030.512492,370.102971,76.609550
4079.300985,-9178.553681,0.000000,153.219100
4079.301315,-9622.677246,666.185348,0.000000
4079.301645,-9992.780217,0.000000,536.266849
4079.301975,-10658.965565,296.082377,536.266849
4079.302305,-9474.636058,148.041188,1302.362347
4079.302634,-10510.924376,518.144159,766.095498
4079.302964,-10362.883188,74.020594,229.828649
4079.303294,-9622.677246,-592.164754,153.219100
4079.303624,-8660.409521,-148.041188,-306.438199
4079.303954,-8586.388927,-518.144159,-459.657299
4079.304283,-9844.739029,370.102971,76.609550
4079.304613,-10214.842000,-296.082377,153.219100
4079.304943,-9770.718434,-296.082377,229.828649
4079.305273,-8956.491898,-222.061783,842.705048
4079.305603,-10214.842000,0.000000,689.485948
4079.305932,-9992.780217,-444.123565,383.047749
4079.306262,-9548.656652,-296.082377,0.000000
4079.306592,-9326.594869,0.000000,229.828649
4079.306922,-9622.677246,-444.123565,306.438199
4079.307252,-10732.986159,518.144159,76.609550
4079.307582,-9622.677246,-518.144159,76.609550
4079.307911,-9178.553681,296.082377,-153.219100
4079.308241,-8512.368333,-148.041188,0.000000
4079.308571,-10362.883188,-296.082377,-306.438199
4079.308901,-9844.739029,-444.123565,383.047749
4079.309231,-9770.718434,-74.020594,0.000000
4079.309560,-9548.656652,0.000000,0.000000
4079.309890,-10066.800811,-666.185348,76.609550
4079.310220,-9918.759623,148.041188,536.266849
4079.310550,-9844.739029,-666.185348,536.266849
4079.310880,-9992.780217,0.000000,536.266849
4079.311209,-9400.615463,-592.164754,1149.143247
4079.311539,-9918.759623,-296.082377,919.314598
4079.311869,-9326.594869,-444.123565,459.657299
4079.312199,-10288.862594,-296.082377,-306.438199
4079.312529,-9992.780217,-148.041188,153.219100
4079.312858,-9918.759623,-592.164754,383.047749
4079.313188,-9992.780217,370.102971,-536.266849
4079.313518,-9844.739029,-444.123565,-153.219100
4079.313848,-9548.656652,370.102971,153.219100
4079.314178,-9474.636058,-148.041188,536.266849
4079.314508,-10140.821405,370.102971,306.438199
4079.314837,-10214.842000,-148.041188,-306.438199
4079.315167,-10140.821405,222.061783,-229.828649
4079.315497,-9178.553681,0.000000,459.657299
4079.315827,-9770.718434,74.020594,842.705048
4079.316157,-10510.924376,0.000000,612.876398
4079.316486,-10732.986159,-518.144159,306.438199
4079.316816,-9400.615463,-296.082377,306.438199
4079.317146,-8734.430116,-296.082377,995.924147
4079.317476,-9696.697840,666.185348,612.876398
4079.317806,-9770.718434,222.061783,1302.362347
4079.318135,-9622.677246,592.164754,612.876398
4079.318465,-9178.553681,296.082377,0.000000
4079.318795,-10362.883188,592.164754,-1225.752797
4079.319125,-10510.924376,740.205942,-536.266849
4079.319455,-10066.800811,0.000000,-306.438199
4079.319784,-8586.388927,370.102971,-536.266849
4079.320114,-8956.491898,0.000000,536.266849
4079.320444,-9844.739029,518.144159,383.047749
4079.320774,-9918.759623,0.000000,153.219100
4079.321104,-9918.759623,444.123565,306.438199
4079.321434,-9252.574275,0.000000,612.876398
4079.321763,-9918.759623,518.144159,1302.362347
4079.322093,-10140.821405,592.164754,612.876398
4079.322423,-10362.883188,222.061783,-842.705048
4079.322753,-9696.697840,666.185348,-919.314598
4079.323083,-8956.491898,148.041188,-689.485948
4079.323412,-9770.718434,296.082377,-919.314598
4079.323742,-9104.533087,-370.102971,-306.438199
4079.324072,-9548.656652,0.000000,-153.219100
4079.324402,-9030.512492,-370.102971,76.609550
4079.324732,-9548.656652,0.000000,153.219100
4079.325061,-10214.842000,0.000000,612.876398
4079.325391,-10955.047942,0.000000,1149.143247
4079.325721,-10140.821405,444.123565,1302.362347
4079.326051,-9844.739029,0.000000,1608.800546
4079.326381,-10214.842000,0.000000,766.095498
4079.326710,-9548.656652,-296.082377,153.219100
4079.327040,-9548.656652,370.102971,0.000000
4079.327370,-8586.388927,0.000000,0.000000
4079.327700,-9696.697840,222.061783,153.219100
4079.328030,-9770.718434,0.000000,0.000000
4079.328360,-10658.965565,-222.061783,0.000000
4079.328689,-9474.636058,-74.020594,76.609550
4079.329019,-9400.615463,-518.144159,995.924147
4079.329349,-9770.718434,-74.020594,766.095498
4079.329679,-9622.677246,-444.123565,766.095498
4079.330009,-9696.697840,0.000000,842.705048
4079.330338,-9326.594869,-444.123565,536.266849
4079.330668,-10140.821405,370.102971,306.438199
4079.330998,-10214.842000,0.000000,229.828649
4079.331328,-10436.903782,148.041188,0.000000
4079.331658,-8956.491898,370.102971,0.000000
4079.331987,-9400.615463,-74.020594,536.266849
4079.332317,-9770.718434,370.102971,-383.047749
4079.332647,-10510.924376,-222.061783,-612.876398
4079.332977,-10584.944971,444.123565,-1302.362347
4079.333307,-9326.594869,0.000000,-383.047749
4079.333636,-9622.677246,518.144159,153.219100
4079.333966,-9696.697840,0.000000,153.219100
4079.334296,-10510.924376,296.082377,383.047749
4079.334626,-9992.780217,0.000000,1149.143247
4079.334955,-10362.883188,0.000000,1149.143247
4079.335285,-10214.842000,-148.041188,306.438199
4079.335615,-9918.759623,-740.205942,0.000000
4079.335945,-8956.491898,148.041188,-536.266849
4079.336274,-8364.327145,-296.082377,306.438199
4079.336604,-9622.677246,592.164754,0.000000
4079.336934,-10066.800811,148.041188,-229.828649
4079.337264,-10214.842000,666.185348,-1378.971896
4079.337594,-9696.697840,592.164754,153.219100
4079.337923,-10732.986159,370.102971,536.266849
4079.338253,-10214.842000,0.000000,842.705048
4079.338583,-9992.780217,-814.226536,612.876398
4079.338913,-8956.491898,0.000000,919.314598
4079.339242,-8882.471304,-592.164754,76.609550
4079.339572,-9918.759623,370.102971,76.609550
4079.339902,-9770.718434,0.000000,306.438199
4079.340232,-9696.697840,370.102971,842.705048
4079.340561,-9474.636058,296.082377,766.095498
4079.340891,-10436.903782,0.000000,842.705048
4079.341221,-9918.759623,-222.061783,153.219100
4079.341551,-9104.533087,-592.164754,-919.314598
4079.341880,-8808.450710,0.000000,-459.657299
4079.342210,-8882.471304,-222.061783,0.000000
4079.342540,-9696.697840,518.144159,229.828649
4079.342870,-10436.903782,296.082377,-153.219100
4079.343199,-10510.924376,370.102971,-383.047749
4079.343529,-9474.636058,0.000000,0.000000
4079.343859,-10584.944971,444.123565,689.485948
4079.344189,-10658.965565,0.000000,689.485948
4079.344518,-10584.944971,-148.041188,306.438199
4079.344848,-9474.636058,222.061783,536.266849
4079.345178,-9252.574275,-444.123565,612.876398
4079.345508,-9992.780217,222.061783,76.609550
4079.345837,-10288.862594,222.061783,-306.438199
4079.346167,-10288.862594,666.185348,0.000000
4079.346497,-8956.491898,222.061783,306.438199
4079.346827,-10140.821405,148.041188,0.000000
4079.347156,-10214.842000,740.205942,0.000000
4079.347486,-9992.780217,296.082377,-76.609550
4079.347816,-9474.636058,0.000000,0.000000
4079.348146,-8956.491898,-740.205942,536.266849
4079.348475,-9992.780217,222.061783,1072.533697
4079.348805,-9844.739029,-296.082377,766.095498
4079.349135,-9548.656652,0.000000,383.047749
4079.349465,-8882.471304,74.020594,536.266849
4079.349794,-10066.800811,74.020594,995.924147
4079.350124,-9770.718434,0.000000,1455.581446
4079.350454,-10214.842000,0.000000,842.705048
4079.350784,-9178.553681,0.000000,153.219100
4079.351113,-9252.574275,-296.082377,-306.438199
4079.351443,-9030.512492,296.082377,-612.876398
4079.351773,-9252.574275,-148.041188,-536.266849
4079.352103,-9622.677246,518.144159,-229.828649
4079.352432,-9622.677246,74.020594,612.876398
4079.352762,-10658.965565,518.144159,229.828649
4079.353092,-10510.924376,-148.041188,76.609550
4079.353422,-10510.924376,74.020594,-229.828649
4079.353752,-9474.636058,0.000000,153.219100
4079.354081,-9548.656652,-296.082377,842.705048
4079.354411,-9918.759623,518.144159,995.924147
4079.354741,-9918.759623,0.000000,0.000000
4079.355071,-9918.759623,962.267725,0.000000
4079.355400,-9770.718434,148.041188,76.609550
4079.355730,-10288.862594,222.061783,-306.438199
4079.356060,-9548.656652,-518.144159,-536.266849
4079.356390,-9548.656652,0.000000,-536.266849
4079.356719,-9104.533087,-296.082377,153.219100
4079.357049,-9400.615463,-592.164754,0.000000
4079.357379,-9992.780217,740.205942,0.000000
4079.357709,-10140.821405,148.041188,-153.219100
4079.358038,-10288.862594,666.185348,383.047749
4079.358368,-9918.759623,222.061783,842.705048
4079.358698,-10288.862594,296.082377,0.000000
4079.359028,-9770.718434,-518.144159,-229.828649
4079.359357,-9474.636058,-296.082377,0.000000
4079.359687,-8512.368333,-296.082377,-306.438199
4079.360017,-9030.512492,148.041188,0.000000
4079.360347,-9696.697840,740.205942,0.000000
4079.360676,-10658.965565,0.000000,153.219100
4079.361006,-9770.718434,592.164754,919.314598
4079.361336,-9548.656652,370.102971,536.266849
4079.361666,-9992.780217,222.061783,153.219100
4079.361995,-9770.718434,-444.123565,153.219100
4079.362325,-10066.800811,74.020594,-229.828649
4079.362655,-9252.574275,0.000000,536.266849
4079.362985,-9696.697840,222.061783,0.000000
4079.363314,-9622.677246,0.000000,383.047749
4079.363644,-10066.800811,0.000000,229.828649
4079.363974,-9548.656652,0.000000,919.314598
4079.364304,-9770.718434,-296.082377,1302.362347
4079.364633,-10510.924376,74.020594,1072.533697
4079.364963,-10214.842000,-444.123565,306.438199
4079.365293,-9844.739029,222.061783,0.000000
4079.365623,-9178.553681,0.000000,0.000000
4079.365952,-9770.718434,370.102971,766.095498
4079.366282,-9770.718434,444.123565,842.705048
4079.366612,-10436.903782,148.041188,153.219100
4079.366942,-10436.903782,592.164754,153.219100
4079.367271,-10066.800811,0.000000,306.438199
4079.367601,-10288.862594,0.000000,0.000000
4079.367931,-9548.656652,-814.226536,306.438199
4079.368261,-9400.615463,-370.102971,229.828649
4079.368591,-8068.244768,-666.185348,459.657299
4079.368920,-9400.615463,296.082377,383.047749
4079.369250,-10066.800811,222.061783,76.609550
4079.369580,-10881.027347,148.041188,76.609550
4079.369910,-10140.821405,666.185348,1072.533697
4079.370239,-10732.986159,222.061783,1302.362347
4079.370569,-10362.883188,-370.102971,459.657299
4079.370899,-9400.615463,-370.102971,-229.828649
4079.371229,-8216.285956,-518.144159,-153.219100
4079.371558,-8586.388927,-296.082377,0.000000
4079.371888,-9622.677246,74.020594,0.000000
4079.372218,-10288.862594,148.041188,76.609550
4079.372548,-10288.862594,0.000000,-229.828649
4079.372877,-9030.512492,0.000000,306.438199
4079.373207,-9548.656652,-370.102971,612.876398
4079.373537,-9474.636058,0.000000,459.657299
4079.373867,-9252.574275,-370.102971,536.266849
4079.374196,-9178.553681,296.082377,689.485948
4079.374526,-9622.677246,0.000000,536.266849
4079.374856,-10510.924376,222.061783,76.609550
4079.375186,-9992.780217,222.061783,0.000000
4079.375515,-9770.718434,0.000000,-459.657299
4079.375845,-8882.471304,0.000000,612.876398
4079.376175,-9622.677246,-222.061783,995.924147
4079.376505,-10140.821405,74.020594,306.438199
4079.376834,-9992.780217,0.000000,-153.219100
4079.377164,-10066.800811,518.144159,-766.095498
4079.377494,-9474.636058,0.000000,0.000000
4079.377824,-9770.718434,740.205942,0.000000
4079.378153,-9844.739029,148.041188,-76.609550
4079.378483,-10658.965565,592.164754,0.000000
4079.378813,-9622.677246,0.000000,689.485948
4079.379143,-9992.780217,0.000000,689.485948
4079.379472,-10140.821405,0.000000,153.219100
4079.379802,-9770.718434,-148.041188,76.609550
4079.380132,-9252.574275,0.000000,306.438199
4079.380462,-8734.430116,-592.164754,459.657299
4079.380791,-10066.800811,0.000000,-229.828649
4079.381121,-9992.780217,-222.061783,-766.095498
4079.381451,-10288.862594,222.061783,76.609550
4079.381781,-9252.574275,222.061783,766.095498
4079.382110,-9400.615463,0.000000,919.314598
4079.382440,-9474.636058,74.020594,153.219100
4079.382770,-9474.636058,-444.123565,-612.876398
4079.383100,-9548.656652,0.000000,-383.047749
4079.383429,-9474.636058,-814.226536,-383.047749
4079.383759,-10658.965565,518.144159,76.609550
4079.384089,-9770.718434,74.020594,229.828649
4079.384419,-9992.780217,592.164754,306.438199
4079.384749,-9030.512492,296.082377,536.266849
4079.385078,-9992.780217,592.164754,536.266849
4079.385408,-10436.903782,592.164754,-612.876398
4079.385738,-10732.986159,0.000000,-306.438199
4079.386068,-9252.574275,148.041188,-459.657299
4079.386397,-9104.533087,0.000000,153.219100
4079.386727,-10066.800811,518.144159,153.219100
4079.387057,-10510.924376,0.000000,-459.657299
4079.387387,-9918.759623,222.061783,-459.657299
4079.387716,-9178.553681,0.000000,153.219100
4079.388046,-10658.965565,296.082377,1149.143247
4079.388376,-10066.800811,-296.082377,1378.971896
4079.388706,-10066.800811,74.020594,612.876398
4079.389035,-9178.553681,222.061783,229.828649
4079.389365,-9178.553681,-74.020594,0.000000
4079.389695,-10288.862594,592.164754,229.828649
4079.390025,-10140.821405,0.000000,229.828649
4079.390354,-9918.759623,592.164754,689.485948
4079.390684,-9474.636058,0.000000,536.266849
4079.391014,-10510.924376,296.082377,919.314598
4079.391344,-9548.656652,0.000000,153.219100
4079.391673,-9548.656652,74.020594,-306.438199
4079.392003,-9104.533087,518.144159,-153.219100
4079.392333,-9548.656652,0.000000,536.266849
4079.392663,-9474.636058,888.247130,459.657299
4079.392992,-9770.718434,222.061783,0.000000
4079.393322,-9844.739029,666.185348,-153.219100
4079.393652,-9252.574275,74.020594,0.000000
4079.393982,-9992.780217,0.000000,536.266849
4079.394311,-9696.697840,-148.041188,612.876398
4079.394641,-9696.697840,0.000000,919.314598
4079.394971,-9400.615463,0.000000,229.828649
4079.395301,-8882.471304,-444.123565,0.000000
4079.395630,-9400.615463,740.205942,76.609550
4079.395960,-10214.842000,148.041188,76.609550
4079.396290,-11325.150913,888.247130,229.828649
4079.396620,-9696.697840,-148.041188,689.485948
4079.396949,-10362.883188,74.020594,842.705048
4079.397279,-9696.697840,-370.102971,536.266849
4079.397609,-9844.739029,-370.102971,76.609550
4079.397939,-8882.471304,-296.082377,0.000000
4079.398268,-9252.574275,-148.041188,-612.876398
4079.398598,-9474.636058,296.082377,-306.438199
4079.398928,-10584.944971,0.000000,459.657299
4079.399258,-11103.089130,518.144159,459.657299
4079.399587,-10066.800811,148.041188,306.438199
4079.399917,-10881.027347,74.020594,842.705048
4079.400247,-10288.862594,-740.205942,0.000000
4079.400577,-9844.739029,-740.205942,-76.609550
4079.400907,-8364.327145,-666.185348,766.095498
4079.401236,-9178.553681,-592.164754,459.657299
4079.401566,-10214.842000,592.164754,766.095498
4079.401896,-10288.862594,-296.082377,0.000000
4079.402226,-9696.697840,0.000000,-459.657299
4079.402555,-9400.615463,-444.123565,153.219100
4079.402885,-10658.965565,0.000000,1378.971896
4079.403215,-9992.780217,-666.185348,1149.143247
4079.403545,-9622.677246,0.000000,0.000000
4079.403874,-8660.409521,0.000000,-1149.143247
4079.404204,-9770.718434,0.000000,0.000000
4079.404534,-10436.903782,444.123565,-76.609550
4079.404864,-10288.862594,-148.041188,-536.266849
4079.405193,-9474.636058,222.061783,-612.876398
4079.405523,-8734.430116,-370.102971,76.609550
4079.405853,-9844.739029,222.061783,612.876398
4079.406183,-9326.594869,-518.144159,-229.828649
4079.406512,-9474.636058,74.020594,-153.219100
4079.406842,-8586.388927,-148.041188,76.609550
4079.407172,-9696.697840,0.000000,919.314598
4079.407502,-10584.944971,444.123565,919.314598
4079.407831,-10510.924376,0.000000,229.828649
4079.408161,-9622.677246,370.102971,76.609550
4079.408491,-9400.615463,0.000000,1225.752797
4079.408821,-10584.944971,740.205942,1378.971896
4079.409150,-9992.780217,74.020594,459.657299
4079.409480,-9844.739029,518.144159,-383.047749
4079.409810,-9030.512492,296.082377,-153.219100
4079.410140,-9992.780217,740.205942,-459.657299
4079.410469,-10066.800811,518.144159,-689.485948
4079.410799,-10288.862594,222.061783,-612.876398
4079.411129,-9030.512492,666.185348,229.828649
4079.411459,-9474.636058,148.041188,1149.143247
4079.411788,-10214.842000,592.164754,689.485948
4079.412118,-9770.718434,74.020594,536.266849
4079.412448,-9178.553681,222.061783,229.828649
4079.412778,-8660.409521,-740.205942,153.219100
4079.413107,-9622.677246,74.020594,842.705048
4079.413437,-9992.780217,148.041188,612.876398
4079.413767,-10214.842000,444.123565,76.609550
4079.414097,-9252.574275,444.123565,0.000000
4079.414426,-9178.553681,-296.082377,-612.876398
4079.414756,-9992.780217,888.247130,-76.609550
4079.415086,-9992.780217,0.000000,0.000000
4079.415416,-10436.903782,518.144159,153.219100
4079.415745,-9104.533087,-592.164754,0.000000
4079.416075,-9548.656652,0.000000,-229.828649
4079.416405,-9474.636058,-148.041188,-306.438199
4079.416735,-9770.718434,0.000000,-76.609550
4079.417065,-9474.636058,148.041188,459.657299
4079.417394,-9918.759623,0.000000,766.095498
4079.417724,-10288.862594,518.144159,536.266849
4079.418054,-10140.821405,-148.041188,306.438199
4079.418384,-10140.821405,296.082377,153.219100
4079.418713,-9252.574275,-740.205942,153.219100
4079.419043,-10140.821405,296.082377,229.828649
4079.419373,-9622.677246,0.000000,-153.219100
4079.419703,-10584.944971,222.061783,-919.314598
4079.420032,-9326.594869,0.000000,-306.438199
4079.420362,-10140.821405,0.000000,0.000000
4079.420692,-10510.924376,370.102971,153.219100
4079.421022,-9918.759623,-296.082377,306.438199
4079.421351,-9326.594869,296.082377,459.657299
4079.421681,-9104.533087,-296.082377,383.047749
4079.422011,-10436.903782,0.000000,612.876398
4079.422341,-10214.842000,0.000000,-229.828649
4079.422670,-10066.800811,0.000000,-383.047749
4079.423000,-8660.409521,74.020594,689.485948
4079.423330,-9622.677246,0.000000,1532.190996
4079.423660,-10362.883188,296.082377,842.705048
4079.423989,-10140.821405,-296.082377,0.000000
4079.424319,-9770.718434,222.061783,0.000000
4079.424649,-9178.553681,-666.185348,459.657299
4079.424979,-10066.800811,74.020594,153.219100
4079.425308,-9178.553681,-222.061783,0.000000
4079.425638,-9326.594869,0.000000,-383.047749
4079.425968,-8734.430116,0.000000,-153.219100
4079.426298,-10066.800811,0.000000,76.609550
4079.426627,-9992.780217,148.041188,0.000000
4079.426957,-9844.739029,0.000000,459.657299
4079.427287,-9326.594869,518.144159,536.266849
4079.427617,-9104.533087,-370.102971,459.657299
4079.427946,-9770.718434,74.020594,306.438199
4079.428276,-10288.862594,-222.061783,0.000000
4079.428606,-10955.047942,-148.041188,0.000000
4079.428936,-9622.677246,-74.020594,842.705048
4079.429265,-9548.656652,0.000000,919.314598
4079.429595,-9474.636058,0.000000,229.828649
4079.429925,-9918.759623,74.020594,229.828649
4079.430255,-9992.780217,370.102971,76.609550
4079.430584,-9770.718434,-296.082377,459.657299
4079.430914,-10140.821405,518.144159,229.828649
4079.431244,-10214.842000,0.000000,612.876398
4079.431574,-10584.944971,518.144159,459.657299
4079.431903,-9918.759623,74.020594,229.828649
4079.432233,-10658.965565,222.061783,153.219100
4079.432563,-9770.718434,0.000000,-612.876398
4079.432893,-9844.739029,0.000000,0.000000
4079.433222,-9326.594869,74.020594,766.095498
4079.433552,-9400.615463,-74.020594,1149.143247
4079.433882,-10214.842000,666.185348,536.266849
4079.434212,-10140.821405,-370.102971,-383.047749
4079.434541,-10510.924376,296.082377,-919.314598
4079.434871,-9400.615463,-444.123565,306.438199
4079.435201,-10066.800811,518.144159,995.924147
4079.435530,-9030.512492,-74.020594,919.314598
4079.435860,-9548.656652,-148.041188,459.657299
4079.436190,-9252.574275,222.061783,0.000000
4079.436520,-9770.718434,-148.041188,229.828649
4079.436849,-10214.842000,592.164754,536.266849
4079.437179,-9844.739029,-518.144159,459.657299
4079.437509,-9622.677246,74.020594,306.438199
4079.437838,-9030.512492,-296.082377,1302.362347
4079.438168,-10362.883188,296.082377,536.266849
4079.438498,-9992.780217,-74.020594,-536.266849
4079.438828,-9622.677246,444.123565,-995.924147
4079.439157,-8660.409521,222.061783,0.000000
4079.439487,-9622.677246,0.000000,766.095498
4079.439817,-10214.842000,814.226536,306.438199
4079.440146,-9992.780217,0.000000,-536.266849
4079.440476,-10066.800811,1110.308913,-842.705048
4079.440806,-9548.656652,518.144159,0.000000
4079.441136,-10955.047942,740.205942,0.000000
4079.441465,-9622.677246,0.000000,0.000000
4079.441795,-9400.615463,148.041188,306.438199
4079.442125,-9104.533087,0.000000,459.657299
4079.442454,-9696.697840,74.020594,0.000000
4079.442784,-10066.800811,740.205942,0.000000
4079.443114,-9844.739029,0.000000,-383.047749
4079.443444,-9622.677246,592.164754,0.000000
4079.443773,-8808.450710,-222.061783,995.924147
4079.444103,-9622.677246,444.123565,1072.533697
4079.444433,-9474.636058,74.020594,0.000000
4079.444762,-10140.821405,296.082377,0.000000
4079.445092,-9770.718434,222.061783,-153.219100
4079.445422,-10140.821405,-74.020594,229.828649
4079.445752,-9770.718434,148.041188,153.219100
4079.446081,-9770.718434,-222.061783,306.438199
4079.446411,-9400.615463,592.164754,689.485948
4079.446741,-9030.512492,-296.082377,383.047749
4079.447071,-10436.903782,592.164754,383.047749
4079.447400,-10807.006753,148.041188,0.000000
4079.447730,-11029.068536,370.102971,383.047749
4079.448060,-9326.594869,-74.020594,0.000000
4079.448389,-8956.491898,-444.123565,459.657299
4079.448719,-9844.739029,-296.082377,306.438199
4079.449049,-10658.965565,-814.226536,0.000000
4079.449379,-9474.636058,222.061783,0.000000
4079.449708,-9252.574275,-370.102971,612.876398
4079.450038,-10066.800811,518.144159,919.314598
4079.450368,-10214.842000,-296.082377,1302.362347
4079.450697,-10214.842000,518.144159,689.485948
4079.451027,-9400.615463,-518.144159,0.000000
4079.451357,-9992.780217,-222.061783,-459.657299
4079.451687,-9622.677246,-740.205942,0.000000
4079.452016,-10214.842000,-740.205942,1225.752797
4079.452346,-9474.636058,148.041188,1455.581446
4079.452676,-9622.677246,-370.102971,1455.581446
4079.453005,-10510.924376,370.102971,612.876398
4079.453335,-9770.718434,-518.144159,0.000000
4079.453665,-10066.800811,74.020594,0.000000
4079.453995,-9104.533087,-370.102971,459.657299
4079.454324,-10066.800811,-370.102971,612.876398
4079.454654,-9474.636058,-370.102971,459.657299
4079.454984,-9770.718434,-370.102971,-459.657299
4079.455313,-9474.636058,74.020594,-612.876398
4079.455643,-9844.739029,-370.102971,0.000000
4079.455973,-10436.903782,222.061783,689.485948
4079.456303,-10066.800811,-296.082377,1302.362347
4079.456632,-9770.718434,74.020594,995.924147
4079.456962,-9252.574275,-148.041188,766.095498
4079.457292,-9844.739029,0.000000,0.000000
4079.457621,-9400.615463,0.000000,-306.438199
4079.457951,-10362.883188,222.061783,-536.266849
4079.458281,-9770.718434,222.061783,612.876398
4079.458611,-9696.697840,0.000000,766.095498
4079.458940,-10214.842000,0.000000,612.876398
4079.459270,-9918.759623,-370.102971,0.000000
4079.459600,-9918.759623,370.102971,459.657299
4079.459929,-9326.594869,-370.102971,689.485948
4079.460259,-9622.677246,0.000000,306.438199
4079.460589,-8734.430116,740.205942,459.657299
4079.460919,-9696.697840,74.020594,76.609550
4079.461248,-9622.677246,296.082377,459.657299
4079.461578,-10584.944971,592.164754,536.266849
4079.461908,-10584.944971,518.144159,0.000000
4079.462238,-10288.862594,0.000000,-383.047749
4079.462567,-9992.780217,518.144159,0.000000
4079.462897,-8882.471304,-370.102971,689.485948
4079.463227,-9770.718434,148.041188,919.314598
4079.463556,-9770.718434,148.041188,383.047749
4079.463886,-10362.883188,296.082377,-689.485948
4079.464216,-9622.677246,592.164754,-383.047749
4079.464546,-9252.574275,0.000000,0.000000
4079.464875,-9622.677246,666.185348,76.609550
4079.465205,-9696.697840,0.000000,0.000000
4079.465535,-9844.739029,740.205942,229.828649
4079.465864,-9252.574275,-222.061783,229.828649
4079.466194,-9992.780217,222.061783,306.438199
4079.466524,-9770.718434,0.000000,689.485948
4079.466854,-10214.842000,148.041188,383.047749
4079.467183,-8808.450710,0.000000,306.438199
4079.467513,-9252.574275,0.000000,612.876398
4079.467843,-9992.780217,370.102971,76.609550
4079.468172,-10362.883188,222.061783,-306.438199
4079.468502,-9770.718434,814.226536,-153.219100
4079.468832,-9104.533087,0.000000,0.000000
4079.469162,-9992.780217,740.205942,0.000000
4079.469491,-10214.842000,74.020594,0.000000
4079.469821,-9918.759623,0.000000,-612.876398
4079.470151,-8882.471304,0.000000,306.438199
4079.470480,-9770.718434,296.082377,689.485948
4079.470810,-10436.903782,74.020594,1302.362347
4079.471140,-10288.862594,-148.041188,1072.533697
4079.471470,-9474.636058,74.020594,995.924147
4079.471799,-9326.594869,-444.123565,842.705048
4079.472129,-10362.883188,962.267725,459.657299
4079.472459,-9918.759623,-222.061783,153.219100
4079.472788,-9992.780217,592.164754,-383.047749
4079.473118,-9104.533087,370.102971,0.000000
4079.473448,-10066.800811,222.061783,0.000000
4079.473778,-9844.739029,74.020594,-229.828649
4079.474107,-9548.656652,0.000000,-995.924147
4079.474437,-9252.574275,0.000000,-383.047749
4079.474767,-9104.533087,-518.144159,459.657299
4079.475096,-9844.739029,518.144159,536.266849
4079.475426,-9844.739029,-296.082377,459.657299
4079.475756,-10658.965565,0.000000,383.047749
4079.476086,-9918.759623,-370.102971,842.705048
4079.476415,-9992.780217,0.000000,1532.190996
4079.476745,-9474.636058,-296.082377,919.314598
4079.477075,-9474.636058,-222.061783,306.438199
4079.477404,-8882.471304,148.041188,0.000000
4079.477734,-8586.388927,-592.164754,0.000000
4079.478064,-9622.677246,74.020594,-612.876398
4079.478394,-10436.903782,148.041188,-612.876398
4079.478723,-10510.924376,0.000000,-612.876398
4079.479053,-8808.450710,-148.041188,-229.828649
4079.479383,-9770.718434,-148.041188,0.000000
4079.479713,-10288.862594,-296.082377,76.609550
4079.480042,-10288.862594,-222.061783,153.219100
4079.480372,-9548.656652,-222.061783,919.314598
4079.480702,-8956.491898,-148.041188,1608.800546
4079.481031,-10214.842000,592.164754,1149.143247
4079.481361,-10436.903782,-370.102971,766.095498
4079.481691,-9992.780217,0.000000,76.609550
4079.482021,-8734.430116,-518.144159,383.047749
4079.482350,-9918.759623,222.061783,153.219100
4079.482680,-10214.842000,-148.041188,0.000000
4079.483010,-10288.862594,222.061783,-229.828649
4079.483339,-8956.491898,296.082377,-612.876398
4079.483669,-9326.594869,0.000000,0.000000
4079.483999,-10658.965565,444.123565,229.828649
4079.484329,-10732.986159,74.020594,536.266849
4079.484658,-9918.759623,444.123565,536.266849
4079.484988,-8808.450710,0.000000,1149.143247
4079.485318,-9622.677246,296.082377,612.876398
4079.485647,-9474.636058,0.000000,0.000000
4079.485977,-10066.800811,0.000000,-536.266849
4079.486307,-9474.636058,74.020594,766.095498
4079.486637,-9548.656652,-370.102971,1225.752797
4079.486966,-9992.780217,370.102971,1378.971896
4079.487296,-9992.780217,-74.020594,459.657299
4079.487626,-10066.800811,666.185348,229.828649
4079.487955,-9474.636058,0.000000,612.876398
4079.488285,-10362.883188,518.144159,0.000000
4079.488615,-9770.718434,0.000000,-153.219100
4079.488945,-10288.862594,444.123565,0.000000
4079.489274,-9474.636058,296.082377,689.485948
4079.489604,-9622.677246,0.000000,459.657299
4079.489934,-10140.821405,444.123565,0.000000
4079.490263,-10066.800811,0.000000,0.000000
4079.490593,-9770.718434,1110.308913,0.000000
4079.490923,-9104.533087,296.082377,612.876398
4079.491253,-10288.862594,666.185348,459.657299
4079.491582,-9992.780217,0.000000,-153.219100
4079.491912,-10288.862594,222.061783,-459.657299
4079.492242,-9400.615463,148.041188,459.657299
4079.492571,-9548.656652,0.000000,229.828649
4079.492901,-9844.739029,0.000000,536.266849
4079.493231,-9622.677246,74.020594,229.828649
4079.493561,-9622.677246,296.082377,383.047749
4079.493890,-9622.677246,-74.020594,536.266849
4079.494220,-9918.759623,148.041188,0.000000
4079.494550,-9622.677246,0.000000,-76.609550
4079.494879,-9030.512492,814.226536,-612.876398
4079.495209,-9326.594869,148.041188,0.000000
4079.495539,-10362.883188,592.164754,306.438199
4079.495869,-10436.903782,518.144159,0.000000
4079.496198,-10362.883188,148.041188,-383.047749
4079.496528,-9178.553681,296.082377,0.000000
4079.496858,-9474.636058,148.041188,459.657299
4079.497188,-10658.965565,222.061783,612.876398
4079.497517,-10362.883188,-148.041188,76.609550
4079.497847,-10214.842000,222.061783,0.000000
4079.498177,-9178.553681,-148.041188,153.219100
4079.498506,-9844.739029,148.041188,0.000000
4079.498836,-9696.697840,296.082377,-153.219100
4079.499166,-10066.800811,518.144159,0.000000
4079.499496,-9252.574275,296.082377,0.000000
4079.499825,-9696.697840,-74.020594,536.266849
4079.500155,-10140.821405,74.020594,383.047749
4079.500485,-9696.697840,-296.082377,0.000000
4079.500814,-9548.656652,-222.061783,0.000000
4079.501144,-9030.512492,-296.082377,536.266849
4079.501474,-9622.677246,0.000000,919.314598
4079.501804,-9548.656652,0.000000,689.485948
4079.502133,-10362.883188,444.123565,383.047749
4079.502463,-9696.697840,0.000000,919.314598
4079.502793,-9696.697840,0.000000,612.876398
4079.503122,-10214.842000,222.061783,0.000000
4079.503452,-9548.656652,222.061783,-536.266849
4079.503782,-9548.656652,74.020594,-306.438199
4079.504112,-8956.491898,-370.102971,536.266849
4079.504441,-9252.574275,74.020594,842.705048
4079.504771,-9326.594869,74.020594,536.266849
4079.505101,-10214.842000,0.000000,0.000000
4079.505430,-9696.697840,74.020594,383.047749
4079.505760,-10066.800811,0.000000,689.485948
4079.506090,-10658.965565,222.061783,229.828649
4079.506420,-10288.862594,-296.082377,229.828649
4079.506749,-9622.677246,296.082377,306.438199
4079.507079,-8586.388927,-222.061783,153.219100
4079.507409,-9844.739029,518.144159,0.000000
4079.507738,-9844.739029,74.020594,76.609550
4079.508068,-10807.006753,222.061783,76.609550
4079.508398,-9474.636058,0.000000,76.609550
4079.508728,-9844.739029,0.000000,0.000000
4079.509057,-9918.759623,-148.041188,153.219100
4079.509387,-9400.615463,-518.144159,-459.657299
4079.509717,-9178.553681,74.020594,459.657299
4079.510046,-9474.636058,-222.061783,612.876398
4079.510376,-10881.027347,518.144159,995.924147
4079.510706,-10658.965565,222.061783,306.438199
4079.511036,-10881.027347,222.061783,-76.609550
4079.511365,-8956.491898,-222.061783,306.438199
4079.511695,-9622.677246,-222.061783,842.705048
4079.512025,-9918.759623,-148.041188,459.657299
4079.512355,-9770.718434,-370.102971,-383.047749
4079.512684,-9622.677246,740.205942,-383.047749
4079.513014,-9178.553681,0.000000,0.000000
4079.513344,-10140.821405,1110.308913,306.438199
4079.513673,-10140.821405,0.000000,76.609550
4079.514003,-10140.821405,-296.082377,-153.219100
4079.514333,-9104.533087,-296.082377,76.609550
4079.514663,-9178.553681,-444.123565,0.000000
4079.514992,-9326.594869,-592.164754,-153.219100
4079.515322,-9178.553681,-666.185348,0.000000
4079.515652,-9326.594869,0.000000,536.266849
4079.515981,-9548.656652,-222.061783,536.266849
4079.516311,-10140.821405,74.020594,536.266849
4079.516641,-10140.821405,-370.102971,383.047749
4079.516971,-10288.862594,-74.020594,306.438199
4079.517300,-8734.430116,0.000000,612.876398
4079.517630,-9252.574275,0.000000,459.657299
4079.517960,-9178.553681,148.041188,-306.438199
4079.518289,-9918.759623,296.082377,-229.828649
4079.518619,-10066.800811,1110.308913,-153.219100
4079.518949,-10140.821405,0.000000,-229.828649
4079.519279,-10658.965565,1110.308913,-306.438199
4079.519608,-10584.944971,-296.082377,306.438199
4079.519938,-10436.903782,222.061783,612.876398
4079.520268,-8882.471304,-518.144159,766.095498
4079.520597,-9992.780217,296.082377,995.924147
4079.520927,-9992.780217,0.000000,766.095498
4079.521257,-10140.821405,74.020594,306.438199
4079.521587,-9622.677246,444.123565,0.000000
4079.521916,-9696.697840,370.102971,0.000000
4079.522246,-10288.862594,1110.308913,612.876398
4079.522576,-10510.924376,0.000000,919.314598
4079.522905,-10436.903782,518.144159,306.438199
4079.523235,-8882.471304,-222.061783,229.828649
4079.523565,-9548.656652,74.020594,-76.609550
4079.523895,-9252.574275,-222.061783,-153.219100
4079.524224,-9992.780217,0.000000,153.219100
4079.524554,-9400.615463,222.061783,1149.143247
4079.524884,-9474.636058,0.000000,766.095498
4079.525213,-10066.800811,740.205942,612.876398
4079.525543,-10288.862594,-296.082377,383.047749
4079.525873,-10436.903782,666.185348,383.047749
4079.526203,-9326.594869,0.000000,766.095498
4079.526532,-10362.883188,296.082377,689.485948
4079.526862,-9770.718434,-74.020594,76.609550
4079.527192,-9770.718434,-148.041188,-459.657299
4079.527521,-9030.512492,148.041188,76.609550
4079.527851,-9474.636058,222.061783,76.609550
4079.528181,-10066.800811,962.267725,306.438199
4079.528511,-9992.780217,296.082377,153.219100
4079.528840,-9844.739029,666.185348,459.657299
4079.529170,-9622.677246,148.041188,229.828649
4079.529500,-10436.903782,148.041188,-306.438199
4079.529830,-10362.883188,-296.082377,-306.438199
4079.530159,-10214.842000,296.082377,-383.047749
4079.530489,-9030.512492,74.020594,306.438199
4079.530819,-9696.697840,-222.061783,0.000000
4079.531148,-9622.677246,0.000000,0.000000
4079.531478,-10066.800811,-148.041188,-229.828649
4079.531808,-10288.862594,444.123565,689.485948
4079.532138,-9474.636058,-222.061783,995.924147
4079.532467,-10584.944971,222.061783,459.657299
4079.532797,-9548.656652,-666.185348,0.000000
4079.533127,-9992.780217,0.000000,0.000000
4079.533456,-9400.615463,-370.102971,0.000000
4079.533786,-9252.574275,-666.185348,459.657299
4079.534116,-9326.594869,518.144159,0.000000
4079.534446,-9770.718434,0.000000,153.219100
4079.534775,-10214.842000,888.247130,229.828649
4079.535105,-10140.821405,0.000000,459.657299
4079.535435,-10807.006753,0.000000,0.000000
4079.535765,-9844.739029,-814.226536,-383.047749
4079.536095,-9770.718434,-592.164754,-689.485948
4079.536425,-8660.409521,-740.205942,76.609550
4079.536754,-9178.553681,-296.082377,383.047749
4079.537084,-9252.574275,444.123565,229.828649
4079.537414,-10362.883188,814.226536,229.828649
4079.537744,-10362.883188,814.226536,306.438199
4079.538074,-10362.883188,0.000000,689.485948
4079.538404,-11769.274478,518.144159,766.095498
4079.538733,-10510.924376,-518.144159,0.000000
4079.539063,-9770.718434,-814.226536,-536.266849
4079.539393,-7698.141797,-888.247130,-229.828649
4079.539723,-8956.491898,-592.164754,766.095498
4079.540053,-9844.739029,222.061783,1608.800546
4079.540383,-10362.883188,-444.123565,1378.971896
4079.540712,-10214.842000,518.144159,1149.143247
4079.541042,-9844.739029,0.000000,1225.752797
4079.541372,-10881.027347,74.020594,612.876398
4079.541702,-10214.842000,-1184.329507,0.000000
4079.542032,-9400.615463,0.000000,0.000000
4079.542362,-8142.265362,-962.267725,306.438199
4079.542691,-9178.553681,-74.020594,459.657299
4079.543021,-9474.636058,518.144159,1378.971896
4079.543351,-10584.944971,222.061783,0.000000
4079.543681,-9918.759623,666.185348,-306.438199
4079.544011,-9918.759623,-370.102971,229.828649
4079.544341,-10658.965565,518.144159,536.266849
4079.544670,-9474.636058,-518.144159,153.219100
4079.545000,-9326.594869,0.000000,0.000000
4079.545330,-8364.327145,-592.164754,0.000000
4079.545660,-9400.615463,222.061783,153.219100
4079.545990,-9548.656652,518.144159,76.609550
4079.546320,-10732.986159,592.164754,0.000000
4079.546649,-10140.821405,888.247130,229.828649
4079.546979,-10362.883188,74.020594,0.000000
