#time,accel_x,accel_y,accel_z
4057.322702,-10732.986159,-1628.453072,1991.848295
4057.323032,-10807.006753,-1036.288319,2451.505594
4057.323362,-9696.697840,-1332.370696,1915.238745
4057.323692,-9400.615463,-1406.391290,1608.800546
4057.324022,-9030.512492,-962.267725,995.924147
4057.324352,-8882.471304,-962.267725,689.485948
4057.324682,-8882.471304,-888.247130,842.705048
4057.325012,-8660.409521,-1110.308913,1608.800546
4057.325342,-9474.636058,-518.144159,1685.410096
4057.325672,-10214.842000,-370.102971,2068.457845
4057.326002,-10288.862594,74.020594,1455.581446
4057.326332,-10807.006753,-518.144159,766.095498
4057.326662,-10140.821405,-296.082377,306.438199
4057.326992,-10732.986159,296.082377,1532.190996
4057.327322,-10881.027347,74.020594,2068.457845
4057.327652,-9622.677246,222.061783,1685.410096
4057.327982,-9474.636058,-518.144159,1072.533697
4057.328312,-9400.615463,-444.123565,229.828649
4057.328642,-9548.656652,-962.267725,995.924147
4057.328972,-9548.656652,-814.226536,2911.162892
4057.329302,-10066.800811,-962.267725,3447.429741
4057.329632,-9844.739029,-518.144159,2681.334243
4057.329962,-9918.759623,-1110.308913,2298.286494
4057.330292,-10955.047942,-1184.329507,2145.067394
4057.330622,-11103.089130,-888.247130,3140.991542
4057.330952,-10288.862594,-1554.432478,3600.648841
4057.331282,-9474.636058,-1998.556043,2987.772442
4057.331612,-8808.450710,-2072.576638,2221.676944
4057.331942,-9104.533087,-2072.576638,2451.505594
4057.332272,-9400.615463,-2072.576638,2145.067394
4057.332602,-9548.656652,-2368.659014,2145.067394
4057.332932,-8142.265362,-2812.782580,2145.067394
4057.333262,-11473.192101,-3404.947333,3907.087040
4057.333592,-11103.089130,-3627.009116,4366.744339
4057.333922,-9844.739029,-3182.885551,3064.381992
4057.334252,-9918.759623,-3182.885551,1532.190996
4057.334582,-9474.636058,-3330.926739,612.876398
4057.334912,-9770.718434,-3330.926739,2451.505594
4057.335242,-10732.986159,-2960.823768,4903.011187
4057.335571,-9030.512492,-3627.009116,5209.449386
4057.335901,-9548.656652,-3701.029710,3294.210641
4057.336231,-9844.739029,-3775.050304,153.219100
4057.336561,-9918.759623,-3775.050304,229.828649
4057.336891,-9696.697840,-4219.173869,1838.629195
4057.337221,-10214.842000,-3775.050304,4903.011187
4057.337551,-10066.800811,-4145.153275,6128.763984
4057.337881,-10288.862594,-3923.091493,4443.353888
4057.338211,-10510.924376,-3923.091493,2221.676944
4057.338541,-11473.192101,-3330.926739,1225.752797
4057.338871,-10732.986159,-3478.967927,1608.800546
4057.339201,-10066.800811,-3627.009116,2911.162892
4057.339531,-9770.718434,-3330.926739,3447.429741
4057.339861,-10066.800811,-3701.029710,3140.991542
4057.340191,-10066.800811,-3627.009116,1991.848295
4057.340521,-9844.739029,-4367.215058,1685.410096
4057.340851,-9918.759623,-4515.256246,1532.190996
4057.341181,-9548.656652,-4589.276840,2911.162892
4057.341511,-9474.636058,-4663.297435,3753.867940
4057.341841,-9178.553681,-3997.112087,4673.182538
4057.342171,-9178.553681,-3923.091493,3983.696590
4057.342501,-10066.800811,-3330.926739,2604.724693
4057.342831,-10066.800811,-2442.679609,1838.629195
4057.343161,-9992.780217,-2442.679609,1762.019645
4057.343491,-9696.697840,-2368.659014,2528.115143
4057.343821,-9770.718434,-1776.494261,2528.115143
4057.344151,-9918.759623,-1998.556043,1302.362347
4057.344481,-9030.512492,-2220.617826,-306.438199
4057.344811,-8956.491898,-2220.617826,-459.657299
4057.345141,-9252.574275,-2294.638420,1072.533697
4057.345471,-9400.615463,-1998.556043,3830.477490
4057.345801,-9252.574275,-2220.617826,4903.011187
4057.346131,-9474.636058,-1850.514855,3677.258390
4057.346461,-9844.739029,-1332.370696,2221.676944
4057.346791,-10955.047942,-666.185348,1532.190996
4057.347121,-10584.944971,-370.102971,1991.848295
4057.347451,-10510.924376,0.000000,2604.724693
4057.347781,-10214.842000,296.082377,2987.772442
4057.348111,-10362.883188,370.102971,2068.457845
4057.348441,-10288.862594,666.185348,229.828649
4057.348771,-9770.718434,888.247130,-1608.800546
4057.349101,-9326.594869,666.185348,-1378.971896
4057.349431,-9548.656652,740.205942,-153.219100
4057.349761,-9474.636058,148.041188,1915.238745
4057.350091,-9770.718434,148.041188,2451.505594
4057.350421,-9844.739029,444.123565,1915.238745
4057.350751,-9548.656652,0.000000,919.314598
4057.351081,-9622.677246,222.061783,0.000000
4057.351411,-10436.903782,1110.308913,1608.800546
4057.351741,-10584.944971,1184.329507,3370.820191
4057.352071,-10807.006753,1258.350101,3294.210641
4057.352401,-10510.924376,962.267725,1915.238745
4057.352731,-9918.759623,740.205942,689.485948
4057.353061,-9844.739029,222.061783,-536.266849
4057.353391,-9474.636058,518.144159,229.828649
4057.353721,-8586.388927,444.123565,612.876398
4057.354051,-8734.430116,1184.329507,919.314598
4057.354381,-9178.553681,1184.329507,-459.657299
4057.354711,-10140.821405,962.267725,-1302.362347
4057.355041,-10658.965565,888.247130,-1762.019645
4057.355371,-10732.986159,518.144159,0.000000
4057.355701,-9918.759623,-296.082377,1455.581446
4057.356031,-8882.471304,-592.164754,2068.457845
4057.356361,-8734.430116,-370.102971,1378.971896
4057.356691,-8882.471304,-592.164754,0.000000
4057.357021,-9474.636058,222.061783,-919.314598
4057.357351,-10140.821405,444.123565,-766.095498
4057.357681,-11103.089130,444.123565,0.000000
4057.358011,-10881.027347,518.144159,1149.143247
4057.358341,-10214.842000,-296.082377,995.924147
4057.358671,-9918.759623,-962.267725,0.000000
4057.359001,-9326.594869,-1480.411884,76.609550
4057.359331,-9326.594869,-1258.350101,689.485948
4057.359661,-9178.553681,-814.226536,1378.971896
4057.359991,-9178.553681,0.000000,612.876398
4057.360321,-9844.739029,0.000000,306.438199
4057.360651,-11473.192101,0.000000,536.266849
4057.360981,-11695.253884,0.000000,229.828649
4057.361311,-11843.295072,-370.102971,919.314598
4057.361641,-10140.821405,-592.164754,536.266849
4057.361971,-8586.388927,-1480.411884,229.828649
4057.362301,-8586.388927,-1776.494261,459.657299
4057.362631,-9326.594869,-1480.411884,766.095498
4057.362961,-9696.697840,-1554.432478,919.314598
4057.363291,-8956.491898,-1110.308913,536.266849
4057.363621,-8734.430116,-1036.288319,306.438199
4057.363951,-9844.739029,-962.267725,689.485948
4057.364281,-10658.965565,-74.020594,1302.362347
4057.364610,-11325.150913,-370.102971,689.485948
4057.364940,-10510.924376,-444.123565,0.000000
4057.365270,-9104.533087,-962.267725,-306.438199
4057.365600,-8956.491898,-740.205942,919.314598
4057.365930,-9326.594869,-1036.288319,1072.533697
4057.366260,-9918.759623,-888.247130,76.609550
4057.366590,-9474.636058,-370.102971,0.000000
4057.366920,-8660.409521,-370.102971,-536.266849
4057.367250,-9474.636058,-74.020594,306.438199
4057.367580,-10214.842000,148.041188,1455.581446
4057.367910,-10362.883188,74.020594,383.047749
4057.368240,-10066.800811,74.020594,0.000000
4057.368570,-9548.656652,148.041188,-153.219100
4057.368900,-9474.636058,0.000000,76.609550
4057.369230,-10066.800811,444.123565,1302.362347
4057.369560,-10436.903782,0.000000,1685.410096
4057.369890,-10214.842000,-148.041188,229.828649
4057.370220,-9178.553681,222.061783,306.438199
4057.370550,-8734.430116,444.123565,-306.438199
4057.370880,-9622.677246,666.185348,-229.828649
4057.371210,-9474.636058,1036.288319,-306.438199
4057.371540,-10288.862594,1258.350101,-689.485948
4057.371870,-11103.089130,1776.494261,-153.219100
4057.372200,-10436.903782,1258.350101,-76.609550
4057.372530,-9918.759623,518.144159,153.219100
4057.372860,-9400.615463,888.247130,229.828649
4057.373190,-9696.697840,444.123565,229.828649
4057.373520,-10140.821405,370.102971,536.266849
4057.373850,-8660.409521,74.020594,-306.438199
4057.374180,-7994.224174,0.000000,-383.047749
4057.374510,-9030.512492,814.226536,383.047749
4057.374840,-10510.924376,1184.329507,536.266849
4057.375170,-10955.047942,1332.370696,459.657299
4057.375500,-10066.800811,1406.391290,-229.828649
4057.375830,-9400.615463,814.226536,-766.095498
4057.376160,-9696.697840,666.185348,306.438199
4057.376490,-10288.862594,370.102971,995.924147
4057.376820,-10214.842000,518.144159,1608.800546
4057.377150,-9548.656652,740.205942,536.266849
4057.377480,-8882.471304,296.082377,-919.314598
4057.377810,-9030.512492,444.123565,0.000000
4057.378140,-9918.759623,814.226536,383.047749
4057.378470,-10732.986159,1036.288319,0.000000
4057.378800,-10510.924376,1332.370696,-306.438199
4057.379130,-9770.718434,888.247130,-612.876398
4057.379460,-9400.615463,296.082377,-229.828649
4057.379790,-10510.924376,0.000000,459.657299
4057.380120,-10955.047942,-370.102971,229.828649
4057.380450,-9548.656652,-444.123565,766.095498
4057.380780,-8216.285956,-370.102971,229.828649
4057.381110,-8512.368333,-222.061783,383.047749
4057.381440,-9622.677246,0.000000,766.095498
4057.381770,-10288.862594,222.061783,-306.438199
4057.382100,-10955.047942,888.247130,-536.266849
4057.382430,-10066.800811,370.102971,-383.047749
4057.382760,-9548.656652,0.000000,-919.314598
4057.383090,-9252.574275,-296.082377,459.657299
4057.383420,-9622.677246,-666.185348,306.438199
4057.383750,-9918.759623,-370.102971,306.438199
4057.384080,-9548.656652,-518.144159,0.000000
4057.384410,-8882.471304,-370.102971,-229.828649
4057.384740,-9326.594869,-74.020594,459.657299
4057.385070,-10436.903782,296.082377,766.095498
4057.385400,-11547.212695,296.082377,689.485948
4057.385730,-10807.006753,444.123565,76.609550
4057.386060,-9326.594869,-74.020594,-229.828649
4057.386389,-9548.656652,-518.144159,383.047749
4057.386719,-10362.883188,-148.041188,1072.533697
4057.387049,-10214.842000,-444.123565,612.876398
4057.387379,-9548.656652,-444.123565,919.314598
4057.387709,-9252.574275,-222.061783,459.657299
4057.388039,-9770.718434,-296.082377,153.219100
4057.388369,-10658.965565,0.000000,153.219100
4057.388699,-11251.130318,0.000000,0.000000
4057.389029,-10658.965565,74.020594,536.266849
4057.389359,-8734.430116,0.000000,0.000000
4057.389689,-7994.224174,-666.185348,76.609550
4057.390019,-9178.553681,-296.082377,1072.533697
4057.390349,-10881.027347,-370.102971,1685.410096
4057.390679,-11177.109724,-296.082377,1149.143247
4057.391009,-9622.677246,-666.185348,689.485948
4057.391339,-8808.450710,-962.267725,-383.047749
4057.391669,-8808.450710,-962.267725,306.438199
4057.391999,-9548.656652,-444.123565,536.266849
4057.392329,-9474.636058,-444.123565,153.219100
4057.392659,-8586.388927,74.020594,-306.438199
4057.392989,-8882.471304,222.061783,-842.705048
4057.393319,-9992.780217,0.000000,766.095498
4057.393649,-11177.109724,0.000000,1455.581446
4057.393979,-10732.986159,-444.123565,1149.143247
4057.394309,-9844.739029,-296.082377,766.095498
4057.394639,-9104.533087,-592.164754,0.000000
4057.394969,-9030.512492,-592.164754,0.000000
4057.395299,-9844.739029,74.020594,766.095498
4057.395629,-10584.944971,592.164754,383.047749
4057.395959,-11029.068536,1110.308913,0.000000
4057.396289,-10066.800811,962.267725,-689.485948
4057.396619,-9696.697840,518.144159,-842.705048
4057.396949,-9918.759623,296.082377,306.438199
4057.397279,-10362.883188,222.061783,306.438199
4057.397609,-10140.821405,0.000000,919.314598
4057.397939,-9104.533087,0.000000,766.095498
4057.398269,-9400.615463,-222.061783,-459.657299
4057.398599,-10658.965565,74.020594,229.828649
4057.398929,-10658.965565,148.041188,-306.438199
4057.399259,-10066.800811,296.082377,-306.438199
4057.399589,-8808.450710,518.144159,0.000000
4057.399919,-8438.347739,222.061783,-306.438199
4057.400249,-9474.636058,518.144159,153.219100
4057.400579,-10510.924376,296.082377,306.438199
4057.400909,-11103.089130,0.000000,76.609550
4057.401239,-10436.903782,0.000000,459.657299
4057.401569,-9400.615463,-592.164754,0.000000
4057.401899,-8956.491898,-370.102971,0.000000
4057.402229,-9252.574275,0.000000,306.438199
4057.402559,-9770.718434,444.123565,-536.266849
4057.402889,-9918.759623,1332.370696,-842.705048
4057.403219,-9252.574275,1036.288319,-612.876398
4057.403549,-9992.780217,592.164754,-306.438199
4057.403879,-10436.903782,444.123565,919.314598
4057.404209,-10955.047942,222.061783,689.485948
4057.404539,-10140.821405,0.000000,76.609550
4057.404869,-8660.409521,-444.123565,-306.438199
4057.405199,-8512.368333,-222.061783,-919.314598
4057.405529,-9178.553681,148.041188,0.000000
4057.405859,-10658.965565,518.144159,612.876398
4057.406189,-10436.903782,888.247130,919.314598
4057.406519,-9844.739029,740.205942,842.705048
4057.406849,-8882.471304,74.020594,-612.876398
4057.407179,-9622.677246,0.000000,153.219100
4057.407509,-10658.965565,74.020594,1149.143247
4057.407839,-10584.944971,-296.082377,2145.067394
4057.408168,-9400.615463,0.000000,536.266849
4057.408498,-8808.450710,0.000000,-612.876398
4057.408828,-9992.780217,0.000000,0.000000
4057.409158,-10584.944971,518.144159,0.000000
4057.409488,-10288.862594,222.061783,-383.047749
4057.409818,-9474.636058,370.102971,76.609550
4057.410148,-8660.409521,148.041188,-383.047749
4057.410478,-8438.347739,0.000000,-76.609550
4057.410808,-9474.636058,222.061783,306.438199
4057.411138,-10881.027347,148.041188,459.657299
4057.411468,-11103.089130,0.000000,766.095498
4057.411798,-9918.759623,-296.082377,383.047749
4057.412128,-9030.512492,-740.205942,919.314598
4057.412458,-9030.512492,-370.102971,1302.362347
4057.412788,-9548.656652,0.000000,459.657299
4057.413118,-9770.718434,0.000000,383.047749
4057.413448,-9252.574275,148.041188,459.657299
4057.413778,-9104.533087,-370.102971,306.438199
4057.414108,-9844.739029,0.000000,995.924147
4057.414438,-10510.924376,-296.082377,995.924147
4057.414768,-10362.883188,-592.164754,536.266849
4057.415098,-9326.594869,-666.185348,766.095498
4057.415428,-8956.491898,-888.247130,153.219100
4057.415758,-9326.594869,-814.226536,919.314598
4057.416088,-10214.842000,-148.041188,1762.019645
4057.416418,-10510.924376,0.000000,1072.533697
4057.416748,-10288.862594,592.164754,306.438199
4057.417078,-9622.677246,370.102971,-995.924147
4057.417408,-9918.759623,0.000000,-995.924147
4057.417738,-10510.924376,0.000000,229.828649
4057.418068,-10288.862594,0.000000,995.924147
4057.418398,-9918.759623,-370.102971,1302.362347
4057.418728,-9030.512492,-148.041188,-76.609550
4057.419058,-9770.718434,-296.082377,-995.924147
4057.419388,-10362.883188,-518.144159,-536.266849
4057.419718,-10140.821405,-296.082377,153.219100
4057.420048,-10066.800811,0.000000,1225.752797
4057.420378,-9548.656652,0.000000,1532.190996
4057.420708,-8882.471304,-296.082377,76.609550
4057.421038,-9326.594869,-296.082377,536.266849
4057.421368,-10214.842000,0.000000,76.609550
4057.421698,-10658.965565,0.000000,459.657299
4057.422028,-10140.821405,0.000000,1072.533697
4057.422358,-8882.471304,-592.164754,306.438199
4057.422688,-9252.574275,0.000000,153.219100
4057.423018,-9548.656652,148.041188,-306.438199
4057.423348,-9918.759623,0.000000,-995.924147
4057.423678,-9178.553681,148.041188,0.000000
4057.424008,-8734.430116,518.144159,-459.657299
4057.424338,-9622.677246,740.205942,383.047749
4057.424668,-10140.821405,740.205942,612.876398
4057.424998,-10214.842000,0.000000,0.000000
4057.425328,-9992.780217,666.185348,-306.438199
4057.425658,-9918.759623,666.185348,-306.438199
4057.425988,-9770.718434,148.041188,229.828649
4057.426318,-9844.739029,148.041188,1149.143247
4057.426648,-9622.677246,296.082377,1072.533697
4057.426978,-9696.697840,444.123565,536.266849
4057.427308,-9474.636058,518.144159,-459.657299
4057.427638,-8956.491898,0.000000,-612.876398
4057.427968,-9252.574275,222.061783,306.438199
4057.428298,-10436.903782,666.185348,1149.143247
4057.428628,-10510.924376,666.185348,995.924147
4057.428958,-9474.636058,518.144159,536.266849
4057.429288,-9178.553681,-296.082377,153.219100
4057.429617,-9918.759623,0.000000,306.438199
4057.429947,-10362.883188,444.123565,459.657299
4057.430277,-9992.780217,0.000000,459.657299
4057.430607,-9770.718434,518.144159,306.438199
4057.430937,-9474.636058,148.041188,-153.219100
4057.431267,-9992.780217,148.041188,306.438199
4057.431597,-10288.862594,74.020594,995.924147
4057.431927,-10288.862594,148.041188,229.828649
4057.432257,-9770.718434,0.000000,306.438199
4057.432587,-8956.491898,0.000000,306.438199
4057.432917,-9252.574275,0.000000,0.000000
4057.433247,-10066.800811,148.041188,306.438199
4057.433577,-10362.883188,222.061783,76.609550
4057.433907,-10214.842000,148.041188,306.438199
4057.434237,-9770.718434,148.041188,-229.828649
4057.434567,-9400.615463,-444.123565,-229.828649
4057.434897,-9400.615463,-518.144159,536.266849
4057.435227,-9770.718434,-74.020594,459.657299
4057.435557,-9918.759623,-148.041188,153.219100
4057.435887,-9548.656652,0.000000,612.876398
4057.436217,-9474.636058,222.061783,0.000000
4057.436547,-10066.800811,518.144159,0.000000
4057.436877,-10807.006753,370.102971,-383.047749
4057.437207,-10510.924376,0.000000,-153.219100
4057.437537,-10140.821405,296.082377,0.000000
4057.437867,-9474.636058,222.061783,-383.047749
4057.438197,-9104.533087,148.041188,0.000000
4057.438527,-10066.800811,0.000000,459.657299
4057.438857,-10362.883188,0.000000,306.438199
4057.439187,-10362.883188,0.000000,1072.533697
4057.439517,-9992.780217,0.000000,229.828649
4057.439847,-9918.759623,-296.082377,459.657299
4057.440177,-9770.718434,-74.020594,1149.143247
4057.440507,-10140.821405,0.000000,689.485948
4057.440837,-10214.842000,444.123565,153.219100
4057.441167,-9548.656652,370.102971,-383.047749
4057.441497,-9474.636058,-74.020594,-459.657299
4057.441827,-9844.739029,74.020594,766.095498
4057.442157,-10658.965565,0.000000,1455.581446
4057.442487,-10140.821405,0.000000,612.876398
4057.442817,-8808.450710,-518.144159,153.219100
4057.443147,-8068.244768,-592.164754,-459.657299
4057.443477,-9252.574275,-148.041188,1149.143247
4057.443807,-10288.862594,0.000000,1378.971896
4057.444137,-11103.089130,0.000000,842.705048
4057.444467,-9696.697840,296.082377,459.657299
4057.444797,-8956.491898,0.000000,-536.266849
4057.445127,-9474.636058,0.000000,153.219100
4057.445457,-10140.821405,-74.020594,1149.143247
4057.445787,-10066.800811,-74.020594,1072.533697
4057.446117,-9770.718434,0.000000,689.485948
4057.446447,-9178.553681,-296.082377,-383.047749
4057.446777,-9178.553681,-370.102971,153.219100
4057.447107,-9844.739029,0.000000,689.485948
4057.447437,-10214.842000,0.000000,612.876398
4057.447767,-9844.739029,222.061783,306.438199
4057.448097,-9326.594869,666.185348,-766.095498
4057.448426,-9918.759623,592.164754,-766.095498
4057.448756,-10658.965565,518.144159,229.828649
4057.449086,-11103.089130,370.102971,612.876398
4057.449416,-10140.821405,0.000000,383.047749
4057.449746,-8882.471304,0.000000,-306.438199
4057.450076,-9030.512492,-296.082377,0.000000
4057.450406,-9622.677246,-518.144159,766.095498
4057.450736,-10510.924376,-370.102971,842.705048
4057.451066,-10881.027347,222.061783,536.266849
4057.451396,-10288.862594,-74.020594,306.438199
4057.451726,-9474.636058,-148.041188,0.000000
4057.452056,-9030.512492,-222.061783,306.438199
4057.452386,-9918.759623,-296.082377,536.266849
4057.452716,-10066.800811,-444.123565,229.828649
4057.453046,-9696.697840,0.000000,0.000000
4057.453376,-9252.574275,-148.041188,-536.266849
4057.453706,-9474.636058,0.000000,0.000000
4057.454036,-9622.677246,0.000000,0.000000
4057.454366,-10288.862594,74.020594,306.438199
4057.454696,-10362.883188,222.061783,766.095498
4057.455026,-9548.656652,0.000000,-459.657299
4057.455356,-9252.574275,0.000000,-459.657299
4057.455686,-9474.636058,222.061783,306.438199
4057.456016,-10584.944971,370.102971,536.266849
4057.456346,-10362.883188,814.226536,536.266849
4057.456675,-9474.636058,592.164754,-766.095498
4057.457005,-9030.512492,370.102971,-1225.752797
4057.457335,-9326.594869,370.102971,-153.219100
4057.457665,-10436.903782,296.082377,229.828649
4057.457995,-10658.965565,814.226536,0.000000
4057.458325,-9474.636058,666.185348,-536.266849
4057.458655,-9104.533087,0.000000,-612.876398
4057.458985,-9622.677246,-370.102971,76.609550
4057.459315,-10732.986159,444.123565,1532.190996
4057.459645,-10658.965565,740.205942,1302.362347
4057.459975,-9918.759623,666.185348,229.828649
4057.460305,-8956.491898,296.082377,-383.047749
4057.460635,-9474.636058,222.061783,153.219100
4057.460965,-9918.759623,666.185348,383.047749
4057.461295,-9992.780217,222.061783,229.828649
4057.461625,-9400.615463,444.123565,0.000000
4057.461955,-8734.430116,74.020594,-842.705048
4057.462285,-9474.636058,-74.020594,0.000000
4057.462615,-10436.903782,148.041188,459.657299
4057.462945,-10214.842000,74.020594,229.828649
4057.463275,-9770.718434,0.000000,383.047749
4057.463605,-8660.409521,296.082377,306.438199
4057.463935,-9030.512492,148.041188,459.657299
4057.464265,-9918.759623,74.020594,1225.752797
4057.464595,-10807.006753,74.020594,153.219100
4057.464925,-10807.006753,0.000000,-383.047749
4057.465254,-9474.636058,0.000000,-76.609550
4057.465584,-8882.471304,-592.164754,-306.438199
4057.465914,-9104.533087,-666.185348,383.047749
4057.466244,-9548.656652,-518.144159,919.314598
4057.466574,-10214.842000,-148.041188,153.219100
4057.466904,-9770.718434,74.020594,153.219100
4057.467234,-9770.718434,296.082377,0.000000
4057.467564,-10140.821405,-148.041188,842.705048
4057.467894,-10658.965565,0.000000,842.705048
4057.468224,-10658.965565,0.000000,459.657299
4057.468554,-9844.739029,-296.082377,383.047749
4057.468884,-8512.368333,-740.205942,-459.657299
4057.469214,-8808.450710,-666.185348,-612.876398
4057.469544,-10214.842000,0.000000,153.219100
4057.469874,-11029.068536,0.000000,612.876398
4057.470204,-9992.780217,148.041188,612.876398
4057.470534,-9252.574275,-370.102971,306.438199
4057.470864,-9400.615463,-370.102971,153.219100
4057.471194,-10214.842000,-370.102971,919.314598
4057.471524,-11103.089130,-518.144159,766.095498
4057.471854,-10584.944971,0.000000,1532.190996
4057.472184,-9252.574275,-370.102971,76.609550
4057.472514,-8808.450710,-740.205942,229.828649
4057.472844,-9548.656652,-518.144159,995.924147
4057.473174,-10732.986159,148.041188,995.924147
4057.473503,-11325.150913,0.000000,766.095498
4057.473833,-10214.842000,0.000000,-153.219100
4057.474163,-9326.594869,-148.041188,-383.047749
4057.474493,-9548.656652,0.000000,612.876398
4057.474823,-10288.862594,0.000000,995.924147
4057.475153,-10362.883188,-222.061783,536.266849
4057.475483,-9696.697840,74.020594,0.000000
4057.475813,-9326.594869,0.000000,-1072.533697
4057.476143,-9474.636058,-148.041188,-383.047749
4057.476473,-10214.842000,0.000000,1225.752797
4057.476803,-10510.924376,0.000000,919.314598
4057.477133,-9548.656652,-222.061783,459.657299
4057.477463,-8364.327145,-148.041188,-689.485948
4057.477793,-8438.347739,0.000000,-383.047749
4057.478123,-9770.718434,296.082377,306.438199
4057.478453,-10955.047942,370.102971,689.485948
4057.478783,-10510.924376,518.144159,689.485948
4057.479113,-9400.615463,518.144159,229.828649
4057.479443,-9474.636058,0.000000,-306.438199
4057.479773,-9992.780217,148.041188,459.657299
4057.480103,-10288.862594,74.020594,459.657299
4057.480433,-9622.677246,0.000000,229.828649
4057.480763,-8660.409521,296.082377,-536.266849
4057.481093,-8438.347739,74.020594,-536.266849
4057.481423,-9548.656652,0.000000,0.000000
4057.481752,-10214.842000,444.123565,1149.143247
4057.482082,-10214.842000,74.020594,919.314598
4057.482412,-9548.656652,0.000000,1225.752797
4057.482742,-9030.512492,0.000000,229.828649
4057.483072,-9104.533087,0.000000,612.876398
4057.483402,-9992.780217,370.102971,536.266849
4057.483732,-10436.903782,444.123565,0.000000
4057.484062,-10288.862594,666.185348,76.609550
4057.484392,-9326.594869,370.102971,-842.705048
4057.484722,-9770.718434,592.164754,-612.876398
4057.485052,-9844.739029,370.102971,153.219100
4057.485382,-10658.965565,222.061783,76.609550
4057.485712,-10436.903782,518.144159,0.000000
4057.486042,-9326.594869,296.082377,-383.047749
4057.486372,-9326.594869,0.000000,0.000000
4057.486702,-10214.842000,0.000000,766.095498
4057.487032,-10658.965565,-370.102971,612.876398
4057.487362,-10362.883188,0.000000,1225.752797
4057.487692,-9326.594869,148.041188,-76.609550
4057.488022,-8882.471304,74.020594,-306.438199
4057.488352,-9622.677246,74.020594,229.828649
4057.488682,-9918.759623,222.061783,842.705048
4057.489012,-10510.924376,148.041188,1149.143247
4057.489342,-10140.821405,222.061783,1225.752797
4057.489672,-9400.615463,-222.061783,-306.438199
4057.490001,-9474.636058,-296.082377,-76.609550
4057.490331,-9696.697840,222.061783,-229.828649
4057.490661,-10510.924376,148.041188,306.438199
4057.490991,-9548.656652,370.102971,383.047749
4057.491321,-8956.491898,74.020594,-229.828649
4057.491651,-9474.636058,74.020594,919.314598
4057.491981,-10436.903782,740.205942,459.657299
4057.492311,-10584.944971,222.061783,-306.438199
4057.492641,-9844.739029,148.041188,0.000000
4057.492971,-9104.533087,-222.061783,229.828649
4057.493301,-9030.512492,-148.041188,689.485948
4057.493631,-9326.594869,0.000000,1072.533697
4057.493961,-9844.739029,-222.061783,612.876398
4057.494291,-10066.800811,518.144159,0.000000
4057.494621,-9474.636058,0.000000,-536.266849
4057.494951,-9104.533087,148.041188,-383.047749
4057.495281,-9400.615463,148.041188,536.266849
4057.495611,-10288.862594,0.000000,842.705048
4057.495941,-10584.944971,148.041188,689.485948
4057.496271,-9696.697840,0.000000,153.219100
4057.496601,-9178.553681,-296.082377,0.000000
4057.496931,-9474.636058,-296.082377,229.828649
4057.497261,-10214.842000,222.061783,383.047749
4057.497591,-10066.800811,74.020594,612.876398
4057.497921,-9548.656652,222.061783,536.266849
4057.498251,-9474.636058,74.020594,-383.047749
4057.498580,-9992.780217,148.041188,0.000000
4057.498910,-10140.821405,74.020594,229.828649
4057.499240,-9992.780217,-222.061783,0.000000
4057.499570,-9474.636058,-74.020594,842.705048
4057.499900,-9178.553681,-370.102971,536.266849
4057.500230,-8808.450710,-518.144159,612.876398
4057.500560,-9696.697840,-296.082377,536.266849
4057.500890,-10362.883188,74.020594,459.657299
4057.501220,-9918.759623,-222.061783,383.047749
4057.501550,-9104.533087,0.000000,-306.438199
4057.501880,-8734.430116,-444.123565,76.609550
4057.502210,-9548.656652,0.000000,689.485948
4057.502540,-10658.965565,0.000000,76.609550
4057.502870,-10362.883188,148.041188,0.000000
4057.503200,-9474.636058,0.000000,0.000000
4057.503530,-9400.615463,0.000000,306.438199
4057.503860,-10140.821405,0.000000,383.047749
4057.504190,-10807.006753,296.082377,536.266849
4057.504520,-10140.821405,-148.041188,-76.609550
4057.504850,-9918.759623,74.020594,0.000000
4057.505180,-9918.759623,0.000000,-306.438199
4057.505510,-10066.800811,74.020594,153.219100
4057.505840,-9918.759623,222.061783,-229.828649
4057.506170,-9918.759623,74.020594,153.219100
4057.506500,-9918.759623,222.061783,689.485948
4057.506829,-9844.739029,0.000000,536.266849
4057.507159,-9844.739029,-296.082377,229.828649
4057.507489,-9992.780217,0.000000,229.828649
4057.507819,-10362.883188,-148.041188,536.266849
4057.508149,-9622.677246,74.020594,536.266849
4057.508479,-8734.430116,0.000000,153.219100
4057.508809,-9326.594869,370.102971,0.000000
4057.509139,-10436.903782,740.205942,383.047749
4057.509469,-10658.965565,222.061783,306.438199
4057.509799,-9770.718434,222.061783,229.828649
4057.510129,-9474.636058,592.164754,0.000000
4057.510459,-9030.512492,-148.041188,76.609550
4057.510789,-9400.615463,-222.061783,229.828649
4057.511119,-9474.636058,-296.082377,-229.828649
4057.511449,-9474.636058,222.061783,76.609550
4057.511779,-9252.574275,296.082377,0.000000
4057.512109,-9548.656652,666.185348,-766.095498
4057.512439,-9918.759623,444.123565,153.219100
4057.512769,-9918.759623,222.061783,306.438199
4057.513099,-9918.759623,518.144159,0.000000
4057.513429,-10214.842000,592.164754,459.657299
4057.513759,-8956.491898,-148.041188,-536.266849
4057.514089,-9474.636058,74.020594,-76.609550
4057.514419,-9992.780217,222.061783,229.828649
4057.514749,-10732.986159,148.041188,383.047749
4057.515078,-9844.739029,148.041188,229.828649
4057.515408,-9104.533087,222.061783,-689.485948
4057.515738,-9178.553681,370.102971,-1302.362347
4057.516068,-10214.842000,370.102971,383.047749
4057.516398,-10658.965565,222.061783,0.000000
4057.516728,-10140.821405,296.082377,612.876398
4057.517058,-9622.677246,0.000000,306.438199
4057.517388,-9474.636058,-148.041188,0.000000
4057.517718,-9548.656652,-296.082377,919.314598
4057.518048,-9844.739029,-370.102971,919.314598
4057.518378,-9918.759623,0.000000,229.828649
4057.518708,-9770.718434,296.082377,0.000000
4057.519038,-9252.574275,0.000000,-229.828649
4057.519368,-9918.759623,0.000000,383.047749
4057.519698,-10214.842000,0.000000,536.266849
4057.520028,-10436.903782,222.061783,-153.219100
4057.520358,-9844.739029,-148.041188,536.266849
4057.520688,-8956.491898,-370.102971,0.000000
4057.521018,-9252.574275,-444.123565,383.047749
4057.521348,-9770.718434,0.000000,842.705048
4057.521678,-10362.883188,74.020594,153.219100
4057.522008,-9918.759623,296.082377,-229.828649
4057.522338,-9252.574275,148.041188,-919.314598
4057.522668,-9548.656652,148.041188,-766.095498
4057.522998,-9474.636058,74.020594,0.000000
4057.523327,-10362.883188,148.041188,0.000000
4057.523657,-10510.924376,222.061783,536.266849
4057.523987,-9918.759623,0.000000,153.219100
4057.524317,-9030.512492,-444.123565,0.000000
4057.524647,-9326.594869,-148.041188,689.485948
4057.524977,-10288.862594,0.000000,1455.581446
4057.525307,-10658.965565,222.061783,689.485948
4057.525637,-9696.697840,74.020594,229.828649
4057.525967,-9326.594869,0.000000,-536.266849
4057.526297,-9770.718434,666.185348,0.000000
4057.526627,-10288.862594,296.082377,0.000000
4057.526957,-10658.965565,74.020594,536.266849
4057.527287,-9844.739029,0.000000,383.047749
4057.527617,-9252.574275,-444.123565,-229.828649
4057.527947,-9326.594869,-592.164754,459.657299
4057.528277,-9474.636058,-592.164754,919.314598
4057.528607,-9844.739029,-518.144159,919.314598
4057.528937,-9844.739029,0.000000,1838.629195
4057.529267,-9474.636058,296.082377,383.047749
4057.529597,-9326.594869,74.020594,383.047749
4057.529927,-9548.656652,592.164754,1072.533697
4057.530257,-10362.883188,370.102971,995.924147
4057.530587,-10436.903782,222.061783,536.266849
4057.530917,-9770.718434,74.020594,-766.095498
4057.531247,-8882.471304,-592.164754,-1072.533697
4057.531577,-9178.553681,-444.123565,-383.047749
4057.531906,-9326.594869,-592.164754,0.000000
4057.532236,-9844.739029,-222.061783,459.657299
4057.532566,-9178.553681,296.082377,0.000000
4057.532896,-9474.636058,0.000000,229.828649
4057.533226,-9474.636058,222.061783,459.657299
4057.533556,-9918.759623,222.061783,459.657299
4057.533886,-10955.047942,370.102971,766.095498
4057.534216,-10066.800811,518.144159,306.438199
4057.534546,-9400.615463,-296.082377,0.000000
4057.534876,-9474.636058,-370.102971,306.438199
4057.535206,-10214.842000,148.041188,229.828649
4057.535536,-10584.944971,222.061783,0.000000
4057.535866,-10066.800811,0.000000,0.000000
4057.536196,-9400.615463,148.041188,-536.266849
4057.536526,-9474.636058,0.000000,306.438199
4057.536856,-10140.821405,296.082377,612.876398
4057.537186,-10658.965565,0.000000,383.047749
4057.537516,-10362.883188,222.061783,536.266849
4057.537846,-9548.656652,222.061783,0.000000
4057.538176,-9770.718434,0.000000,306.438199
4057.538506,-9918.759623,296.082377,76.609550
4057.538836,-10362.883188,-296.082377,536.266849
4057.539166,-9918.759623,74.020594,76.609550
4057.539496,-9400.615463,148.041188,-536.266849
4057.539826,-9104.533087,148.041188,-536.266849
4057.540155,-9622.677246,0.000000,459.657299
4057.540485,-10214.842000,74.020594,383.047749
4057.540815,-10584.944971,222.061783,612.876398
4057.541145,-9992.780217,370.102971,689.485948
4057.541475,-9474.636058,-222.061783,536.266849
4057.541805,-9400.615463,-222.061783,842.705048
4057.542135,-9622.677246,-148.041188,842.705048
4057.542465,-10140.821405,0.000000,459.657299
4057.542795,-9548.656652,666.185348,76.609550
4057.543125,-9178.553681,148.041188,-383.047749
4057.543455,-9696.697840,296.082377,0.000000
4057.543785,-9992.780217,74.020594,229.828649
4057.544115,-9844.739029,592.164754,306.438199
4057.544445,-9696.697840,148.041188,306.438199
4057.544775,-8956.491898,0.000000,-153.219100
4057.545105,-9178.553681,0.000000,0.000000
4057.545435,-9992.780217,0.000000,689.485948
4057.545765,-11029.068536,74.020594,766.095498
4057.546094,-10881.027347,0.000000,536.266849
4057.546424,-9696.697840,-296.082377,0.000000
4057.546754,-8956.491898,-296.082377,-76.609550
4057.547084,-8882.471304,0.000000,536.266849
4057.547414,-9696.697840,222.061783,459.657299
4057.547743,-10066.800811,740.205942,919.314598
4057.548073,-10214.842000,962.267725,459.657299
4057.548403,-9696.697840,296.082377,-306.438199
4057.548733,-10214.842000,0.000000,0.000000
4057.549062,-10510.924376,-296.082377,919.314598
4057.549392,-10288.862594,-370.102971,536.266849
4057.549722,-9326.594869,-222.061783,0.000000
4057.550052,-8068.244768,-296.082377,-842.705048
4057.550382,-8586.388927,0.000000,0.000000
4057.550711,-9918.759623,814.226536,459.657299
4057.551041,-10881.027347,592.164754,995.924147
4057.551371,-10732.986159,740.205942,842.705048
4057.551701,-9844.739029,0.000000,76.609550
4057.552030,-9548.656652,-814.226536,153.219100
4057.552360,-10066.800811,-592.164754,1149.143247
4057.552690,-9844.739029,-740.205942,459.657299
4057.553020,-9326.594869,-148.041188,0.000000
4057.553350,-8364.327145,-148.041188,-536.266849
4057.553679,-9474.636058,222.061783,-766.095498
4057.554009,-10288.862594,1110.308913,0.000000
4057.554339,-10732.986159,592.164754,383.047749
4057.554669,-10214.842000,74.020594,383.047749
4057.554998,-9770.718434,0.000000,383.047749
4057.555328,-9252.574275,-666.185348,153.219100
4057.555658,-9622.677246,-592.164754,536.266849
4057.555988,-9992.780217,-370.102971,612.876398
4057.556318,-10362.883188,0.000000,229.828649
4057.556647,-10066.800811,148.041188,0.000000
4057.556977,-9030.512492,222.061783,-76.609550
4057.557307,-9474.636058,148.041188,689.485948
4057.557637,-10140.821405,444.123565,306.438199
4057.557966,-10732.986159,148.041188,76.609550
4057.558296,-9992.780217,592.164754,536.266849
4057.558626,-8364.327145,-222.061783,-383.047749
4057.558956,-8882.471304,0.000000,0.000000
4057.559286,-10584.944971,222.061783,689.485948
4057.559615,-11473.192101,518.144159,383.047749
4057.559945,-10436.903782,222.061783,0.000000
4057.560275,-9030.512492,0.000000,-689.485948
4057.560605,-8808.450710,0.000000,76.609550
4057.560934,-9918.759623,444.123565,612.876398
4057.561264,-9474.636058,0.000000,0.000000
4057.561594,-9696.697840,296.082377,612.876398
4057.561924,-9474.636058,296.082377,229.828649
4057.562254,-9622.677246,-296.082377,-229.828649
4057.562583,-9326.594869,0.000000,536.266849
4057.562913,-9622.677246,0.000000,1378.971896
4057.563243,-10510.924376,370.102971,1302.362347
4057.563573,-10140.821405,592.164754,536.266849
4057.563902,-9252.574275,222.061783,-229.828649
4057.564232,-9252.574275,518.144159,-459.657299
4057.564562,-9844.739029,592.164754,-383.047749
4057.564892,-10732.986159,592.164754,306.438199
4057.565222,-9696.697840,444.123565,0.000000
4057.565551,-8290.306550,148.041188,-459.657299
4057.565881,-9104.533087,0.000000,0.000000
4057.566211,-10436.903782,74.020594,766.095498
4057.566541,-11029.068536,0.000000,0.000000
4057.566870,-10066.800811,518.144159,766.095498
4057.567200,-9030.512492,222.061783,-306.438199
4057.567530,-9252.574275,74.020594,0.000000
4057.567860,-9696.697840,74.020594,536.266849
4057.568190,-10436.903782,370.102971,919.314598
4057.568519,-10140.821405,592.164754,536.266849
4057.568849,-9474.636058,518.144159,-153.219100
4057.569179,-9474.636058,0.000000,0.000000
4057.569509,-10362.883188,0.000000,306.438199
4057.569838,-10510.924376,0.000000,766.095498
4057.570168,-10214.842000,0.000000,459.657299
4057.570498,-9030.512492,148.041188,-612.876398
4057.570828,-8586.388927,296.082377,-995.924147
4057.571158,-9400.615463,0.000000,153.219100
4057.571487,-10807.006753,518.144159,229.828649
4057.571817,-11251.130318,666.185348,689.485948
4057.572147,-10214.842000,296.082377,383.047749
4057.572477,-9548.656652,-814.226536,76.609550
4057.572806,-9178.553681,-740.205942,0.000000
4057.573136,-9548.656652,-518.144159,536.266849
4057.573466,-9992.780217,-370.102971,459.657299
4057.573796,-9548.656652,-148.041188,153.219100
4057.574126,-9326.594869,-74.020594,0.000000
4057.574455,-9622.677246,-222.061783,0.000000
4057.574785,-10436.903782,-148.041188,383.047749
4057.575115,-10732.986159,-222.061783,306.438199
4057.575445,-9918.759623,-370.102971,689.485948
4057.575775,-8734.430116,-888.247130,459.657299
4057.576104,-9030.512492,-592.164754,766.095498
4057.576434,-10140.821405,-370.102971,842.705048
4057.576764,-10584.944971,-740.205942,919.314598
4057.577094,-9918.759623,0.000000,306.438199
4057.577423,-8956.491898,222.061783,76.609550
4057.577753,-9474.636058,148.041188,229.828649
4057.578083,-9844.739029,740.205942,1225.752797
4057.578413,-10066.800811,222.061783,229.828649
4057.578743,-10288.862594,444.123565,0.000000
4057.579072,-10288.862594,74.020594,0.000000
4057.579402,-9918.759623,-370.102971,-383.047749
4057.579732,-9474.636058,-296.082377,229.828649
4057.580062,-9474.636058,-222.061783,536.266849
4057.580391,-9622.677246,148.041188,76.609550
4057.580721,-8956.491898,74.020594,-766.095498
4057.581051,-9030.512492,518.144159,-842.705048
4057.581381,-10066.800811,962.267725,-76.609550
4057.581711,-11399.171507,888.247130,766.095498
4057.582040,-11177.109724,296.082377,842.705048
4057.582370,-10140.821405,148.041188,1608.800546
4057.582700,-8808.450710,-370.102971,229.828649
4057.583030,-9104.533087,-518.144159,229.828649
4057.583359,-9844.739029,-222.061783,459.657299
4057.583689,-10510.924376,0.000000,995.924147
4057.584019,-10140.821405,518.144159,842.705048
4057.584349,-9474.636058,148.041188,-229.828649
4057.584679,-9622.677246,148.041188,-383.047749
4057.585008,-10140.821405,296.082377,153.219100
4057.585338,-10066.800811,370.102971,-306.438199
4057.585668,-10140.821405,0.000000,0.000000
4057.585998,-9030.512492,-518.144159,0.000000
4057.586327,-9104.533087,-814.226536,229.828649
4057.586657,-9474.636058,-444.123565,1378.971896
4057.586987,-10362.883188,-370.102971,766.095498
4057.587317,-10362.883188,-74.020594,0.000000
4057.587647,-9548.656652,222.061783,76.609550
4057.587976,-9178.553681,-74.020594,0.000000
4057.588306,-9548.656652,222.061783,76.609550
4057.588636,-9992.780217,296.082377,459.657299
4057.588966,-10140.821405,296.082377,0.000000
4057.589295,-9918.759623,0.000000,0.000000
4057.589625,-9104.533087,-296.082377,-383.047749
4057.589955,-8956.491898,-814.226536,0.000000
4057.590285,-9474.636058,0.000000,459.657299
4057.590615,-9992.780217,0.000000,689.485948
4057.590944,-9918.759623,0.000000,766.095498
4057.591274,-9400.615463,222.061783,-306.438199
4057.591604,-9696.697840,0.000000,-536.266849
4057.591934,-10584.944971,370.102971,0.000000
4057.592263,-10288.862594,222.061783,153.219100
4057.592593,-9918.759623,444.123565,689.485948
4057.592923,-9474.636058,666.185348,229.828649
4057.593253,-9400.615463,222.061783,-842.705048
4057.593583,-10066.800811,370.102971,0.000000
4057.593912,-11029.068536,444.123565,0.000000
4057.594242,-10510.924376,518.144159,383.047749
4057.594572,-9622.677246,296.082377,306.438199
4057.594902,-9474.636058,-74.020594,0.000000
4057.595231,-9696.697840,370.102971,536.266849
4057.595561,-9844.739029,222.061783,229.828649
4057.595891,-10584.944971,814.226536,689.485948
4057.596221,-10214.842000,518.144159,1072.533697
4057.596551,-9622.677246,666.185348,766.095498
4057.596880,-9548.656652,592.164754,842.705048
4057.597210,-10140.821405,0.000000,689.485948
4057.597540,-10436.903782,0.000000,306.438199
4057.597870,-9252.574275,-296.082377,0.000000
4057.598199,-8364.327145,-518.144159,-1149.143247
4057.598529,-8290.306550,-148.041188,-383.047749
4057.598859,-9400.615463,0.000000,919.314598
4057.599189,-10436.903782,148.041188,995.924147
4057.599519,-9992.780217,592.164754,766.095498
4057.599848,-9696.697840,222.061783,153.219100
4057.600178,-9770.718434,-444.123565,76.609550
4057.600508,-10288.862594,-296.082377,1302.362347
4057.600838,-10658.965565,-592.164754,1302.362347
4057.601167,-9474.636058,-444.123565,153.219100
4057.601497,-8586.388927,-444.123565,-612.876398
4057.601827,-8882.471304,-592.164754,-1072.533697
4057.602157,-9622.677246,0.000000,306.438199
4057.602487,-9844.739029,0.000000,0.000000
4057.602816,-10140.821405,0.000000,383.047749
4057.603146,-10140.821405,0.000000,612.876398
4057.603476,-9918.759623,-740.205942,0.000000
4057.603806,-9474.636058,-814.226536,459.657299
4057.604136,-10140.821405,-814.226536,612.876398
4057.604465,-10214.842000,-962.267725,842.705048
4057.604795,-9844.739029,-370.102971,689.485948
4057.605125,-8882.471304,-296.082377,0.000000
4057.605455,-9474.636058,148.041188,0.000000
4057.605784,-10436.903782,296.082377,153.219100
4057.606114,-10881.027347,74.020594,0.000000
4057.606444,-10510.924376,74.020594,306.438199
4057.606774,-8882.471304,-222.061783,0.000000
4057.607104,-8586.388927,-592.164754,306.438199
4057.607433,-9770.718434,74.020594,1149.143247
4057.607763,-10658.965565,0.000000,766.095498
4057.608093,-10584.944971,0.000000,919.314598
4057.608423,-9844.739029,148.041188,306.438199
4057.608752,-9696.697840,0.000000,-153.219100
4057.609082,-9770.718434,296.082377,766.095498
4057.609412,-9474.636058,370.102971,842.705048
4057.609742,-9622.677246,518.144159,459.657299
4057.610072,-9474.636058,444.123565,0.000000
4057.610401,-9252.574275,0.000000,-1072.533697
4057.610731,-9548.656652,0.000000,383.047749
4057.611061,-10066.800811,370.102971,766.095498
4057.611391,-10288.862594,222.061783,919.314598
4057.611720,-9474.636058,370.102971,229.828649
4057.612050,-8808.450710,592.164754,-229.828649
4057.612380,-9474.636058,1036.288319,-612.876398
4057.612710,-10140.821405,740.205942,-306.438199
4057.613040,-10288.862594,666.185348,-153.219100
4057.613369,-10066.800811,666.185348,0.000000
4057.613699,-9622.677246,518.144159,-459.657299
4057.614029,-9252.574275,0.000000,0.000000
4057.614359,-9252.574275,74.020594,306.438199
4057.614688,-9548.656652,74.020594,229.828649
4057.615018,-10066.800811,962.267725,919.314598
4057.615348,-9770.718434,888.247130,536.266849
4057.615678,-9696.697840,814.226536,-229.828649
4057.616008,-9992.780217,814.226536,0.000000
4057.616337,-10732.986159,888.247130,0.000000
4057.616667,-10140.821405,666.185348,-76.609550
4057.616997,-9326.594869,444.123565,0.000000
4057.617327,-8734.430116,74.020594,-153.219100
4057.617656,-9474.636058,296.082377,536.266849
4057.617986,-10658.965565,222.061783,306.438199
4057.618316,-11103.089130,148.041188,153.219100
4057.618646,-9992.780217,74.020594,0.000000
4057.618976,-8956.491898,0.000000,-153.219100
4057.619305,-9474.636058,370.102971,153.219100
4057.619635,-9770.718434,0.000000,1302.362347
4057.619965,-10510.924376,0.000000,689.485948
4057.620295,-10214.842000,74.020594,229.828649
4057.620624,-9474.636058,222.061783,-229.828649
4057.620954,-8882.471304,-222.061783,-306.438199
4057.621284,-9474.636058,-296.082377,1302.362347
4057.621614,-10584.944971,-148.041188,1532.190996
4057.621944,-10658.965565,0.000000,612.876398
4057.622273,-9474.636058,-296.082377,0.000000
4057.622603,-9548.656652,-518.144159,-995.924147
4057.622933,-9844.739029,0.000000,-153.219100
4057.623263,-10362.883188,-74.020594,0.000000
4057.623592,-10436.903782,0.000000,306.438199
4057.623922,-9252.574275,0.000000,-306.438199
4057.624252,-8956.491898,-518.144159,-536.266849
4057.624582,-9474.636058,-296.082377,536.266849
4057.624912,-10807.006753,0.000000,1225.752797
4057.625241,-10807.006753,-370.102971,1225.752797
4057.625571,-9918.759623,-74.020594,689.485948
4057.625901,-9326.594869,-370.102971,0.000000
4057.626231,-9400.615463,-296.082377,842.705048
4057.626560,-10214.842000,0.000000,995.924147
4057.626890,-10362.883188,0.000000,306.438199
4057.627220,-10140.821405,148.041188,459.657299
4057.627550,-9104.533087,0.000000,-76.609550
4057.627880,-9326.594869,-74.020594,383.047749
4057.628209,-9992.780217,-222.061783,842.705048
4057.628539,-10658.965565,-296.082377,229.828649
4057.628869,-10436.903782,-222.061783,229.828649
4057.629199,-8734.430116,0.000000,-612.876398
4057.629528,-8956.491898,-222.061783,-383.047749
4057.629858,-9918.759623,74.020594,612.876398
4057.630188,-10362.883188,296.082377,536.266849
4057.630518,-10658.965565,444.123565,689.485948
4057.630848,-9770.718434,296.082377,0.000000
4057.631177,-9178.553681,-222.061783,-229.828649
4057.631507,-9252.574275,-74.020594,459.657299
4057.631837,-9992.780217,-296.082377,919.314598
4057.632167,-10510.924376,0.000000,842.705048
4057.632496,-9992.780217,74.020594,0.000000
4057.632826,-8956.491898,0.000000,-766.095498
4057.633156,-9622.677246,370.102971,-536.266849
4057.633486,-10288.862594,0.000000,383.047749
4057.633816,-10436.903782,222.061783,612.876398
4057.634145,-9548.656652,370.102971,842.705048
4057.634475,-9030.512492,0.000000,0.000000
4057.634805,-9326.594869,-148.041188,612.876398
4057.635135,-9992.780217,-296.082377,612.876398
4057.635465,-10214.842000,-74.020594,612.876398
4057.635794,-9844.739029,-148.041188,459.657299
4057.636124,-9104.533087,0.000000,229.828649
4057.636454,-8882.471304,0.000000,0.000000
4057.636784,-9696.697840,518.144159,229.828649
4057.637113,-10658.965565,518.144159,383.047749
4057.637443,-10288.862594,592.164754,459.657299
4057.637773,-9918.759623,666.185348,306.438199
4057.638103,-9104.533087,0.000000,0.000000
4057.638433,-9918.759623,0.000000,536.266849
4057.638762,-10658.965565,222.061783,536.266849
4057.639092,-10510.924376,74.020594,153.219100
4057.639422,-9030.512492,0.000000,-842.705048
4057.639752,-8512.368333,148.041188,-766.095498
4057.640081,-9474.636058,444.123565,842.705048
4057.640411,-10807.006753,1036.288319,1149.143247
4057.640741,-10732.986159,444.123565,459.657299
4057.641071,-10140.821405,148.041188,153.219100
4057.641401,-9252.574275,-296.082377,153.219100
4057.641730,-9326.594869,-814.226536,1225.752797
4057.642060,-9992.780217,-370.102971,1455.581446
4057.642390,-10214.842000,-370.102971,1149.143247
4057.642720,-9474.636058,148.041188,76.609550
4057.643049,-8734.430116,222.061783,-919.314598
4057.643379,-9474.636058,888.247130,-842.705048
4057.643709,-10807.006753,518.144159,306.438199
4057.644039,-11177.109724,0.000000,153.219100
4057.644369,-10436.903782,0.000000,383.047749
4057.644698,-8512.368333,-296.082377,0.000000
4057.645028,-8586.388927,-592.164754,153.219100
4057.645358,-9548.656652,-592.164754,1225.752797
4057.645688,-10658.965565,0.000000,1532.190996
4057.646017,-10436.903782,444.123565,842.705048
4057.646347,-9844.739029,296.082377,0.000000
4057.646677,-9400.615463,74.020594,-612.876398
4057.647007,-9770.718434,0.000000,0.000000
4057.647337,-10288.862594,148.041188,0.000000
4057.647666,-9770.718434,0.000000,0.000000
4057.647996,-9252.574275,148.041188,-536.266849
4057.648326,-8364.327145,74.020594,-919.314598
4057.648656,-9030.512492,-74.020594,0.000000
4057.648985,-10362.883188,296.082377,229.828649
4057.649315,-11177.109724,148.041188,459.657299
4057.649645,-10288.862594,0.000000,0.000000
4057.649975,-8808.450710,-666.185348,-536.266849
4057.650305,-9326.594869,-370.102971,306.438199
4057.650634,-9548.656652,-222.061783,1072.533697
4057.650964,-10214.842000,74.020594,842.705048
4057.651294,-9992.780217,222.061783,689.485948
4057.651624,-9622.677246,148.041188,-383.047749
4057.651954,-9622.677246,74.020594,-229.828649
4057.652283,-10510.924376,0.000000,919.314598
4057.652613,-11029.068536,0.000000,842.705048
4057.652943,-9844.739029,0.000000,995.924147
4057.653273,-8364.327145,-148.041188,0.000000
4057.653602,-8586.388927,0.000000,-919.314598
4057.653932,-9844.739029,74.020594,0.000000
4057.654262,-10658.965565,444.123565,459.657299
4057.654592,-10658.965565,518.144159,766.095498
4057.654922,-9548.656652,444.123565,229.828649
4057.655251,-9178.553681,-518.144159,76.609550
4057.655581,-9844.739029,-370.102971,612.876398
4057.655911,-10436.903782,0.000000,1072.533697
4057.656241,-10510.924376,-222.061783,1455.581446
4057.656571,-9918.759623,0.000000,536.266849
4057.656900,-9178.553681,0.000000,-459.657299
4057.657230,-9474.636058,444.123565,229.828649
4057.657560,-10140.821405,518.144159,0.000000
4057.657890,-10510.924376,666.185348,0.000000
4057.658220,-10140.821405,518.144159,0.000000
4057.658549,-9104.533087,-222.061783,-306.438199
4057.658879,-9104.533087,0.000000,306.438199
4057.659209,-9992.780217,-296.082377,689.485948
4057.659539,-10362.883188,0.000000,153.219100
4057.659868,-9548.656652,0.000000,76.609550
4057.660198,-9178.553681,296.082377,-536.266849
4057.660528,-9178.553681,148.041188,-229.828649
4057.660858,-10362.883188,296.082377,229.828649
4057.661188,-10955.047942,740.205942,0.000000
4057.661517,-10288.862594,444.123565,0.000000
4057.661847,-9474.636058,222.061783,-306.438199
4057.662177,-8882.471304,-222.061783,-919.314598
4057.662507,-9918.759623,-296.082377,76.609550
4057.662837,-10066.800811,-222.061783,689.485948
4057.663166,-9992.780217,74.020594,612.876398
4057.663496,-9326.594869,0.000000,536.266849
4057.663826,-8808.450710,74.020594,0.000000
4057.664156,-9918.759623,518.144159,689.485948
4057.664485,-10658.965565,1184.329507,919.314598
4057.664815,-10955.047942,888.247130,0.000000
4057.665145,-10066.800811,370.102971,0.000000
4057.665475,-9252.574275,296.082377,-459.657299
4057.665805,-9252.574275,-148.041188,-306.438199
4057.666134,-9918.759623,0.000000,459.657299
4057.666464,-10140.821405,0.000000,383.047749
4057.666794,-9622.677246,0.000000,306.438199
4057.667124,-8734.430116,0.000000,0.000000
4057.667454,-9474.636058,74.020594,459.657299
4057.667783,-10658.965565,444.123565,995.924147
4057.668113,-10807.006753,370.102971,919.314598
4057.668443,-10436.903782,296.082377,842.705048
4057.668773,-9400.615463,0.000000,306.438199
4057.669102,-8882.471304,-74.020594,-229.828649
4057.669432,-9400.615463,0.000000,536.266849
4057.669762,-10288.862594,0.000000,919.314598
4057.670092,-10732.986159,222.061783,536.266849
4057.670422,-9474.636058,0.000000,-536.266849
4057.670751,-9104.533087,0.000000,-919.314598
4057.671081,-9252.574275,74.020594,-689.485948
4057.671411,-10140.821405,0.000000,153.219100
4057.671741,-10732.986159,0.000000,842.705048
4057.672071,-9918.759623,0.000000,766.095498
4057.672400,-9178.553681,74.020594,0.000000
4057.672730,-9622.677246,0.000000,153.219100
4057.673060,-11177.109724,740.205942,919.314598
4057.673390,-10881.027347,0.000000,536.266849
4057.673719,-9770.718434,0.000000,76.609550
4057.674049,-9178.553681,74.020594,-612.876398
4057.674379,-9178.553681,0.000000,0.000000
4057.674709,-9918.759623,0.000000,0.000000
4057.675039,-10288.862594,0.000000,-76.609550
4057.675368,-9992.780217,74.020594,-153.219100
4057.675698,-9400.615463,0.000000,-153.219100
4057.676028,-9474.636058,-370.102971,76.609550
4057.676358,-9844.739029,-444.123565,1225.752797
4057.676688,-10066.800811,-518.144159,842.705048
4057.677017,-9992.780217,0.000000,842.705048
4057.677347,-9844.739029,148.041188,689.485948
4057.677677,-9770.718434,0.000000,0.000000
4057.678007,-10140.821405,370.102971,153.219100
4057.678336,-10140.821405,148.041188,0.000000
4057.678666,-10362.883188,592.164754,459.657299
4057.678996,-9474.636058,74.020594,76.609550
4057.679326,-8808.450710,-370.102971,-229.828649
4057.679656,-9474.636058,0.000000,153.219100
4057.679985,-10288.862594,0.000000,612.876398
4057.680315,-10658.965565,148.041188,536.266849
4057.680645,-9696.697840,0.000000,919.314598
4057.680975,-8808.450710,0.000000,229.828649
4057.681305,-9474.636058,518.144159,383.047749
4057.681634,-10510.924376,1036.288319,689.485948
4057.681964,-10436.903782,592.164754,306.438199
4057.682294,-9992.780217,444.123565,459.657299
4057.682624,-9326.594869,370.102971,0.000000
4057.682954,-9326.594869,0.000000,306.438199
4057.683283,-9548.656652,0.000000,842.705048
4057.683613,-9918.759623,0.000000,689.485948
4057.683943,-9918.759623,0.000000,153.219100
4057.684273,-9474.636058,0.000000,0.000000
4057.684602,-8734.430116,0.000000,0.000000
4057.684932,-9400.615463,444.123565,459.657299
4057.685262,-10066.800811,1036.288319,383.047749
4057.685592,-10584.944971,888.247130,76.609550
4057.685922,-10362.883188,666.185348,0.000000
4057.686251,-9326.594869,0.000000,-766.095498
4057.686581,-9696.697840,0.000000,76.609550
4057.686911,-10362.883188,-444.123565,919.314598
4057.687241,-10510.924376,-222.061783,995.924147
4057.687571,-9400.615463,-370.102971,383.047749
4057.687900,-8956.491898,0.000000,0.000000
4057.688230,-9474.636058,222.061783,153.219100
4057.688560,-10436.903782,740.205942,612.876398
4057.688890,-10732.986159,592.164754,306.438199
4057.689219,-10510.924376,740.205942,229.828649
4057.689549,-9844.739029,74.020594,-153.219100
4057.689879,-9178.553681,-222.061783,0.000000
4057.690209,-9918.759623,-592.164754,459.657299
4057.690539,-10288.862594,-444.123565,536.266849
4057.690868,-9918.759623,-518.144159,383.047749
4057.691198,-8808.450710,-518.144159,-306.438199
4057.691528,-8808.450710,-296.082377,153.219100
4057.691858,-9770.718434,0.000000,689.485948
4057.692188,-11029.068536,518.144159,459.657299
4057.692517,-10955.047942,518.144159,0.000000
4057.692847,-9474.636058,740.205942,-153.219100
4057.693177,-9252.574275,0.000000,-766.095498
4057.693507,-9474.636058,0.000000,0.000000
4057.693836,-10214.842000,-296.082377,306.438199
4057.694166,-10214.842000,-888.247130,306.438199
4057.694496,-9548.656652,-444.123565,612.876398
4057.694826,-8956.491898,-814.226536,0.000000
4057.695156,-9178.553681,-370.102971,0.000000
4057.695485,-9400.615463,-148.041188,536.266849
4057.695815,-9696.697840,74.020594,306.438199
4057.696145,-10066.800811,592.164754,612.876398
4057.696475,-9992.780217,518.144159,229.828649
4057.696805,-10214.842000,148.041188,229.828649
4057.697134,-10732.986159,0.000000,1225.752797
4057.697464,-10658.965565,-222.061783,612.876398
4057.697794,-10140.821405,-444.123565,536.266849
4057.698124,-9178.553681,-370.102971,-612.876398
4057.698453,-8734.430116,-74.020594,-459.657299
4057.698783,-9474.636058,0.000000,0.000000
4057.699113,-10658.965565,518.144159,306.438199
4057.699443,-10362.883188,296.082377,1149.143247
4057.699773,-9992.780217,592.164754,536.266849
4057.700102,-9622.677246,-74.020594,0.000000
4057.700432,-9918.759623,0.000000,153.219100
4057.700762,-10510.924376,-444.123565,689.485948
4057.701092,-10436.903782,-74.020594,1072.533697
4057.701422,-9696.697840,-370.102971,919.314598
4057.701751,-9030.512492,0.000000,-76.609550
4057.702081,-9326.594869,222.061783,0.000000
4057.702411,-10066.800811,222.061783,0.000000
4057.702741,-10066.800811,296.082377,0.000000
4057.703070,-10066.800811,444.123565,229.828649
4057.703400,-9400.615463,296.082377,76.609550
4057.703730,-9474.636058,0.000000,459.657299
4057.704060,-9770.718434,0.000000,1378.971896
4057.704390,-10214.842000,74.020594,229.828649
4057.704719,-10510.924376,222.061783,0.000000
4057.705049,-9770.718434,-74.020594,-383.047749
4057.705379,-8734.430116,0.000000,0.000000
4057.705709,-9178.553681,444.123565,842.705048
4057.706039,-10140.821405,296.082377,842.705048
4057.706368,-10584.944971,444.123565,383.047749
4057.706698,-9474.636058,370.102971,-536.266849
4057.707028,-8882.471304,-74.020594,-1072.533697
4057.707358,-9400.615463,0.000000,689.485948
4057.707687,-10140.821405,0.000000,1302.362347
4057.708017,-10510.924376,0.000000,842.705048
4057.708347,-10140.821405,74.020594,-229.828649
4057.708677,-9400.615463,0.000000,-766.095498
4057.709007,-9696.697840,222.061783,-383.047749
4057.709336,-10288.862594,0.000000,383.047749
4057.709666,-10436.903782,296.082377,689.485948
4057.709996,-9548.656652,222.061783,229.828649
4057.710326,-9030.512492,0.000000,-383.047749
4057.710656,-9474.636058,0.000000,-306.438199
4057.710985,-10288.862594,0.000000,306.438199
4057.711315,-10510.924376,0.000000,612.876398
4057.711645,-10288.862594,0.000000,612.876398
4057.711975,-9326.594869,370.102971,76.609550
4057.712305,-9252.574275,370.102971,-383.047749
4057.712634,-9548.656652,148.041188,0.000000
4057.712964,-10140.821405,296.082377,-459.657299
4057.713294,-10288.862594,666.185348,0.000000
4057.713624,-9548.656652,74.020594,153.219100
4057.713953,-9030.512492,-444.123565,306.438199
4057.714283,-9474.636058,-222.061783,1302.362347
4057.714613,-9992.780217,148.041188,1072.533697
4057.714943,-10436.903782,-222.061783,536.266849
4057.715273,-9622.677246,0.000000,76.609550
4057.715602,-8956.491898,0.000000,0.000000
4057.715932,-9992.780217,518.144159,842.705048
4057.716262,-10436.903782,666.185348,459.657299
4057.716592,-10140.821405,518.144159,-76.609550
4057.716922,-9622.677246,592.164754,-689.485948
4057.717251,-8586.388927,296.082377,-1149.143247
4057.717581,-9326.594869,148.041188,-766.095498
4057.717911,-10214.842000,74.020594,842.705048
4057.718241,-10881.027347,0.000000,1378.971896
4057.718570,-10510.924376,-222.061783,1302.362347
4057.718900,-9178.553681,0.000000,306.438199
4057.719230,-8956.491898,-148.041188,-689.485948
4057.719560,-9326.594869,74.020594,306.438199
4057.719890,-10510.924376,222.061783,766.095498
4057.720219,-10807.006753,1184.329507,919.314598
4057.720549,-9844.739029,518.144159,0.000000
4057.720879,-9252.574275,296.082377,-383.047749
4057.721209,-9474.636058,0.000000,0.000000
4057.721539,-10362.883188,0.000000,766.095498
4057.721868,-9918.759623,-444.123565,306.438199
4057.722198,-9030.512492,-740.205942,-229.828649
4057.722528,-8512.368333,-444.123565,-153.219100
4057.722858,-9474.636058,0.000000,229.828649
4057.723187,-10658.965565,444.123565,306.438199
4057.723517,-10807.006753,370.102971,0.000000
4057.723847,-10214.842000,592.164754,689.485948
4057.724177,-9400.615463,0.000000,536.266849
4057.724507,-9696.697840,148.041188,1302.362347
4057.724836,-10436.903782,-74.020594,1685.410096
4057.725166,-11177.109724,-74.020594,766.095498
4057.725496,-10288.862594,-592.164754,76.609550
4057.725826,-8660.409521,-592.164754,-383.047749
4057.726156,-8290.306550,-592.164754,-459.657299
4057.726485,-9474.636058,74.020594,76.609550
4057.726815,-10362.883188,222.061783,153.219100
4057.727145,-10362.883188,666.185348,-306.438199
4057.727475,-9548.656652,518.144159,-919.314598
4057.727804,-9474.636058,74.020594,-766.095498
4057.728134,-10066.800811,148.041188,689.485948
4057.728464,-11103.089130,0.000000,1149.143247
4057.728794,-10881.027347,-222.061783,689.485948
4057.729124,-9326.594869,-370.102971,-229.828649
4057.729453,-8512.368333,-740.205942,-766.095498
4057.729783,-9400.615463,-370.102971,536.266849
4057.730113,-10510.924376,296.082377,1608.800546
4057.730443,-9622.677246,518.144159,1302.362347
4057.730773,-9400.615463,666.185348,766.095498
4057.731102,-9178.553681,296.082377,-689.485948
4057.731432,-9548.656652,148.041188,0.000000
4057.731762,-10732.986159,370.102971,76.609550
4057.732092,-10955.047942,74.020594,612.876398
4057.732421,-9548.656652,-148.041188,76.609550
4057.732751,-8586.388927,-148.041188,-766.095498
4057.733081,-8734.430116,222.061783,-383.047749
4057.733411,-9326.594869,222.061783,0.000000
4057.733741,-10510.924376,518.144159,76.609550
4057.734070,-10140.821405,592.164754,612.876398
4057.734400,-9844.739029,962.267725,689.485948
4057.734730,-9252.574275,74.020594,0.000000
4057.735060,-9696.697840,0.000000,383.047749
4057.735390,-10658.965565,0.000000,766.095498
4057.735719,-10214.842000,370.102971,383.047749
4057.736049,-9104.533087,-370.102971,-536.266849
4057.736379,-9030.512492,0.000000,-459.657299
4057.736709,-9474.636058,148.041188,153.219100
4057.737039,-10288.862594,444.123565,229.828649
4057.737368,-10288.862594,740.205942,0.000000
4057.737698,-9474.636058,592.164754,0.000000
4057.738028,-8660.409521,222.061783,-612.876398
4057.738358,-9400.615463,0.000000,766.095498
4057.738687,-10732.986159,518.144159,1762.019645
4057.739017,-10955.047942,0.000000,1455.581446
4057.739347,-10214.842000,74.020594,689.485948
4057.739677,-9252.574275,-74.020594,229.828649
4057.740007,-9992.780217,444.123565,689.485948
4057.740336,-10214.842000,74.020594,766.095498
4057.740666,-10214.842000,74.020594,459.657299
4057.740996,-9474.636058,74.020594,0.000000
4057.741326,-8882.471304,148.041188,-766.095498
4057.741656,-9104.533087,0.000000,-995.924147
4057.741985,-9992.780217,74.020594,76.609550
4057.742315,-11251.130318,0.000000,766.095498
4057.742645,-10584.944971,-592.164754,1149.143247
4057.742975,-9770.718434,-370.102971,919.314598
4057.743304,-8956.491898,-296.082377,919.314598
4057.743634,-9622.677246,0.000000,919.314598
4057.743964,-10362.883188,0.000000,76.609550
4057.744294,-10955.047942,814.226536,536.266849
4057.744624,-9622.677246,370.102971,-995.924147
4057.744953,-8882.471304,0.000000,-842.705048
4057.745283,-9474.636058,0.000000,0.000000
4057.745613,-10140.821405,0.000000,766.095498
4057.745943,-10362.883188,-74.020594,306.438199
4057.746273,-9030.512492,-666.185348,-383.047749
4057.746602,-8438.347739,-888.247130,-153.219100
4057.746930,-9326.594869,-518.144159,919.314598
4057.747260,-9844.739029,-74.020594,1532.190996
4057.747590,-10732.986159,74.020594,1072.533697
4057.747919,-10658.965565,0.000000,536.266849
4057.748249,-9400.615463,148.041188,-306.438199
4057.748579,-8586.388927,74.020594,-306.438199
4057.748909,-10140.821405,296.082377,842.705048
4057.749238,-10288.862594,74.020594,842.705048
4057.749568,-9696.697840,592.164754,229.828649
4057.749898,-9030.512492,148.041188,-919.314598
4057.750227,-9474.636058,296.082377,-1225.752797
4057.750557,-10510.924376,296.082377,0.000000
4057.750887,-10955.047942,296.082377,536.266849
4057.751217,-10214.842000,222.061783,689.485948
4057.751546,-9474.636058,370.102971,0.000000
4057.751876,-8882.471304,74.020594,0.000000
4057.752206,-9696.697840,0.000000,919.314598
4057.752536,-10214.842000,0.000000,1072.533697
4057.752865,-10362.883188,74.020594,1072.533697
4057.753195,-9400.615463,-222.061783,766.095498
4057.753525,-8808.450710,-148.041188,76.609550
4057.753855,-9178.553681,0.000000,689.485948
4057.754184,-10066.800811,-74.020594,689.485948
4057.754514,-10436.903782,666.185348,383.047749
4057.754844,-9992.780217,0.000000,306.438199
4057.755174,-9474.636058,-296.082377,0.000000
4057.755503,-9474.636058,0.000000,229.828649
4057.755833,-10584.944971,-296.082377,2068.457845
4057.756163,-10288.862594,-296.082377,995.924147
4057.756493,-9252.574275,-148.041188,612.876398
4057.756822,-8734.430116,-444.123565,-76.609550
4057.757152,-9178.553681,0.000000,0.000000
4057.757482,-9992.780217,0.000000,612.876398
4057.757812,-10807.006753,0.000000,306.438199
4057.758141,-10288.862594,74.020594,306.438199
4057.758471,-9252.574275,0.000000,-153.219100
4057.758801,-9030.512492,0.000000,-766.095498
4057.759131,-9474.636058,0.000000,-229.828649
4057.759460,-10436.903782,148.041188,383.047749
4057.759790,-10436.903782,296.082377,459.657299
4057.760120,-9918.759623,0.000000,459.657299
4057.760450,-9252.574275,-296.082377,-153.219100
4057.760779,-9326.594869,-296.082377,153.219100
4057.761109,-9918.759623,-370.102971,153.219100
4057.761439,-10140.821405,0.000000,766.095498
4057.761769,-9696.697840,148.041188,229.828649
4057.762098,-9178.553681,0.000000,-306.438199
4057.762428,-9622.677246,222.061783,76.609550
4057.762758,-10807.006753,74.020594,766.095498
4057.763087,-11177.109724,518.144159,612.876398
4057.763417,-10066.800811,0.000000,0.000000
4057.763747,-8882.471304,-148.041188,-919.314598
4057.764077,-8882.471304,0.000000,-383.047749
4057.764406,-10214.842000,370.102971,766.095498
4057.764736,-10510.924376,222.061783,536.266849
4057.765066,-10288.862594,518.144159,306.438199
4057.765396,-9326.594869,370.102971,-612.876398
4057.765725,-9104.533087,74.020594,-153.219100
4057.766055,-10214.842000,370.102971,306.438199
4057.766385,-11103.089130,296.082377,689.485948
4057.766715,-10436.903782,0.000000,1072.533697
4057.767044,-9400.615463,0.000000,76.609550
4057.767374,-8882.471304,-148.041188,-306.438199
4057.767704,-9326.594869,0.000000,612.876398
4057.768034,-9992.780217,0.000000,612.876398
4057.768363,-10288.862594,222.061783,229.828649
4057.768693,-9548.656652,740.205942,612.876398
4057.769023,-9252.574275,444.123565,-536.266849
4057.769353,-9696.697840,444.123565,153.219100
4057.769682,-10288.862594,518.144159,1149.143247
4057.770012,-10658.965565,740.205942,919.314598
4057.770342,-9918.759623,296.082377,0.000000
4057.770672,-8882.471304,74.020594,-536.266849
4057.771001,-9178.553681,222.061783,76.609550
4057.771331,-9696.697840,370.102971,612.876398
4057.771661,-10066.800811,222.061783,229.828649
4057.771991,-10066.800811,518.144159,229.828649
4057.772320,-9400.615463,148.041188,-459.657299
4057.772650,-8734.430116,148.041188,-459.657299
4057.772980,-10140.821405,296.082377,612.876398
4057.773310,-10584.944971,148.041188,995.924147
4057.773639,-10214.842000,222.061783,536.266849
4057.773969,-9252.574275,74.020594,76.609550
4057.774299,-9178.553681,-296.082377,0.000000
4057.774628,-10066.800811,-74.020594,383.047749
4057.774958,-10362.883188,-148.041188,459.657299
4057.775288,-10066.800811,-370.102971,536.266849
4057.775618,-9474.636058,-222.061783,842.705048
4057.775947,-8586.388927,-888.247130,-383.047749
4057.776277,-9326.594869,-740.205942,229.828649
4057.776607,-9844.739029,-444.123565,995.924147
4057.776937,-10658.965565,0.000000,1455.581446
4057.777266,-9548.656652,-444.123565,536.266849
4057.777596,-9252.574275,-444.123565,-153.219100
4057.777926,-9548.656652,0.000000,-229.828649
4057.778256,-10436.903782,-148.041188,229.828649
4057.778585,-11177.109724,222.061783,0.000000
4057.778915,-10066.800811,-444.123565,0.000000
4057.779245,-8586.388927,-296.082377,-536.266849
4057.779575,-8364.327145,-518.144159,-306.438199
4057.779904,-9400.615463,-296.082377,919.314598
4057.780234,-10732.986159,148.041188,1072.533697
4057.780564,-10510.924376,74.020594,536.266849
4057.780894,-10066.800811,148.041188,-459.657299
4057.781223,-10140.821405,-370.102971,-612.876398
4057.781553,-10140.821405,0.000000,306.438199
4057.781883,-9992.780217,0.000000,842.705048
4057.782213,-9918.759623,74.020594,689.485948
4057.782542,-9400.615463,0.000000,0.000000
4057.782872,-9104.533087,148.041188,-383.047749
4057.783202,-9474.636058,370.102971,0.000000
4057.783532,-10584.944971,592.164754,766.095498
4057.783861,-11029.068536,592.164754,612.876398
4057.784191,-9844.739029,222.061783,0.000000
4057.784521,-8956.491898,-222.061783,-919.314598
4057.784851,-8956.491898,-296.082377,-306.438199
4057.785180,-9696.697840,-222.061783,459.657299
4057.785510,-9918.759623,0.000000,459.657299
4057.785840,-9548.656652,222.061783,995.924147
4057.786169,-9252.574275,222.061783,459.657299
4057.786499,-9474.636058,370.102971,612.876398
4057.786829,-10214.842000,370.102971,536.266849
4057.787159,-10288.862594,222.061783,919.314598
4057.787488,-9844.739029,0.000000,842.705048
4057.787818,-8956.491898,148.041188,229.828649
4057.788148,-8512.368333,222.061783,0.000000
4057.788478,-9400.615463,74.020594,229.828649
4057.788807,-9918.759623,74.020594,0.000000
4057.789137,-10140.821405,444.123565,306.438199
4057.789467,-9918.759623,518.144159,229.828649
4057.789797,-8882.471304,888.247130,229.828649
4057.790126,-9474.636058,222.061783,306.438199
4057.790456,-10362.883188,444.123565,459.657299
4057.790786,-10584.944971,296.082377,383.047749
4057.791116,-10140.821405,370.102971,0.000000
4057.791445,-9252.574275,-222.061783,-612.876398
4057.791775,-9400.615463,148.041188,153.219100
4057.792105,-9918.759623,0.000000,689.485948
4057.792435,-10658.965565,0.000000,612.876398
4057.792764,-10436.903782,222.061783,689.485948
4057.793094,-9104.533087,222.061783,-153.219100
4057.793424,-8808.450710,0.000000,0.000000
4057.793754,-9918.759623,222.061783,612.876398
4057.794083,-11325.150913,740.205942,1072.533697
4057.794413,-10955.047942,0.000000,536.266849
4057.794743,-9252.574275,-296.082377,-689.485948
4057.795073,-8882.471304,-370.102971,-1072.533697
4057.795402,-9474.636058,-592.164754,153.219100
4057.795732,-10140.821405,-296.082377,995.924147
4057.796062,-9696.697840,0.000000,919.314598
4057.796392,-9326.594869,0.000000,-153.219100
4057.796721,-9400.615463,0.000000,-612.876398
4057.797051,-10140.821405,-222.061783,459.657299
4057.797381,-10362.883188,0.000000,459.657299
4057.797710,-10066.800811,0.000000,842.705048
4057.798040,-9992.780217,0.000000,153.219100
4057.798370,-8660.409521,74.020594,-153.219100
4057.798700,-8808.450710,-296.082377,-153.219100
4057.799029,-10066.800811,0.000000,76.609550
4057.799359,-10807.006753,0.000000,0.000000
4057.799689,-10881.027347,74.020594,536.266849
4057.800019,-9622.677246,-296.082377,229.828649
4057.800348,-9326.594869,74.020594,536.266849
4057.800678,-10362.883188,222.061783,689.485948
4057.801008,-10881.027347,74.020594,459.657299
4057.801338,-10436.903782,444.123565,229.828649
4057.801667,-9178.553681,148.041188,76.609550
4057.801997,-9400.615463,0.000000,153.219100
4057.802327,-9992.780217,0.000000,612.876398
4057.802657,-10436.903782,444.123565,842.705048
4057.802986,-9844.739029,-222.061783,76.609550
4057.803316,-9030.512492,0.000000,0.000000
4057.803646,-8734.430116,0.000000,76.609550
4057.803976,-9252.574275,0.000000,1225.752797
4057.804305,-10510.924376,370.102971,1455.581446
4057.804635,-10955.047942,518.144159,919.314598
4057.804965,-10288.862594,148.041188,76.609550
4057.805295,-9252.574275,0.000000,-766.095498
4057.805624,-9474.636058,0.000000,153.219100
4057.805954,-9696.697840,-444.123565,459.657299
4057.806284,-9992.780217,0.000000,1225.752797
4057.806614,-9548.656652,0.000000,383.047749
4057.806943,-8364.327145,0.000000,-536.266849
4057.807273,-8586.388927,-222.061783,-536.266849
4057.807603,-9622.677246,0.000000,919.314598
4057.807933,-10955.047942,370.102971,1072.533697
4057.808262,-10732.986159,296.082377,1455.581446
4057.808592,-9622.677246,0.000000,0.000000
4057.808922,-9400.615463,0.000000,229.828649
4057.809252,-9918.759623,-222.061783,229.828649
4057.809581,-10214.842000,-296.082377,0.000000
4057.809911,-9770.718434,148.041188,0.000000
4057.810241,-9030.512492,0.000000,-536.266849
4057.810570,-8956.491898,0.000000,-536.266849
4057.810900,-9918.759623,370.102971,0.000000
4057.811230,-11029.068536,592.164754,536.266849
4057.811560,-10436.903782,296.082377,-76.609550
4057.811889,-9622.677246,0.000000,-306.438199
4057.812219,-9400.615463,74.020594,-306.438199
4057.812549,-10288.862594,296.082377,1149.143247
4057.812879,-10214.842000,74.020594,306.438199
4057.813208,-10214.842000,74.020594,229.828649
4057.813538,-9918.759623,296.082377,-76.609550
4057.813868,-9400.615463,-370.102971,-459.657299
4057.814198,-9178.553681,-296.082377,0.000000
4057.814527,-9918.759623,0.000000,1378.971896
4057.814857,-10732.986159,0.000000,766.095498
4057.815187,-10066.800811,0.000000,459.657299
4057.815517,-9548.656652,-222.061783,-1072.533697
4057.815846,-8586.388927,0.000000,-306.438199
4057.816176,-10214.842000,148.041188,919.314598
4057.816506,-11251.130318,74.020594,1532.190996
4057.816836,-10732.986159,0.000000,1455.581446
4057.817165,-9548.656652,0.000000,76.609550
4057.817495,-9104.533087,-444.123565,-842.705048
4057.817825,-9548.656652,-222.061783,-689.485948
4057.818155,-10214.842000,296.082377,153.219100
4057.818484,-9548.656652,296.082377,459.657299
4057.818814,-8734.430116,370.102971,0.000000
4057.819144,-8660.409521,370.102971,0.000000
4057.819474,-9844.739029,148.041188,306.438199
4057.819803,-10955.047942,74.020594,0.000000
4057.820133,-10732.986159,0.000000,0.000000
4057.820463,-9178.553681,0.000000,842.705048
4057.820793,-8290.306550,0.000000,459.657299
4057.821122,-8364.327145,0.000000,919.314598
4057.821452,-10510.924376,518.144159,536.266849
4057.821782,-10807.006753,740.205942,0.000000
4057.822111,-10214.842000,518.144159,-766.095498
4057.822441,-8660.409521,296.082377,-919.314598
4057.822771,-9178.553681,444.123565,459.657299
4057.823101,-9918.759623,296.082377,842.705048
4057.823430,-10140.821405,444.123565,0.000000
4057.823760,-9696.697840,444.123565,0.000000
4057.824090,-9400.615463,-148.041188,-766.095498
4057.824420,-9474.636058,148.041188,0.000000
4057.824749,-10288.862594,74.020594,1455.581446
4057.825079,-11103.089130,666.185348,1378.971896
4057.825409,-10362.883188,222.061783,919.314598
4057.825739,-9104.533087,148.041188,-153.219100
4057.826068,-8808.450710,0.000000,-459.657299
4057.826398,-9770.718434,370.102971,306.438199
4057.826728,-10881.027347,444.123565,1072.533697
4057.827058,-10362.883188,148.041188,842.705048
4057.827387,-9622.677246,0.000000,153.219100
4057.827717,-8586.388927,-222.061783,-919.314598
4057.828047,-9474.636058,-148.041188,-995.924147
4057.828377,-10510.924376,0.000000,0.000000
4057.828706,-10510.924376,0.000000,766.095498
4057.829036,-9770.718434,-222.061783,612.876398
4057.829366,-9104.533087,-222.061783,383.047749
4057.829696,-9622.677246,-148.041188,0.000000
4057.830025,-10140.821405,-296.082377,536.266849
4057.830355,-9992.780217,-592.164754,459.657299
4057.830685,-9844.739029,0.000000,1072.533697
4057.831015,-8956.491898,-518.144159,0.000000
4057.831344,-9548.656652,-740.205942,0.000000
4057.831674,-10288.862594,-666.185348,229.828649
4057.832004,-10362.883188,-592.164754,306.438199
4057.832334,-9992.780217,-518.144159,612.876398
4057.832663,-8512.368333,-962.267725,-76.609550
4057.832993,-7994.224174,-370.102971,0.000000
4057.833323,-9548.656652,0.000000,1225.752797
4057.833652,-10510.924376,0.000000,689.485948
4057.833982,-10732.986159,148.041188,1072.533697
4057.834312,-9548.656652,0.000000,0.000000
4057.834642,-9104.533087,-222.061783,-383.047749
4057.834971,-9696.697840,-370.102971,-153.219100
4057.835301,-10436.903782,-296.082377,0.000000
4057.835631,-10140.821405,0.000000,153.219100
4057.835961,-8956.491898,74.020594,0.000000
4057.836290,-8734.430116,592.164754,-612.876398
4057.836620,-9548.656652,444.123565,306.438199
4057.836950,-10658.965565,962.267725,229.828649
4057.837280,-10584.944971,518.144159,612.876398
4057.837609,-10362.883188,370.102971,383.047749
4057.837939,-9696.697840,-74.020594,0.000000
4057.838269,-9252.574275,-222.061783,229.828649
4057.838599,-9770.718434,0.000000,383.047749
4057.838928,-9918.759623,0.000000,0.000000
4057.839258,-9696.697840,444.123565,383.047749
4057.839588,-9252.574275,740.205942,0.000000
4057.839918,-9622.677246,962.267725,229.828649
4057.840247,-10214.842000,962.267725,995.924147
4057.840577,-10658.965565,888.247130,842.705048
4057.840907,-9696.697840,518.144159,0.000000
4057.841237,-9326.594869,370.102971,-229.828649
4057.841566,-8808.450710,0.000000,-612.876398
4057.841896,-9104.533087,148.041188,0.000000
4057.842226,-9474.636058,0.000000,1149.143247
4057.842556,-10066.800811,444.123565,612.876398
4057.842885,-9844.739029,444.123565,536.266849
4057.843215,-9696.697840,370.102971,0.000000
4057.843545,-9770.718434,444.123565,459.657299
4057.843875,-10436.903782,740.205942,766.095498
4057.844204,-10214.842000,444.123565,536.266849
4057.844534,-9548.656652,222.061783,459.657299
4057.844864,-8882.471304,148.041188,-842.705048
4057.845193,-8660.409521,148.041188,-689.485948
4057.845523,-10288.862594,370.102971,0.000000
4057.845853,-10658.965565,518.144159,306.438199
4057.846183,-9918.759623,444.123565,153.219100
4057.846512,-8956.491898,74.020594,-459.657299
4057.846842,-9178.553681,296.082377,-766.095498
4057.847172,-9770.718434,148.041188,-229.828649
4057.847502,-10732.986159,296.082377,229.828649
4057.847831,-10436.903782,518.144159,1072.533697
4057.848161,-9548.656652,370.102971,76.609550
4057.848491,-9178.553681,-296.082377,-536.266849
4057.848821,-9474.636058,0.000000,0.000000
4057.849150,-10066.800811,222.061783,76.609550
4057.849480,-10362.883188,74.020594,0.000000
4057.849810,-9400.615463,0.000000,-153.219100
4057.850140,-9400.615463,0.000000,0.000000
4057.850469,-10362.883188,-222.061783,536.266849
4057.850799,-10955.047942,-148.041188,689.485948
4057.851129,-10140.821405,-518.144159,612.876398
4057.851458,-8956.491898,-666.185348,919.314598
4057.851788,-8512.368333,-444.123565,995.924147
4057.852118,-9104.533087,0.000000,1685.410096
4057.852448,-10510.924376,0.000000,1455.581446
4057.852777,-11251.130318,74.020594,995.924147
4057.853107,-10362.883188,-296.082377,229.828649
4057.853437,-9104.533087,-814.226536,-306.438199
4057.853767,-8956.491898,-666.185348,0.000000
4057.854096,-9696.697840,-666.185348,1072.533697
4057.854426,-10214.842000,-296.082377,842.705048
4057.854756,-10140.821405,-518.144159,229.828649
4057.855085,-9696.697840,-370.102971,306.438199
4057.855415,-9400.615463,-518.144159,0.000000
4057.855745,-9918.759623,-518.144159,612.876398
4057.856075,-9992.780217,-222.061783,689.485948
4057.856404,-9104.533087,-222.061783,1225.752797
4057.856734,-9326.594869,0.000000,-612.876398
4057.857064,-9326.594869,-370.102971,-1378.971896
4057.857394,-10214.842000,0.000000,-153.219100
4057.857723,-10362.883188,222.061783,0.000000
4057.858053,-10436.903782,0.000000,306.438199
4057.858383,-10066.800811,0.000000,306.438199
4057.858712,-9474.636058,-592.164754,0.000000
4057.859042,-9992.780217,-222.061783,689.485948
4057.859372,-10066.800811,148.041188,536.266849
4057.859702,-10436.903782,148.041188,536.266849
4057.860031,-9844.739029,222.061783,766.095498
4057.860361,-9474.636058,296.082377,229.828649
4057.860691,-9770.718434,592.164754,0.000000
4057.861021,-10362.883188,0.000000,76.609550
4057.861350,-10658.965565,74.020594,0.000000
4057.861680,-9400.615463,0.000000,306.438199
4057.862010,-8660.409521,222.061783,536.266849
4057.862339,-9030.512492,518.144159,383.047749
4057.862669,-10288.862594,0.000000,919.314598
4057.862999,-10807.006753,74.020594,383.047749
4057.863329,-10436.903782,74.020594,383.047749
4057.863658,-9474.636058,296.082377,-306.438199
4057.863988,-9104.533087,74.020594,76.609550
4057.864318,-8956.491898,74.020594,306.438199
4057.864648,-9178.553681,222.061783,0.000000
4057.864977,-9104.533087,518.144159,-536.266849
4057.865307,-9326.594869,296.082377,-306.438199
4057.865637,-8956.491898,0.000000,-306.438199
4057.865966,-9622.677246,222.061783,689.485948
4057.866296,-9844.739029,444.123565,459.657299
4057.866626,-10658.965565,0.000000,919.314598
4057.866956,-9918.759623,296.082377,306.438199
4057.867285,-8882.471304,74.020594,-842.705048
4057.867615,-9326.594869,740.205942,-459.657299
4057.867945,-10066.800811,814.226536,306.438199
4057.868275,-10807.006753,1110.308913,689.485948
4057.868604,-10362.883188,814.226536,536.266849
4057.868934,-9474.636058,518.144159,-1072.533697
4057.869264,-8808.450710,370.102971,-1302.362347
4057.869593,-10288.862594,444.123565,0.000000
4057.869923,-10584.944971,148.041188,383.047749
4057.870253,-9918.759623,444.123565,153.219100
4057.870583,-9104.533087,296.082377,-995.924147
4057.870912,-9178.553681,592.164754,-689.485948
4057.871242,-10140.821405,592.164754,0.000000
4057.871572,-10658.965565,518.144159,76.609550
4057.871902,-10732.986159,592.164754,536.266849
4057.872231,-9696.697840,0.000000,612.876398
4057.872561,-8882.471304,-296.082377,76.609550
4057.872891,-8882.471304,-666.185348,76.609550
4057.873220,-10066.800811,-370.102971,612.876398
4057.873550,-10140.821405,-296.082377,459.657299
4057.873880,-9770.718434,-222.061783,0.000000
4057.874210,-8438.347739,-222.061783,-536.266849
4057.874539,-8734.430116,0.000000,229.828649
4057.874869,-9770.718434,296.082377,1225.752797
4057.875199,-10658.965565,518.144159,689.485948
4057.875529,-10288.862594,0.000000,-76.609550
4057.875858,-9400.615463,0.000000,-1455.581446
4057.876188,-9326.594869,-296.082377,-689.485948
4057.876518,-9918.759623,-814.226536,-229.828649
4057.876847,-9622.677246,-666.185348,383.047749
4057.877177,-9104.533087,-666.185348,689.485948
4057.877507,-9178.553681,-148.041188,306.438199
4057.877837,-9770.718434,0.000000,459.657299
4057.878166,-10658.965565,0.000000,766.095498
4057.878496,-10436.903782,0.000000,459.657299
4057.878826,-10658.965565,74.020594,1072.533697
4057.879156,-9622.677246,-518.144159,0.000000
4057.879485,-9030.512492,-592.164754,0.000000
4057.879815,-8882.471304,-518.144159,153.219100
4057.880145,-9992.780217,-296.082377,229.828649
4057.880474,-10436.903782,296.082377,383.047749
4057.880804,-10214.842000,148.041188,76.609550
4057.881134,-8808.450710,0.000000,0.000000
4057.881464,-9844.739029,148.041188,383.047749
4057.881793,-10436.903782,0.000000,612.876398
4057.882123,-10732.986159,222.061783,1225.752797
4057.882453,-10066.800811,0.000000,459.657299
4057.882783,-9178.553681,74.020594,76.609550
4057.883112,-8734.430116,0.000000,153.219100
4057.883442,-9844.739029,0.000000,383.047749
4057.883772,-10658.965565,74.020594,689.485948
4057.884101,-10066.800811,222.061783,0.000000
4057.884431,-9400.615463,74.020594,-229.828649
4057.884761,-9030.512492,222.061783,0.000000
4057.885091,-9400.615463,148.041188,612.876398
4057.885420,-10510.924376,444.123565,612.876398
4057.885750,-10140.821405,370.102971,536.266849
4057.886080,-9548.656652,444.123565,-229.828649
4057.886410,-9252.574275,0.000000,-842.705048
4057.886739,-9844.739029,370.102971,0.000000
4057.887069,-10362.883188,592.164754,76.609550
4057.887399,-10140.821405,740.205942,-306.438199
4057.887728,-9696.697840,444.123565,-536.266849
4057.888058,-9326.594869,518.144159,-536.266849
4057.888388,-9696.697840,296.082377,459.657299
4057.888718,-10288.862594,444.123565,1072.533697
4057.889047,-10362.883188,370.102971,459.657299
4057.889377,-9696.697840,222.061783,76.609550
4057.889707,-9252.574275,74.020594,-76.609550
4057.890037,-9104.533087,222.061783,536.266849
4057.890366,-9770.718434,222.061783,1072.533697
4057.890696,-10584.944971,0.000000,1302.362347
4057.891026,-9844.739029,74.020594,383.047749
4057.891355,-9178.553681,148.041188,-689.485948
4057.891685,-9400.615463,0.000000,-919.314598
4057.892015,-9918.759623,0.000000,536.266849
4057.892345,-10584.944971,-370.102971,842.705048
4057.892674,-10214.842000,148.041188,842.705048
4057.893004,-8882.471304,-296.082377,153.219100
4057.893334,-8512.368333,-592.164754,-229.828649
4057.893664,-9474.636058,-666.185348,689.485948
4057.893993,-10436.903782,-296.082377,689.485948
4057.894323,-9918.759623,0.000000,0.000000
4057.894653,-9622.677246,-444.123565,229.828649
4057.894982,-9474.636058,-222.061783,229.828649
4057.895312,-9992.780217,-296.082377,689.485948
4057.895642,-10362.883188,-296.082377,383.047749
4057.895972,-10066.800811,-370.102971,306.438199
4057.896301,-9474.636058,0.000000,995.924147
4057.896631,-8586.388927,-814.226536,0.000000
4057.896961,-9326.594869,-370.102971,536.266849
4057.897291,-10732.986159,-518.144159,1149.143247
4057.897620,-11103.089130,-148.041188,306.438199
4057.897950,-10066.800811,0.000000,-306.438199
4057.898280,-8586.388927,0.000000,-536.266849
4057.898609,-9178.553681,296.082377,-229.828649
4057.898939,-10288.862594,296.082377,842.705048
4057.899269,-11251.130318,592.164754,842.705048
4057.899599,-10955.047942,296.082377,536.266849
4057.899928,-10140.821405,0.000000,229.828649
4057.900258,-9474.636058,0.000000,0.000000
4057.900588,-10214.842000,-370.102971,1455.581446
4057.900918,-10658.965565,-222.061783,995.924147
4057.901247,-10658.965565,74.020594,766.095498
4057.901577,-9622.677246,296.082377,306.438199
4057.901907,-9178.553681,148.041188,0.000000
4057.902236,-9548.656652,0.000000,689.485948
4057.902566,-10288.862594,592.164754,919.314598
4057.902896,-10510.924376,740.205942,766.095498
4057.903226,-9992.780217,444.123565,766.095498
4057.903555,-9178.553681,-222.061783,-153.219100
4057.903885,-9178.553681,-148.041188,153.219100
4057.904215,-9844.739029,0.000000,1072.533697
4057.904545,-9918.759623,222.061783,612.876398
4057.904874,-9918.759623,222.061783,383.047749
4057.905204,-8956.491898,296.082377,-919.314598
4057.905534,-9030.512492,518.144159,-689.485948
4057.905863,-10140.821405,814.226536,459.657299
4057.906193,-10288.862594,888.247130,1149.143247
4057.906523,-10362.883188,666.185348,0.000000
4057.906853,-9030.512492,518.144159,-689.485948
4057.907182,-8364.327145,-148.041188,-1685.410096
4057.907512,-9400.615463,148.041188,-229.828649
4057.907842,-10436.903782,148.041188,76.609550
4057.908172,-9992.780217,-222.061783,153.219100
4057.908501,-8882.471304,148.041188,-229.828649
4057.908831,-8734.430116,148.041188,-153.219100
4057.909161,-10362.883188,370.102971,536.266849
4057.909490,-10732.986159,444.123565,459.657299
4057.909820,-10140.821405,370.102971,459.657299
4057.910150,-9770.718434,592.164754,229.828649
4057.910480,-9474.636058,148.041188,766.095498
4057.910809,-10288.862594,296.082377,229.828649
4057.911139,-11103.089130,-74.020594,306.438199
4057.911469,-10881.027347,74.020594,0.000000
4057.911798,-9918.759623,-222.061783,-612.876398
4057.912128,-8586.388927,-222.061783,-459.657299
4057.912458,-9474.636058,-74.020594,842.705048
4057.912788,-10140.821405,0.000000,1762.019645
4057.913117,-10214.842000,148.041188,689.485948
4057.913447,-10288.862594,0.000000,919.314598
4057.913777,-9474.636058,-148.041188,0.000000
4057.914107,-9918.759623,-592.164754,459.657299
4057.914436,-10510.924376,-370.102971,919.314598
4057.914766,-10140.821405,-518.144159,2145.067394
4057.915096,-9548.656652,-592.164754,383.047749
4057.915425,-8512.368333,-370.102971,-229.828649
4057.915755,-8364.327145,-740.205942,-459.657299
4057.916085,-9770.718434,-370.102971,459.657299
4057.916415,-10436.903782,0.000000,842.705048
4057.916744,-10362.883188,0.000000,766.095498
4057.917074,-9696.697840,-74.020594,536.266849
4057.917404,-9030.512492,-740.205942,459.657299
4057.917734,-10288.862594,0.000000,766.095498
4057.918063,-10510.924376,0.000000,612.876398
4057.918393,-10140.821405,0.000000,459.657299
4057.918723,-9992.780217,148.041188,306.438199
4057.919052,-9474.636058,444.123565,383.047749
4057.919382,-10362.883188,740.205942,536.266849
4057.919712,-10881.027347,592.164754,0.000000
4057.920042,-10436.903782,666.185348,0.000000
4057.920371,-9326.594869,296.082377,0.000000
4057.920701,-8660.409521,0.000000,0.000000
4057.921031,-9030.512492,0.000000,153.219100
4057.921361,-10510.924376,592.164754,536.266849
4057.921690,-10955.047942,592.164754,76.609550
4057.922020,-10584.944971,222.061783,76.609550
4057.922350,-9548.656652,74.020594,-306.438199
4057.922679,-9474.636058,0.000000,459.657299
4057.923009,-9326.594869,74.020594,1072.533697
4057.923339,-9548.656652,-148.041188,1149.143247
4057.923669,-9844.739029,740.205942,536.266849
4057.923998,-9474.636058,0.000000,459.657299
4057.924328,-9474.636058,-444.123565,-229.828649
4057.924658,-9400.615463,-888.247130,1455.581446
4057.924988,-9992.780217,0.000000,766.095498
4057.925317,-9696.697840,370.102971,383.047749
4057.925647,-8734.430116,-370.102971,-766.095498
4057.925977,-8290.306550,222.061783,-1378.971896
4057.926306,-9474.636058,518.144159,0.000000
4057.926636,-10732.986159,518.144159,306.438199
4057.926966,-10732.986159,222.061783,306.438199
4057.927296,-9400.615463,0.000000,306.438199
4057.927625,-8956.491898,-222.061783,-76.609550
4057.927955,-9030.512492,-296.082377,-76.609550
4057.928285,-10436.903782,-74.020594,153.219100
4057.928615,-10510.924376,-74.020594,0.000000
4057.928944,-9474.636058,222.061783,306.438199
4057.929274,-9104.533087,74.020594,-1149.143247
4057.929604,-9992.780217,666.185348,-229.828649
4057.929933,-10881.027347,296.082377,612.876398
4057.930263,-11029.068536,296.082377,0.000000
4057.930593,-9844.739029,222.061783,-612.876398
4057.930923,-9104.533087,-296.082377,0.000000
4057.931252,-9252.574275,-222.061783,0.000000
4057.931582,-9548.656652,-666.185348,919.314598
4057.931912,-10288.862594,0.000000,689.485948
4057.932242,-9918.759623,-74.020594,766.095498
4057.932571,-9992.780217,0.000000,612.876398
4057.932901,-9770.718434,74.020594,153.219100
4057.933231,-10214.842000,0.000000,459.657299
4057.933560,-10658.965565,222.061783,306.438199
4057.933890,-10584.944971,444.123565,766.095498
4057.934220,-9696.697840,0.000000,612.876398
4057.934550,-8734.430116,-666.185348,0.000000
4057.934879,-9030.512492,-222.061783,-459.657299
4057.935209,-9622.677246,-148.041188,153.219100
4057.935539,-10066.800811,-222.061783,0.000000
4057.935869,-9548.656652,-148.041188,689.485948
4057.936198,-8956.491898,-148.041188,229.828649
4057.936528,-9326.594869,0.000000,919.314598
4057.936858,-10510.924376,74.020594,995.924147
4057.937187,-10436.903782,222.061783,612.876398
4057.937517,-9770.718434,74.020594,689.485948
4057.937847,-9548.656652,296.082377,153.219100
4057.938177,-9474.636058,0.000000,76.609550
4057.938506,-10510.924376,74.020594,153.219100
4057.938836,-10658.965565,-148.041188,459.657299
4057.939166,-9548.656652,-296.082377,-153.219100
4057.939496,-8882.471304,-444.123565,-766.095498
4057.939825,-8734.430116,-296.082377,-383.047749
4057.940155,-8956.491898,74.020594,536.266849
4057.940485,-9622.677246,518.144159,995.924147
4057.940814,-10658.965565,666.185348,995.924147
4057.941144,-10584.944971,0.000000,459.657299
4057.941474,-9548.656652,-370.102971,0.000000
4057.941804,-9770.718434,-296.082377,383.047749
4057.942133,-10214.842000,-444.123565,919.314598
4057.942463,-9252.574275,-444.123565,689.485948
4057.942793,-8512.368333,0.000000,-76.609550
4057.943123,-8660.409521,0.000000,-612.876398
4057.943452,-10214.842000,592.164754,-842.705048
4057.943782,-10881.027347,370.102971,-153.219100
4057.944112,-10288.862594,0.000000,-766.095498
4057.944441,-9178.553681,0.000000,-229.828649
4057.944771,-8882.471304,-370.102971,0.000000
4057.945101,-9474.636058,-518.144159,0.000000
4057.945431,-10140.821405,-518.144159,612.876398
4057.945760,-9770.718434,0.000000,76.609550
4057.946090,-9474.636058,0.000000,153.219100
4057.946420,-9400.615463,-148.041188,153.219100
4057.946750,-9992.780217,296.082377,383.047749
4057.947079,-10288.862594,0.000000,766.095498
4057.947409,-10362.883188,-222.061783,76.609550
4057.947739,-10658.965565,444.123565,0.000000
4057.948069,-10066.800811,222.061783,-153.219100
4057.948399,-9474.636058,444.123565,-612.876398
4057.948728,-9622.677246,518.144159,0.000000
4057.949058,-10658.965565,222.061783,229.828649
4057.949388,-10584.944971,222.061783,0.000000
4057.949718,-9696.697840,0.000000,-229.828649
4057.950048,-9400.615463,148.041188,-76.609550
4057.950378,-9326.594869,666.185348,689.485948
4057.950708,-10436.903782,518.144159,612.876398
4057.951038,-10140.821405,592.164754,306.438199
4057.951368,-9992.780217,740.205942,383.047749
4057.951697,-9474.636058,518.144159,229.828649
4057.952027,-9548.656652,296.082377,153.219100
4057.952357,-10510.924376,148.041188,1072.533697
4057.952687,-10658.965565,148.041188,1532.190996
4057.953017,-9474.636058,74.020594,766.095498
4057.953347,-9326.594869,0.000000,-459.657299
4057.953677,-9178.553681,370.102971,-612.876398
4057.954007,-9696.697840,296.082377,612.876398
4057.954337,-10066.800811,222.061783,383.047749
4057.954666,-9696.697840,666.185348,459.657299
4057.954996,-8882.471304,0.000000,-153.219100
4057.955326,-8586.388927,0.000000,-536.266849
4057.955656,-9400.615463,74.020594,689.485948
4057.955986,-10510.924376,74.020594,1225.752797
4057.956316,-9992.780217,74.020594,383.047749
4057.956646,-9030.512492,-148.041188,0.000000
4057.956976,-8956.491898,370.102971,-306.438199
4057.957306,-9474.636058,148.041188,306.438199
4057.957635,-10436.903782,592.164754,76.609550
4057.957965,-10510.924376,518.144159,-153.219100
4057.958295,-10140.821405,592.164754,-612.876398
4057.958625,-9474.636058,-296.082377,-1072.533697
4057.958955,-9252.574275,-74.020594,-383.047749
4057.959285,-10066.800811,-74.020594,766.095498
4057.959615,-10214.842000,-592.164754,766.095498
4057.959945,-9770.718434,-296.082377,536.266849
4057.960275,-9178.553681,-740.205942,-153.219100
4057.960604,-9474.636058,-148.041188,536.266849
4057.960934,-10510.924376,-74.020594,1455.581446
4057.961264,-10881.027347,148.041188,1608.800546
4057.961594,-10732.986159,0.000000,689.485948
4057.961924,-9474.636058,148.041188,76.609550
4057.962254,-9030.512492,-222.061783,-919.314598
4057.962584,-9992.780217,-370.102971,-229.828649
4057.962914,-10732.986159,0.000000,1072.533697
4057.963244,-10881.027347,-148.041188,536.266849
4057.963573,-10066.800811,-370.102971,0.000000
4057.963903,-9178.553681,-592.164754,-383.047749
4057.964233,-9400.615463,-370.102971,229.828649
4057.964563,-10362.883188,-222.061783,612.876398
4057.964893,-10881.027347,74.020594,1455.581446
4057.965223,-10214.842000,-444.123565,1685.410096
4057.965553,-9548.656652,-814.226536,612.876398
4057.965883,-9326.594869,-370.102971,-76.609550
4057.966213,-9770.718434,-888.247130,612.876398
4057.966542,-9770.718434,-666.185348,1072.533697
4057.966872,-9178.553681,-518.144159,0.000000
4057.967202,-8438.347739,0.000000,-1149.143247
4057.967532,-9696.697840,0.000000,-919.314598
4057.967862,-11029.068536,-74.020594,383.047749
4057.968192,-10881.027347,0.000000,842.705048
4057.968522,-10140.821405,-296.082377,-229.828649
4057.968852,-9252.574275,-296.082377,229.828649
4057.969182,-8586.388927,-518.144159,0.000000
4057.969511,-9770.718434,0.000000,612.876398
4057.969841,-10658.965565,0.000000,766.095498
4057.970171,-10214.842000,296.082377,229.828649
4057.970501,-9696.697840,74.020594,-306.438199
4057.970831,-9030.512492,370.102971,-995.924147
4057.971161,-9252.574275,444.123565,0.000000
4057.971491,-9474.636058,888.247130,-153.219100
4057.971821,-10732.986159,962.267725,0.000000
4057.972151,-10066.800811,888.247130,0.000000
4057.972481,-9474.636058,518.144159,-383.047749
4057.972810,-9474.636058,1258.350101,153.219100
4057.973140,-10510.924376,444.123565,689.485948
4057.973470,-10658.965565,444.123565,536.266849
4057.973800,-9474.636058,148.041188,0.000000
4057.974130,-8808.450710,74.020594,-229.828649
4057.974460,-8808.450710,518.144159,229.828649
4057.974790,-9918.759623,518.144159,1225.752797
4057.975120,-10436.903782,1036.288319,1149.143247
4057.975450,-9992.780217,740.205942,306.438199
4057.975779,-9326.594869,444.123565,0.000000
4057.976109,-9104.533087,0.000000,-229.828649
4057.976439,-9844.739029,0.000000,842.705048
4057.976769,-10362.883188,0.000000,1225.752797
4057.977099,-9252.574275,0.000000,1072.533697
4057.977429,-8882.471304,296.082377,0.000000
4057.977759,-8808.450710,518.144159,-229.828649
4057.978089,-9918.759623,740.205942,536.266849
4057.978419,-10658.965565,222.061783,612.876398
4057.978748,-10881.027347,1036.288319,612.876398
4057.979078,-9474.636058,148.041188,76.609550
4057.979408,-9104.533087,0.000000,-229.828649
4057.979738,-9252.574275,0.000000,-383.047749
4057.980068,-10140.821405,0.000000,0.000000
4057.980398,-10362.883188,74.020594,-536.266849
4057.980728,-9548.656652,0.000000,-995.924147
4057.981058,-9104.533087,74.020594,-919.314598
4057.981388,-8808.450710,222.061783,842.705048
4057.981717,-10881.027347,222.061783,995.924147
4057.982047,-11547.212695,148.041188,0.000000
4057.982377,-10658.965565,-592.164754,-459.657299
4057.982707,-9030.512492,-518.144159,-459.657299
4057.983037,-8660.409521,-666.185348,76.609550
4057.983367,-9622.677246,-666.185348,1378.971896
4057.983697,-10658.965565,-222.061783,919.314598
4057.984027,-10066.800811,0.000000,0.000000
4057.984357,-9622.677246,-148.041188,-1225.752797
4057.984686,-8882.471304,0.000000,-1378.971896
4057.985016,-10066.800811,0.000000,229.828649
4057.985346,-10510.924376,0.000000,766.095498
4057.985676,-9992.780217,370.102971,-919.314598
4057.986006,-9474.636058,0.000000,-612.876398
4057.986336,-9030.512492,-518.144159,-1072.533697
4057.986666,-9622.677246,-518.144159,0.000000
4057.986996,-10584.944971,74.020594,1685.410096
4057.987326,-10510.924376,-148.041188,1838.629195
4057.987655,-9844.739029,-444.123565,995.924147
4057.987985,-9252.574275,-518.144159,153.219100
4057.988315,-9252.574275,-296.082377,0.000000
4057.988645,-10288.862594,-370.102971,842.705048
4057.988975,-10584.944971,148.041188,1455.581446
4057.989305,-9918.759623,148.041188,1072.533697
4057.989635,-8956.491898,0.000000,766.095498
4057.989965,-8660.409521,0.000000,612.876398
4057.990295,-10510.924376,-222.061783,689.485948
4057.990624,-10436.903782,0.000000,766.095498
4057.990954,-9474.636058,222.061783,0.000000
4057.991284,-8882.471304,592.164754,229.828649
4057.991614,-8586.388927,148.041188,153.219100
4057.991944,-10066.800811,444.123565,689.485948
4057.992274,-10955.047942,592.164754,689.485948
4057.992604,-10881.027347,740.205942,0.000000
4057.992934,-9992.780217,370.102971,76.609550
4057.993264,-8586.388927,296.082377,0.000000
4057.993593,-9252.574275,74.020594,459.657299
4057.993923,-10362.883188,518.144159,919.314598
4057.994253,-10510.924376,814.226536,459.657299
4057.994583,-9844.739029,0.000000,-536.266849
4057.994913,-9400.615463,74.020594,-1302.362347
4057.995243,-9622.677246,0.000000,0.000000
4057.995573,-10584.944971,74.020594,1532.190996
4057.995903,-10066.800811,0.000000,689.485948
4057.996233,-9548.656652,74.020594,76.609550
4057.996563,-9104.533087,74.020594,-459.657299
4057.996892,-9474.636058,74.020594,-689.485948
4057.997222,-10658.965565,74.020594,459.657299
4057.997552,-10881.027347,0.000000,612.876398
4057.997882,-10066.800811,74.020594,383.047749
4057.998212,-9104.533087,-370.102971,-153.219100
4057.998542,-9030.512492,-740.205942,-153.219100
4057.998872,-10140.821405,-370.102971,459.657299
4057.999202,-10584.944971,0.000000,612.876398
4057.999532,-10140.821405,296.082377,1072.533697
4057.999861,-9030.512492,370.102971,689.485948
4058.000191,-8734.430116,-296.082377,-306.438199
4058.000521,-9844.739029,-148.041188,459.657299
4058.000851,-10881.027347,-74.020594,842.705048
4058.001181,-10436.903782,0.000000,76.609550
4058.001511,-9326.594869,-740.205942,-459.657299
4058.001841,-8586.388927,-370.102971,-383.047749
4058.002171,-9326.594869,0.000000,383.047749
4058.002501,-10362.883188,0.000000,76.609550
4058.002830,-9918.759623,370.102971,0.000000
4058.003160,-9918.759623,296.082377,0.000000
4058.003490,-9252.574275,0.000000,-536.266849
4058.003820,-9326.594869,148.041188,0.000000
4058.004150,-9992.780217,148.041188,536.266849
4058.004480,-10658.965565,370.102971,0.000000
4058.004810,-10066.800811,518.144159,-459.657299
4058.005140,-9400.615463,74.020594,-995.924147
4058.005470,-9474.636058,518.144159,-1149.143247
4058.005799,-10066.800811,592.164754,459.657299
4058.006129,-10510.924376,592.164754,612.876398
4058.006459,-10436.903782,888.247130,689.485948
4058.006789,-9548.656652,740.205942,0.000000
4058.007119,-9178.553681,370.102971,0.000000
4058.007449,-10362.883188,148.041188,842.705048
4058.007779,-10955.047942,370.102971,1302.362347
4058.008109,-9844.739029,148.041188,919.314598
4058.008439,-8586.388927,74.020594,0.000000
4058.008768,-8512.368333,592.164754,-383.047749
4058.009098,-9696.697840,518.144159,76.609550
4058.009428,-11177.109724,888.247130,536.266849
4058.009758,-11177.109724,1258.350101,383.047749
4058.010088,-9918.759623,592.164754,842.705048
4058.010418,-8512.368333,0.000000,383.047749
4058.010748,-8956.491898,222.061783,766.095498
4058.011078,-9992.780217,592.164754,1302.362347
4058.011408,-10658.965565,444.123565,536.266849
4058.011737,-9844.739029,-222.061783,153.219100
4058.012067,-8882.471304,-222.061783,0.000000
4058.012397,-8956.491898,0.000000,612.876398
4058.012727,-9844.739029,0.000000,1302.362347
4058.013057,-10214.842000,296.082377,536.266849
4058.013387,-9992.780217,74.020594,536.266849
4058.013717,-9252.574275,-296.082377,-459.657299
4058.014047,-9474.636058,-222.061783,229.828649
4058.014377,-10288.862594,-518.144159,919.314598
4058.014706,-10214.842000,-666.185348,612.876398
4058.015036,-9474.636058,-444.123565,536.266849
4058.015366,-8512.368333,-962.267725,0.000000
4058.015696,-9030.512492,-518.144159,-229.828649
4058.016026,-9844.739029,222.061783,0.000000
4058.016356,-10288.862594,296.082377,229.828649
4058.016686,-10436.903782,592.164754,153.219100
4058.017016,-10658.965565,296.082377,0.000000
4058.017346,-10214.842000,0.000000,-689.485948
4058.017675,-10214.842000,-518.144159,-383.047749
4058.018005,-10436.903782,-518.144159,-153.219100
4058.018335,-10066.800811,-592.164754,383.047749
4058.018665,-9474.636058,-592.164754,306.438199
4058.018995,-8734.430116,-444.123565,-229.828649
4058.019325,-9178.553681,0.000000,-459.657299
4058.019655,-10066.800811,370.102971,459.657299
4058.019985,-10584.944971,74.020594,0.000000
4058.020315,-10066.800811,74.020594,459.657299
4058.020645,-9622.677246,-222.061783,306.438199
4058.020974,-9400.615463,-518.144159,383.047749
4058.021304,-10436.903782,-592.164754,842.705048
4058.021634,-10362.883188,-666.185348,689.485948
4058.021964,-9474.636058,-74.020594,306.438199
4058.022294,-8808.450710,0.000000,612.876398
4058.022624,-8956.491898,148.041188,612.876398
4058.022954,-10140.821405,444.123565,766.095498
4058.023284,-11029.068536,518.144159,459.657299
4058.023614,-10658.965565,296.082377,0.000000
4058.023943,-9474.636058,74.020594,-612.876398
4058.024273,-8660.409521,-296.082377,-306.438199
4058.024603,-9252.574275,-444.123565,842.705048
4058.024933,-9844.739029,-74.020594,1149.143247
4058.025263,-9622.677246,148.041188,766.095498
4058.025593,-9474.636058,0.000000,0.000000
4058.025923,-9104.533087,148.041188,-459.657299
4058.026253,-9696.697840,592.164754,0.000000
4058.026583,-9992.780217,370.102971,536.266849
4058.026912,-10288.862594,888.247130,153.219100
4058.027242,-9770.718434,370.102971,153.219100
4058.027572,-9326.594869,74.020594,-536.266849
4058.027902,-9696.697840,148.041188,0.000000
4058.028232,-9992.780217,148.041188,1378.971896
4058.028562,-10214.842000,222.061783,766.095498
4058.028892,-9548.656652,148.041188,306.438199
4058.029222,-9252.574275,518.144159,-383.047749
4058.029552,-9548.656652,888.247130,-229.828649
4058.029881,-10807.006753,1110.308913,-383.047749
4058.030211,-11325.150913,888.247130,-229.828649
4058.030541,-10362.883188,592.164754,0.000000
4058.030871,-9400.615463,0.000000,383.047749
4058.031201,-9030.512492,-148.041188,0.000000
4058.031531,-9326.594869,-370.102971,229.828649
4058.031861,-9770.718434,-148.041188,229.828649
4058.032191,-9770.718434,0.000000,153.219100
4058.032521,-9548.656652,-148.041188,306.438199
4058.032850,-9918.759623,0.000000,383.047749
4058.033180,-9770.718434,-444.123565,689.485948
4058.033510,-9992.780217,0.000000,766.095498
4058.033840,-9770.718434,74.020594,-383.047749
4058.034170,-9844.739029,148.041188,306.438199
4058.034500,-9252.574275,0.000000,-383.047749
4058.034830,-8660.409521,-74.020594,-229.828649
4058.035160,-9918.759623,444.123565,229.828649
4058.035490,-10436.903782,0.000000,536.266849
4058.035819,-9696.697840,0.000000,306.438199
4058.036149,-9252.574275,0.000000,-689.485948
4058.036479,-9178.553681,-592.164754,-689.485948
4058.036809,-9622.677246,-148.041188,-383.047749
4058.037139,-9770.718434,-370.102971,0.000000
4058.037469,-9696.697840,148.041188,459.657299
4058.037799,-9474.636058,296.082377,536.266849
4058.038129,-8956.491898,-222.061783,-536.266849
4058.038459,-9622.677246,-148.041188,459.657299
4058.038788,-10436.903782,0.000000,1378.971896
4058.039118,-10955.047942,0.000000,1149.143247
4058.039448,-9992.780217,148.041188,459.657299
4058.039778,-9252.574275,0.000000,-1225.752797
4058.040108,-9622.677246,74.020594,-229.828649
4058.040438,-10510.924376,518.144159,0.000000
4058.040768,-11029.068536,740.205942,76.609550
4058.041098,-9770.718434,0.000000,76.609550
4058.041428,-9104.533087,148.041188,-229.828649
4058.041757,-9474.636058,0.000000,383.047749
4058.042087,-10658.965565,-148.041188,1225.752797
4058.042417,-10214.842000,-814.226536,1378.971896
4058.042747,-9696.697840,-814.226536,919.314598
4058.043077,-9326.594869,-592.164754,766.095498
4058.043407,-9178.553681,-592.164754,536.266849
4058.043737,-9326.594869,-370.102971,995.924147
4058.044067,-10066.800811,296.082377,459.657299
4058.044397,-9844.739029,518.144159,459.657299
4058.044726,-9770.718434,444.123565,76.609550
4058.045056,-9548.656652,296.082377,76.609550
4058.045386,-9992.780217,0.000000,612.876398
4058.045716,-10436.903782,-222.061783,459.657299
4058.046046,-10066.800811,-74.020594,229.828649
4058.046376,-8808.450710,-666.185348,-612.876398
4058.046706,-8808.450710,0.000000,-842.705048
4058.047036,-9622.677246,370.102971,229.828649
4058.047366,-10584.944971,518.144159,612.876398
4058.047696,-11029.068536,1184.329507,383.047749
4058.048025,-10066.800811,1184.329507,383.047749
4058.048355,-9326.594869,370.102971,-459.657299
4058.048685,-9548.656652,296.082377,-76.609550
4058.049015,-10510.924376,148.041188,536.266849
4058.049345,-10214.842000,0.000000,0.000000
4058.049675,-9252.574275,-296.082377,-306.438199
4058.050005,-8808.450710,-296.082377,-383.047749
4058.050335,-8956.491898,0.000000,76.609550
4058.050665,-9770.718434,296.082377,459.657299
4058.050995,-10066.800811,814.226536,459.657299
4058.051325,-9770.718434,962.267725,153.219100
4058.051654,-9992.780217,1110.308913,0.000000
4058.051984,-9992.780217,444.123565,0.000000
4058.052314,-10584.944971,518.144159,76.609550
4058.052644,-10732.986159,74.020594,306.438199
4058.052974,-10288.862594,0.000000,0.000000
4058.053304,-9474.636058,-444.123565,-383.047749
4058.053634,-8660.409521,0.000000,0.000000
4058.053964,-9104.533087,0.000000,383.047749
4058.054294,-10066.800811,518.144159,612.876398
4058.054624,-10658.965565,888.247130,536.266849
4058.054954,-10510.924376,518.144159,0.000000
4058.055284,-10140.821405,0.000000,-76.609550
4058.055614,-9770.718434,-518.144159,153.219100
4058.055944,-10214.842000,-592.164754,1302.362347
4058.056274,-9696.697840,-370.102971,1225.752797
4058.056604,-9178.553681,0.000000,153.219100
4058.056934,-8882.471304,-148.041188,-383.047749
4058.057264,-9400.615463,222.061783,-383.047749
4058.057593,-10436.903782,74.020594,306.438199
4058.057923,-11029.068536,444.123565,995.924147
4058.058253,-10288.862594,0.000000,995.924147
4058.058583,-9474.636058,-222.061783,383.047749
4058.058913,-8216.285956,-370.102971,-229.828649
4058.059243,-9326.594869,0.000000,306.438199
4058.059573,-10436.903782,0.000000,153.219100
4058.059903,-10510.924376,74.020594,153.219100
4058.060233,-9548.656652,0.000000,229.828649
4058.060563,-8882.471304,-296.082377,0.000000
4058.060893,-9474.636058,-148.041188,229.828649
4058.061223,-10214.842000,0.000000,306.438199
4058.061553,-10140.821405,518.144159,-536.266849
4058.061883,-9474.636058,148.041188,-766.095498
4058.062213,-8808.450710,148.041188,-842.705048
4058.062543,-9548.656652,222.061783,383.047749
4058.062873,-10881.027347,0.000000,842.705048
4058.063203,-10807.006753,0.000000,536.266849
4058.063533,-9844.739029,74.020594,-306.438199
4058.063862,-9104.533087,-518.144159,-459.657299
4058.064192,-8438.347739,-148.041188,0.000000
4058.064522,-9696.697840,0.000000,995.924147
4058.064852,-10362.883188,370.102971,1302.362347
4058.065182,-10362.883188,592.164754,842.705048
4058.065512,-9844.739029,222.061783,0.000000
4058.065842,-9474.636058,0.000000,229.828649
4058.066172,-10510.924376,0.000000,1149.143247
4058.066502,-10807.006753,0.000000,1532.190996
4058.066832,-9770.718434,-222.061783,536.266849
4058.067162,-8438.347739,0.000000,-383.047749
4058.067492,-8438.347739,74.020594,-306.438199
4058.067822,-9474.636058,444.123565,459.657299
4058.068152,-10881.027347,444.123565,383.047749
4058.068482,-10807.006753,296.082377,689.485948
4058.068812,-9844.739029,0.000000,306.438199
4058.069142,-9030.512492,0.000000,-229.828649
4058.069472,-9104.533087,0.000000,612.876398
4058.069801,-10140.821405,0.000000,1378.971896
4058.070131,-10066.800811,296.082377,689.485948
4058.070461,-9548.656652,0.000000,536.266849
4058.070791,-8808.450710,-148.041188,-1072.533697
4058.071121,-9400.615463,74.020594,-76.609550
4058.071451,-10362.883188,74.020594,306.438199
4058.071781,-10881.027347,296.082377,306.438199
4058.072111,-9474.636058,0.000000,459.657299
4058.072441,-9104.533087,74.020594,-229.828649
4058.072771,-9104.533087,0.000000,-76.609550
4058.073101,-9622.677246,0.000000,459.657299
4058.073431,-10214.842000,148.041188,995.924147
4058.073761,-10066.800811,148.041188,1072.533697
4058.074091,-9178.553681,-296.082377,-229.828649
4058.074421,-9030.512492,-370.102971,-689.485948
4058.074751,-9696.697840,-296.082377,0.000000
4058.075081,-10732.986159,0.000000,536.266849
4058.075411,-10288.862594,592.164754,459.657299
4058.075741,-9252.574275,296.082377,-229.828649
4058.076070,-8808.450710,222.061783,-842.705048
4058.076400,-9252.574275,370.102971,229.828649
4058.076730,-11177.109724,370.102971,842.705048
4058.077060,-11103.089130,222.061783,612.876398
4058.077390,-9918.759623,-296.082377,0.000000
4058.077720,-8734.430116,0.000000,0.000000
4058.078050,-9178.553681,-296.082377,229.828649
4058.078380,-10066.800811,-148.041188,459.657299
4058.078710,-10288.862594,296.082377,229.828649
4058.079040,-9326.594869,296.082377,0.000000
4058.079370,-9178.553681,296.082377,-766.095498
4058.079700,-9622.677246,148.041188,0.000000
4058.080030,-10807.006753,0.000000,995.924147
4058.080360,-11103.089130,0.000000,919.314598
4058.080690,-9992.780217,-148.041188,383.047749
4058.081020,-9326.594869,-666.185348,0.000000
4058.081350,-8882.471304,-592.164754,-383.047749
4058.081680,-9696.697840,-222.061783,919.314598
4058.082009,-10140.821405,0.000000,1149.143247
4058.082339,-10288.862594,592.164754,229.828649
4058.082669,-9770.718434,592.164754,0.000000
4058.082999,-9474.636058,444.123565,-689.485948
4058.083329,-9696.697840,148.041188,153.219100
4058.083659,-10066.800811,0.000000,689.485948
4058.083989,-9770.718434,0.000000,536.266849
4058.084319,-9030.512492,-148.041188,536.266849
4058.084649,-8882.471304,-370.102971,0.000000
4058.084979,-9622.677246,0.000000,612.876398
4058.085309,-11103.089130,444.123565,306.438199
4058.085639,-10881.027347,592.164754,612.876398
4058.085969,-10066.800811,740.205942,536.266849
4058.086299,-9178.553681,296.082377,229.828649
4058.086629,-9474.636058,370.102971,76.609550
4058.086959,-10436.903782,444.123565,153.219100
4058.087289,-10510.924376,74.020594,0.000000
4058.087619,-9178.553681,74.020594,0.000000
4058.087949,-9326.594869,0.000000,-306.438199
4058.088278,-9252.574275,0.000000,-306.438199
4058.088608,-9992.780217,0.000000,689.485948
4058.088938,-10584.944971,0.000000,612.876398
4058.089268,-10066.800811,222.061783,536.266849
4058.089598,-9548.656652,148.041188,919.314598
4058.089928,-9326.594869,148.041188,842.705048
4058.090258,-9622.677246,148.041188,919.314598
4058.090588,-10732.986159,148.041188,1302.362347
4058.090918,-10510.924376,518.144159,76.609550
4058.091248,-9622.677246,0.000000,-383.047749
4058.091578,-8734.430116,148.041188,-1072.533697
4058.091908,-9252.574275,296.082377,-383.047749
4058.092238,-9918.759623,370.102971,0.000000
4058.092568,-9770.718434,222.061783,0.000000
4058.092898,-9622.677246,296.082377,-76.609550
4058.093228,-9474.636058,148.041188,-306.438199
4058.093558,-9770.718434,0.000000,0.000000
4058.093888,-10584.944971,74.020594,919.314598
4058.094217,-9992.780217,0.000000,612.876398
4058.094547,-9474.636058,0.000000,383.047749
4058.094877,-9474.636058,-74.020594,459.657299
4058.095207,-9622.677246,0.000000,306.438199
4058.095537,-9992.780217,74.020594,536.266849
4058.095867,-10362.883188,518.144159,459.657299
4058.096197,-10140.821405,370.102971,689.485948
4058.096527,-9400.615463,296.082377,-459.657299
4058.096857,-9104.533087,296.082377,-306.438199
4058.097187,-9844.739029,296.082377,76.609550
4058.097517,-10807.006753,0.000000,1378.971896
4058.097847,-10288.862594,0.000000,-229.828649
4058.098177,-9622.677246,-444.123565,-383.047749
4058.098507,-9252.574275,-296.082377,-459.657299
4058.098837,-9770.718434,-296.082377,612.876398
4058.099167,-10955.047942,0.000000,1608.800546
4058.099497,-10436.903782,0.000000,1302.362347
4058.099827,-9400.615463,0.000000,995.924147
4058.100157,-8956.491898,0.000000,306.438199
4058.100486,-9548.656652,0.000000,536.266849
4058.100816,-10066.800811,-74.020594,306.438199
4058.101146,-10436.903782,0.000000,0.000000
4058.101476,-9696.697840,-296.082377,0.000000
4058.101806,-9104.533087,-592.164754,0.000000
4058.102136,-9326.594869,-444.123565,-536.266849
4058.102466,-9992.780217,-370.102971,306.438199
4058.102796,-10066.800811,74.020594,689.485948
4058.103126,-9548.656652,0.000000,383.047749
4058.103456,-9252.574275,222.061783,459.657299
4058.103786,-9770.718434,148.041188,689.485948
4058.104116,-10732.986159,0.000000,1149.143247
4058.104446,-11029.068536,0.000000,766.095498
4058.104776,-10066.800811,-74.020594,536.266849
4058.105106,-9400.615463,-518.144159,0.000000
4058.105436,-8882.471304,-592.164754,-306.438199
4058.105766,-9252.574275,0.000000,76.609550
4058.106096,-9696.697840,148.041188,536.266849
4058.106425,-9918.759623,370.102971,-153.219100
4058.106755,-9474.636058,74.020594,0.000000
4058.107085,-9326.594869,0.000000,-229.828649
4058.107415,-9918.759623,0.000000,306.438199
4058.107745,-11029.068536,-222.061783,689.485948
4058.108075,-10584.944971,-222.061783,689.485948
4058.108405,-9252.574275,-296.082377,536.266849
4058.108735,-8660.409521,-296.082377,-153.219100
4058.109065,-8956.491898,74.020594,-229.828649
4058.109395,-10362.883188,518.144159,536.266849
4058.109725,-10881.027347,666.185348,0.000000
4058.110055,-10066.800811,518.144159,0.000000
4058.110385,-9474.636058,0.000000,-229.828649
4058.110715,-9400.615463,0.000000,-229.828649
4058.111045,-9696.697840,0.000000,459.657299
4058.111375,-10362.883188,222.061783,229.828649
4058.111705,-9992.780217,592.164754,536.266849
4058.112035,-9622.677246,222.061783,153.219100
4058.112365,-9770.718434,370.102971,0.000000
4058.112694,-9992.780217,296.082377,459.657299
4058.113024,-10510.924376,148.041188,229.828649
4058.113354,-10140.821405,518.144159,306.438199
4058.113684,-9844.739029,148.041188,0.000000
4058.114014,-9178.553681,74.020594,-306.438199
4058.114344,-9548.656652,0.000000,229.828649
4058.114674,-9918.759623,148.041188,689.485948
4058.115004,-9918.759623,222.061783,0.000000
4058.115334,-9400.615463,222.061783,0.000000
4058.115664,-8956.491898,148.041188,-766.095498
4058.115994,-9474.636058,296.082377,459.657299
4058.116324,-10584.944971,0.000000,536.266849
4058.116654,-10288.862594,0.000000,76.609550
4058.116984,-9400.615463,0.000000,0.000000
4058.117314,-8734.430116,0.000000,-306.438199
4058.117644,-9474.636058,222.061783,306.438199
4058.117974,-10362.883188,0.000000,1378.971896
4058.118304,-10807.006753,0.000000,1302.362347
4058.118633,-10288.862594,0.000000,306.438199
4058.118963,-9622.677246,0.000000,536.266849
4058.119293,-9400.615463,74.020594,0.000000
4058.119623,-9844.739029,0.000000,612.876398
4058.119953,-9992.780217,-222.061783,306.438199
4058.120283,-9918.759623,666.185348,919.314598
4058.120613,-9770.718434,370.102971,76.609550
4058.120943,-9400.615463,444.123565,-383.047749
4058.121273,-9844.739029,74.020594,612.876398
4058.121603,-10658.965565,148.041188,766.095498
4058.121933,-10881.027347,148.041188,766.095498
4058.122263,-10066.800811,-222.061783,842.705048
4058.122593,-9252.574275,-222.061783,-306.438199
4058.122923,-9326.594869,0.000000,153.219100
4058.123253,-10214.842000,0.000000,153.219100
4058.123583,-10362.883188,296.082377,229.828649
4058.123913,-9622.677246,0.000000,76.609550
4058.124243,-8882.471304,0.000000,-306.438199
4058.124572,-9474.636058,296.082377,0.000000
4058.124902,-10362.883188,148.041188,766.095498
4058.125232,-10955.047942,0.000000,842.705048
4058.125562,-10436.903782,0.000000,1072.533697
4058.125892,-9548.656652,-148.041188,306.438199
4058.126222,-8956.491898,-148.041188,0.000000
4058.126552,-9178.553681,-296.082377,459.657299
4058.126882,-9696.697840,0.000000,383.047749
4058.127212,-10214.842000,0.000000,383.047749
4058.127542,-10214.842000,0.000000,0.000000
4058.127872,-9474.636058,0.000000,-842.705048
4058.128202,-9030.512492,-296.082377,-383.047749
4058.128532,-9696.697840,0.000000,153.219100
4058.128862,-10066.800811,-74.020594,153.219100
4058.129192,-9844.739029,-370.102971,0.000000
4058.129522,-8882.471304,-592.164754,-612.876398
4058.129852,-9178.553681,-518.144159,612.876398
4058.130182,-10066.800811,-148.041188,1225.752797
4058.130512,-10584.944971,74.020594,995.924147
4058.130841,-9844.739029,0.000000,536.266849
4058.131171,-9252.574275,0.000000,-306.438199
4058.131501,-9252.574275,0.000000,-459.657299
4058.131831,-10436.903782,0.000000,766.095498
4058.132161,-10658.965565,0.000000,919.314598
4058.132491,-9770.718434,0.000000,459.657299
4058.132821,-9104.533087,-222.061783,-459.657299
4058.133151,-9178.553681,-296.082377,76.609550
4058.133481,-10140.821405,-148.041188,612.876398
4058.133811,-10362.883188,0.000000,689.485948
4058.134141,-10066.800811,74.020594,306.438199
4058.134471,-9030.512492,-592.164754,0.000000
4058.134801,-9178.553681,74.020594,0.000000
4058.135131,-10288.862594,0.000000,766.095498
4058.135461,-10732.986159,74.020594,766.095498
4058.135791,-9918.759623,222.061783,76.609550
4058.136121,-9400.615463,370.102971,0.000000
4058.136451,-9474.636058,222.061783,-76.609550
4058.136780,-9844.739029,0.000000,536.266849
4058.137110,-10436.903782,0.000000,459.657299
4058.137440,-10140.821405,222.061783,383.047749
4058.137770,-9548.656652,0.000000,383.047749
4058.138100,-9178.553681,0.000000,383.047749
4058.138430,-9400.615463,74.020594,383.047749
4058.138760,-9548.656652,222.061783,459.657299
4058.139090,-10732.986159,296.082377,459.657299
4058.139420,-10732.986159,370.102971,612.876398
4058.139750,-9622.677246,0.000000,612.876398
4058.140080,-8734.430116,370.102971,1072.533697
4058.140410,-9474.636058,0.000000,459.657299
4058.140740,-10140.821405,148.041188,306.438199
4058.141070,-10066.800811,296.082377,306.438199
4058.141400,-9474.636058,0.000000,0.000000
4058.141730,-9178.553681,296.082377,-842.705048
4058.142060,-9770.718434,518.144159,76.609550
4058.142390,-10140.821405,74.020594,-153.219100
4058.142720,-9104.533087,222.061783,-612.876398
4058.143049,-8734.430116,74.020594,-306.438199
4058.143379,-9474.636058,444.123565,0.000000
4058.143709,-9844.739029,0.000000,0.000000
4058.144039,-10140.821405,0.000000,536.266849
4058.144369,-10362.883188,592.164754,383.047749
4058.144699,-10436.903782,74.020594,0.000000
4058.145029,-9474.636058,-222.061783,-76.609550
4058.145359,-8808.450710,-296.082377,536.266849
4058.145689,-9474.636058,-148.041188,1455.581446
4058.146019,-10288.862594,148.041188,1225.752797
4058.146349,-10362.883188,222.061783,153.219100
4058.146679,-9548.656652,74.020594,-689.485948
4058.147009,-9326.594869,296.082377,-612.876398
4058.147339,-10658.965565,0.000000,383.047749
4058.147669,-10584.944971,296.082377,919.314598
4058.147999,-10066.800811,74.020594,689.485948
4058.148329,-9622.677246,74.020594,-459.657299
4058.148659,-8882.471304,-222.061783,-766.095498
4058.148988,-10140.821405,-666.185348,536.266849
4058.149318,-10362.883188,0.000000,612.876398
4058.149648,-9622.677246,0.000000,459.657299
4058.149978,-9474.636058,0.000000,306.438199
4058.150308,-9400.615463,-148.041188,536.266849
4058.150638,-9918.759623,-148.041188,1072.533697
4058.150968,-10140.821405,-370.102971,536.266849
4058.151298,-10140.821405,148.041188,612.876398
4058.151628,-9548.656652,0.000000,766.095498
4058.151957,-9474.636058,0.000000,-766.095498
4058.152287,-9474.636058,0.000000,153.219100
4058.152617,-10436.903782,-444.123565,766.095498
4058.152947,-10436.903782,296.082377,0.000000
4058.153277,-9326.594869,-518.144159,0.000000
4058.153607,-8290.306550,-740.205942,-766.095498
4058.153937,-8512.368333,-296.082377,0.000000
4058.154267,-9992.780217,0.000000,766.095498
4058.154597,-10584.944971,296.082377,459.657299
4058.154926,-9992.780217,148.041188,306.438199
4058.155256,-9400.615463,0.000000,306.438199
4058.155586,-9622.677246,-222.061783,383.047749
4058.155916,-10214.842000,-740.205942,612.876398
4058.156246,-10510.924376,-370.102971,842.705048
4058.156576,-9400.615463,0.000000,306.438199
4058.156906,-8660.409521,0.000000,-383.047749
4058.157236,-8290.306550,222.061783,-536.266849
4058.157566,-9622.677246,222.061783,306.438199
4058.157896,-11029.068536,296.082377,459.657299
4058.158225,-10807.006753,444.123565,0.000000
4058.158555,-9696.697840,0.000000,842.705048
4058.158885,-8660.409521,-444.123565,-76.609550
4058.159215,-9252.574275,-592.164754,612.876398
4058.159545,-10658.965565,222.061783,1302.362347
4058.159875,-10732.986159,74.020594,919.314598
4058.160205,-9770.718434,0.000000,153.219100
4058.160535,-9178.553681,370.102971,-306.438199
4058.160865,-9696.697840,518.144159,0.000000
4058.161194,-10510.924376,222.061783,536.266849
4058.161524,-10658.965565,592.164754,459.657299
4058.161854,-9548.656652,370.102971,0.000000
