#time,accel_x,accel_y,accel_z
3825.130019,-9992.780217,0.000000,76.609550
3825.130348,-9844.739029,296.082377,0.000000
3825.130678,-9622.677246,0.000000,0.000000
3825.131007,-9844.739029,296.082377,306.438199
3825.131337,-9622.677246,0.000000,76.609550
3825.131666,-9770.718434,296.082377,536.266849
3825.131996,-9548.656652,0.000000,306.438199
3825.132326,-9622.677246,0.000000,0.000000
3825.132655,-9548.656652,0.000000,0.000000
3825.132985,-9844.739029,370.102971,153.219100
3825.133314,-9696.697840,74.020594,459.657299
3825.133644,-9770.718434,0.000000,689.485948
3825.133974,-10066.800811,0.000000,842.705048
3825.134303,-9622.677246,296.082377,76.609550
3825.134633,-9548.656652,0.000000,383.047749
3825.134962,-9696.697840,74.020594,153.219100
3825.135292,-9844.739029,0.000000,0.000000
3825.135621,-9696.697840,74.020594,459.657299
3825.135951,-9548.656652,-296.082377,153.219100
3825.136281,-9844.739029,148.041188,766.095498
3825.136610,-10362.883188,0.000000,229.828649
3825.136940,-9992.780217,0.000000,0.000000
3825.137269,-9696.697840,148.041188,-383.047749
3825.137599,-9918.759623,74.020594,-383.047749
3825.137928,-9696.697840,0.000000,-689.485948
3825.138258,-10066.800811,0.000000,-459.657299
3825.138588,-9696.697840,0.000000,-842.705048
3825.138917,-9696.697840,-370.102971,76.609550
3825.139247,-9696.697840,-444.123565,0.000000
3825.139576,-9474.636058,-592.164754,-383.047749
3825.139906,-9548.656652,-518.144159,-459.657299
3825.140235,-9548.656652,-222.061783,-766.095498
3825.140565,-9844.739029,-444.123565,-459.657299
3825.140895,-9992.780217,-592.164754,0.000000
3825.141224,-9992.780217,0.000000,306.438199
3825.141554,-10362.883188,-444.123565,-383.047749
3825.141883,-9918.759623,-592.164754,-689.485948
3825.142213,-9918.759623,-592.164754,-1608.800546
3825.142542,-9844.739029,-592.164754,-2068.457845
3825.142872,-9770.718434,-962.267725,-2068.457845
3825.143202,-9326.594869,-1184.329507,-1455.581446
3825.143531,-9104.533087,-1036.288319,-383.047749
3825.143861,-9178.553681,-1258.350101,229.828649
3825.144190,-9548.656652,-1332.370696,612.876398
3825.144520,-10066.800811,-1110.308913,-459.657299
3825.144849,-10214.842000,-740.205942,-612.876398
3825.145179,-10214.842000,-296.082377,-995.924147
3825.145509,-10288.862594,-962.267725,-1455.581446
3825.145838,-10436.903782,-888.247130,-1532.190996
3825.146168,-10436.903782,-740.205942,-1915.238745
3825.146497,-9918.759623,-1480.411884,-2528.115143
3825.146827,-9770.718434,-1924.535449,-2757.943793
3825.147156,-9548.656652,-1998.556043,-2757.943793
3825.147486,-9474.636058,-1924.535449,-2451.505594
3825.147816,-8586.388927,-2294.638420,-2145.067394
3825.148145,-8216.285956,-1924.535449,-1762.019645
3825.148475,-8956.491898,-1850.514855,-229.828649
3825.148804,-9474.636058,-1258.350101,0.000000
3825.149134,-10362.883188,-1332.370696,76.609550
3825.149464,-11251.130318,-888.247130,0.000000
3825.149793,-11917.315666,-1776.494261,-459.657299
3825.150123,-12287.418637,-1702.473667,-1532.190996
3825.150452,-11621.233289,-2368.659014,-3600.648841
3825.150782,-9992.780217,-2738.761985,-4903.011187
3825.151111,-8290.306550,-3552.988522,-4903.011187
3825.151441,-6957.935855,-3552.988522,-3294.210641
3825.151771,-7179.997637,-2812.782580,-1685.410096
3825.152100,-8734.430116,-1628.453072,-1149.143247
3825.152430,-9696.697840,-1480.411884,-2298.286494
3825.152759,-10658.965565,-1554.432478,-4443.353888
3825.153089,-11399.171507,-2368.659014,-4826.401637
3825.153418,-11695.253884,-3923.091493,-3830.477490
3825.153748,-10436.903782,-4737.318029,-2451.505594
3825.154078,-9104.533087,-5477.523971,-1455.581446
3825.154407,-7179.997637,-5181.441594,-1762.019645
3825.154737,-7105.977043,-4737.318029,-2681.334243
3825.155066,-8364.327145,-3478.967927,-2528.115143
3825.155396,-9474.636058,-2368.659014,-1762.019645
3825.155725,-10807.006753,-1258.350101,-1685.410096
3825.156055,-11399.171507,-1332.370696,-1991.848295
3825.156385,-11473.192101,-2368.659014,-2987.772442
3825.156714,-10658.965565,-3775.050304,-4366.744339
3825.157044,-9400.615463,-4663.297435,-4903.011187
3825.157373,-9104.533087,-5477.523971,-3370.820191
3825.157703,-8808.450710,-4885.359217,-1532.190996
3825.158032,-8216.285956,-4367.215058,383.047749
3825.158362,-7476.080014,-3775.050304,1302.362347
3825.158692,-9474.636058,-2368.659014,689.485948
3825.159021,-12065.356855,-1406.391290,-459.657299
3825.159351,-12731.542202,-1332.370696,-2221.676944
3825.159680,-11325.150913,-2368.659014,-2911.162892
3825.160010,-9622.677246,-3034.844362,-2757.943793
3825.160339,-10140.821405,-4071.132681,-2068.457845
3825.160669,-9696.697840,-3552.988522,-1608.800546
3825.160999,-7624.121203,-3404.947333,-1225.752797
3825.161328,-7328.038826,-3182.885551,-2145.067394
3825.161658,-9326.594869,-2960.823768,-1378.971896
3825.161987,-9252.574275,-2442.679609,1072.533697
3825.162317,-11325.150913,-814.226536,1762.019645
3825.162646,-12731.542202,-1332.370696,842.705048
3825.162976,-11325.150913,-1480.411884,-1072.533697
3825.163306,-9622.677246,-2516.700203,-2451.505594
3825.163635,-9844.739029,-2590.720797,-2451.505594
3825.163965,-9992.780217,-2738.761985,-536.266849
3825.164294,-9696.697840,-2294.638420,-1915.238745
3825.164624,-9400.615463,-2368.659014,-2681.334243
3825.164953,-9030.512492,-2294.638420,-2451.505594
3825.165283,-9400.615463,-1924.535449,-842.705048
3825.165613,-9548.656652,-1332.370696,229.828649
3825.165942,-9400.615463,-1332.370696,-766.095498
3825.166272,-7994.224174,-1036.288319,-3217.601092
3825.166601,-9400.615463,-888.247130,-3753.867940
3825.166931,-10955.047942,-1110.308913,-2911.162892
3825.167261,-10584.944971,-1110.308913,-536.266849
3825.167590,-10066.800811,-296.082377,-612.876398
3825.167920,-9992.780217,-962.267725,-2681.334243
3825.168249,-10140.821405,-1480.411884,-4290.134789
3825.168579,-9918.759623,-1702.473667,-4290.134789
3825.168908,-9844.739029,-1850.514855,-3370.820191
3825.169238,-10436.903782,-1036.288319,-1762.019645
3825.169568,-9400.615463,-1036.288319,-2451.505594
3825.169897,-7846.182985,-1258.350101,-3370.820191
3825.170227,-7402.059420,-1406.391290,-3600.648841
3825.170556,-8290.306550,-1184.329507,-2987.772442
3825.170886,-10807.006753,-814.226536,-383.047749
3825.171215,-11251.130318,0.000000,-306.438199
3825.171545,-10510.924376,-222.061783,-1072.533697
3825.171875,-10955.047942,-962.267725,-1685.410096
3825.172204,-10584.944971,-1554.432478,-2987.772442
3825.172534,-11695.253884,-1850.514855,-3140.991542
3825.172863,-10510.924376,-1628.453072,-3447.429741
3825.173193,-8438.347739,-2368.659014,-2221.676944
3825.173522,-7254.018232,-2220.617826,-612.876398
3825.173852,-7994.224174,-1110.308913,-459.657299
3825.174182,-9844.739029,-888.247130,-2068.457845
3825.174511,-10955.047942,-666.185348,-2911.162892
3825.174841,-9844.739029,-1332.370696,-2068.457845
3825.175170,-9178.553681,-1998.556043,0.000000
3825.175500,-10436.903782,-2664.741391,995.924147
3825.175829,-11843.295072,-2368.659014,536.266849
3825.176159,-10510.924376,-3256.906145,-689.485948
3825.176489,-8956.491898,-2960.823768,-1838.629195
3825.176818,-9326.594869,-2516.700203,-1225.752797
3825.177148,-10362.883188,-2294.638420,-536.266849
3825.177477,-9400.615463,-1850.514855,-995.924147
3825.177807,-8808.450710,-1998.556043,-1608.800546
3825.178136,-9474.636058,-2442.679609,-2987.772442
3825.178466,-10807.006753,-2368.659014,-3830.477490
3825.178796,-10140.821405,-2886.803174,-3064.381992
3825.179125,-9696.697840,-3108.864956,-1991.848295
3825.179455,-9326.594869,-3182.885551,-1225.752797
3825.179784,-10140.821405,-3627.009116,-1302.362347
3825.180114,-10732.986159,-3330.926739,-459.657299
3825.180443,-10658.965565,-3627.009116,-1685.410096
3825.180773,-10140.821405,-3404.947333,-2374.896044
3825.181103,-10066.800811,-3552.988522,-2298.286494
3825.181432,-10214.842000,-3552.988522,-1455.581446
3825.181762,-9474.636058,-3256.906145,-1685.410096
3825.182091,-9252.574275,-3404.947333,-3217.601092
3825.182421,-8142.265362,-3478.967927,-5056.230287
3825.182751,-8438.347739,-3478.967927,-4673.182538
3825.183080,-9992.780217,-3330.926739,-2834.553343
3825.183410,-10807.006753,-3404.947333,-1608.800546
3825.183739,-9474.636058,-3404.947333,-995.924147
3825.184069,-8660.409521,-3775.050304,-1991.848295
3825.184398,-9844.739029,-3923.091493,-2145.067394
3825.184728,-10066.800811,-3330.926739,-919.314598
3825.185058,-10288.862594,-2368.659014,-536.266849
3825.185387,-9992.780217,-2146.597232,-2451.505594
3825.185717,-9252.574275,-2368.659014,-3907.087040
3825.186046,-9548.656652,-2368.659014,-3064.381992
3825.186376,-10584.944971,-1480.411884,-2298.286494
3825.186705,-9992.780217,-1998.556043,-2298.286494
3825.187035,-9918.759623,-2072.576638,-2604.724693
3825.187365,-10140.821405,-2516.700203,-2681.334243
3825.187694,-9030.512492,-2442.679609,-2145.067394
3825.188024,-9844.739029,-2368.659014,-842.705048
3825.188354,-10140.821405,-2220.617826,76.609550
3825.188683,-9844.739029,-1924.535449,-459.657299
3825.189013,-9030.512492,-1776.494261,-766.095498
3825.189343,-8808.450710,-1702.473667,-1072.533697
3825.189672,-10955.047942,-1110.308913,-842.705048
3825.190002,-11399.171507,-592.164754,-153.219100
3825.190332,-10955.047942,-1628.453072,-1455.581446
3825.190661,-9622.677246,-1258.350101,-2221.676944
3825.190991,-9474.636058,-1998.556043,-2451.505594
3825.191321,-10658.965565,-1702.473667,-2145.067394
3825.191650,-9548.656652,-1850.514855,-2528.115143
3825.191980,-8734.430116,-1702.473667,-2298.286494
3825.192310,-9474.636058,-1480.411884,-1685.410096
3825.192639,-9474.636058,-1332.370696,-1455.581446
3825.192969,-10288.862594,-1628.453072,-1455.581446
3825.193299,-9622.677246,-1258.350101,-1991.848295
3825.193628,-8882.471304,-1406.391290,-1991.848295
3825.193958,-9252.574275,-1554.432478,-1302.362347
3825.194288,-9474.636058,-1628.453072,-1072.533697
3825.194617,-9326.594869,-1554.432478,-995.924147
3825.194947,-9622.677246,-1406.391290,-1762.019645
3825.195277,-10140.821405,-888.247130,-1608.800546
3825.195606,-9770.718434,-444.123565,-1302.362347
3825.195936,-10066.800811,-814.226536,-1532.190996
3825.196266,-9474.636058,-296.082377,-2298.286494
3825.196595,-9326.594869,0.000000,-2221.676944
3825.196925,-9770.718434,222.061783,-2374.896044
3825.197255,-10510.924376,222.061783,-1072.533697
3825.197584,-11251.130318,518.144159,-919.314598
3825.197914,-10362.883188,444.123565,-1072.533697
3825.198244,-10584.944971,-592.164754,-1378.971896
3825.198573,-10362.883188,0.000000,-766.095498
3825.198903,-10807.006753,-370.102971,-919.314598
3825.199233,-11399.171507,-518.144159,-1302.362347
3825.199562,-10140.821405,-592.164754,-1455.581446
3825.199892,-9030.512492,-1036.288319,-459.657299
3825.200222,-9474.636058,-592.164754,766.095498
3825.200551,-9918.759623,-222.061783,995.924147
3825.200881,-9992.780217,-444.123565,-612.876398
3825.201211,-9696.697840,-592.164754,-1378.971896
3825.201540,-10362.883188,-814.226536,-536.266849
3825.201870,-10288.862594,-1258.350101,919.314598
3825.202200,-10066.800811,-444.123565,919.314598
3825.202529,-9474.636058,-2220.617826,-229.828649
3825.202859,-8290.306550,-2146.597232,-306.438199
3825.203189,-7920.203579,-2072.576638,1225.752797
3825.203518,-9474.636058,-1998.556043,1915.238745
3825.203848,-8660.409521,-814.226536,1838.629195
3825.204178,-8364.327145,-518.144159,766.095498
3825.204507,-9252.574275,0.000000,-766.095498
3825.204837,-9918.759623,222.061783,-842.705048
3825.205167,-10362.883188,-444.123565,-306.438199
3825.205496,-9474.636058,-222.061783,-306.438199
3825.205826,-9770.718434,0.000000,459.657299
3825.206156,-9474.636058,-962.267725,-383.047749
3825.206485,-9770.718434,-814.226536,0.000000
3825.206815,-10955.047942,-666.185348,-919.314598
3825.207145,-9252.574275,-962.267725,-1685.410096
3825.207474,-8586.388927,-74.020594,-842.705048
3825.207804,-9252.574275,222.061783,536.266849
3825.208134,-10436.903782,444.123565,1991.848295
3825.208463,-11029.068536,740.205942,1532.190996
3825.208793,-10584.944971,-962.267725,-1149.143247
3825.209123,-10214.842000,74.020594,-689.485948
3825.209452,-11399.171507,-592.164754,1072.533697
3825.209782,-11621.233289,-1036.288319,2145.067394
3825.210112,-9178.553681,-962.267725,1685.410096
3825.210441,-7179.997637,-370.102971,153.219100
3825.210771,-8808.450710,-222.061783,76.609550
3825.211101,-11843.295072,1110.308913,1302.362347
3825.211430,-12139.377449,1110.308913,1685.410096
3825.211760,-10288.862594,666.185348,1072.533697
3825.212090,-8216.285956,370.102971,0.000000
3825.212419,-9178.553681,0.000000,0.000000
3825.212749,-10658.965565,592.164754,1302.362347
3825.213078,-9918.759623,-370.102971,0.000000
3825.213408,-9030.512492,-222.061783,-919.314598
3825.213738,-8512.368333,296.082377,-919.314598
3825.214067,-9844.739029,0.000000,229.828649
3825.214397,-10510.924376,74.020594,1302.362347
3825.214727,-9844.739029,-888.247130,459.657299
3825.215056,-8956.491898,0.000000,-229.828649
3825.215386,-8364.327145,0.000000,-995.924147
3825.215716,-9104.533087,0.000000,383.047749
3825.216045,-9770.718434,0.000000,1225.752797
3825.216375,-9844.739029,0.000000,0.000000
3825.216705,-8882.471304,296.082377,-1838.629195
3825.217034,-10066.800811,222.061783,-2298.286494
3825.217364,-10658.965565,-148.041188,-612.876398
3825.217694,-11177.109724,0.000000,1762.019645
3825.218023,-11177.109724,-148.041188,1762.019645
3825.218353,-8882.471304,0.000000,689.485948
3825.218683,-8438.347739,444.123565,842.705048
3825.219012,-9104.533087,592.164754,995.924147
3825.219342,-9992.780217,592.164754,1455.581446
3825.219672,-10436.903782,1184.329507,842.705048
3825.220001,-10362.883188,1628.453072,0.000000
3825.220331,-10658.965565,1110.308913,229.828649
3825.220661,-10732.986159,74.020594,459.657299
3825.220990,-10140.821405,888.247130,76.609550
3825.221320,-9474.636058,1332.370696,0.000000
3825.221650,-9918.759623,2294.638420,-153.219100
3825.221979,-10066.800811,1554.432478,76.609550
3825.222309,-9918.759623,2220.617826,536.266849
3825.222639,-10732.986159,1850.514855,459.657299
3825.222968,-10584.944971,1036.288319,0.000000
3825.223298,-9696.697840,148.041188,383.047749
3825.223628,-8734.430116,0.000000,919.314598
3825.223957,-9030.512492,0.000000,842.705048
3825.224287,-9104.533087,0.000000,612.876398
3825.224617,-9696.697840,148.041188,459.657299
3825.224946,-8882.471304,-148.041188,1225.752797
3825.225276,-9770.718434,222.061783,919.314598
3825.225606,-10436.903782,0.000000,995.924147
3825.225935,-10288.862594,-1110.308913,842.705048
3825.226265,-8808.450710,-370.102971,1455.581446
3825.226595,-8142.265362,-814.226536,1532.190996
3825.226924,-9252.574275,74.020594,1378.971896
3825.227254,-9400.615463,74.020594,1225.752797
3825.227584,-8956.491898,-222.061783,153.219100
3825.227913,-9548.656652,370.102971,612.876398
3825.228243,-11325.150913,370.102971,766.095498
3825.228573,-11917.315666,518.144159,766.095498
3825.228902,-10362.883188,222.061783,-306.438199
3825.229232,-9770.718434,0.000000,-1225.752797
3825.229562,-9400.615463,-74.020594,-995.924147
3825.229891,-9400.615463,-444.123565,-229.828649
3825.230221,-9400.615463,-370.102971,612.876398
3825.230551,-10066.800811,518.144159,-612.876398
3825.230880,-10066.800811,0.000000,-1072.533697
3825.231210,-9104.533087,0.000000,-1302.362347
3825.231540,-9622.677246,74.020594,-842.705048
3825.231869,-10955.047942,-74.020594,-689.485948
3825.232199,-12139.377449,-296.082377,-536.266849
3825.232529,-10807.006753,-740.205942,0.000000
3825.232858,-9104.533087,-666.185348,383.047749
3825.233188,-8438.347739,-1036.288319,383.047749
3825.233518,-9622.677246,-1480.411884,-536.266849
3825.233847,-9770.718434,-1184.329507,0.000000
3825.234177,-7994.224174,-1406.391290,0.000000
3825.234507,-8734.430116,-1406.391290,1225.752797
3825.234836,-9030.512492,0.000000,2528.115143
3825.235166,-9696.697840,0.000000,842.705048
3825.235496,-10510.924376,0.000000,-612.876398
3825.235825,-9622.677246,-296.082377,-1149.143247
3825.236155,-10214.842000,-888.247130,-306.438199
3825.236485,-9844.739029,-666.185348,306.438199
3825.236814,-9992.780217,-592.164754,1302.362347
3825.237144,-9696.697840,-1110.308913,995.924147
3825.237474,-8290.306550,-814.226536,459.657299
3825.237803,-8364.327145,0.000000,536.266849
3825.238133,-9030.512492,0.000000,459.657299
3825.238463,-10288.862594,1110.308913,689.485948
3825.238792,-10881.027347,1110.308913,1149.143247
3825.239122,-10658.965565,1184.329507,1149.143247
3825.239452,-10807.006753,148.041188,-842.705048
3825.239781,-10807.006753,-222.061783,-689.485948
3825.240111,-10362.883188,0.000000,0.000000
3825.240441,-9992.780217,222.061783,536.266849
3825.240770,-8808.450710,-370.102971,612.876398
3825.241100,-9030.512492,-962.267725,1072.533697
3825.241430,-9770.718434,296.082377,2068.457845
3825.241759,-9696.697840,0.000000,1608.800546
3825.242089,-9474.636058,222.061783,383.047749
3825.242419,-8734.430116,296.082377,919.314598
3825.242748,-9474.636058,592.164754,2145.067394
3825.243078,-10362.883188,0.000000,1378.971896
3825.243408,-9770.718434,740.205942,689.485948
3825.243737,-10584.944971,444.123565,459.657299
3825.244067,-10658.965565,518.144159,0.000000
3825.244397,-9992.780217,0.000000,-229.828649
3825.244726,-8882.471304,0.000000,-459.657299
3825.245056,-8882.471304,814.226536,0.000000
3825.245386,-9178.553681,888.247130,536.266849
3825.245715,-9326.594869,1184.329507,1072.533697
3825.246045,-9474.636058,1406.391290,76.609550
3825.246375,-10140.821405,1554.432478,-612.876398
3825.246704,-11769.274478,1480.411884,-1225.752797
3825.247034,-11251.130318,1184.329507,-1072.533697
3825.247364,-9844.739029,148.041188,-536.266849
3825.247693,-9474.636058,444.123565,-153.219100
3825.248023,-9548.656652,0.000000,-76.609550
3825.248353,-9770.718434,222.061783,0.000000
3825.248682,-9474.636058,296.082377,0.000000
3825.249012,-9474.636058,592.164754,-842.705048
3825.249342,-10436.903782,222.061783,0.000000
3825.249671,-9474.636058,296.082377,919.314598
3825.250001,-9474.636058,222.061783,1072.533697
3825.250331,-9770.718434,296.082377,919.314598
3825.250660,-10732.986159,518.144159,383.047749
3825.250990,-10288.862594,0.000000,459.657299
3825.251319,-9474.636058,74.020594,229.828649
3825.251649,-9622.677246,-370.102971,995.924147
3825.251979,-9622.677246,74.020594,1455.581446
3825.252308,-9696.697840,-370.102971,1225.752797
3825.252638,-8660.409521,0.000000,76.609550
3825.252968,-9178.553681,0.000000,0.000000
3825.253297,-9844.739029,666.185348,-383.047749
3825.253627,-9474.636058,444.123565,306.438199
3825.253957,-9622.677246,740.205942,306.438199
3825.254286,-9844.739029,888.247130,0.000000
3825.254616,-10658.965565,592.164754,0.000000
3825.254946,-9918.759623,0.000000,-229.828649
3825.255275,-8734.430116,-518.144159,-612.876398
3825.255605,-10066.800811,-518.144159,76.609550
3825.255935,-10288.862594,-370.102971,0.000000
3825.256264,-9844.739029,-666.185348,76.609550
3825.256594,-9474.636058,-370.102971,0.000000
3825.256924,-9770.718434,0.000000,-459.657299
3825.257253,-10658.965565,-222.061783,306.438199
3825.257583,-10658.965565,0.000000,306.438199
3825.257913,-9548.656652,-444.123565,612.876398
3825.258242,-8808.450710,-1184.329507,689.485948
3825.258572,-9326.594869,-740.205942,1378.971896
3825.258902,-10881.027347,148.041188,2451.505594
3825.259231,-10955.047942,0.000000,919.314598
3825.259561,-10214.842000,-592.164754,-459.657299
3825.259891,-9548.656652,-592.164754,0.000000
3825.260220,-9844.739029,0.000000,76.609550
3825.260550,-10362.883188,148.041188,229.828649
3825.260880,-10214.842000,148.041188,536.266849
3825.261209,-9104.533087,0.000000,536.266849
3825.261539,-9030.512492,444.123565,-766.095498
3825.261869,-9548.656652,370.102971,-1532.190996
3825.262198,-11177.109724,-370.102971,0.000000
3825.262528,-10436.903782,-296.082377,536.266849
3825.262858,-9474.636058,-370.102971,842.705048
3825.263187,-8438.347739,0.000000,459.657299
3825.263517,-8734.430116,-888.247130,-536.266849
3825.263847,-9992.780217,-592.164754,0.000000
3825.264176,-10658.965565,-222.061783,0.000000
3825.264506,-10436.903782,-518.144159,536.266849
3825.264836,-9252.574275,-666.185348,1072.533697
3825.265165,-9104.533087,-740.205942,1149.143247
3825.265495,-9252.574275,-666.185348,1302.362347
3825.265825,-9178.553681,-370.102971,1149.143247
3825.266154,-9696.697840,-740.205942,-459.657299
3825.266484,-9770.718434,444.123565,76.609550
3825.266814,-10436.903782,592.164754,76.609550
3825.267143,-10436.903782,592.164754,229.828649
3825.267473,-9622.677246,740.205942,0.000000
3825.267803,-9918.759623,518.144159,-153.219100
3825.268132,-9918.759623,740.205942,-612.876398
3825.268462,-9400.615463,444.123565,-459.657299
3825.268792,-9770.718434,740.205942,0.000000
3825.269121,-10140.821405,592.164754,919.314598
3825.269451,-9844.739029,666.185348,1608.800546
3825.269781,-9474.636058,1406.391290,0.000000
3825.270110,-9918.759623,740.205942,-1838.629195
3825.270440,-10066.800811,1184.329507,-1302.362347
3825.270770,-10140.821405,1258.350101,-766.095498
3825.271099,-9770.718434,1036.288319,0.000000
3825.271429,-10732.986159,1258.350101,76.609550
3825.271759,-9770.718434,444.123565,229.828649
3825.272088,-9104.533087,-222.061783,-766.095498
3825.272418,-9474.636058,370.102971,-766.095498
3825.272748,-9548.656652,-222.061783,229.828649
3825.273077,-9400.615463,888.247130,1838.629195
3825.273407,-9326.594869,222.061783,1762.019645
3825.273737,-10066.800811,444.123565,1302.362347
3825.274066,-10288.862594,0.000000,0.000000
3825.274396,-10066.800811,148.041188,-459.657299
3825.274726,-9696.697840,-370.102971,-153.219100
3825.275055,-9474.636058,0.000000,536.266849
3825.275385,-9474.636058,-222.061783,766.095498
3825.275715,-9178.553681,-518.144159,1608.800546
3825.276044,-9178.553681,222.061783,689.485948
3825.276374,-9474.636058,-222.061783,0.000000
3825.276704,-10066.800811,370.102971,153.219100
3825.277033,-10510.924376,296.082377,459.657299
3825.277363,-10584.944971,888.247130,1072.533697
3825.277693,-9770.718434,592.164754,0.000000
3825.278022,-10362.883188,74.020594,-766.095498
3825.278352,-10807.006753,296.082377,-1532.190996
3825.278682,-9844.739029,0.000000,-842.705048
3825.279011,-9548.656652,-296.082377,-995.924147
3825.279341,-8364.327145,-222.061783,536.266849
3825.279671,-9548.656652,-370.102971,1225.752797
3825.280000,-10807.006753,-666.185348,1608.800546
3825.280330,-9992.780217,-148.041188,0.000000
3825.280660,-10140.821405,-740.205942,-306.438199
3825.280989,-9326.594869,-518.144159,-612.876398
3825.281319,-10436.903782,-1110.308913,383.047749
3825.281649,-9696.697840,-1184.329507,1225.752797
3825.281978,-9030.512492,-666.185348,1838.629195
3825.282308,-9400.615463,-1184.329507,536.266849
3825.282638,-8808.450710,-1036.288319,-459.657299
3825.282967,-9918.759623,-444.123565,536.266849
3825.283297,-9622.677246,-444.123565,1608.800546
3825.283627,-9770.718434,0.000000,2834.553343
3825.283956,-10584.944971,740.205942,1532.190996
3825.284286,-10584.944971,296.082377,-766.095498
3825.284616,-10584.944971,148.041188,-2451.505594
3825.284945,-9992.780217,148.041188,-1608.800546
3825.285275,-9918.759623,-666.185348,459.657299
3825.285605,-9844.739029,370.102971,2298.286494
3825.285934,-9030.512492,74.020594,1762.019645
3825.286264,-9178.553681,0.000000,0.000000
3825.286594,-10140.821405,74.020594,-612.876398
3825.286923,-10955.047942,-370.102971,-689.485948
3825.287253,-10362.883188,1110.308913,612.876398
3825.287583,-9622.677246,0.000000,1302.362347
3825.287912,-9252.574275,-592.164754,1915.238745
3825.288242,-9622.677246,0.000000,919.314598
3825.288571,-10066.800811,-222.061783,0.000000
3825.288901,-10732.986159,0.000000,0.000000
3825.289231,-10584.944971,74.020594,0.000000
3825.289561,-9696.697840,0.000000,1149.143247
3825.289891,-9844.739029,1110.308913,1608.800546
3825.290220,-10288.862594,222.061783,1225.752797
3825.290550,-9770.718434,370.102971,-383.047749
3825.290880,-8808.450710,0.000000,-1225.752797
3825.291210,-9474.636058,222.061783,-612.876398
3825.291540,-9992.780217,1036.288319,1455.581446
3825.291870,-9622.677246,666.185348,1455.581446
3825.292199,-8956.491898,740.205942,459.657299
3825.292529,-9474.636058,814.226536,-766.095498
3825.292859,-10955.047942,666.185348,-383.047749
3825.293189,-10436.903782,222.061783,995.924147
3825.293519,-9622.677246,222.061783,2374.896044
3825.293849,-8216.285956,740.205942,1455.581446
3825.294179,-8808.450710,666.185348,-229.828649
3825.294508,-9696.697840,962.267725,-1225.752797
3825.294838,-10066.800811,740.205942,-1915.238745
3825.295168,-9992.780217,592.164754,-1302.362347
3825.295498,-8364.327145,666.185348,-153.219100
3825.295828,-9474.636058,740.205942,1072.533697
3825.296158,-10732.986159,888.247130,689.485948
3825.296487,-10584.944971,0.000000,-459.657299
3825.296817,-10066.800811,370.102971,-919.314598
3825.297147,-8882.471304,0.000000,0.000000
3825.297477,-10066.800811,0.000000,1991.848295
3825.297807,-9844.739029,592.164754,2451.505594
3825.298137,-10288.862594,518.144159,1608.800546
3825.298466,-9844.739029,148.041188,-306.438199
3825.298796,-9548.656652,74.020594,-1608.800546
3825.299126,-10658.965565,74.020594,-842.705048
3825.299456,-9548.656652,0.000000,1685.410096
3825.299786,-9252.574275,0.000000,2911.162892
3825.300116,-8882.471304,0.000000,2145.067394
3825.300445,-9622.677246,370.102971,-612.876398
3825.300775,-10955.047942,222.061783,-842.705048
3825.301105,-11251.130318,592.164754,-153.219100
3825.301435,-10658.965565,222.061783,612.876398
3825.301765,-9696.697840,296.082377,1455.581446
3825.302095,-9104.533087,296.082377,995.924147
3825.302424,-9104.533087,-296.082377,459.657299
3825.302754,-9992.780217,-666.185348,153.219100
3825.303084,-10288.862594,-740.205942,383.047749
3825.303414,-9770.718434,0.000000,766.095498
3825.303744,-10510.924376,-296.082377,383.047749
3825.304074,-9770.718434,-74.020594,76.609550
3825.304403,-9622.677246,-740.205942,-612.876398
3825.304733,-9622.677246,-592.164754,-612.876398
3825.305063,-9770.718434,-814.226536,-536.266849
3825.305393,-9622.677246,-740.205942,0.000000
3825.305723,-9104.533087,-888.247130,766.095498
3825.306053,-9400.615463,-296.082377,766.095498
3825.306382,-9770.718434,-296.082377,689.485948
3825.306712,-9696.697840,-592.164754,689.485948
3825.307042,-9770.718434,-814.226536,919.314598
3825.307372,-9918.759623,-592.164754,536.266849
3825.307702,-9770.718434,-592.164754,1072.533697
3825.308032,-9622.677246,-814.226536,1838.629195
3825.308361,-9252.574275,-296.082377,1072.533697
3825.308691,-9770.718434,-592.164754,-306.438199
3825.309021,-10214.842000,222.061783,-1838.629195
3825.309351,-10066.800811,-444.123565,-1915.238745
3825.309681,-9252.574275,0.000000,-1225.752797
3825.310011,-8512.368333,222.061783,-459.657299
3825.310340,-9326.594869,74.020594,-306.438199
3825.310670,-9918.759623,666.185348,-1072.533697
3825.311000,-9918.759623,296.082377,-1762.019645
3825.311330,-9622.677246,148.041188,-1225.752797
3825.311660,-10807.006753,444.123565,-842.705048
3825.311990,-11251.130318,74.020594,842.705048
3825.312319,-10881.027347,-370.102971,689.485948
3825.312649,-9918.759623,-814.226536,153.219100
3825.312979,-8290.306550,-888.247130,229.828649
3825.313309,-9326.594869,-1036.288319,153.219100
3825.313639,-9918.759623,-444.123565,842.705048
3825.313969,-9030.512492,-740.205942,153.219100
3825.314298,-8808.450710,-296.082377,0.000000
3825.314628,-8216.285956,-74.020594,842.705048
3825.314958,-10584.944971,0.000000,1455.581446
3825.315288,-11325.150913,74.020594,995.924147
3825.315618,-10436.903782,592.164754,229.828649
3825.315948,-9474.636058,0.000000,-383.047749
3825.316277,-8956.491898,-814.226536,383.047749
3825.316607,-9474.636058,-370.102971,1302.362347
3825.316937,-9844.739029,0.000000,1685.410096
3825.317267,-9474.636058,0.000000,1072.533697
3825.317597,-9178.553681,-222.061783,383.047749
3825.317927,-9178.553681,1110.308913,153.219100
3825.318256,-10214.842000,1702.473667,0.000000
3825.318586,-10288.862594,2220.617826,-612.876398
3825.318916,-11399.171507,1184.329507,-919.314598
3825.319246,-10955.047942,1332.370696,-1225.752797
3825.319576,-9992.780217,666.185348,-306.438199
3825.319906,-10436.903782,444.123565,-536.266849
3825.320235,-9696.697840,-148.041188,-1838.629195
3825.320565,-8882.471304,-296.082377,-766.095498
3825.320895,-8438.347739,74.020594,1072.533697
3825.321225,-9326.594869,-444.123565,2451.505594
3825.321555,-9474.636058,148.041188,2834.553343
3825.321885,-9252.574275,296.082377,1302.362347
3825.322214,-9918.759623,370.102971,306.438199
3825.322544,-10288.862594,74.020594,153.219100
3825.322874,-9844.739029,296.082377,995.924147
3825.323204,-9992.780217,0.000000,1608.800546
3825.323534,-9548.656652,370.102971,995.924147
3825.323864,-9474.636058,-222.061783,689.485948
3825.324193,-10140.821405,222.061783,1225.752797
3825.324523,-10288.862594,0.000000,919.314598
3825.324853,-9548.656652,444.123565,536.266849
3825.325183,-8660.409521,962.267725,306.438199
3825.325513,-8956.491898,296.082377,383.047749
3825.325843,-9548.656652,1480.411884,995.924147
3825.326172,-10140.821405,1110.308913,766.095498
3825.326502,-11251.130318,592.164754,-612.876398
3825.326832,-10658.965565,888.247130,-766.095498
3825.327162,-10288.862594,1036.288319,-689.485948
3825.327492,-10436.903782,-592.164754,0.000000
3825.327822,-10066.800811,0.000000,1532.190996
3825.328151,-9400.615463,0.000000,1378.971896
3825.328481,-8660.409521,0.000000,-459.657299
3825.328811,-9030.512492,592.164754,-766.095498
3825.329141,-9918.759623,444.123565,-689.485948
3825.329471,-11177.109724,444.123565,0.000000
3825.329801,-10436.903782,148.041188,689.485948
3825.330130,-9844.739029,0.000000,0.000000
3825.330460,-9030.512492,-518.144159,-229.828649
3825.330790,-9400.615463,0.000000,229.828649
3825.331120,-9400.615463,-1036.288319,919.314598
3825.331450,-9326.594869,-370.102971,306.438199
3825.331780,-8882.471304,0.000000,842.705048
3825.332109,-10436.903782,-222.061783,1532.190996
3825.332439,-10362.883188,148.041188,1072.533697
3825.332769,-9178.553681,-296.082377,306.438199
3825.333099,-8734.430116,-296.082377,0.000000
3825.333429,-8364.327145,-592.164754,0.000000
3825.333759,-9252.574275,-74.020594,689.485948
3825.334088,-9104.533087,518.144159,76.609550
3825.334418,-9622.677246,370.102971,-536.266849
3825.334748,-11029.068536,444.123565,-536.266849
3825.335078,-11251.130318,148.041188,-995.924147
3825.335408,-10807.006753,592.164754,0.000000
3825.335738,-9252.574275,444.123565,-229.828649
3825.336067,-8734.430116,0.000000,0.000000
3825.336397,-9474.636058,518.144159,76.609550
3825.336727,-10288.862594,148.041188,-306.438199
3825.337057,-10140.821405,148.041188,-612.876398
3825.337387,-10140.821405,-74.020594,0.000000
3825.337717,-10732.986159,-444.123565,612.876398
3825.338046,-9622.677246,-296.082377,1762.019645
3825.338376,-8882.471304,-888.247130,1225.752797
3825.338706,-9474.636058,-222.061783,766.095498
3825.339036,-9474.636058,-222.061783,919.314598
3825.339366,-10214.842000,-518.144159,995.924147
3825.339696,-9252.574275,0.000000,1915.238745
3825.340025,-10436.903782,444.123565,2528.115143
3825.340355,-10658.965565,444.123565,2221.676944
3825.340685,-10658.965565,-74.020594,536.266849
3825.341015,-9844.739029,-592.164754,76.609550
3825.341345,-9252.574275,-296.082377,766.095498
3825.341675,-9696.697840,74.020594,1455.581446
3825.342004,-9326.594869,0.000000,1225.752797
3825.342334,-8956.491898,370.102971,0.000000
3825.342664,-8956.491898,666.185348,-229.828649
3825.342994,-10436.903782,740.205942,-1378.971896
3825.343324,-10807.006753,1406.391290,0.000000
3825.343654,-10362.883188,222.061783,-229.828649
3825.343983,-9104.533087,-666.185348,-459.657299
3825.344313,-9844.739029,518.144159,-766.095498
3825.344643,-9696.697840,0.000000,-995.924147
3825.344973,-10288.862594,0.000000,-1608.800546
3825.345303,-9178.553681,0.000000,-1302.362347
3825.345633,-9622.677246,-296.082377,306.438199
3825.345962,-9326.594869,74.020594,1915.238745
3825.346292,-9252.574275,0.000000,1532.190996
3825.346622,-9770.718434,0.000000,0.000000
3825.346952,-9178.553681,0.000000,-1225.752797
3825.347282,-9844.739029,-962.267725,-766.095498
3825.347612,-9548.656652,-592.164754,1149.143247
3825.347941,-9696.697840,-740.205942,1685.410096
3825.348271,-9844.739029,-296.082377,1149.143247
3825.348601,-8882.471304,-1036.288319,-612.876398
3825.348931,-9548.656652,-592.164754,-1149.143247
3825.349261,-10066.800811,0.000000,306.438199
3825.349591,-10288.862594,74.020594,153.219100
3825.349920,-9400.615463,-296.082377,612.876398
3825.350250,-9178.553681,296.082377,766.095498
3825.350580,-10362.883188,74.020594,1455.581446
3825.350910,-11695.253884,814.226536,306.438199
3825.351240,-10807.006753,0.000000,-766.095498
3825.351570,-9918.759623,518.144159,-2221.676944
3825.351899,-9474.636058,740.205942,-2145.067394
3825.352229,-10288.862594,444.123565,0.000000
3825.352559,-10881.027347,814.226536,-459.657299
3825.352889,-10066.800811,-74.020594,-1455.581446
3825.353219,-9252.574275,-148.041188,-2145.067394
3825.353549,-9104.533087,-1184.329507,-1608.800546
3825.353878,-9104.533087,-518.144159,766.095498
3825.354208,-8660.409521,-518.144159,1685.410096
3825.354538,-8438.347739,-888.247130,2221.676944
3825.354868,-8216.285956,-370.102971,1838.629195
3825.355198,-9474.636058,-1036.288319,1072.533697
3825.355528,-10955.047942,-814.226536,1378.971896
3825.355857,-10658.965565,-740.205942,1838.629195
3825.356187,-9696.697840,-666.185348,1378.971896
3825.356517,-8290.306550,-888.247130,153.219100
3825.356847,-8438.347739,-740.205942,-383.047749
3825.357177,-9030.512492,-296.082377,306.438199
3825.357507,-9178.553681,0.000000,229.828649
3825.357836,-8660.409521,74.020594,306.438199
3825.358166,-9252.574275,962.267725,-306.438199
3825.358496,-10066.800811,962.267725,-459.657299
3825.358826,-11399.171507,1184.329507,536.266849
3825.359156,-11473.192101,740.205942,-536.266849
3825.359486,-10807.006753,1406.391290,-995.924147
3825.359815,-9696.697840,1110.308913,0.000000
3825.360145,-10955.047942,962.267725,0.000000
3825.360475,-10658.965565,1036.288319,-306.438199
3825.360805,-10510.924376,592.164754,-612.876398
3825.361135,-9696.697840,74.020594,-153.219100
3825.361465,-9030.512492,296.082377,612.876398
3825.361794,-9474.636058,666.185348,2145.067394
3825.362124,-9548.656652,1110.308913,1762.019645
3825.362454,-9844.739029,740.205942,-383.047749
3825.362784,-9474.636058,370.102971,-612.876398
3825.363114,-10066.800811,518.144159,153.219100
3825.363444,-11029.068536,444.123565,1838.629195
3825.363773,-11029.068536,592.164754,2528.115143
3825.364103,-10362.883188,-592.164754,1532.190996
3825.364433,-8956.491898,-444.123565,1225.752797
3825.364763,-8956.491898,-592.164754,995.924147
3825.365093,-9844.739029,0.000000,995.924147
3825.365423,-9992.780217,592.164754,1302.362347
3825.365752,-9104.533087,444.123565,1608.800546
3825.366082,-9326.594869,1110.308913,612.876398
3825.366412,-10881.027347,518.144159,-1225.752797
3825.366742,-10807.006753,518.144159,-1225.752797
3825.367072,-10066.800811,0.000000,-2298.286494
3825.367402,-9030.512492,-962.267725,-1302.362347
3825.367731,-9326.594869,-666.185348,766.095498
3825.368061,-9252.574275,-740.205942,1608.800546
3825.368391,-9770.718434,-592.164754,689.485948
3825.368721,-9326.594869,0.000000,-612.876398
3825.369051,-8956.491898,-444.123565,-1455.581446
3825.369381,-10066.800811,74.020594,-612.876398
3825.369710,-9548.656652,-444.123565,306.438199
3825.370040,-9104.533087,-740.205942,1072.533697
3825.370370,-9178.553681,-740.205942,76.609550
3825.370700,-9178.553681,-1036.288319,-612.876398
3825.371030,-9844.739029,-814.226536,-383.047749
3825.371360,-9326.594869,-814.226536,-536.266849
3825.371689,-10140.821405,-962.267725,153.219100
3825.372019,-10140.821405,-814.226536,1532.190996
3825.372349,-9548.656652,-666.185348,1378.971896
3825.372679,-9622.677246,-666.185348,229.828649
3825.373009,-9622.677246,-592.164754,-536.266849
3825.373339,-9548.656652,-148.041188,-1378.971896
3825.373668,-10214.842000,296.082377,-536.266849
3825.373998,-10510.924376,0.000000,0.000000
3825.374328,-10584.944971,148.041188,153.219100
3825.374658,-10510.924376,296.082377,-536.266849
3825.374988,-10510.924376,0.000000,-1149.143247
3825.375318,-10510.924376,0.000000,-919.314598
3825.375647,-10436.903782,296.082377,0.000000
3825.375977,-10214.842000,-444.123565,0.000000
3825.376307,-9844.739029,-296.082377,919.314598
3825.376637,-9844.739029,0.000000,1149.143247
3825.376967,-10140.821405,-296.082377,842.705048
3825.377297,-9178.553681,0.000000,536.266849
3825.377626,-9104.533087,-444.123565,0.000000
3825.377956,-9548.656652,-222.061783,0.000000
3825.378286,-9992.780217,740.205942,1149.143247
3825.378616,-10658.965565,-888.247130,2145.067394
3825.378946,-9400.615463,-370.102971,1838.629195
3825.379276,-9178.553681,-444.123565,1149.143247
3825.379605,-9548.656652,-740.205942,229.828649
3825.379935,-9474.636058,-296.082377,153.219100
3825.380265,-8808.450710,-370.102971,842.705048
3825.380595,-8216.285956,444.123565,1072.533697
3825.380925,-9400.615463,444.123565,383.047749
3825.381255,-10140.821405,666.185348,-689.485948
3825.381584,-9622.677246,814.226536,-689.485948
3825.381914,-10436.903782,666.185348,-306.438199
3825.382244,-11177.109724,592.164754,76.609550
3825.382574,-10288.862594,-222.061783,-919.314598
3825.382904,-8882.471304,592.164754,0.000000
3825.383234,-7772.162391,222.061783,-459.657299
3825.383563,-8660.409521,1036.288319,0.000000
3825.383893,-8956.491898,2072.576638,612.876398
3825.384223,-10732.986159,1628.453072,-306.438199
3825.384553,-10881.027347,2220.617826,-689.485948
3825.384883,-10807.006753,814.226536,-1302.362347
3825.385213,-10140.821405,1184.329507,-459.657299
3825.385542,-9030.512492,592.164754,-536.266849
3825.385872,-9178.553681,740.205942,76.609550
3825.386202,-9326.594869,814.226536,306.438199
3825.386532,-10214.842000,814.226536,383.047749
3825.386862,-10288.862594,296.082377,919.314598
3825.387192,-9548.656652,666.185348,2221.676944
3825.387521,-10066.800811,518.144159,2911.162892
3825.387851,-10066.800811,1406.391290,2757.943793
3825.388181,-9622.677246,518.144159,1149.143247
3825.388511,-9252.574275,814.226536,229.828649
3825.388841,-10955.047942,962.267725,-76.609550
3825.389171,-11769.274478,1258.350101,536.266849
3825.389501,-11843.295072,888.247130,689.485948
3825.389831,-10066.800811,444.123565,383.047749
3825.390160,-9252.574275,296.082377,612.876398
3825.390490,-9474.636058,74.020594,306.438199
3825.390820,-9696.697840,148.041188,306.438199
3825.391150,-10140.821405,370.102971,612.876398
3825.391480,-9474.636058,444.123565,1608.800546
3825.391810,-10288.862594,518.144159,2068.457845
3825.392140,-11029.068536,444.123565,153.219100
3825.392469,-11399.171507,222.061783,-995.924147
3825.392799,-10807.006753,-592.164754,-1225.752797
3825.393129,-10510.924376,-1406.391290,-536.266849
3825.393459,-9178.553681,-1998.556043,612.876398
3825.393789,-8586.388927,-1184.329507,1455.581446
3825.394119,-7624.121203,-1776.494261,689.485948
3825.394449,-8512.368333,-1776.494261,-1302.362347
3825.394778,-7846.182985,-2072.576638,-1378.971896
3825.395108,-8586.388927,-1924.535449,-919.314598
3825.395438,-10214.842000,-1110.308913,919.314598
3825.395768,-9548.656652,-1628.453072,1225.752797
3825.396098,-9918.759623,-1924.535449,689.485948
3825.396428,-8586.388927,-962.267725,-459.657299
3825.396758,-9252.574275,-1332.370696,-1532.190996
3825.397088,-9770.718434,-1332.370696,-2145.067394
3825.397417,-8660.409521,-740.205942,-1149.143247
3825.397747,-9622.677246,-740.205942,-306.438199
3825.398077,-9104.533087,0.000000,842.705048
3825.398407,-10436.903782,148.041188,-153.219100
3825.398737,-10955.047942,0.000000,-1225.752797
3825.399067,-10955.047942,370.102971,-2681.334243
3825.399397,-11251.130318,74.020594,-1608.800546
3825.399726,-10584.944971,222.061783,229.828649
3825.400056,-10066.800811,222.061783,1149.143247
3825.400386,-9696.697840,0.000000,689.485948
3825.400716,-10140.821405,296.082377,-153.219100
3825.401046,-11843.295072,518.144159,-689.485948
3825.401376,-11325.150913,-444.123565,-229.828649
3825.401706,-9992.780217,-666.185348,766.095498
3825.402036,-9178.553681,-888.247130,3140.991542
3825.402365,-9030.512492,-666.185348,2604.724693
3825.402695,-9178.553681,-592.164754,1991.848295
3825.403025,-8216.285956,-1406.391290,689.485948
3825.403355,-9474.636058,-592.164754,383.047749
3825.403685,-10362.883188,-370.102971,1378.971896
3825.404015,-10584.944971,-296.082377,2451.505594
3825.404345,-9104.533087,-592.164754,1991.848295
3825.404674,-8882.471304,-148.041188,919.314598
3825.405004,-10362.883188,-1036.288319,306.438199
3825.405334,-9918.759623,-296.082377,0.000000
3825.405664,-9030.512492,148.041188,-842.705048
3825.405994,-9178.553681,370.102971,0.000000
3825.406324,-8734.430116,814.226536,536.266849
3825.406654,-9696.697840,444.123565,229.828649
3825.406983,-9696.697840,1184.329507,-1378.971896
3825.407313,-9622.677246,666.185348,-2451.505594
3825.407643,-9030.512492,518.144159,-2757.943793
3825.407973,-8586.388927,592.164754,-1302.362347
3825.408303,-9992.780217,1480.411884,-383.047749
3825.408633,-10584.944971,1110.308913,-306.438199
3825.408963,-11029.068536,1036.288319,-1991.848295
3825.409293,-9474.636058,518.144159,-2374.896044
3825.409622,-9548.656652,666.185348,-1378.971896
3825.409952,-10214.842000,814.226536,995.924147
3825.410282,-10288.862594,0.000000,1532.190996
3825.410612,-8882.471304,222.061783,1302.362347
3825.410942,-8734.430116,666.185348,842.705048
3825.411272,-10436.903782,740.205942,-536.266849
3825.411602,-10807.006753,444.123565,-153.219100
3825.411931,-9844.739029,1110.308913,536.266849
3825.412261,-9252.574275,370.102971,1378.971896
3825.412591,-10732.986159,740.205942,1838.629195
3825.412921,-10584.944971,518.144159,919.314598
3825.413251,-10881.027347,74.020594,766.095498
3825.413581,-9104.533087,518.144159,-459.657299
3825.413911,-9326.594869,-74.020594,-383.047749
3825.414241,-10288.862594,888.247130,1608.800546
3825.414570,-9400.615463,0.000000,2221.676944
3825.414900,-9474.636058,814.226536,1838.629195
3825.415230,-8956.491898,666.185348,0.000000
3825.415560,-9918.759623,370.102971,-842.705048
3825.415890,-9770.718434,814.226536,0.000000
3825.416220,-10140.821405,148.041188,689.485948
3825.416550,-10436.903782,-148.041188,1608.800546
3825.416879,-9844.739029,-296.082377,1532.190996
3825.417209,-9548.656652,-1110.308913,766.095498
3825.417539,-8956.491898,-518.144159,536.266849
3825.417869,-9474.636058,-518.144159,689.485948
3825.418199,-10066.800811,-370.102971,1685.410096
3825.418529,-9252.574275,0.000000,1455.581446
3825.418859,-9474.636058,-148.041188,1838.629195
3825.419188,-10214.842000,0.000000,2451.505594
3825.419518,-10658.965565,-592.164754,1685.410096
3825.419848,-10288.862594,148.041188,383.047749
3825.420178,-8660.409521,-444.123565,-689.485948
3825.420508,-8364.327145,0.000000,76.609550
3825.420838,-8660.409521,0.000000,995.924147
3825.421168,-9844.739029,296.082377,1608.800546
3825.421498,-11769.274478,1036.288319,919.314598
3825.421827,-11177.109724,592.164754,-229.828649
3825.422157,-11103.089130,592.164754,-536.266849
3825.422487,-9622.677246,296.082377,-1991.848295
3825.422817,-8882.471304,0.000000,-1915.238745
3825.423147,-8586.388927,74.020594,-306.438199
3825.423477,-9178.553681,666.185348,-229.828649
3825.423807,-9918.759623,518.144159,76.609550
3825.424136,-10214.842000,814.226536,-612.876398
3825.424466,-10881.027347,0.000000,-842.705048
3825.424796,-10140.821405,0.000000,0.000000
3825.425126,-9696.697840,-296.082377,153.219100
3825.425456,-9770.718434,0.000000,459.657299
3825.425786,-9992.780217,-666.185348,689.485948
3825.426116,-10288.862594,-1480.411884,536.266849
3825.426445,-9326.594869,0.000000,766.095498
3825.426775,-9992.780217,-148.041188,536.266849
3825.427105,-9918.759623,0.000000,76.609550
3825.427435,-8808.450710,-1258.350101,-612.876398
3825.427765,-7624.121203,-666.185348,1072.533697
3825.428095,-8586.388927,-962.267725,1685.410096
3825.428425,-10140.821405,-370.102971,1608.800546
3825.428755,-9252.574275,148.041188,1378.971896
3825.429084,-10288.862594,0.000000,-459.657299
3825.429414,-11177.109724,222.061783,-612.876398
3825.429744,-11769.274478,-740.205942,-229.828649
3825.430074,-9992.780217,-1184.329507,0.000000
3825.430404,-7772.162391,-962.267725,1149.143247
3825.430734,-8364.327145,-1184.329507,919.314598
3825.431064,-9696.697840,0.000000,0.000000
3825.431393,-9548.656652,74.020594,-1762.019645
3825.431723,-8660.409521,-444.123565,-1991.848295
3825.432053,-8734.430116,1036.288319,-1915.238745
3825.432383,-10140.821405,296.082377,-153.219100
3825.432713,-10955.047942,370.102971,536.266849
3825.433043,-9918.759623,0.000000,0.000000
3825.433373,-10066.800811,-74.020594,-919.314598
3825.433703,-10510.924376,-74.020594,-1149.143247
3825.434032,-10584.944971,-518.144159,-153.219100
3825.434362,-9696.697840,0.000000,689.485948
3825.434692,-9178.553681,-222.061783,1532.190996
3825.435022,-9030.512492,518.144159,1149.143247
3825.435352,-9400.615463,222.061783,0.000000
3825.435682,-10066.800811,0.000000,-612.876398
3825.436012,-10066.800811,148.041188,536.266849
3825.436341,-9844.739029,0.000000,1149.143247
3825.436671,-10066.800811,296.082377,1378.971896
3825.437001,-9844.739029,74.020594,842.705048
3825.437331,-9844.739029,0.000000,689.485948
3825.437661,-10140.821405,740.205942,-76.609550
3825.437991,-10807.006753,0.000000,-76.609550
3825.438321,-10140.821405,74.020594,229.828649
3825.438650,-9474.636058,0.000000,689.485948
3825.438980,-8734.430116,222.061783,1762.019645
3825.439310,-8586.388927,0.000000,995.924147
3825.439640,-8882.471304,0.000000,153.219100
3825.439970,-9104.533087,814.226536,0.000000
3825.440300,-10214.842000,518.144159,0.000000
3825.440630,-10658.965565,296.082377,919.314598
3825.440960,-11029.068536,0.000000,1991.848295
3825.441289,-10584.944971,74.020594,1915.238745
3825.441619,-9548.656652,148.041188,1225.752797
3825.441949,-9696.697840,74.020594,459.657299
3825.442279,-10140.821405,0.000000,0.000000
3825.442609,-9918.759623,814.226536,383.047749
3825.442939,-9326.594869,740.205942,459.657299
3825.443269,-8734.430116,518.144159,76.609550
3825.443598,-8512.368333,444.123565,0.000000
3825.443928,-9770.718434,740.205942,766.095498
3825.444258,-10140.821405,592.164754,842.705048
3825.444588,-10881.027347,148.041188,689.485948
3825.444918,-10436.903782,444.123565,536.266849
3825.445248,-10288.862594,-222.061783,459.657299
3825.445578,-10066.800811,0.000000,689.485948
3825.445908,-8956.491898,-296.082377,1072.533697
3825.446237,-8586.388927,0.000000,1532.190996
3825.446567,-8512.368333,518.144159,766.095498
3825.446897,-9622.677246,592.164754,689.485948
3825.447227,-10140.821405,1554.432478,306.438199
3825.447557,-10066.800811,296.082377,-229.828649
3825.447887,-10288.862594,1628.453072,-459.657299
3825.448217,-10658.965565,222.061783,-1378.971896
3825.448546,-10140.821405,0.000000,-1762.019645
3825.448876,-9844.739029,222.061783,-919.314598
3825.449206,-10140.821405,0.000000,76.609550
3825.449536,-10140.821405,222.061783,1072.533697
3825.449866,-9252.574275,0.000000,689.485948
3825.450196,-10288.862594,740.205942,689.485948
3825.450526,-10362.883188,814.226536,-306.438199
3825.450855,-10362.883188,74.020594,-306.438199
3825.451185,-9030.512492,74.020594,-766.095498
3825.451515,-8882.471304,370.102971,-383.047749
3825.451845,-9696.697840,0.000000,0.000000
3825.452175,-10732.986159,0.000000,-153.219100
3825.452505,-9622.677246,-740.205942,-459.657299
3825.452835,-9400.615463,-888.247130,0.000000
3825.453165,-9696.697840,-518.144159,383.047749
3825.453494,-9844.739029,-296.082377,919.314598
3825.453824,-9178.553681,-518.144159,459.657299
3825.454154,-8364.327145,-444.123565,76.609550
3825.454484,-9696.697840,-74.020594,-383.047749
3825.454814,-9918.759623,-296.082377,-995.924147
3825.455144,-10214.842000,-370.102971,-995.924147
3825.455474,-9252.574275,-666.185348,-766.095498
3825.455803,-8586.388927,-740.205942,153.219100
3825.456133,-9252.574275,0.000000,842.705048
3825.456463,-10584.944971,-296.082377,-689.485948
3825.456793,-10658.965565,-222.061783,-1762.019645
3825.457123,-9992.780217,-888.247130,-1378.971896
3825.457453,-9548.656652,-888.247130,459.657299
3825.457783,-9992.780217,0.000000,1532.190996
3825.458113,-10214.842000,-1110.308913,229.828649
3825.458442,-9030.512492,-962.267725,-1225.752797
3825.458772,-7550.100608,-296.082377,-1302.362347
3825.459102,-8586.388927,-370.102971,-383.047749
3825.459432,-10214.842000,148.041188,1302.362347
3825.459762,-10732.986159,0.000000,1455.581446
3825.460092,-10436.903782,592.164754,766.095498
3825.460422,-9844.739029,-296.082377,-383.047749
3825.460751,-11029.068536,-888.247130,153.219100
3825.461081,-10807.006753,-888.247130,1149.143247
3825.461411,-10140.821405,-518.144159,1455.581446
3825.461741,-8438.347739,148.041188,995.924147
3825.462071,-8660.409521,74.020594,153.219100
3825.462401,-9622.677246,518.144159,536.266849
3825.462731,-10436.903782,518.144159,0.000000
3825.463060,-10732.986159,740.205942,-766.095498
3825.463390,-9770.718434,666.185348,-919.314598
3825.463720,-9770.718434,148.041188,0.000000
3825.464050,-9770.718434,222.061783,1532.190996
3825.464380,-10214.842000,-592.164754,1225.752797
3825.464710,-10214.842000,0.000000,229.828649
3825.465040,-10214.842000,0.000000,-842.705048
3825.465370,-10214.842000,-370.102971,0.000000
3825.465699,-9844.739029,0.000000,1455.581446
3825.466029,-9178.553681,74.020594,1149.143247
3825.466359,-9030.512492,-222.061783,1532.190996
3825.466689,-8808.450710,370.102971,919.314598
3825.467019,-8882.471304,222.061783,1532.190996
3825.467349,-9844.739029,962.267725,1762.019645
3825.467679,-10732.986159,814.226536,76.609550
3825.468008,-10066.800811,-296.082377,-612.876398
3825.468338,-9474.636058,74.020594,0.000000
3825.468668,-9770.718434,-518.144159,1149.143247
3825.468998,-9178.553681,-444.123565,2374.896044
3825.469328,-8882.471304,370.102971,995.924147
3825.469658,-9104.533087,1702.473667,76.609550
3825.469988,-10362.883188,962.267725,-689.485948
3825.470318,-10658.965565,1258.350101,-919.314598
3825.470647,-10214.842000,814.226536,919.314598
3825.470977,-9770.718434,888.247130,383.047749
3825.471307,-9622.677246,888.247130,-306.438199
3825.471637,-9622.677246,814.226536,-1149.143247
3825.471967,-10140.821405,370.102971,-766.095498
3825.472297,-9474.636058,444.123565,-842.705048
3825.472627,-10584.944971,888.247130,-1072.533697
3825.472956,-11177.109724,1628.453072,76.609550
3825.473286,-11103.089130,740.205942,153.219100
3825.473616,-10288.862594,444.123565,919.314598
3825.473946,-9030.512492,370.102971,229.828649
3825.474276,-8882.471304,0.000000,-229.828649
3825.474606,-8734.430116,148.041188,-612.876398
3825.474936,-9474.636058,0.000000,919.314598
3825.475265,-9400.615463,518.144159,1915.238745
3825.475595,-9696.697840,296.082377,1532.190996
3825.475925,-10584.944971,296.082377,459.657299
3825.476255,-11251.130318,74.020594,-536.266849
3825.476585,-10658.965565,-666.185348,-612.876398
3825.476915,-8882.471304,-740.205942,1378.971896
3825.477245,-8808.450710,0.000000,1915.238745
3825.477575,-8660.409521,444.123565,1455.581446
3825.477904,-8882.471304,888.247130,76.609550
3825.478234,-9030.512492,518.144159,-1225.752797
3825.478564,-9992.780217,814.226536,-919.314598
3825.478894,-11103.089130,592.164754,229.828649
3825.479224,-11029.068536,444.123565,766.095498
3825.479554,-9696.697840,592.164754,0.000000
3825.479884,-9918.759623,-222.061783,-1608.800546
3825.480213,-10066.800811,-222.061783,-2298.286494
3825.480543,-10584.944971,-444.123565,-1608.800546
3825.480873,-9696.697840,-814.226536,-459.657299
3825.481203,-8586.388927,-74.020594,612.876398
3825.481533,-9548.656652,-1184.329507,1991.848295
3825.481863,-10658.965565,-444.123565,2451.505594
3825.482193,-10066.800811,-1258.350101,459.657299
3825.482523,-9252.574275,-296.082377,0.000000
3825.482852,-9770.718434,-666.185348,-612.876398
3825.483182,-10436.903782,-1184.329507,689.485948
3825.483512,-9696.697840,-962.267725,2604.724693
3825.483842,-9400.615463,-740.205942,1915.238745
3825.484172,-9548.656652,-1406.391290,1149.143247
3825.484502,-9178.553681,-1332.370696,-1455.581446
3825.484832,-8956.491898,-1184.329507,-153.219100
3825.485161,-10214.842000,-740.205942,1378.971896
3825.485491,-9252.574275,-1036.288319,2298.286494
3825.485821,-8882.471304,-518.144159,1915.238745
3825.486151,-9030.512492,296.082377,-612.876398
3825.486481,-10288.862594,518.144159,-2221.676944
3825.486811,-10732.986159,222.061783,-2298.286494
3825.487141,-10881.027347,296.082377,-612.876398
3825.487470,-9992.780217,592.164754,-153.219100
3825.487800,-9104.533087,0.000000,-229.828649
3825.488130,-8660.409521,74.020594,-76.609550
3825.488460,-10066.800811,74.020594,0.000000
3825.488790,-10362.883188,0.000000,-383.047749
3825.489120,-11177.109724,0.000000,-1302.362347
3825.489450,-10214.842000,-296.082377,-1225.752797
3825.489780,-9474.636058,74.020594,459.657299
3825.490109,-9400.615463,-222.061783,1225.752797
3825.490439,-9252.574275,-592.164754,1225.752797
3825.490769,-9252.574275,-592.164754,0.000000
3825.491099,-8882.471304,-740.205942,0.000000
3825.491428,-9770.718434,-296.082377,1762.019645
3825.491758,-10658.965565,666.185348,2528.115143
3825.492088,-11251.130318,888.247130,1991.848295
3825.492418,-10140.821405,592.164754,919.314598
3825.492747,-9474.636058,222.061783,-536.266849
3825.493077,-9548.656652,592.164754,-306.438199
3825.493407,-10658.965565,814.226536,0.000000
3825.493737,-9770.718434,1332.370696,612.876398
3825.494066,-9030.512492,1332.370696,-689.485948
3825.494396,-8808.450710,1480.411884,-2068.457845
3825.494726,-10214.842000,1332.370696,-2145.067394
3825.495056,-10510.924376,740.205942,-1685.410096
3825.495385,-9326.594869,296.082377,-766.095498
3825.495715,-8290.306550,1184.329507,612.876398
3825.496045,-8808.450710,444.123565,1608.800546
3825.496374,-11103.089130,592.164754,1838.629195
3825.496704,-10955.047942,148.041188,383.047749
3825.497034,-10066.800811,74.020594,-76.609550
3825.497364,-9474.636058,0.000000,-383.047749
3825.497693,-9104.533087,-1258.350101,919.314598
3825.498023,-8512.368333,-370.102971,2604.724693
3825.498353,-8290.306550,-370.102971,2451.505594
3825.498683,-8734.430116,148.041188,1149.143247
3825.499012,-10436.903782,1036.288319,-1225.752797
3825.499342,-11177.109724,888.247130,-1149.143247
3825.499672,-11103.089130,740.205942,306.438199
3825.500002,-9844.739029,592.164754,842.705048
3825.500331,-9326.594869,666.185348,612.876398
3825.500661,-9474.636058,0.000000,-689.485948
3825.500991,-9252.574275,-370.102971,-306.438199
3825.501321,-8956.491898,370.102971,153.219100
3825.501650,-10362.883188,666.185348,1608.800546
3825.501980,-11695.253884,1924.535449,459.657299
3825.502310,-10510.924376,666.185348,-919.314598
3825.502640,-9474.636058,814.226536,-1378.971896
3825.502969,-9548.656652,1036.288319,-1838.629195
3825.503299,-11177.109724,0.000000,-383.047749
3825.503629,-10881.027347,592.164754,153.219100
3825.503958,-8290.306550,-222.061783,-995.924147
3825.504288,-7994.224174,666.185348,-919.314598
3825.504618,-9696.697840,0.000000,-1072.533697
3825.504948,-11769.274478,-296.082377,229.828649
3825.505277,-10584.944971,-592.164754,229.828649
3825.505607,-9696.697840,-1332.370696,0.000000
3825.505937,-9474.636058,-1332.370696,1532.190996
3825.506267,-9474.636058,-2368.659014,2145.067394
3825.506596,-8216.285956,-1702.473667,2221.676944
3825.506926,-7402.059420,-1998.556043,1685.410096
3825.507256,-8956.491898,-740.205942,1378.971896
3825.507586,-9770.718434,-518.144159,2604.724693
3825.507915,-10214.842000,-222.061783,2451.505594
3825.508245,-10881.027347,444.123565,2145.067394
3825.508575,-10436.903782,296.082377,766.095498
3825.508905,-10807.006753,-296.082377,-306.438199
3825.509234,-9326.594869,-296.082377,-536.266849
3825.509564,-9622.677246,-74.020594,383.047749
3825.509894,-10066.800811,740.205942,766.095498
3825.510224,-9474.636058,444.123565,76.609550
3825.510553,-8438.347739,370.102971,-153.219100
3825.510883,-9548.656652,1036.288319,229.828649
3825.511213,-10732.986159,74.020594,229.828649
3825.511543,-11177.109724,74.020594,766.095498
3825.511872,-9548.656652,-370.102971,-306.438199
3825.512202,-9104.533087,-370.102971,306.438199
3825.512532,-10732.986159,296.082377,1532.190996
3825.512861,-11251.130318,0.000000,1838.629195
3825.513191,-10362.883188,-296.082377,-229.828649
3825.513521,-8808.450710,148.041188,-1991.848295
3825.513851,-8734.430116,-222.061783,-995.924147
3825.514180,-8956.491898,0.000000,919.314598
3825.514510,-8734.430116,0.000000,1532.190996
3825.514840,-8882.471304,740.205942,612.876398
3825.515170,-9918.759623,666.185348,0.000000
3825.515499,-11029.068536,740.205942,-459.657299
3825.515829,-11399.171507,0.000000,-459.657299
3825.516159,-10288.862594,592.164754,842.705048
3825.516489,-9844.739029,222.061783,1378.971896
3825.516818,-9696.697840,-296.082377,1149.143247
3825.517148,-8512.368333,740.205942,1455.581446
3825.517478,-9252.574275,444.123565,842.705048
3825.517808,-10362.883188,1406.391290,689.485948
3825.518137,-10955.047942,1036.288319,-459.657299
3825.518467,-9474.636058,1110.308913,-1532.190996
3825.518797,-8808.450710,1628.453072,-995.924147
3825.519127,-10362.883188,888.247130,-842.705048
3825.519456,-10658.965565,1110.308913,383.047749
3825.519786,-10584.944971,814.226536,-1378.971896
3825.520116,-9400.615463,518.144159,-2911.162892
3825.520446,-9918.759623,888.247130,-1455.581446
3825.520775,-10955.047942,0.000000,76.609550
3825.521105,-10362.883188,74.020594,459.657299
3825.521435,-9622.677246,518.144159,459.657299
3825.521764,-8586.388927,-1924.535449,-612.876398
3825.522094,-8290.306550,-962.267725,-383.047749
3825.522424,-7698.141797,-1184.329507,383.047749
3825.522754,-9474.636058,-592.164754,1991.848295
3825.523083,-9918.759623,-444.123565,2451.505594
3825.523413,-8956.491898,-370.102971,1532.190996
3825.523743,-9696.697840,444.123565,0.000000
3825.524073,-10510.924376,296.082377,-919.314598
3825.524402,-11325.150913,-666.185348,-842.705048
3825.524732,-9770.718434,-740.205942,-229.828649
3825.525062,-7994.224174,-444.123565,612.876398
3825.525392,-9474.636058,0.000000,2451.505594
3825.525721,-10510.924376,222.061783,689.485948
3825.526051,-10510.924376,222.061783,-995.924147
3825.526381,-8734.430116,592.164754,-2528.115143
3825.526711,-9992.780217,1036.288319,-2528.115143
3825.527040,-11769.274478,1628.453072,-383.047749
3825.527370,-11177.109724,148.041188,1685.410096
3825.527700,-9474.636058,0.000000,995.924147
3825.528030,-8734.430116,-444.123565,-1302.362347
3825.528359,-9918.759623,-296.082377,-1608.800546
3825.528689,-10510.924376,-888.247130,459.657299
3825.529019,-9252.574275,-1110.308913,1302.362347
3825.529349,-8956.491898,-518.144159,1608.800546
3825.529678,-9548.656652,-1036.288319,1225.752797
3825.530008,-10510.924376,-444.123565,1072.533697
3825.530338,-9770.718434,-888.247130,153.219100
3825.530667,-8956.491898,-814.226536,459.657299
3825.530997,-9770.718434,0.000000,1149.143247
3825.531327,-9696.697840,-518.144159,1915.238745
3825.531657,-9992.780217,0.000000,1991.848295
3825.531986,-9474.636058,0.000000,536.266849
3825.532316,-9992.780217,-296.082377,459.657299
3825.532646,-9696.697840,-740.205942,0.000000
3825.532976,-9326.594869,-444.123565,1532.190996
3825.533305,-9400.615463,222.061783,2298.286494
3825.533635,-10510.924376,-296.082377,1225.752797
3825.533965,-10288.862594,518.144159,153.219100
3825.534295,-9696.697840,0.000000,-766.095498
3825.534624,-8882.471304,148.041188,-1532.190996
3825.534954,-9400.615463,0.000000,153.219100
3825.535284,-10288.862594,148.041188,995.924147
3825.535614,-9400.615463,0.000000,995.924147
3825.535943,-8956.491898,-222.061783,-842.705048
3825.536273,-9178.553681,0.000000,-995.924147
3825.536603,-10066.800811,444.123565,306.438199
3825.536933,-10955.047942,592.164754,1149.143247
3825.537262,-10658.965565,148.041188,76.609550
3825.537592,-8956.491898,74.020594,-536.266849
3825.537922,-9252.574275,222.061783,-306.438199
3825.538252,-10436.903782,592.164754,-919.314598
3825.538581,-10066.800811,296.082377,-1149.143247
3825.538911,-9030.512492,148.041188,153.219100
3825.539241,-9104.533087,148.041188,76.609550
3825.539570,-9844.739029,370.102971,0.000000
3825.539900,-9918.759623,370.102971,153.219100
3825.540230,-9474.636058,0.000000,612.876398
3825.540560,-9918.759623,1110.308913,995.924147
3825.540889,-9770.718434,370.102971,689.485948
3825.541219,-10732.986159,962.267725,536.266849
3825.541549,-10510.924376,296.082377,-306.438199
3825.541879,-9696.697840,444.123565,-536.266849
3825.542208,-9474.636058,592.164754,459.657299
3825.542538,-9548.656652,518.144159,689.485948
3825.542868,-8660.409521,1184.329507,306.438199
3825.543198,-8956.491898,518.144159,-842.705048
3825.543527,-9992.780217,888.247130,-1225.752797
3825.543857,-11029.068536,1036.288319,-1225.752797
3825.544187,-10584.944971,740.205942,76.609550
3825.544517,-10436.903782,814.226536,766.095498
3825.544846,-10807.006753,148.041188,153.219100
3825.545176,-9548.656652,-370.102971,229.828649
3825.545506,-8512.368333,0.000000,76.609550
3825.545836,-9030.512492,-222.061783,459.657299
3825.546165,-9252.574275,148.041188,995.924147
3825.546495,-9696.697840,0.000000,919.314598
3825.546825,-9770.718434,444.123565,1072.533697
3825.547154,-10807.006753,74.020594,842.705048
3825.547484,-10807.006753,-1036.288319,536.266849
3825.547814,-9696.697840,-370.102971,995.924147
3825.548144,-9548.656652,-592.164754,766.095498
3825.548473,-9252.574275,-222.061783,842.705048
3825.548803,-9030.512492,-592.164754,842.705048
3825.549133,-9178.553681,74.020594,842.705048
3825.549463,-9992.780217,592.164754,919.314598
3825.549792,-11103.089130,592.164754,229.828649
3825.550122,-11769.274478,592.164754,919.314598
3825.550452,-10510.924376,-518.144159,-536.266849
3825.550782,-9252.574275,-296.082377,-766.095498
3825.551111,-9252.574275,0.000000,-383.047749
3825.551441,-10288.862594,-74.020594,-1149.143247
3825.551771,-10066.800811,148.041188,-612.876398
3825.552101,-9252.574275,-666.185348,-1608.800546
3825.552430,-9326.594869,-740.205942,-766.095498
3825.552760,-9474.636058,0.000000,459.657299
3825.553090,-9770.718434,-1554.432478,919.314598
3825.553420,-9844.739029,-518.144159,766.095498
3825.553749,-9548.656652,-1924.535449,919.314598
3825.554079,-9770.718434,-1110.308913,842.705048
3825.554409,-9548.656652,-2220.617826,-459.657299
3825.554739,-9548.656652,-1850.514855,689.485948
3825.555068,-8956.491898,-1184.329507,1991.848295
3825.555398,-7846.182985,-1036.288319,1225.752797
3825.555728,-8438.347739,0.000000,612.876398
3825.556057,-10214.842000,0.000000,-1072.533697
3825.556387,-11547.212695,370.102971,-919.314598
3825.556717,-11325.150913,74.020594,-229.828649
3825.557047,-9622.677246,518.144159,0.000000
3825.557376,-9326.594869,148.041188,76.609550
3825.557706,-9696.697840,0.000000,-229.828649
3825.558036,-9696.697840,0.000000,-459.657299
3825.558366,-9918.759623,74.020594,-536.266849
3825.558695,-9104.533087,962.267725,842.705048
3825.559025,-9696.697840,740.205942,1455.581446
3825.559355,-10214.842000,666.185348,919.314598
3825.559685,-10658.965565,592.164754,306.438199
3825.560014,-11325.150913,296.082377,0.000000
3825.560344,-10214.842000,-888.247130,-995.924147
3825.560674,-9400.615463,-444.123565,76.609550
3825.561004,-8512.368333,-592.164754,1532.190996
3825.561333,-8290.306550,222.061783,2451.505594
3825.561663,-8808.450710,0.000000,1225.752797
3825.561993,-8956.491898,1258.350101,459.657299
3825.562323,-11547.212695,1554.432478,-229.828649
3825.562652,-11843.295072,740.205942,76.609550
3825.562982,-10955.047942,518.144159,2068.457845
3825.563312,-9770.718434,814.226536,2604.724693
3825.563642,-8660.409521,370.102971,1532.190996
3825.563971,-8734.430116,370.102971,-459.657299
3825.564301,-8734.430116,814.226536,-1762.019645
3825.564631,-9548.656652,1776.494261,-1685.410096
3825.564960,-10584.944971,1110.308913,-1149.143247
3825.565290,-10140.821405,1036.288319,766.095498
3825.565620,-9696.697840,1332.370696,2221.676944
3825.565950,-9770.718434,518.144159,1225.752797
3825.566279,-9548.656652,370.102971,0.000000
3825.566609,-8956.491898,0.000000,-383.047749
3825.566939,-9104.533087,592.164754,229.828649
3825.567269,-10584.944971,1184.329507,995.924147
3825.567598,-11769.274478,1036.288319,536.266849
3825.567928,-11325.150913,1036.288319,-689.485948
3825.568258,-9622.677246,0.000000,-1991.848295
3825.568588,-9030.512492,370.102971,-1455.581446
3825.568917,-9400.615463,-444.123565,-1532.190996
3825.569247,-9326.594869,0.000000,459.657299
3825.569577,-8216.285956,518.144159,1072.533697
3825.569907,-9992.780217,296.082377,153.219100
3825.570236,-11547.212695,1036.288319,-459.657299
3825.570566,-11769.274478,-148.041188,-1225.752797
3825.570896,-10658.965565,-666.185348,-536.266849
3825.571226,-9770.718434,-740.205942,919.314598
3825.571555,-9474.636058,-1332.370696,1685.410096
3825.571885,-8364.327145,-1036.288319,1685.410096
3825.572215,-7402.059420,-1332.370696,76.609550
3825.572545,-9252.574275,-518.144159,0.000000
3825.572874,-10732.986159,74.020594,-229.828649
3825.573204,-10140.821405,-518.144159,-612.876398
3825.573534,-8808.450710,-74.020594,0.000000
3825.573863,-8808.450710,-740.205942,536.266849
3825.574193,-11177.109724,-518.144159,1225.752797
3825.574523,-11103.089130,-888.247130,-383.047749
3825.574853,-9770.718434,-1036.288319,-1378.971896
3825.575182,-8882.471304,-296.082377,-1225.752797
3825.575512,-9622.677246,-1036.288319,612.876398
3825.575842,-10436.903782,-444.123565,1225.752797
3825.576172,-9178.553681,-1184.329507,1072.533697
3825.576501,-8438.347739,-666.185348,0.000000
3825.576831,-8956.491898,-1036.288319,-612.876398
3825.577161,-9548.656652,-666.185348,-76.609550
3825.577491,-10288.862594,-814.226536,689.485948
3825.577820,-9918.759623,-962.267725,1072.533697
3825.578150,-9474.636058,-592.164754,1838.629195
3825.578480,-9770.718434,-518.144159,995.924147
3825.578810,-10066.800811,-592.164754,536.266849
3825.579139,-10658.965565,0.000000,153.219100
3825.579469,-10140.821405,-370.102971,612.876398
3825.579799,-10214.842000,1110.308913,1532.190996
3825.580129,-10510.924376,-370.102971,766.095498
3825.580458,-9622.677246,0.000000,766.095498
3825.580788,-9326.594869,518.144159,459.657299
3825.581118,-9548.656652,0.000000,-229.828649
3825.581448,-9696.697840,222.061783,-995.924147
3825.581777,-9770.718434,148.041188,0.000000
3825.582107,-10362.883188,444.123565,2068.457845
3825.582437,-10140.821405,740.205942,2068.457845
3825.582766,-10955.047942,1110.308913,1149.143247
3825.583096,-10288.862594,962.267725,-229.828649
3825.583426,-10140.821405,444.123565,-995.924147
3825.583756,-10288.862594,518.144159,-612.876398
3825.584085,-9992.780217,814.226536,-306.438199
3825.584415,-9178.553681,0.000000,0.000000
3825.584745,-8142.265362,518.144159,919.314598
3825.585075,-9622.677246,370.102971,306.438199
3825.585404,-9548.656652,444.123565,383.047749
3825.585734,-9400.615463,444.123565,-383.047749
3825.586064,-9474.636058,888.247130,0.000000
3825.586394,-10288.862594,444.123565,1225.752797
3825.586723,-10510.924376,74.020594,995.924147
3825.587053,-9918.759623,592.164754,1072.533697
3825.587383,-10214.842000,-370.102971,0.000000
3825.587713,-9474.636058,-296.082377,0.000000
3825.588042,-8734.430116,296.082377,229.828649
3825.588372,-8512.368333,-370.102971,766.095498
3825.588702,-9326.594869,1332.370696,459.657299
3825.589032,-9030.512492,518.144159,-766.095498
3825.589361,-9992.780217,962.267725,-1072.533697
3825.589691,-10362.883188,1554.432478,-612.876398
3825.590020,-11325.150913,296.082377,-306.438199
3825.590350,-11399.171507,962.267725,1072.533697
3825.590680,-9252.574275,0.000000,153.219100
3825.591010,-8660.409521,0.000000,383.047749
3825.591339,-9622.677246,296.082377,153.219100
3825.591669,-10584.944971,962.267725,536.266849
3825.591999,-10584.944971,1036.288319,0.000000
3825.592329,-9844.739029,222.061783,-1532.190996
3825.592658,-9696.697840,1258.350101,-306.438199
3825.592988,-10955.047942,370.102971,-536.266849
3825.593318,-10288.862594,0.000000,-842.705048
3825.593648,-9474.636058,296.082377,-1072.533697
3825.593978,-9178.553681,-370.102971,-1378.971896
3825.594307,-9474.636058,0.000000,0.000000
3825.594637,-10436.903782,-1554.432478,76.609550
3825.594967,-9770.718434,-1184.329507,2068.457845
3825.595297,-9104.533087,-1776.494261,2681.334243
3825.595626,-8586.388927,-1332.370696,2834.553343
3825.595956,-8956.491898,-592.164754,2451.505594
3825.596286,-9770.718434,-1110.308913,536.266849
3825.596616,-9918.759623,-296.082377,1149.143247
3825.596945,-10807.006753,-370.102971,689.485948
3825.597275,-9992.780217,-148.041188,766.095498
3825.597605,-9622.677246,0.000000,1149.143247
3825.597935,-10362.883188,-148.041188,536.266849
3825.598264,-11029.068536,-222.061783,76.609550
3825.598594,-10214.842000,-74.020594,-1302.362347
3825.598924,-8882.471304,-148.041188,-1762.019645
3825.599254,-8882.471304,0.000000,76.609550
3825.599583,-10066.800811,0.000000,1378.971896
3825.599913,-10288.862594,-148.041188,1915.238745
3825.600243,-10066.800811,-74.020594,919.314598
3825.600573,-9844.739029,-444.123565,0.000000
3825.600902,-10436.903782,-518.144159,-536.266849
3825.601232,-10288.862594,-370.102971,0.000000
3825.601562,-9474.636058,-1184.329507,306.438199
3825.601892,-9400.615463,-592.164754,1149.143247
3825.602222,-9548.656652,-740.205942,1225.752797
3825.602551,-10732.986159,-444.123565,229.828649
3825.602881,-9104.533087,-518.144159,-842.705048
3825.603211,-9252.574275,0.000000,-459.657299
3825.603541,-9326.594869,0.000000,383.047749
3825.603870,-9252.574275,444.123565,1991.848295
3825.604200,-9622.677246,222.061783,612.876398
3825.604530,-9770.718434,444.123565,-459.657299
3825.604860,-10584.944971,962.267725,-306.438199
3825.605189,-11473.192101,740.205942,-689.485948
3825.605519,-10732.986159,962.267725,-612.876398
3825.605849,-9770.718434,148.041188,-536.266849
3825.606179,-9474.636058,370.102971,459.657299
3825.606508,-9252.574275,888.247130,689.485948
3825.606838,-8808.450710,592.164754,76.609550
3825.607168,-9104.533087,666.185348,-1072.533697
3825.607498,-9474.636058,148.041188,-1608.800546
3825.607827,-9918.759623,592.164754,-689.485948
3825.608157,-10066.800811,296.082377,0.000000
3825.608487,-10214.842000,-370.102971,0.000000
3825.608817,-9178.553681,-74.020594,995.924147
3825.609146,-9252.574275,-666.185348,995.924147
3825.609476,-9622.677246,-444.123565,536.266849
3825.609806,-9844.739029,0.000000,1072.533697
3825.610136,-9548.656652,-148.041188,1991.848295
3825.610466,-9474.636058,888.247130,1991.848295
3825.610795,-10658.965565,888.247130,459.657299
3825.611125,-10955.047942,74.020594,-306.438199
3825.611455,-9622.677246,518.144159,0.000000
3825.611785,-9622.677246,740.205942,-766.095498
3825.612114,-10140.821405,1110.308913,-1149.143247
3825.612444,-9548.656652,0.000000,-1225.752797
3825.612774,-9918.759623,444.123565,306.438199
3825.613104,-9474.636058,444.123565,689.485948
3825.613433,-9918.759623,222.061783,766.095498
3825.613763,-10288.862594,518.144159,0.000000
3825.614093,-9104.533087,74.020594,842.705048
3825.614423,-10214.842000,1036.288319,1838.629195
3825.614752,-10362.883188,74.020594,1225.752797
3825.615082,-10955.047942,370.102971,306.438199
3825.615412,-9992.780217,592.164754,0.000000
3825.615742,-9548.656652,-74.020594,-306.438199
3825.616071,-9696.697840,444.123565,383.047749
3825.616401,-9770.718434,-370.102971,-229.828649
3825.616731,-9326.594869,0.000000,-1225.752797
3825.617061,-8808.450710,-518.144159,-306.438199
3825.617390,-9252.574275,-592.164754,0.000000
3825.617720,-9548.656652,0.000000,1072.533697
3825.618050,-9622.677246,-296.082377,612.876398
3825.618380,-9474.636058,-962.267725,1149.143247
3825.618710,-9696.697840,-814.226536,612.876398
3825.619039,-9992.780217,-592.164754,766.095498
3825.619369,-10955.047942,0.000000,2145.067394
3825.619699,-9326.594869,148.041188,1149.143247
3825.620029,-8586.388927,592.164754,766.095498
3825.620358,-9548.656652,814.226536,-766.095498
3825.620688,-11177.109724,1110.308913,-1378.971896
3825.621018,-11843.295072,666.185348,-1685.410096
3825.621348,-10732.986159,148.041188,-1149.143247
3825.621677,-10066.800811,740.205942,-612.876398
3825.622007,-10066.800811,-1036.288319,0.000000
3825.622337,-9178.553681,-814.226536,76.609550
3825.622667,-8216.285956,-518.144159,1455.581446
3825.622996,-8438.347739,-814.226536,1608.800546
3825.623326,-9326.594869,0.000000,1762.019645
3825.623656,-10066.800811,-592.164754,689.485948
3825.623986,-10066.800811,74.020594,2145.067394
3825.624315,-9918.759623,0.000000,1532.190996
3825.624645,-10214.842000,-444.123565,229.828649
3825.624975,-10436.903782,148.041188,-536.266849
3825.625305,-10362.883188,222.061783,-842.705048
3825.625634,-10362.883188,148.041188,-1149.143247
3825.625964,-9030.512492,-740.205942,-2528.115143
3825.626294,-7550.100608,-444.123565,-1762.019645
3825.626624,-8734.430116,0.000000,-76.609550
3825.626953,-9474.636058,-518.144159,383.047749
3825.627283,-9548.656652,-444.123565,1532.190996
3825.627613,-9178.553681,-222.061783,1225.752797
3825.627943,-9104.533087,0.000000,459.657299
3825.628273,-11103.089130,518.144159,1302.362347
3825.628602,-11177.109724,0.000000,1149.143247
3825.628932,-10807.006753,74.020594,842.705048
3825.629262,-10807.006753,-592.164754,-459.657299
3825.629592,-10658.965565,0.000000,-1455.581446
3825.629921,-9622.677246,-222.061783,-1838.629195
3825.630251,-7550.100608,-444.123565,-2298.286494
3825.630581,-7402.059420,0.000000,-1302.362347
3825.630911,-7550.100608,-370.102971,-1149.143247
3825.631240,-9104.533087,740.205942,0.000000
3825.631570,-10288.862594,370.102971,-766.095498
3825.631900,-10510.924376,148.041188,-1378.971896
3825.632230,-11325.150913,148.041188,-689.485948
3825.632559,-11103.089130,-888.247130,383.047749
3825.632889,-9918.759623,-444.123565,1608.800546
3825.633219,-10066.800811,-518.144159,1608.800546
3825.633549,-10288.862594,-370.102971,229.828649
3825.633878,-9622.677246,-370.102971,-1378.971896
3825.634208,-8882.471304,-444.123565,-1608.800546
3825.634538,-8512.368333,592.164754,-536.266849
3825.634868,-9918.759623,74.020594,612.876398
3825.635197,-10436.903782,370.102971,-153.219100
3825.635527,-9104.533087,-222.061783,-1149.143247
3825.635857,-8660.409521,-444.123565,-919.314598
3825.636187,-9622.677246,0.000000,766.095498
3825.636517,-11695.253884,0.000000,1838.629195
3825.636846,-11325.150913,74.020594,2757.943793
3825.637176,-9326.594869,-370.102971,1378.971896
3825.637506,-8882.471304,0.000000,1302.362347
3825.637836,-10510.924376,814.226536,76.609550
3825.638165,-10510.924376,592.164754,-383.047749
3825.638495,-8808.450710,370.102971,-536.266849
3825.638825,-7994.224174,518.144159,-383.047749
3825.639155,-9030.512492,1258.350101,919.314598
3825.639484,-10584.944971,1110.308913,1149.143247
3825.639814,-11029.068536,1258.350101,-612.876398
3825.640144,-9992.780217,740.205942,-842.705048
3825.640474,-9770.718434,74.020594,-459.657299
3825.640803,-10214.842000,0.000000,1915.238745
3825.641133,-10732.986159,-222.061783,3907.087040
3825.641463,-9770.718434,-370.102971,4136.915689
3825.641793,-9844.739029,74.020594,1991.848295
3825.642122,-9252.574275,0.000000,-306.438199
3825.642452,-9178.553681,444.123565,-1532.190996
3825.642782,-9400.615463,0.000000,-766.095498
3825.643112,-9326.594869,74.020594,919.314598
3825.643441,-9178.553681,592.164754,1685.410096
3825.643771,-9326.594869,444.123565,1532.190996
3825.644101,-9400.615463,888.247130,612.876398
3825.644431,-10955.047942,518.144159,-459.657299
3825.644761,-10584.944971,444.123565,0.000000
3825.645090,-10436.903782,814.226536,1762.019645
3825.645420,-9918.759623,518.144159,1072.533697
3825.645750,-9104.533087,74.020594,1762.019645
3825.646080,-9326.594869,148.041188,612.876398
3825.646409,-9622.677246,888.247130,-689.485948
3825.646739,-10436.903782,1036.288319,-1608.800546
3825.647069,-9696.697840,592.164754,229.828649
3825.647399,-9178.553681,518.144159,1762.019645
3825.647728,-10510.924376,814.226536,1838.629195
3825.648058,-11103.089130,814.226536,-766.095498
3825.648388,-10732.986159,222.061783,-2834.553343
3825.648718,-9474.636058,0.000000,-3294.210641
3825.649047,-9474.636058,-148.041188,-1608.800546
3825.649377,-9992.780217,-444.123565,536.266849
3825.649707,-9474.636058,0.000000,1149.143247
3825.650037,-8660.409521,-444.123565,0.000000
3825.650366,-8142.265362,-1036.288319,-995.924147
3825.650696,-9030.512492,-1110.308913,-383.047749
3825.651026,-9918.759623,-1258.350101,1072.533697
3825.651356,-9178.553681,-444.123565,2068.457845
3825.651685,-8586.388927,-592.164754,1762.019645
3825.652015,-8882.471304,-222.061783,1302.362347
3825.652345,-11103.089130,74.020594,229.828649
3825.652675,-11843.295072,-296.082377,-383.047749
3825.653005,-10732.986159,0.000000,-1532.190996
3825.653334,-9104.533087,-518.144159,-1608.800546
3825.653664,-8438.347739,-666.185348,0.000000
3825.653994,-9178.553681,-370.102971,919.314598
3825.654324,-8956.491898,-74.020594,612.876398
3825.654653,-8660.409521,444.123565,-1225.752797
3825.654983,-9104.533087,444.123565,-1838.629195
3825.655313,-10584.944971,1110.308913,0.000000
3825.655643,-11769.274478,1332.370696,766.095498
3825.655972,-12139.377449,740.205942,766.095498
3825.656302,-11251.130318,222.061783,-306.438199
3825.656632,-10362.883188,-1036.288319,-1532.190996
3825.656962,-9474.636058,-148.041188,0.000000
3825.657291,-9030.512492,-1184.329507,842.705048
3825.657621,-9400.615463,-592.164754,1302.362347
3825.657951,-7846.182985,-518.144159,1072.533697
3825.658281,-7994.224174,-1036.288319,0.000000
3825.658610,-8512.368333,0.000000,459.657299
3825.658940,-10288.862594,-518.144159,1149.143247
3825.659270,-11399.171507,148.041188,1532.190996
3825.659600,-10288.862594,0.000000,1455.581446
3825.659929,-9474.636058,-592.164754,1149.143247
3825.660259,-10436.903782,0.000000,2451.505594
3825.660589,-11103.089130,444.123565,2604.724693
3825.660919,-10214.842000,-74.020594,1685.410096
3825.661249,-8438.347739,222.061783,0.000000
3825.661578,-8882.471304,814.226536,229.828649
3825.661908,-9622.677246,888.247130,842.705048
3825.662238,-10288.862594,1036.288319,1455.581446
3825.662568,-9992.780217,814.226536,612.876398
3825.662897,-9844.739029,1036.288319,-766.095498
3825.663227,-10140.821405,518.144159,-1225.752797
3825.663557,-10066.800811,518.144159,-766.095498
3825.663887,-10436.903782,518.144159,229.828649
3825.664216,-9770.718434,962.267725,689.485948
3825.664546,-9770.718434,592.164754,0.000000
3825.664876,-9548.656652,1110.308913,0.000000
3825.665206,-9844.739029,518.144159,-153.219100
3825.665535,-10362.883188,222.061783,-383.047749
3825.665865,-9622.677246,740.205942,-1149.143247
3825.666195,-8216.285956,-666.185348,-1378.971896
3825.666525,-7179.997637,-148.041188,-153.219100
3825.666854,-8364.327145,148.041188,612.876398
3825.667184,-11177.109724,148.041188,1915.238745
3825.667514,-12287.418637,888.247130,919.314598
3825.667844,-11399.171507,-370.102971,-1072.533697
3825.668173,-8438.347739,-444.123565,-459.657299
3825.668503,-8290.306550,-296.082377,153.219100
3825.668833,-8808.450710,-296.082377,1302.362347
3825.669163,-8068.244768,296.082377,1378.971896
3825.669492,-9474.636058,296.082377,-995.924147
3825.669822,-10584.944971,814.226536,-919.314598
3825.670152,-11547.212695,370.102971,-995.924147
3825.670482,-10807.006753,1110.308913,-1072.533697
3825.670812,-9696.697840,444.123565,0.000000
3825.671141,-9252.574275,-592.164754,0.000000
3825.671471,-9326.594869,222.061783,153.219100
3825.671801,-9622.677246,-518.144159,-306.438199
3825.672131,-9918.759623,444.123565,-536.266849
3825.672460,-9696.697840,-148.041188,-612.876398
3825.672790,-9178.553681,-370.102971,612.876398
3825.673120,-10214.842000,370.102971,1455.581446
3825.673450,-10732.986159,-962.267725,229.828649
3825.673779,-9844.739029,-1036.288319,0.000000
3825.674109,-9030.512492,-1480.411884,-1225.752797
3825.674439,-7772.162391,-1406.391290,-766.095498
3825.674769,-9400.615463,0.000000,1225.752797
3825.675098,-10881.027347,0.000000,2374.896044
3825.675428,-10584.944971,-222.061783,2298.286494
3825.675758,-9622.677246,-296.082377,0.000000
3825.676088,-9770.718434,0.000000,-689.485948
3825.676417,-10066.800811,-666.185348,153.219100
3825.676747,-9696.697840,-814.226536,1991.848295
3825.677077,-10214.842000,370.102971,1915.238745
3825.677407,-9548.656652,-592.164754,-76.609550
3825.677736,-9622.677246,0.000000,-919.314598
3825.678066,-9326.594869,-148.041188,-1072.533697
3825.678396,-9992.780217,-740.205942,612.876398
3825.678726,-10140.821405,-370.102971,1685.410096
3825.679056,-8956.491898,-592.164754,1608.800546
3825.679385,-9104.533087,-370.102971,153.219100
3825.679715,-9030.512492,0.000000,-459.657299
3825.680045,-9474.636058,148.041188,-995.924147
3825.680375,-10436.903782,740.205942,-995.924147
3825.680704,-10955.047942,518.144159,0.000000
3825.681034,-10288.862594,296.082377,995.924147
3825.681364,-9992.780217,518.144159,383.047749
3825.681694,-10658.965565,592.164754,76.609550
3825.682023,-10436.903782,888.247130,-459.657299
3825.682353,-10362.883188,0.000000,-1149.143247
3825.682683,-9252.574275,222.061783,-153.219100
3825.683013,-8956.491898,0.000000,76.609550
3825.683342,-9104.533087,518.144159,536.266849
3825.683672,-9326.594869,814.226536,612.876398
3825.684002,-9178.553681,0.000000,0.000000
3825.684332,-9400.615463,518.144159,-306.438199
3825.684661,-10288.862594,74.020594,-153.219100
3825.684991,-10881.027347,296.082377,1838.629195
3825.685321,-9252.574275,-296.082377,1608.800546
3825.685651,-8216.285956,-222.061783,1532.190996
3825.685980,-9548.656652,1258.350101,1838.629195
3825.686310,-11177.109724,444.123565,919.314598
3825.686640,-11103.089130,148.041188,0.000000
3825.686970,-9178.553681,222.061783,-1072.533697
3825.687300,-8438.347739,814.226536,-229.828649
3825.687629,-9918.759623,1184.329507,1149.143247
3825.687959,-10140.821405,888.247130,536.266849
3825.688289,-9696.697840,740.205942,-689.485948
3825.688619,-8882.471304,370.102971,-1915.238745
3825.688948,-10362.883188,814.226536,-1685.410096
3825.689278,-10436.903782,74.020594,-153.219100
3825.689608,-9622.677246,0.000000,536.266849
3825.689938,-9696.697840,296.082377,842.705048
3825.690267,-10214.842000,-74.020594,-459.657299
3825.690597,-10066.800811,148.041188,-995.924147
3825.690927,-9474.636058,-148.041188,-919.314598
3825.691257,-9696.697840,-296.082377,459.657299
3825.691586,-9918.759623,0.000000,1991.848295
3825.691916,-9252.574275,-888.247130,383.047749
3825.692246,-8290.306550,0.000000,459.657299
3825.692576,-8660.409521,-666.185348,-536.266849
3825.692905,-9918.759623,-962.267725,459.657299
3825.693235,-10436.903782,-740.205942,1915.238745
3825.693565,-10436.903782,-444.123565,2757.943793
3825.693894,-9622.677246,74.020594,1991.848295
3825.694224,-10140.821405,518.144159,229.828649
3825.694554,-9770.718434,-370.102971,-1225.752797
3825.694884,-9030.512492,296.082377,-229.828649
3825.695213,-9104.533087,0.000000,-153.219100
3825.695543,-10955.047942,666.185348,1378.971896
3825.695873,-10881.027347,370.102971,919.314598
3825.696203,-9770.718434,0.000000,229.828649
3825.696532,-9030.512492,74.020594,-612.876398
3825.696862,-10881.027347,740.205942,-689.485948
3825.697192,-12583.501014,888.247130,229.828649
3825.697521,-11251.130318,-222.061783,0.000000
3825.697851,-10807.006753,370.102971,229.828649
3825.698181,-9474.636058,-74.020594,689.485948
3825.698511,-8882.471304,-666.185348,459.657299
3825.698840,-8512.368333,-740.205942,536.266849
3825.699170,-8364.327145,-814.226536,1149.143247
3825.699500,-9326.594869,148.041188,842.705048
3825.699830,-9326.594869,222.061783,995.924147
3825.700159,-9474.636058,0.000000,1532.190996
3825.700489,-10362.883188,592.164754,1608.800546
3825.700819,-11547.212695,0.000000,766.095498
3825.701149,-10955.047942,-444.123565,536.266849
3825.701478,-9178.553681,-1332.370696,-612.876398
3825.701808,-8438.347739,-74.020594,76.609550
3825.702138,-9474.636058,370.102971,995.924147
3825.702467,-9400.615463,296.082377,153.219100
3825.702797,-8734.430116,1406.391290,153.219100
3825.703127,-9696.697840,1036.288319,-689.485948
3825.703457,-10436.903782,1480.411884,-842.705048
3825.703786,-10436.903782,740.205942,-1608.800546
3825.704116,-9992.780217,666.185348,-1072.533697
3825.704446,-9844.739029,370.102971,383.047749
3825.704776,-10807.006753,296.082377,1149.143247
3825.705105,-10066.800811,222.061783,842.705048
3825.705435,-9178.553681,222.061783,76.609550
3825.705765,-9030.512492,370.102971,0.000000
3825.706094,-9548.656652,518.144159,306.438199
3825.706424,-9178.553681,0.000000,766.095498
3825.706754,-9104.533087,666.185348,1455.581446
3825.707084,-9770.718434,444.123565,689.485948
3825.707413,-9918.759623,370.102971,1302.362347
3825.707743,-9252.574275,1480.411884,1685.410096
3825.708073,-8660.409521,592.164754,1149.143247
3825.708403,-10436.903782,1406.391290,1378.971896
3825.708732,-11251.130318,888.247130,689.485948
3825.709062,-10066.800811,222.061783,919.314598
3825.709392,-9178.553681,666.185348,1302.362347
3825.709721,-8956.491898,222.061783,1762.019645
3825.710051,-10288.862594,814.226536,2757.943793
3825.710381,-9474.636058,1332.370696,1838.629195
3825.710711,-9252.574275,962.267725,1455.581446
3825.711040,-9622.677246,1924.535449,1838.629195
3825.711370,-10658.965565,1924.535449,2451.505594
3825.711700,-10807.006753,1924.535449,2757.943793
3825.712030,-9474.636058,2220.617826,1302.362347
3825.712359,-11029.068536,1998.556043,1302.362347
3825.712689,-10881.027347,2516.700203,1608.800546
3825.713019,-9326.594869,1628.453072,1225.752797
3825.713349,-9474.636058,1702.473667,1991.848295
3825.713678,-9104.533087,1480.411884,2451.505594
3825.714008,-10288.862594,1184.329507,3294.210641
3825.714338,-9992.780217,814.226536,2681.334243
3825.714667,-8586.388927,1258.350101,1455.581446
3825.714997,-9844.739029,0.000000,1838.629195
3825.715327,-9992.780217,888.247130,2604.724693
3825.715657,-8882.471304,1184.329507,4136.915689
3825.715986,-9474.636058,1998.556043,3524.039291
3825.716316,-8216.285956,2294.638420,1455.581446
3825.716646,-9918.759623,1036.288319,2145.067394
3825.716976,-10066.800811,2368.659014,2451.505594
3825.717305,-9104.533087,1924.535449,3064.381992
3825.717635,-11843.295072,2664.741391,3447.429741
3825.717965,-10732.986159,3478.967927,1608.800546
3825.718294,-9178.553681,2516.700203,153.219100
3825.718624,-9030.512492,2812.782580,459.657299
3825.718954,-9696.697840,3701.029710,1378.971896
3825.719284,-11251.130318,3256.906145,4060.306139
3825.719613,-10288.862594,3182.885551,3140.991542
3825.719943,-8956.491898,2442.679609,919.314598
3825.720273,-8586.388927,740.205942,1302.362347
3825.720603,-11325.150913,2442.679609,2374.896044
3825.720932,-10807.006753,1628.453072,3140.991542
3825.721262,-7920.203579,2146.597232,3753.867940
3825.721592,-7105.977043,4145.153275,2834.553343
3825.721921,-9030.512492,2886.803174,3830.477490
3825.722251,-11547.212695,3849.070898,3907.087040
3825.722581,-12953.603985,3775.050304,3294.210641
3825.722911,-10955.047942,2368.659014,2681.334243
3825.723240,-9770.718434,1924.535449,3600.648841
3825.723570,-10732.986159,2146.597232,2681.334243
3825.723900,-10362.883188,740.205942,919.314598
3825.724230,-10658.965565,444.123565,-306.438199
3825.724559,-7179.997637,1258.350101,-995.924147
3825.724889,-7031.956449,1702.473667,1378.971896
3825.725219,-9178.553681,2664.741391,4213.525239
3825.725549,-10214.842000,2368.659014,5362.668486
3825.725878,-10362.883188,2516.700203,4443.353888
3825.726208,-10066.800811,1702.473667,3294.210641
3825.726538,-10510.924376,814.226536,2757.943793
3825.726867,-10881.027347,888.247130,3217.601092
3825.727197,-10066.800811,1406.391290,3217.601092
3825.727527,-9622.677246,814.226536,2757.943793
3825.727857,-9178.553681,2960.823768,1225.752797
3825.728186,-9992.780217,2442.679609,-612.876398
3825.728516,-9696.697840,3701.029710,76.609550
3825.728846,-9474.636058,2886.803174,153.219100
3825.729176,-9548.656652,2590.720797,1072.533697
3825.729505,-9400.615463,2812.782580,2451.505594
3825.729835,-9474.636058,1036.288319,1991.848295
3825.730165,-9030.512492,1924.535449,2987.772442
3825.730494,-8882.471304,2146.597232,1762.019645
3825.730824,-10955.047942,2590.720797,0.000000
3825.731154,-10881.027347,2368.659014,1762.019645
3825.731484,-11177.109724,3478.967927,3907.087040
3825.731813,-10140.821405,2738.761985,5132.839837
3825.732143,-9696.697840,3034.844362,3524.039291
3825.732473,-9030.512492,2220.617826,2451.505594
3825.732803,-9400.615463,2368.659014,3064.381992
3825.733132,-9918.759623,3182.885551,3217.601092
3825.733462,-10436.903782,3256.906145,1532.190996
3825.733792,-10362.883188,2664.741391,919.314598
3825.734121,-10214.842000,3330.926739,1455.581446
3825.734451,-10955.047942,2960.823768,1072.533697
3825.734781,-11177.109724,2886.803174,689.485948
3825.735111,-9770.718434,1924.535449,1838.629195
3825.735440,-8216.285956,1628.453072,2834.553343
3825.735770,-7920.203579,1554.432478,3753.867940
3825.736100,-9400.615463,1554.432478,4596.572988
3825.736430,-9252.574275,1480.411884,4366.744339
3825.736759,-9548.656652,1924.535449,4366.744339
3825.737089,-9918.759623,2368.659014,3830.477490
3825.737419,-10807.006753,1480.411884,2987.772442
3825.737749,-11177.109724,2368.659014,2298.286494
3825.738078,-9548.656652,1554.432478,1225.752797
3825.738408,-9326.594869,2368.659014,1225.752797
3825.738738,-9400.615463,2442.679609,536.266849
3825.739067,-9474.636058,1776.494261,0.000000
3825.739397,-7772.162391,2146.597232,229.828649
3825.739727,-7920.203579,1258.350101,612.876398
3825.740057,-8734.430116,2072.576638,2221.676944
3825.740386,-9178.553681,888.247130,2987.772442
3825.740716,-10658.965565,2146.597232,3294.210641
3825.741046,-9696.697840,1776.494261,2528.115143
3825.741376,-9548.656652,1628.453072,2145.067394
3825.741705,-9474.636058,2516.700203,1991.848295
3825.742035,-10658.965565,2516.700203,3370.820191
3825.742365,-12139.377449,2812.782580,4519.963438
3825.742694,-10510.924376,2886.803174,2068.457845
3825.743024,-8882.471304,1924.535449,-306.438199
3825.743354,-9400.615463,1776.494261,0.000000
3825.743684,-9992.780217,1998.556043,1378.971896
3825.744013,-9918.759623,1628.453072,3524.039291
3825.744343,-8882.471304,2220.617826,2298.286494
3825.744673,-7624.121203,1924.535449,919.314598
3825.745003,-10140.821405,2368.659014,1915.238745
3825.745332,-11251.130318,2960.823768,2681.334243
3825.745662,-10288.862594,2442.679609,4519.963438
3825.745992,-11325.150913,3404.947333,4979.620737
3825.746321,-11917.315666,3256.906145,4136.915689
3825.746651,-11917.315666,2220.617826,3600.648841
3825.746981,-10955.047942,1998.556043,2451.505594
3825.747311,-9696.697840,1850.514855,1685.410096
3825.747640,-8956.491898,444.123565,2221.676944
3825.747970,-7772.162391,1554.432478,3294.210641
3825.748300,-8142.265362,1406.391290,3294.210641
3825.748630,-7846.182985,1850.514855,2221.676944
3825.748959,-8364.327145,1702.473667,153.219100
3825.749289,-9252.574275,1480.411884,383.047749
3825.749619,-9918.759623,1850.514855,2604.724693
3825.749949,-10066.800811,2146.597232,3907.087040
3825.750278,-8956.491898,1110.308913,5362.668486
3825.750608,-9770.718434,2368.659014,4596.572988
3825.750938,-10881.027347,3034.844362,2681.334243
3825.751267,-11473.192101,2664.741391,995.924147
3825.751597,-11177.109724,3108.864956,153.219100
3825.751927,-9770.718434,2368.659014,1225.752797
3825.752257,-8586.388927,2146.597232,2068.457845
3825.752586,-8882.471304,2220.617826,1378.971896
3825.752916,-8586.388927,1850.514855,1225.752797
3825.753246,-8068.244768,1924.535449,689.485948
3825.753576,-8364.327145,2368.659014,536.266849
3825.753905,-9770.718434,2590.720797,1455.581446
3825.754235,-11103.089130,3182.885551,2604.724693
3825.754565,-10881.027347,2738.761985,3753.867940
3825.754894,-10510.924376,2368.659014,3370.820191
3825.755224,-10955.047942,2220.617826,2451.505594
3825.755554,-11769.274478,2442.679609,2298.286494
3825.755884,-10288.862594,2886.803174,2757.943793
3825.756213,-8808.450710,2812.782580,2145.067394
3825.756543,-8660.409521,3256.906145,1915.238745
3825.756873,-9104.533087,3256.906145,2068.457845
3825.757203,-10140.821405,3701.029710,1762.019645
3825.757532,-10658.965565,3775.050304,2145.067394
3825.757862,-11399.171507,3330.926739,1225.752797
3825.758192,-11473.192101,2368.659014,-76.609550
3825.758521,-10955.047942,1628.453072,76.609550
3825.758851,-9696.697840,666.185348,1072.533697
3825.759181,-7624.121203,-518.144159,2451.505594
3825.759511,-7105.977043,370.102971,3830.477490
3825.759840,-6217.729913,518.144159,4060.306139
3825.760170,-7994.224174,1480.411884,2834.553343
3825.760500,-9252.574275,2886.803174,2298.286494
3825.760830,-10436.903782,2664.741391,1838.629195
3825.761159,-11769.274478,3478.967927,2221.676944
3825.761489,-12065.356855,3256.906145,1915.238745
3825.761819,-11621.233289,1924.535449,2145.067394
3825.762149,-9918.759623,1184.329507,1302.362347
3825.762478,-8734.430116,1036.288319,-229.828649
3825.762808,-8290.306550,740.205942,76.609550
3825.763138,-7994.224174,1480.411884,2374.896044
3825.763467,-8586.388927,1702.473667,3753.867940
3825.763797,-8512.368333,1850.514855,3677.258390
3825.764127,-9030.512492,2220.617826,2298.286494
3825.764457,-10658.965565,1702.473667,1072.533697
3825.764786,-11399.171507,1110.308913,1455.581446
3825.765116,-11547.212695,962.267725,2911.162892
3825.765446,-10658.965565,1036.288319,4060.306139
3825.765776,-10214.842000,592.164754,3600.648841
3825.766105,-9104.533087,1332.370696,2681.334243
3825.766435,-9474.636058,1332.370696,2145.067394
3825.766765,-9622.677246,2368.659014,1762.019645
3825.767094,-10066.800811,2516.700203,1378.971896
3825.767424,-10288.862594,2072.576638,1915.238745
3825.767754,-10955.047942,2516.700203,2451.505594
3825.768084,-10732.986159,1406.391290,1915.238745
3825.768413,-10214.842000,1332.370696,766.095498
3825.768743,-9474.636058,888.247130,229.828649
3825.769073,-9770.718434,222.061783,1072.533697
3825.769403,-10362.883188,444.123565,2834.553343
3825.769732,-10066.800811,370.102971,4290.134789
3825.770062,-8956.491898,296.082377,3830.477490
3825.770392,-9252.574275,592.164754,1838.629195
3825.770721,-9104.533087,814.226536,612.876398
3825.771051,-9474.636058,518.144159,1072.533697
3825.771381,-9474.636058,962.267725,1838.629195
3825.771711,-9030.512492,888.247130,1225.752797
3825.772040,-9252.574275,888.247130,842.705048
3825.772370,-9474.636058,1110.308913,995.924147
3825.772700,-9548.656652,1110.308913,612.876398
3825.773030,-9770.718434,1480.411884,1225.752797
3825.773359,-9696.697840,1184.329507,1685.410096
3825.773689,-9400.615463,1184.329507,2298.286494
3825.774019,-9474.636058,1258.350101,2451.505594
3825.774349,-9252.574275,888.247130,2451.505594
3825.774678,-9770.718434,1184.329507,1455.581446
3825.775008,-9474.636058,740.205942,1225.752797
3825.775338,-8660.409521,814.226536,1532.190996
3825.775667,-8660.409521,1702.473667,3217.601092
3825.775997,-9622.677246,1998.556043,3600.648841
3825.776327,-9622.677246,2368.659014,3294.210641
3825.776657,-9844.739029,2664.741391,2604.724693
3825.776986,-10658.965565,3108.864956,2604.724693
3825.777316,-11621.233289,3256.906145,2451.505594
3825.777646,-11547.212695,3330.926739,1532.190996
3825.777976,-10510.924376,2738.761985,1762.019645
3825.778305,-9548.656652,2442.679609,2298.286494
3825.778635,-9104.533087,2886.803174,2911.162892
3825.778965,-8808.450710,2442.679609,3753.867940
3825.779294,-8808.450710,3034.844362,4366.744339
3825.779624,-9104.533087,3256.906145,4290.134789
3825.779954,-9992.780217,4219.173869,3907.087040
3825.780284,-11547.212695,3849.070898,4213.525239
3825.780613,-11843.295072,3923.091493,3753.867940
3825.780943,-11103.089130,3330.926739,3600.648841
3825.781273,-10436.903782,3034.844362,3370.820191
3825.781603,-9474.636058,2664.741391,3753.867940
3825.781932,-8808.450710,2960.823768,3294.210641
3825.782262,-8660.409521,3330.926739,2604.724693
3825.782592,-8290.306550,3627.009116,2604.724693
3825.782921,-8290.306550,3701.029710,2987.772442
3825.783251,-9252.574275,4145.153275,3907.087040
3825.783581,-10140.821405,4515.256246,4596.572988
3825.783911,-10214.842000,4367.215058,4136.915689
3825.784240,-10288.862594,4589.276840,3294.210641
3825.784570,-10732.986159,4071.132681,2757.943793
3825.784900,-11103.089130,4145.153275,2451.505594
3825.785230,-10732.986159,3849.070898,2451.505594
3825.785559,-9474.636058,3330.926739,2681.334243
3825.785889,-8808.450710,3775.050304,2451.505594
3825.786219,-9252.574275,3404.947333,1991.848295
3825.786549,-8956.491898,3404.947333,1532.190996
3825.786878,-7550.100608,2960.823768,1225.752797
3825.787208,-7550.100608,3330.926739,1838.629195
3825.787538,-9178.553681,3701.029710,2911.162892
3825.787867,-10807.006753,4293.194464,2757.943793
3825.788197,-10955.047942,4515.256246,1915.238745
3825.788527,-11399.171507,3997.112087,0.000000
3825.788857,-11251.130318,3627.009116,0.000000
3825.789186,-11029.068536,2886.803174,1225.752797
3825.789516,-10214.842000,2886.803174,2604.724693
3825.789846,-9178.553681,2886.803174,2757.943793
3825.790176,-8142.265362,2886.803174,1149.143247
3825.790505,-7698.141797,2738.761985,-612.876398
3825.790835,-8512.368333,2590.720797,-766.095498
3825.791165,-9326.594869,3108.864956,459.657299
3825.791494,-10066.800811,2664.741391,2221.676944
3825.791824,-10436.903782,2960.823768,2604.724693
3825.792154,-10362.883188,2368.659014,1991.848295
3825.792484,-11103.089130,1924.535449,766.095498
3825.792813,-11177.109724,1480.411884,1532.190996
3825.793143,-9770.718434,1110.308913,1762.019645
3825.793473,-9474.636058,888.247130,2911.162892
3825.793803,-9844.739029,1258.350101,4519.963438
3825.794132,-9474.636058,1258.350101,4903.011187
3825.794462,-8956.491898,1702.473667,2528.115143
3825.794792,-9104.533087,1776.494261,842.705048
3825.795122,-9474.636058,1332.370696,306.438199
3825.795451,-10288.862594,1628.453072,2145.067394
3825.795781,-10732.986159,1110.308913,2757.943793
3825.796111,-10362.883188,814.226536,3140.991542
3825.796440,-10436.903782,0.000000,2068.457845
3825.796770,-10658.965565,-74.020594,1532.190996
3825.797100,-10214.842000,-740.205942,2757.943793
3825.797430,-8956.491898,-296.082377,3677.258390
3825.797759,-8586.388927,0.000000,4136.915689
3825.798089,-9474.636058,-518.144159,3447.429741
3825.798419,-9326.594869,-888.247130,2451.505594
3825.798749,-9326.594869,0.000000,1149.143247
3825.799078,-10288.862594,-370.102971,842.705048
3825.799408,-10140.821405,-370.102971,842.705048
3825.799738,-9696.697840,-444.123565,2374.896044
3825.800068,-9104.533087,-444.123565,2681.334243
3825.800397,-9622.677246,-222.061783,2451.505594
3825.800727,-9548.656652,-296.082377,2298.286494
3825.801057,-9104.533087,-296.082377,1302.362347
3825.801386,-8586.388927,740.205942,1762.019645
3825.801716,-9030.512492,1110.308913,3677.258390
3825.802046,-11103.089130,1850.514855,3677.258390
3825.802376,-10584.944971,1776.494261,2528.115143
3825.802705,-10288.862594,2294.638420,919.314598
3825.803035,-10362.883188,2072.576638,-76.609550
3825.803365,-11103.089130,1850.514855,1762.019645
3825.803695,-10955.047942,2294.638420,3294.210641
3825.804024,-9474.636058,1998.556043,4060.306139
3825.804354,-8216.285956,1850.514855,2681.334243
3825.804684,-9326.594869,2072.576638,2221.676944
3825.805014,-10214.842000,2442.679609,1838.629195
3825.805343,-9178.553681,2220.617826,2604.724693
3825.805673,-9400.615463,2960.823768,3600.648841
3825.806003,-9104.533087,3404.947333,4366.744339
3825.806332,-9696.697840,3256.906145,4366.744339
3825.806662,-10436.903782,4589.276840,3600.648841
3825.806992,-10881.027347,4589.276840,2834.553343
3825.807322,-11917.315666,4515.256246,2681.334243
3825.807651,-11029.068536,4515.256246,2681.334243
3825.807981,-10436.903782,4219.173869,3600.648841
3825.808311,-10140.821405,4219.173869,3830.477490
3825.808641,-9252.574275,4145.153275,2528.115143
3825.808970,-8882.471304,3849.070898,2451.505594
3825.809300,-8808.450710,4145.153275,2757.943793
3825.809630,-9104.533087,4293.194464,3907.087040
3825.809960,-9696.697840,4071.132681,4060.306139
3825.810289,-9696.697840,4293.194464,3217.601092
3825.810619,-10140.821405,4219.173869,2604.724693
3825.810949,-10584.944971,3775.050304,1762.019645
3825.811278,-11843.295072,3701.029710,1072.533697
3825.811608,-11029.068536,3182.885551,1455.581446
3825.811938,-9030.512492,2960.823768,1072.533697
3825.812268,-8216.285956,2590.720797,459.657299
3825.812597,-8956.491898,2368.659014,1455.581446
3825.812927,-8586.388927,2886.803174,1072.533697
3825.813257,-7920.203579,2590.720797,766.095498
3825.813587,-8290.306550,3108.864956,766.095498
3825.813916,-9252.574275,3552.988522,2757.943793
3825.814246,-10288.862594,3404.947333,2987.772442
3825.814576,-9918.759623,3701.029710,2451.505594
3825.814906,-10510.924376,3552.988522,1608.800546
3825.815235,-10955.047942,3404.947333,1149.143247
3825.815565,-10955.047942,3256.906145,1532.190996
3825.815895,-10436.903782,3034.844362,1149.143247
3825.816224,-9548.656652,2738.761985,1149.143247
3825.816554,-9770.718434,3182.885551,766.095498
3825.816884,-8586.388927,2220.617826,536.266849
3825.817214,-7476.080014,2516.700203,995.924147
3825.817543,-7920.203579,2812.782580,1608.800546
3825.817873,-9844.739029,2294.638420,2451.505594
3825.818203,-10066.800811,2220.617826,4136.915689
3825.818533,-10214.842000,1998.556043,4290.134789
3825.818862,-10955.047942,2146.597232,4290.134789
3825.819192,-11695.253884,1406.391290,4443.353888
3825.819522,-11769.274478,1332.370696,4519.963438
3825.819852,-10436.903782,814.226536,2681.334243
3825.820181,-9622.677246,1776.494261,1838.629195
3825.820511,-10140.821405,370.102971,1455.581446
3825.820841,-10066.800811,518.144159,1225.752797
3825.821170,-9030.512492,74.020594,1838.629195
3825.821500,-9622.677246,74.020594,2221.676944
3825.821830,-10288.862594,296.082377,1685.410096
3825.822160,-9474.636058,-1110.308913,766.095498
3825.822489,-8586.388927,-592.164754,306.438199
3825.822819,-8290.306550,-814.226536,1378.971896
3825.823149,-10510.924376,-1110.308913,4136.915689
3825.823479,-11103.089130,-74.020594,5592.497135
3825.823808,-9992.780217,-666.185348,5209.449386
3825.824138,-9326.594869,-1258.350101,4060.306139
3825.824468,-9918.759623,-740.205942,3140.991542
3825.824798,-10955.047942,-592.164754,3064.381992
3825.825127,-9548.656652,222.061783,2451.505594
3825.825457,-8512.368333,1184.329507,1302.362347
3825.825787,-8956.491898,1036.288319,383.047749
3825.826116,-9992.780217,1480.411884,-689.485948
3825.826446,-10362.883188,1332.370696,-76.609550
3825.826776,-10732.986159,148.041188,612.876398
3825.827106,-9992.780217,296.082377,306.438199
3825.827435,-8290.306550,-1110.308913,1302.362347
3825.827765,-8364.327145,-222.061783,1838.629195
3825.828095,-8956.491898,-444.123565,3217.601092
3825.828425,-10362.883188,0.000000,1991.848295
3825.828754,-10436.903782,222.061783,229.828649
3825.829084,-10584.944971,962.267725,-766.095498
3825.829414,-11473.192101,1036.288319,-1225.752797
3825.829744,-11547.212695,1406.391290,-1838.629195
3825.830073,-10658.965565,1332.370696,-3217.601092
3825.830403,-9474.636058,814.226536,-4136.915689
3825.830733,-8882.471304,1036.288319,-4290.134789
3825.831062,-9326.594869,-592.164754,-2374.896044
3825.831392,-8364.327145,-518.144159,-995.924147
3825.831722,-7550.100608,-1036.288319,-229.828649
3825.832052,-7179.997637,-1332.370696,76.609550
3825.832381,-8142.265362,-888.247130,2221.676944
3825.832711,-9326.594869,-296.082377,2757.943793
3825.833041,-9918.759623,444.123565,3753.867940
3825.833371,-10510.924376,1184.329507,2604.724693
3825.833700,-9548.656652,888.247130,1378.971896
3825.834030,-10214.842000,1554.432478,2298.286494
3825.834360,-10881.027347,888.247130,1838.629195
3825.834690,-9770.718434,666.185348,995.924147
3825.835019,-9474.636058,296.082377,76.609550
3825.835349,-9474.636058,1480.411884,-229.828649
3825.835679,-8290.306550,1776.494261,-536.266849
3825.836008,-8586.388927,3108.864956,-1149.143247
3825.836338,-9400.615463,4219.173869,-1838.629195
3825.836668,-13545.768739,4737.318029,-1838.629195
3825.836998,-13693.809927,4293.194464,-2757.943793
3825.837327,-13767.830521,1406.391290,-2298.286494
3825.837657,-12287.418637,296.082377,459.657299
3825.837987,-10658.965565,-2442.679609,1762.019645
3825.838317,-8364.327145,-1480.411884,1072.533697
3825.838646,-7698.141797,-1406.391290,306.438199
3825.838976,-7105.977043,-1184.329507,-2221.676944
3825.839306,-7105.977043,-370.102971,-1455.581446
3825.839636,-7846.182985,-592.164754,-689.485948
3825.839965,-8956.491898,-740.205942,1762.019645
3825.840295,-8882.471304,-1036.288319,3830.477490
3825.840625,-9400.615463,-1258.350101,3830.477490
3825.840954,-10510.924376,-1998.556043,2604.724693
3825.841284,-10510.924376,-1110.308913,383.047749
3825.841614,-9400.615463,-1776.494261,229.828649
3825.841944,-8956.491898,-518.144159,689.485948
3825.842273,-8808.450710,-666.185348,2145.067394
3825.842603,-9030.512492,-296.082377,2451.505594
3825.842933,-9252.574275,0.000000,1991.848295
3825.843263,-9844.739029,1110.308913,76.609550
3825.843592,-9400.615463,2220.617826,-1532.190996
3825.843922,-10362.883188,2442.679609,-1455.581446
3825.844252,-11917.315666,3775.050304,-459.657299
3825.844581,-13249.686362,2368.659014,-306.438199
3825.844911,-13915.871710,2812.782580,-1991.848295
3825.845241,-13175.665768,74.020594,-2451.505594
3825.845571,-11029.068536,-1480.411884,-2145.067394
3825.845900,-10066.800811,-1924.535449,459.657299
3825.846230,-9474.636058,-2146.597232,2221.676944
3825.846560,-6365.771101,-1850.514855,2221.676944
3825.846890,-5107.421000,-1776.494261,0.000000
3825.847219,-7105.977043,-2072.576638,-612.876398
3825.847549,-8290.306550,-2146.597232,1072.533697
3825.847879,-9548.656652,-1702.473667,3447.429741
3825.848209,-9326.594869,-2886.803174,4366.744339
3825.848538,-10362.883188,-2294.638420,4673.182538
3825.848868,-11029.068536,-2516.700203,4366.744339
3825.849198,-10436.903782,-2368.659014,2374.896044
3825.849527,-9696.697840,-1036.288319,1225.752797
3825.849857,-9326.594869,0.000000,229.828649
3825.850187,-9696.697840,1332.370696,-1072.533697
3825.850517,-9252.574275,1776.494261,-1838.629195
3825.850846,-9104.533087,1406.391290,-3677.258390
3825.851176,-9474.636058,1036.288319,-3140.991542
3825.851506,-10066.800811,1406.391290,-2604.724693
3825.851836,-9622.677246,888.247130,-3064.381992
3825.852165,-10288.862594,1480.411884,-1225.752797
3825.852495,-11325.150913,666.185348,-612.876398
3825.852825,-11399.171507,74.020594,536.266849
3825.853155,-11621.233289,0.000000,0.000000
3825.853484,-11843.295072,-1184.329507,-766.095498
3825.853814,-11177.109724,-888.247130,1225.752797
3825.854144,-9918.759623,-1480.411884,1915.238745
3825.854473,-7328.038826,-1702.473667,0.000000
3825.854803,-6883.915261,-2442.679609,-1838.629195
3825.855133,-7105.977043,-1776.494261,-2528.115143
3825.855463,-7772.162391,-1258.350101,153.219100
3825.855792,-9474.636058,0.000000,1149.143247
3825.856122,-9918.759623,296.082377,1225.752797
3825.856452,-9770.718434,370.102971,1072.533697
3825.856782,-10881.027347,1036.288319,995.924147
3825.857111,-11399.171507,592.164754,0.000000
3825.857441,-11399.171507,-592.164754,1225.752797
3825.857771,-10066.800811,0.000000,3064.381992
3825.858101,-8438.347739,0.000000,3217.601092
3825.858430,-9252.574275,962.267725,1838.629195
3825.858760,-9400.615463,1924.535449,-842.705048
3825.859090,-9474.636058,1110.308913,-2451.505594
3825.859419,-9326.594869,2294.638420,-1302.362347
3825.859749,-9844.739029,2368.659014,-383.047749
3825.860079,-11695.253884,2590.720797,689.485948
3825.860409,-11695.253884,1406.391290,459.657299
3825.860738,-10584.944971,296.082377,-1455.581446
3825.861068,-9400.615463,-148.041188,-2604.724693
3825.861398,-9992.780217,-666.185348,-2298.286494
3825.861728,-10881.027347,-1110.308913,919.314598
3825.862057,-9400.615463,-1036.288319,3600.648841
3825.862387,-8586.388927,-740.205942,2145.067394
3825.862717,-7550.100608,-1258.350101,-842.705048
3825.863047,-8290.306550,-1258.350101,-2757.943793
3825.863376,-8808.450710,-1258.350101,-1378.971896
3825.863706,-9474.636058,-1110.308913,1149.143247
3825.864036,-9178.553681,-666.185348,3447.429741
3825.864365,-9474.636058,-740.205942,3447.429741
3825.864695,-10214.842000,-148.041188,1302.362347
3825.865025,-10510.924376,148.041188,-842.705048
3825.865355,-10584.944971,-222.061783,-1838.629195
3825.865684,-9992.780217,0.000000,306.438199
3825.866014,-9474.636058,444.123565,3370.820191
3825.866344,-9474.636058,888.247130,4596.572988
3825.866674,-9622.677246,1406.391290,2528.115143
3825.867003,-10214.842000,888.247130,-2757.943793
3825.867333,-9474.636058,1998.556043,-3907.087040
3825.867663,-10288.862594,2072.576638,-1838.629195
3825.867993,-11843.295072,2516.700203,459.657299
3825.868322,-11843.295072,2368.659014,842.705048
3825.868652,-11473.192101,1924.535449,-842.705048
3825.868982,-11251.130318,296.082377,-2528.115143
3825.869311,-10510.924376,296.082377,-3677.258390
3825.869641,-9474.636058,-370.102971,-2298.286494
3825.869971,-8882.471304,-444.123565,-689.485948
3825.870301,-8216.285956,-666.185348,766.095498
3825.870630,-8216.285956,-1406.391290,1072.533697
3825.870960,-9400.615463,-1628.453072,-689.485948
3825.871290,-8660.409521,-2442.679609,-689.485948
3825.871620,-8586.388927,-2146.597232,459.657299
3825.871949,-8438.347739,-1184.329507,3447.429741
3825.872279,-8660.409521,-962.267725,4519.963438
3825.872609,-9548.656652,-1406.391290,2757.943793
3825.872939,-10362.883188,-592.164754,689.485948
3825.873268,-11325.150913,-592.164754,-919.314598
3825.873598,-10658.965565,-518.144159,-1072.533697
3825.873928,-8660.409521,-592.164754,1532.190996
3825.874257,-7698.141797,-740.205942,2604.724693
3825.874587,-8808.450710,0.000000,2528.115143
3825.874917,-9770.718434,370.102971,766.095498
3825.875247,-10658.965565,888.247130,-2068.457845
3825.875576,-10955.047942,2072.576638,-2528.115143
3825.875906,-11325.150913,1554.432478,-383.047749
3825.876236,-12213.398043,1924.535449,766.095498
3825.876566,-11843.295072,1554.432478,0.000000
3825.876895,-11473.192101,74.020594,-1302.362347
3825.877225,-10510.924376,0.000000,-2298.286494
3825.877555,-9770.718434,-592.164754,-1685.410096
3825.877885,-9474.636058,74.020594,-842.705048
3825.878214,-8660.409521,-296.082377,76.609550
3825.878544,-9104.533087,148.041188,229.828649
3825.878874,-9474.636058,-1036.288319,-1072.533697
3825.879203,-9992.780217,-1480.411884,-1532.190996
3825.879533,-9696.697840,-2146.597232,0.000000
3825.879863,-8882.471304,-2146.597232,1149.143247
3825.880193,-7550.100608,-1702.473667,2757.943793
3825.880522,-7772.162391,-1332.370696,2681.334243
3825.880852,-8660.409521,-740.205942,1685.410096
3825.881182,-9696.697840,-518.144159,842.705048
3825.881512,-11103.089130,592.164754,689.485948
3825.881841,-10881.027347,0.000000,995.924147
3825.882171,-8808.450710,0.000000,1608.800546
3825.882501,-8586.388927,0.000000,2451.505594
3825.882831,-10214.842000,1184.329507,1838.629195
3825.883160,-9474.636058,1036.288319,-306.438199
3825.883490,-8808.450710,1480.411884,-2145.067394
3825.883820,-9696.697840,2886.803174,-1378.971896
3825.884149,-11399.171507,4663.297435,612.876398
3825.884479,-13989.892304,5033.400406,76.609550
3825.884809,-13471.748144,4219.173869,-2911.162892
3825.885139,-11769.274478,3404.947333,-3447.429741
3825.885468,-10362.883188,814.226536,-3600.648841
3825.885798,-9770.718434,0.000000,-995.924147
3825.886128,-9030.512492,-444.123565,1685.410096
3825.886458,-8142.265362,-592.164754,3140.991542
3825.886787,-7846.182985,-1184.329507,2911.162892
3825.887117,-9252.574275,-296.082377,766.095498
3825.887447,-9326.594869,-592.164754,306.438199
3825.887777,-9548.656652,-814.226536,76.609550
3825.888106,-9104.533087,-1924.535449,1915.238745
3825.888436,-7402.059420,-1924.535449,5209.449386
3825.888766,-8734.430116,-1628.453072,6205.373534
3825.889095,-9030.512492,-740.205942,4979.620737
3825.889425,-10288.862594,0.000000,2681.334243
3825.889755,-9326.594869,1110.308913,-229.828649
3825.890085,-9326.594869,1184.329507,-1915.238745
3825.890414,-10066.800811,1258.350101,459.657299
3825.890744,-11177.109724,1554.432478,2757.943793
3825.891074,-11695.253884,1850.514855,1762.019645
3825.891404,-9770.718434,2294.638420,-2757.943793
3825.891733,-8586.388927,1480.411884,-5669.106685
3825.892063,-9030.512492,1776.494261,-4519.963438
3825.892393,-10732.986159,2368.659014,-1838.629195
3825.892723,-11029.068536,2146.597232,-536.266849
3825.893052,-10732.986159,962.267725,229.828649
3825.893382,-10732.986159,740.205942,-612.876398
3825.893712,-11473.192101,518.144159,-1378.971896
3825.894042,-11991.336260,-444.123565,-1991.848295
3825.894372,-10732.986159,-1332.370696,-2451.505594
3825.894701,-7920.203579,-1628.453072,-1608.800546
3825.895031,-7105.977043,-2960.823768,306.438199
3825.895361,-6809.894666,-3256.906145,1532.190996
3825.895691,-7179.997637,-2516.700203,1532.190996
3825.896021,-7624.121203,-2368.659014,306.438199
3825.896350,-8586.388927,-740.205942,1378.971896
3825.896680,-9548.656652,-814.226536,1685.410096
3825.897010,-10584.944971,-74.020594,3217.601092
3825.897340,-12213.398043,296.082377,2298.286494
3825.897670,-11621.233289,-444.123565,1072.533697
3825.898000,-9992.780217,0.000000,0.000000
3825.898329,-10436.903782,-222.061783,306.438199
3825.898659,-10436.903782,222.061783,2528.115143
3825.898989,-11177.109724,1258.350101,1608.800546
3825.899319,-9474.636058,1776.494261,-2528.115143
3825.899649,-9030.512492,1258.350101,-4443.353888
3825.899978,-10288.862594,1924.535449,-2221.676944
3825.900308,-12065.356855,1850.514855,689.485948
3825.900638,-11547.212695,1554.432478,612.876398
3825.900968,-9622.677246,-370.102971,-1991.848295
3825.901298,-9474.636058,-740.205942,-2834.553343
3825.901627,-10955.047942,-1554.432478,-995.924147
3825.901957,-11843.295072,-1628.453072,766.095498
3825.902287,-10955.047942,-2294.638420,2451.505594
3825.902617,-8216.285956,-2960.823768,2834.553343
3825.902947,-6217.729913,-3478.967927,1762.019645
3825.903276,-6291.750507,-2886.803174,1378.971896
3825.903606,-7179.997637,-2368.659014,842.705048
3825.903936,-9548.656652,-1110.308913,1225.752797
3825.904266,-9770.718434,518.144159,995.924147
3825.904596,-9844.739029,296.082377,459.657299
3825.904925,-9474.636058,-296.082377,76.609550
3825.905255,-9474.636058,0.000000,1149.143247
3825.905585,-10955.047942,0.000000,0.000000
3825.905915,-10436.903782,-222.061783,153.219100
3825.906245,-9918.759623,74.020594,1455.581446
3825.906574,-9992.780217,444.123565,3140.991542
3825.906904,-9844.739029,2072.576638,2834.553343
3825.907234,-10066.800811,1998.556043,0.000000
3825.907564,-9770.718434,2960.823768,-2374.896044
3825.907894,-10584.944971,2886.803174,-2451.505594
3825.908224,-11843.295072,2886.803174,-306.438199
3825.908553,-11843.295072,2368.659014,383.047749
3825.908883,-10510.924376,0.000000,-1149.143247
3825.909213,-10066.800811,74.020594,-1608.800546
3825.909543,-10510.924376,-814.226536,-1072.533697
3825.909873,-11251.130318,-444.123565,-229.828649
3825.910202,-9770.718434,-1110.308913,-153.219100
3825.910532,-8512.368333,-1258.350101,0.000000
3825.910862,-6661.853478,-2220.617826,0.000000
3825.911192,-5773.606348,-1702.473667,229.828649
3825.911522,-7254.018232,-1258.350101,689.485948
3825.911851,-8512.368333,-518.144159,1378.971896
3825.912181,-9918.759623,0.000000,2068.457845
3825.912511,-9474.636058,-148.041188,2451.505594
3825.912841,-10362.883188,1036.288319,1991.848295
3825.913171,-10658.965565,740.205942,1302.362347
3825.913500,-10584.944971,296.082377,-1072.533697
3825.913830,-8734.430116,74.020594,-1072.533697
3825.914160,-9770.718434,1184.329507,612.876398
3825.914490,-10066.800811,592.164754,2681.334243
3825.914820,-10881.027347,1702.473667,2834.553343
3825.915149,-9918.759623,1628.453072,0.000000
3825.915479,-8586.388927,2442.679609,-3753.867940
3825.915809,-9474.636058,2812.782580,-4136.915689
3825.916139,-11177.109724,3404.947333,-2451.505594
3825.916469,-13027.624579,3627.009116,383.047749
3825.916798,-13101.645173,2590.720797,0.000000
3825.917128,-10362.883188,962.267725,-1762.019645
3825.917458,-8660.409521,740.205942,-2528.115143
3825.917788,-9474.636058,-666.185348,-1838.629195
3825.918118,-11769.274478,-814.226536,995.924147
3825.918448,-10436.903782,-1036.288319,1915.238745
3825.918777,-7476.080014,-814.226536,2145.067394
3825.919107,-6883.915261,-1332.370696,1378.971896
3825.919437,-8142.265362,-1480.411884,0.000000
3825.919767,-9030.512492,-962.267725,-612.876398
3825.920097,-9474.636058,-888.247130,153.219100
3825.920426,-9474.636058,-444.123565,1532.190996
3825.920756,-10066.800811,-888.247130,2987.772442
3825.921086,-10881.027347,-962.267725,3447.429741
3825.921416,-10807.006753,-1554.432478,2221.676944
3825.921746,-8882.471304,-1110.308913,612.876398
3825.922075,-7920.203579,-1036.288319,612.876398
3825.922405,-8142.265362,0.000000,2757.943793
3825.922735,-8956.491898,370.102971,3524.039291
3825.923065,-9474.636058,740.205942,2221.676944
3825.923395,-11029.068536,1258.350101,-612.876398
3825.923724,-10807.006753,1924.535449,-1532.190996
3825.924054,-11325.150913,1998.556043,-1991.848295
3825.924384,-12213.398043,2442.679609,-2681.334243
3825.924714,-10955.047942,1332.370696,-1072.533697
3825.925044,-10955.047942,148.041188,-1149.143247
3825.925373,-9844.739029,-148.041188,-2068.457845
3825.925703,-9696.697840,-1554.432478,-1225.752797
3825.926033,-10732.986159,-666.185348,153.219100
3825.926363,-10510.924376,-2072.576638,612.876398
3825.926693,-9622.677246,-2368.659014,536.266849
3825.927022,-6809.894666,-4145.153275,-612.876398
3825.927352,-4811.338623,-3775.050304,-306.438199
3825.927682,-7031.956449,-3182.885551,2298.286494
3825.928012,-9770.718434,-1554.432478,2834.553343
3825.928342,-11325.150913,-888.247130,3064.381992
3825.928672,-10955.047942,-370.102971,0.000000
3825.929001,-10288.862594,-740.205942,-1225.752797
3825.929331,-10362.883188,-592.164754,-842.705048
3825.929661,-11029.068536,-296.082377,-229.828649
3825.929991,-8660.409521,-666.185348,1608.800546
3825.930321,-8068.244768,814.226536,2221.676944
3825.930650,-9400.615463,592.164754,995.924147
3825.930980,-11769.274478,2072.576638,-1302.362347
3825.931310,-11991.336260,1850.514855,-4443.353888
3825.931640,-10436.903782,2368.659014,-3983.696590
3825.931970,-10288.862594,2368.659014,-459.657299
3825.932299,-10807.006753,1702.473667,1225.752797
3825.932629,-11177.109724,1184.329507,995.924147
3825.932959,-10214.842000,-296.082377,-76.609550
3825.933289,-9918.759623,148.041188,-2604.724693
3825.933619,-10214.842000,-1036.288319,-1991.848295
3825.933948,-9844.739029,-1554.432478,306.438199
3825.934278,-9844.739029,-740.205942,3294.210641
3825.934608,-9400.615463,-1776.494261,2528.115143
3825.934938,-7402.059420,-1998.556043,-459.657299
3825.935268,-6513.812290,-1850.514855,-1302.362347
3825.935597,-8142.265362,-1110.308913,-842.705048
3825.935927,-9474.636058,-222.061783,689.485948
3825.936257,-9918.759623,222.061783,1762.019645
3825.936587,-9030.512492,518.144159,612.876398
3825.936917,-8956.491898,0.000000,-153.219100
3825.937246,-9178.553681,-370.102971,-459.657299
3825.937576,-9770.718434,-666.185348,919.314598
3825.937906,-9178.553681,444.123565,3217.601092
3825.938236,-9252.574275,1258.350101,4596.572988
3825.938566,-10510.924376,1776.494261,4826.401637
3825.938896,-10658.965565,2590.720797,2604.724693
3825.939225,-11251.130318,3552.988522,-1302.362347
3825.939555,-12287.418637,3627.009116,-2451.505594
3825.939885,-12213.398043,3997.112087,-2145.067394
3825.940215,-9770.718434,3108.864956,-536.266849
3825.940545,-8290.306550,2960.823768,153.219100
3825.940874,-8512.368333,1850.514855,-1149.143247
3825.941204,-11177.109724,1258.350101,-459.657299
3825.941534,-11547.212695,1480.411884,-536.266849
3825.941864,-10807.006753,74.020594,-76.609550
3825.942194,-10362.883188,-74.020594,1149.143247
3825.942523,-10955.047942,-518.144159,2145.067394
3825.942853,-9622.677246,-370.102971,2221.676944
3825.943183,-6735.874072,-1776.494261,76.609550
3825.943513,-6439.791695,-1258.350101,-1149.143247
3825.943843,-8438.347739,-592.164754,1455.581446
3825.944172,-10362.883188,-148.041188,2757.943793
3825.944502,-9474.636058,-222.061783,1838.629195
3825.944832,-8586.388927,-444.123565,842.705048
3825.945162,-10140.821405,-148.041188,766.095498
