#time,accel_x,accel_y,accel_z
3702.718583,-9770.718434,-1332.370696,-2757.943793
3702.718913,-9252.574275,-1258.350101,-4213.525239
3702.719243,-9770.718434,-1850.514855,-3447.429741
3702.719573,-9992.780217,-1184.329507,-1302.362347
3702.719903,-10066.800811,-1480.411884,306.438199
3702.720233,-9474.636058,-888.247130,0.000000
3702.720563,-9622.677246,-1184.329507,-612.876398
3702.720893,-10732.986159,-518.144159,-612.876398
3702.721223,-10881.027347,0.000000,-612.876398
3702.721553,-10066.800811,-370.102971,-842.705048
3702.721883,-8512.368333,148.041188,-459.657299
3702.722213,-9400.615463,-814.226536,612.876398
3702.722544,-10436.903782,-592.164754,76.609550
3702.722874,-10288.862594,370.102971,-1455.581446
3702.723204,-8512.368333,1184.329507,-2911.162892
3702.723534,-9326.594869,444.123565,-1608.800546
3702.723864,-9474.636058,1554.432478,-229.828649
3702.724194,-9474.636058,444.123565,-306.438199
3702.724524,-9474.636058,222.061783,-1532.190996
3702.724854,-10066.800811,148.041188,-2451.505594
3702.725184,-10658.965565,666.185348,-1915.238745
3702.725514,-10288.862594,666.185348,-1302.362347
3702.725844,-9622.677246,74.020594,-842.705048
3702.726174,-9474.636058,148.041188,-2068.457845
3702.726504,-9326.594869,-370.102971,-2834.553343
3702.726834,-9548.656652,0.000000,-2528.115143
3702.727164,-8882.471304,0.000000,-2221.676944
3702.727494,-9326.594869,-222.061783,-1149.143247
3702.727824,-9400.615463,-370.102971,-995.924147
3702.728154,-10436.903782,-148.041188,-1072.533697
3702.728484,-11103.089130,444.123565,-1532.190996
3702.728814,-11473.192101,-148.041188,-2451.505594
3702.729144,-11769.274478,-444.123565,-2528.115143
3702.729474,-10955.047942,-1480.411884,-3370.820191
3702.729804,-9844.739029,-2294.638420,-3907.087040
3702.730134,-8586.388927,-2738.761985,-2221.676944
3702.730464,-8956.491898,-2368.659014,-1685.410096
3702.730794,-9178.553681,-2146.597232,-1608.800546
3702.731125,-9178.553681,-2072.576638,-3064.381992
3702.731455,-9992.780217,-1406.391290,-4136.915689
3702.731785,-11251.130318,-2220.617826,-4519.963438
3702.732115,-11399.171507,-3034.844362,-4596.572988
3702.732445,-10436.903782,-4663.297435,-3907.087040
3702.732775,-9400.615463,-5477.523971,-3677.258390
3702.733105,-8734.430116,-5625.565159,-1608.800546
3702.733435,-7846.182985,-5477.523971,-1225.752797
3702.733765,-7550.100608,-4885.359217,-1608.800546
3702.734095,-8142.265362,-4293.194464,-2221.676944
3702.734425,-9844.739029,-3330.926739,-1072.533697
3702.734755,-11843.295072,-2664.741391,-842.705048
3702.735085,-12879.583391,-2886.803174,-1915.238745
3702.735415,-11843.295072,-3034.844362,-4290.134789
3702.735745,-11473.192101,-4589.276840,-6358.592633
3702.736075,-10140.821405,-5995.668130,-6205.373534
3702.736405,-9030.512492,-6883.915261,-4673.182538
3702.736735,-8216.285956,-6513.812290,-1762.019645
3702.737065,-6365.771101,-5773.606348,-153.219100
3702.737395,-6957.935855,-5403.503377,1532.190996
3702.737725,-8512.368333,-3997.112087,842.705048
3702.738055,-10807.006753,-2960.823768,0.000000
3702.738385,-12879.583391,-2368.659014,-1915.238745
3702.738715,-12361.439231,-3478.967927,-2681.334243
3702.739045,-11547.212695,-4441.235652,-2221.676944
3702.739376,-10881.027347,-4811.338623,-995.924147
3702.739706,-10288.862594,-5477.523971,-1685.410096
3702.740036,-8512.368333,-5699.585753,-2298.286494
3702.740366,-7105.977043,-4811.338623,-3064.381992
3702.740696,-8142.265362,-3478.967927,-2528.115143
3702.741026,-9178.553681,-2886.803174,-1455.581446
3702.741356,-9252.574275,-2072.576638,-612.876398
3702.741685,-9474.636058,-2146.597232,-383.047749
3702.742015,-9844.739029,-2812.782580,-919.314598
3702.742345,-10732.986159,-2590.720797,-689.485948
3702.742675,-11695.253884,-2960.823768,-919.314598
3702.743005,-11103.089130,-2960.823768,-919.314598
3702.743335,-9918.759623,-3108.864956,-1608.800546
3702.743665,-9918.759623,-2664.741391,-1149.143247
3702.743995,-9918.759623,-2590.720797,-536.266849
3702.744325,-9696.697840,-2220.617826,-76.609550
3702.744655,-9400.615463,-1184.329507,-919.314598
3702.744985,-8882.471304,-740.205942,-3064.381992
3702.745315,-8512.368333,-370.102971,-4060.306139
3702.745645,-8660.409521,-296.082377,-4136.915689
3702.745975,-8882.471304,0.000000,-2834.553343
3702.746305,-9770.718434,444.123565,-1149.143247
3702.746635,-11325.150913,148.041188,-1378.971896
3702.746964,-11695.253884,444.123565,-842.705048
3702.747294,-11029.068536,-888.247130,-1455.581446
3702.747624,-10732.986159,-1258.350101,-1072.533697
3702.747954,-9918.759623,-1554.432478,-153.219100
3702.748284,-9400.615463,-444.123565,76.609550
3702.748614,-8586.388927,296.082377,-612.876398
3702.748944,-7698.141797,1184.329507,-2451.505594
3702.749274,-7920.203579,1406.391290,-3677.258390
3702.749604,-9474.636058,1554.432478,-3217.601092
3702.749934,-10955.047942,1998.556043,-1685.410096
3702.750264,-12435.459826,1776.494261,-842.705048
3702.750594,-11029.068536,814.226536,-2298.286494
3702.750924,-9622.677246,-888.247130,-3370.820191
3702.751254,-8660.409521,-888.247130,-2604.724693
3702.751584,-9252.574275,-444.123565,383.047749
3702.751913,-10066.800811,148.041188,1991.848295
3702.752243,-8142.265362,962.267725,1149.143247
3702.752573,-8364.327145,592.164754,766.095498
3702.752903,-10066.800811,1258.350101,383.047749
3702.753233,-11177.109724,2072.576638,-306.438199
3702.753563,-12213.398043,1480.411884,-1608.800546
3702.753893,-10436.903782,1258.350101,-2987.772442
3702.754223,-8364.327145,-222.061783,-3064.381992
3702.754553,-7550.100608,-814.226536,-1532.190996
3702.754883,-9252.574275,-222.061783,766.095498
3702.755213,-10362.883188,-296.082377,383.047749
3702.755543,-8586.388927,74.020594,-842.705048
3702.755873,-7772.162391,0.000000,-229.828649
3702.756203,-9400.615463,518.144159,2451.505594
3702.756533,-10881.027347,1332.370696,3447.429741
3702.756863,-11251.130318,1110.308913,2757.943793
3702.757192,-9548.656652,444.123565,-153.219100
3702.757522,-9400.615463,370.102971,-1378.971896
3702.757852,-11177.109724,148.041188,612.876398
3702.758182,-12213.398043,-148.041188,2298.286494
3702.758512,-11325.150913,0.000000,919.314598
3702.758842,-9178.553681,-1184.329507,-1455.581446
3702.759172,-7624.121203,-1036.288319,-1378.971896
3702.759502,-8660.409521,-370.102971,995.924147
3702.759832,-9918.759623,518.144159,2374.896044
3702.760162,-10436.903782,666.185348,2374.896044
3702.760492,-9844.739029,-148.041188,459.657299
3702.760822,-10584.944971,-74.020594,766.095498
3702.761152,-11843.295072,-222.061783,2145.067394
3702.761482,-11621.233289,-1554.432478,1455.581446
3702.761812,-9252.574275,-2294.638420,459.657299
3702.762142,-7476.080014,-2368.659014,536.266849
3702.762471,-8364.327145,-1406.391290,1302.362347
3702.762801,-11029.068536,-518.144159,1532.190996
3702.763131,-10362.883188,-370.102971,0.000000
3702.763461,-9178.553681,-1184.329507,-1991.848295
3702.763791,-8734.430116,-592.164754,-995.924147
3702.764121,-10658.965565,-962.267725,306.438199
3702.764451,-11769.274478,-1110.308913,995.924147
3702.764781,-8586.388927,-1628.453072,-1149.143247
3702.765111,-7179.997637,-2368.659014,-2451.505594
3702.765441,-8882.471304,-1110.308913,0.000000
3702.765771,-11917.315666,-1406.391290,1455.581446
3702.766101,-11843.295072,-370.102971,1532.190996
3702.766431,-8956.491898,-962.267725,-1608.800546
3702.766761,-7624.121203,-1554.432478,-2911.162892
3702.767091,-9918.759623,-962.267725,-995.924147
3702.767421,-12435.459826,0.000000,995.924147
3702.767750,-9918.759623,-222.061783,306.438199
3702.768080,-6883.915261,-1184.329507,-2451.505594
3702.768410,-6587.832884,-740.205942,-2451.505594
3702.768740,-10658.965565,-518.144159,-536.266849
3702.769070,-12435.459826,0.000000,919.314598
3702.769400,-10288.862594,-592.164754,459.657299
3702.769730,-8438.347739,-592.164754,-1302.362347
3702.770060,-8512.368333,74.020594,-1149.143247
3702.770390,-11547.212695,0.000000,995.924147
3702.770720,-11103.089130,888.247130,2374.896044
3702.771050,-8734.430116,74.020594,536.266849
3702.771380,-7402.059420,518.144159,153.219100
3702.771710,-9252.574275,370.102971,919.314598
3702.772040,-11769.274478,1406.391290,1762.019645
3702.772370,-10881.027347,814.226536,689.485948
3702.772699,-8882.471304,1036.288319,-1149.143247
3702.773029,-8882.471304,1332.370696,-919.314598
3702.773359,-11029.068536,1036.288319,689.485948
3702.773689,-10807.006753,1554.432478,1608.800546
3702.774019,-9696.697840,740.205942,1378.971896
3702.774349,-8068.244768,1036.288319,-306.438199
3702.774679,-8956.491898,444.123565,612.876398
3702.775009,-11029.068536,1480.411884,2068.457845
3702.775339,-10140.821405,1258.350101,2374.896044
3702.775669,-8956.491898,1332.370696,536.266849
3702.775999,-8290.306550,1406.391290,842.705048
3702.776329,-10288.862594,1258.350101,1532.190996
3702.776659,-11547.212695,1776.494261,2451.505594
3702.776989,-10584.944971,1480.411884,1302.362347
3702.777319,-9178.553681,1776.494261,-383.047749
3702.777649,-9474.636058,1184.329507,0.000000
3702.777978,-11399.171507,1998.556043,1455.581446
3702.778308,-10732.986159,1406.391290,1455.581446
3702.778638,-9104.533087,1480.411884,-306.438199
3702.778968,-8586.388927,1628.453072,-1302.362347
3702.779298,-10362.883188,1480.411884,-995.924147
3702.779628,-11177.109724,1554.432478,76.609550
3702.779958,-9400.615463,888.247130,-459.657299
3702.780288,-8808.450710,814.226536,-689.485948
3702.780618,-9474.636058,222.061783,-689.485948
3702.780948,-11621.233289,370.102971,689.485948
3702.781278,-10732.986159,148.041188,1302.362347
3702.781608,-9474.636058,-370.102971,306.438199
3702.781938,-8216.285956,0.000000,-1225.752797
3702.782268,-9474.636058,-296.082377,-842.705048
3702.782598,-10955.047942,148.041188,0.000000
3702.782928,-9104.533087,-518.144159,612.876398
3702.783257,-8882.471304,-148.041188,-229.828649
3702.783587,-9178.553681,0.000000,-536.266849
3702.783917,-11103.089130,74.020594,-306.438199
3702.784247,-10214.842000,74.020594,0.000000
3702.784577,-9178.553681,-370.102971,0.000000
3702.784907,-8734.430116,-222.061783,-689.485948
3702.785237,-9918.759623,-592.164754,-689.485948
3702.785567,-11251.130318,-222.061783,153.219100
3702.785897,-9696.697840,-1036.288319,1149.143247
3702.786227,-8660.409521,-962.267725,459.657299
3702.786557,-8216.285956,-1036.288319,0.000000
3702.786887,-10436.903782,-888.247130,1225.752797
3702.787217,-11325.150913,-296.082377,2145.067394
3702.787547,-10066.800811,-666.185348,1072.533697
3702.787877,-8956.491898,-296.082377,383.047749
3702.788206,-9844.739029,-1184.329507,0.000000
3702.788536,-11843.295072,-814.226536,919.314598
3702.788866,-10807.006753,-1184.329507,1762.019645
3702.789196,-9104.533087,-1554.432478,919.314598
3702.789526,-7772.162391,-888.247130,229.828649
3702.789856,-9474.636058,-296.082377,229.828649
3702.790186,-10807.006753,74.020594,1072.533697
3702.790516,-9770.718434,-148.041188,1149.143247
3702.790846,-8882.471304,0.000000,612.876398
3702.791176,-10066.800811,-148.041188,842.705048
3702.791506,-12213.398043,0.000000,995.924147
3702.791836,-11251.130318,-444.123565,766.095498
3702.792166,-9326.594869,-740.205942,0.000000
3702.792496,-8586.388927,-370.102971,-306.438199
3702.792826,-10436.903782,-370.102971,229.828649
3702.793156,-11177.109724,296.082377,919.314598
3702.793485,-9178.553681,-592.164754,153.219100
3702.793815,-7624.121203,0.000000,-919.314598
3702.794145,-8068.244768,0.000000,-1302.362347
3702.794475,-11103.089130,444.123565,-995.924147
3702.794805,-10807.006753,0.000000,-612.876398
3702.795135,-9474.636058,-222.061783,-766.095498
3702.795465,-8512.368333,0.000000,-229.828649
3702.795795,-9992.780217,-518.144159,153.219100
3702.796125,-11029.068536,-296.082377,153.219100
3702.796455,-9696.697840,-592.164754,0.000000
3702.796785,-9104.533087,-296.082377,-76.609550
3702.797115,-8956.491898,74.020594,153.219100
3702.797445,-10584.944971,222.061783,612.876398
3702.797775,-10362.883188,370.102971,459.657299
3702.798105,-8882.471304,0.000000,-229.828649
3702.798435,-8216.285956,0.000000,-1072.533697
3702.798764,-9474.636058,-148.041188,-612.876398
3702.799094,-10140.821405,0.000000,689.485948
3702.799424,-9474.636058,74.020594,1149.143247
3702.799754,-8808.450710,74.020594,612.876398
3702.800084,-9178.553681,0.000000,153.219100
3702.800414,-11029.068536,148.041188,536.266849
3702.800744,-11103.089130,518.144159,1149.143247
3702.801074,-9474.636058,222.061783,1378.971896
3702.801404,-8660.409521,666.185348,919.314598
3702.801734,-9474.636058,740.205942,919.314598
3702.802064,-11103.089130,814.226536,536.266849
3702.802394,-10362.883188,814.226536,-229.828649
3702.802724,-8956.491898,518.144159,-919.314598
3702.803054,-9474.636058,1184.329507,153.219100
3702.803384,-10807.006753,666.185348,1608.800546
3702.803713,-11177.109724,740.205942,1455.581446
3702.804043,-9104.533087,222.061783,153.219100
3702.804373,-8364.327145,518.144159,-153.219100
3702.804703,-9474.636058,444.123565,689.485948
3702.805033,-11547.212695,518.144159,1762.019645
3702.805363,-10510.924376,814.226536,2221.676944
3702.805693,-8660.409521,296.082377,1225.752797
3702.806023,-8586.388927,814.226536,689.485948
3702.806353,-10658.965565,370.102971,459.657299
3702.806683,-11177.109724,1110.308913,995.924147
3702.807013,-9992.780217,740.205942,766.095498
3702.807343,-9030.512492,740.205942,0.000000
3702.807673,-9844.739029,592.164754,0.000000
3702.808003,-11621.233289,888.247130,0.000000
3702.808333,-10066.800811,666.185348,-689.485948
3702.808663,-8290.306550,296.082377,-612.876398
3702.808992,-8142.265362,1110.308913,0.000000
3702.809322,-10881.027347,888.247130,153.219100
3702.809652,-12509.480420,1554.432478,383.047749
3702.809982,-10510.924376,222.061783,-229.828649
3702.810312,-9548.656652,222.061783,-919.314598
3702.810642,-9474.636058,-296.082377,0.000000
3702.810972,-10732.986159,-740.205942,612.876398
3702.811302,-9770.718434,-518.144159,0.000000
3702.811632,-7846.182985,-666.185348,-919.314598
3702.811962,-7550.100608,-222.061783,-842.705048
3702.812292,-9844.739029,370.102971,383.047749
3702.812622,-12805.562797,444.123565,153.219100
3702.812952,-10436.903782,592.164754,0.000000
3702.813282,-8364.327145,-444.123565,-1685.410096
3702.813612,-8438.347739,-1110.308913,-1225.752797
3702.813942,-10510.924376,-740.205942,995.924147
3702.814271,-11103.089130,-296.082377,2451.505594
3702.814601,-8660.409521,-962.267725,766.095498
3702.814931,-7328.038826,-666.185348,-153.219100
3702.815261,-9326.594869,-296.082377,-229.828649
3702.815591,-12731.542202,0.000000,306.438199
3702.815921,-11029.068536,-222.061783,612.876398
3702.816251,-8364.327145,-518.144159,0.000000
3702.816581,-7550.100608,-592.164754,0.000000
3702.816911,-9622.677246,-740.205942,612.876398
3702.817241,-11473.192101,222.061783,383.047749
3702.817571,-8660.409521,-370.102971,-689.485948
3702.817901,-7550.100608,-444.123565,-689.485948
3702.818231,-9030.512492,0.000000,995.924147
3702.818561,-12879.583391,592.164754,1838.629195
3702.818891,-11473.192101,-74.020594,1225.752797
3702.819220,-8586.388927,-444.123565,-459.657299
3702.819550,-8438.347739,-370.102971,-842.705048
3702.819880,-10362.883188,-666.185348,842.705048
3702.820210,-11769.274478,0.000000,2451.505594
3702.820540,-9548.656652,-518.144159,2145.067394
3702.820870,-8290.306550,-296.082377,766.095498
3702.821200,-8956.491898,-222.061783,153.219100
3702.821530,-11991.336260,148.041188,995.924147
3702.821860,-10881.027347,148.041188,1149.143247
3702.822190,-8956.491898,0.000000,229.828649
3702.822520,-8438.347739,296.082377,-612.876398
3702.822850,-10955.047942,666.185348,0.000000
3702.823180,-12435.459826,518.144159,536.266849
3702.823510,-10066.800811,0.000000,229.828649
3702.823840,-8512.368333,-148.041188,-1149.143247
3702.824170,-7846.182985,0.000000,-383.047749
3702.824499,-10955.047942,222.061783,842.705048
3702.824829,-11769.274478,222.061783,1455.581446
3702.825159,-9548.656652,-444.123565,-306.438199
3702.825489,-8364.327145,0.000000,-1991.848295
3702.825819,-9770.718434,-666.185348,-1991.848295
3702.826149,-11103.089130,-222.061783,0.000000
3702.826479,-9474.636058,-222.061783,842.705048
3702.826809,-8586.388927,-148.041188,-229.828649
3702.827139,-8216.285956,222.061783,-1225.752797
3702.827469,-10066.800811,0.000000,-1608.800546
3702.827799,-10214.842000,0.000000,0.000000
3702.828129,-9252.574275,-148.041188,459.657299
3702.828459,-8808.450710,0.000000,153.219100
3702.828789,-9844.739029,-518.144159,-459.657299
3702.829119,-11251.130318,0.000000,0.000000
3702.829449,-9326.594869,-296.082377,612.876398
3702.829778,-8586.388927,-296.082377,153.219100
3702.830108,-7254.018232,222.061783,-306.438199
3702.830438,-9918.759623,592.164754,383.047749
3702.830768,-11251.130318,888.247130,766.095498
3702.831098,-10807.006753,518.144159,229.828649
3702.831428,-10362.883188,518.144159,-995.924147
3702.831758,-9474.636058,-296.082377,-766.095498
3702.832088,-9992.780217,-444.123565,612.876398
3702.832418,-8586.388927,0.000000,1838.629195
3702.832748,-7994.224174,0.000000,1302.362347
3702.833078,-8364.327145,740.205942,1302.362347
3702.833408,-11251.130318,1110.308913,766.095498
3702.833738,-12657.521608,1110.308913,842.705048
3702.834068,-10658.965565,222.061783,689.485948
3702.834398,-8808.450710,296.082377,306.438199
3702.834727,-8586.388927,0.000000,459.657299
3702.835057,-10436.903782,0.000000,1072.533697
3702.835387,-10214.842000,222.061783,2145.067394
3702.835717,-8660.409521,0.000000,1762.019645
3702.836047,-8660.409521,444.123565,1072.533697
3702.836377,-10288.862594,592.164754,1225.752797
3702.836707,-11177.109724,888.247130,1378.971896
3702.837037,-10362.883188,518.144159,1225.752797
3702.837367,-9844.739029,962.267725,0.000000
3702.837697,-9178.553681,222.061783,-1072.533697
3702.838027,-10658.965565,148.041188,-919.314598
3702.838357,-10807.006753,370.102971,0.000000
3702.838687,-9918.759623,0.000000,689.485948
3702.839017,-8882.471304,148.041188,459.657299
3702.839347,-9548.656652,148.041188,76.609550
3702.839677,-10881.027347,592.164754,0.000000
3702.840007,-10214.842000,444.123565,153.219100
3702.840337,-9844.739029,74.020594,-536.266849
3702.840667,-9622.677246,148.041188,-842.705048
3702.840997,-11029.068536,0.000000,-995.924147
3702.841327,-10732.986159,296.082377,-536.266849
3702.841657,-9178.553681,-740.205942,-612.876398
3702.841987,-8142.265362,-518.144159,-689.485948
3702.842317,-8734.430116,-370.102971,-383.047749
3702.842647,-11029.068536,222.061783,153.219100
3702.842977,-10807.006753,222.061783,0.000000
3702.843307,-9474.636058,-222.061783,-153.219100
3702.843637,-8882.471304,0.000000,-842.705048
3702.843967,-10214.842000,-518.144159,0.000000
3702.844297,-10658.965565,0.000000,995.924147
3702.844627,-9252.574275,-888.247130,383.047749
3702.844957,-7846.182985,-888.247130,-76.609550
3702.845287,-8216.285956,-370.102971,0.000000
3702.845617,-10584.944971,0.000000,919.314598
3702.845947,-10436.903782,296.082377,1072.533697
3702.846277,-9696.697840,0.000000,306.438199
3702.846607,-9474.636058,148.041188,0.000000
3702.846937,-10510.924376,-74.020594,536.266849
3702.847267,-11177.109724,296.082377,229.828649
3702.847597,-9400.615463,-370.102971,536.266849
3702.847927,-7994.224174,-148.041188,383.047749
3702.848257,-8364.327145,222.061783,612.876398
3702.848587,-10584.944971,518.144159,1149.143247
3702.848917,-11029.068536,740.205942,1072.533697
3702.849247,-9992.780217,-222.061783,689.485948
3702.849577,-9252.574275,0.000000,766.095498
3702.849907,-9992.780217,-370.102971,919.314598
3702.850237,-11251.130318,0.000000,1302.362347
3702.850567,-9474.636058,-296.082377,919.314598
3702.850897,-8290.306550,-518.144159,383.047749
3702.851227,-8364.327145,0.000000,766.095498
3702.851557,-10584.944971,148.041188,1532.190996
3702.851887,-10658.965565,814.226536,1762.019645
3702.852217,-9400.615463,296.082377,536.266849
3702.852547,-9030.512492,444.123565,76.609550
3702.852877,-10732.986159,296.082377,-536.266849
3702.853207,-12065.356855,148.041188,0.000000
3702.853537,-10436.903782,74.020594,153.219100
3702.853867,-9178.553681,-74.020594,-536.266849
3702.854197,-8438.347739,296.082377,-612.876398
3702.854527,-9548.656652,74.020594,0.000000
3702.854857,-10807.006753,814.226536,306.438199
3702.855187,-9844.739029,666.185348,0.000000
3702.855517,-9474.636058,592.164754,-842.705048
3702.855847,-9844.739029,296.082377,-459.657299
3702.856177,-11621.233289,222.061783,383.047749
3702.856507,-11103.089130,222.061783,383.047749
3702.856837,-9252.574275,-518.144159,-689.485948
3702.857167,-7994.224174,-592.164754,-919.314598
3702.857497,-8956.491898,-370.102971,-76.609550
3702.857827,-10362.883188,518.144159,459.657299
3702.858157,-9696.697840,74.020594,76.609550
3702.858487,-9030.512492,0.000000,-612.876398
3702.858817,-9252.574275,0.000000,-536.266849
3702.859147,-11251.130318,148.041188,229.828649
3702.859477,-11029.068536,-74.020594,842.705048
3702.859807,-8956.491898,-444.123565,536.266849
3702.860137,-7772.162391,-370.102971,459.657299
3702.860467,-9030.512492,0.000000,995.924147
3702.860797,-10881.027347,444.123565,1149.143247
3702.861127,-10362.883188,148.041188,0.000000
3702.861457,-9030.512492,0.000000,-229.828649
3702.861787,-9104.533087,444.123565,-229.828649
3702.862117,-10658.965565,370.102971,459.657299
3702.862447,-10658.965565,814.226536,919.314598
3702.862777,-9030.512492,-296.082377,306.438199
3702.863107,-8068.244768,-222.061783,0.000000
3702.863437,-9474.636058,0.000000,383.047749
3702.863767,-11399.171507,370.102971,1225.752797
3702.864097,-9992.780217,148.041188,1302.362347
3702.864427,-8808.450710,148.041188,766.095498
3702.864757,-9030.512492,518.144159,153.219100
3702.865087,-11251.130318,296.082377,689.485948
3702.865417,-11029.068536,814.226536,229.828649
3702.865747,-9622.677246,-148.041188,536.266849
3702.866077,-8438.347739,74.020594,0.000000
3702.866407,-9178.553681,74.020594,612.876398
3702.866737,-11029.068536,592.164754,1302.362347
3702.867067,-10584.944971,592.164754,995.924147
3702.867397,-9474.636058,222.061783,0.000000
3702.867727,-9474.636058,148.041188,-766.095498
3702.868057,-10881.027347,0.000000,76.609550
3702.868387,-11473.192101,518.144159,1072.533697
3702.868717,-9622.677246,0.000000,459.657299
3702.869047,-8660.409521,148.041188,-229.828649
3702.869377,-8586.388927,0.000000,-612.876398
3702.869707,-10584.944971,370.102971,-229.828649
3702.870037,-10658.965565,370.102971,0.000000
3702.870367,-9474.636058,-148.041188,-689.485948
3702.870697,-9178.553681,74.020594,-1378.971896
3702.871027,-10510.924376,222.061783,-842.705048
3702.871357,-11325.150913,0.000000,-76.609550
3702.871687,-9992.780217,-666.185348,-306.438199
3702.872017,-8290.306550,-740.205942,-1225.752797
3702.872347,-8068.244768,-444.123565,0.000000
3702.872677,-9992.780217,0.000000,842.705048
3702.873007,-10436.903782,148.041188,919.314598
3702.873337,-9252.574275,74.020594,-766.095498
3702.873667,-8660.409521,-222.061783,-1685.410096
3702.873997,-9696.697840,-370.102971,-1991.848295
3702.874327,-11473.192101,-370.102971,229.828649
3702.874657,-10436.903782,-518.144159,1072.533697
3702.874987,-8586.388927,-1258.350101,306.438199
3702.875317,-7254.018232,-740.205942,-1225.752797
3702.875647,-9622.677246,-518.144159,76.609550
3702.875977,-10288.862594,-148.041188,1225.752797
3702.876307,-9474.636058,0.000000,1149.143247
3702.876637,-8808.450710,222.061783,766.095498
3702.876967,-9770.718434,-148.041188,76.609550
3702.877297,-11547.212695,-222.061783,612.876398
3702.877627,-10584.944971,-518.144159,383.047749
3702.877957,-8512.368333,-962.267725,0.000000
3702.878287,-7698.141797,-740.205942,766.095498
3702.878617,-9770.718434,0.000000,1838.629195
3702.878947,-11177.109724,370.102971,2374.896044
3702.879277,-10584.944971,296.082377,1685.410096
3702.879607,-9104.533087,0.000000,306.438199
3702.879937,-9474.636058,0.000000,76.609550
3702.880267,-10955.047942,0.000000,842.705048
3702.880597,-10436.903782,370.102971,1149.143247
3702.880927,-8364.327145,0.000000,995.924147
3702.881257,-7772.162391,370.102971,76.609550
3702.881587,-9844.739029,296.082377,76.609550
3702.881917,-11621.233289,444.123565,1378.971896
3702.882247,-10436.903782,222.061783,2221.676944
3702.882577,-9030.512492,74.020594,1608.800546
3702.882907,-9326.594869,444.123565,459.657299
3702.883237,-11029.068536,518.144159,153.219100
3702.883567,-11103.089130,814.226536,0.000000
3702.883897,-9918.759623,814.226536,-229.828649
3702.884227,-8808.450710,370.102971,-612.876398
3702.884557,-9548.656652,222.061783,76.609550
3702.884887,-10584.944971,370.102971,459.657299
3702.885217,-9178.553681,296.082377,306.438199
3702.885547,-8586.388927,518.144159,-1302.362347
3702.885877,-8956.491898,666.185348,-1225.752797
3702.886207,-11695.253884,666.185348,-229.828649
3702.886537,-11843.295072,444.123565,-919.314598
3702.886867,-9770.718434,-148.041188,-1225.752797
3702.887197,-7994.224174,-370.102971,-1762.019645
3702.887527,-9178.553681,-296.082377,-1072.533697
3702.887857,-10214.842000,0.000000,229.828649
3702.888187,-9326.594869,0.000000,766.095498
3702.888517,-8142.265362,0.000000,-459.657299
3702.888847,-8882.471304,222.061783,-76.609550
3702.889177,-11029.068536,370.102971,0.000000
3702.889507,-11473.192101,148.041188,842.705048
3702.889837,-9400.615463,-518.144159,536.266849
3702.890167,-8068.244768,-592.164754,-153.219100
3702.890497,-9030.512492,-148.041188,0.000000
3702.890827,-10807.006753,148.041188,1149.143247
3702.891157,-9992.780217,296.082377,919.314598
3702.891487,-8142.265362,0.000000,612.876398
3702.891817,-8586.388927,518.144159,536.266849
3702.892147,-11325.150913,444.123565,1302.362347
3702.892477,-12065.356855,444.123565,995.924147
3702.892807,-10066.800811,222.061783,0.000000
3702.893137,-8290.306550,-296.082377,-842.705048
3702.893467,-8734.430116,370.102971,-153.219100
3702.893797,-10732.986159,0.000000,459.657299
3702.894127,-10658.965565,296.082377,919.314598
3702.894457,-9030.512492,74.020594,459.657299
3702.894787,-9030.512492,222.061783,153.219100
3702.895117,-10066.800811,-148.041188,1072.533697
3702.895447,-11029.068536,-444.123565,1838.629195
3702.895777,-9178.553681,-444.123565,1915.238745
3702.896107,-8290.306550,-740.205942,766.095498
3702.896437,-9030.512492,-444.123565,842.705048
3702.896767,-11177.109724,-222.061783,1149.143247
3702.897097,-10732.986159,0.000000,1838.629195
3702.897427,-8956.491898,0.000000,1149.143247
3702.897757,-8586.388927,74.020594,0.000000
3702.898087,-10140.821405,296.082377,612.876398
3702.898417,-11843.295072,592.164754,306.438199
3702.898747,-10436.903782,148.041188,-76.609550
3702.899077,-9178.553681,-296.082377,-612.876398
3702.899407,-8882.471304,148.041188,-229.828649
3702.899737,-10436.903782,370.102971,76.609550
3702.900067,-10658.965565,814.226536,0.000000
3702.900397,-9474.636058,148.041188,-1072.533697
3702.900727,-8882.471304,222.061783,-1072.533697
3702.901057,-10214.842000,148.041188,76.609550
3702.901387,-11325.150913,148.041188,1072.533697
3702.901717,-10140.821405,-444.123565,536.266849
3702.902047,-8956.491898,-1036.288319,-766.095498
3702.902377,-8660.409521,-592.164754,-1455.581446
3702.902707,-9844.739029,-814.226536,-459.657299
3702.903037,-10066.800811,-370.102971,306.438199
3702.903367,-8364.327145,-296.082377,612.876398
3702.903697,-7698.141797,296.082377,0.000000
3702.904027,-9474.636058,370.102971,-536.266849
3702.904357,-12065.356855,370.102971,-153.219100
3702.904687,-11547.212695,222.061783,-459.657299
3702.905017,-9178.553681,-518.144159,-229.828649
3702.905347,-7994.224174,-444.123565,-306.438199
3702.905677,-9104.533087,-444.123565,766.095498
3702.906007,-10362.883188,148.041188,1762.019645
3702.906337,-9252.574275,74.020594,1149.143247
3702.906667,-8660.409521,666.185348,-766.095498
3702.906997,-9622.677246,444.123565,-153.219100
3702.907327,-11843.295072,814.226536,995.924147
3702.907657,-11029.068536,814.226536,1762.019645
3702.907987,-9474.636058,-74.020594,536.266849
3702.908317,-8438.347739,148.041188,-383.047749
3702.908647,-9696.697840,0.000000,-536.266849
3702.908977,-10955.047942,592.164754,76.609550
3702.909307,-9178.553681,0.000000,383.047749
3702.909637,-8438.347739,370.102971,383.047749
3702.909967,-9030.512492,296.082377,766.095498
3702.910297,-11769.274478,518.144159,1762.019645
3702.910627,-10955.047942,0.000000,1915.238745
3702.910957,-9178.553681,-296.082377,766.095498
3702.911287,-8068.244768,-74.020594,306.438199
3702.911617,-9474.636058,0.000000,1455.581446
3702.911947,-11177.109724,0.000000,2451.505594
3702.912277,-10066.800811,370.102971,1915.238745
3702.912607,-9178.553681,148.041188,536.266849
3702.912937,-9252.574275,370.102971,-689.485948
3702.913267,-10732.986159,518.144159,-383.047749
3702.913597,-10436.903782,1110.308913,612.876398
3702.913927,-9252.574275,74.020594,0.000000
3702.914257,-8438.347739,370.102971,-612.876398
3702.914587,-9548.656652,148.041188,0.000000
3702.914917,-10955.047942,370.102971,383.047749
3702.915247,-10584.944971,0.000000,229.828649
3702.915577,-9400.615463,-222.061783,-153.219100
3702.915907,-8586.388927,0.000000,0.000000
3702.916237,-10140.821405,-444.123565,383.047749
3702.916567,-11251.130318,444.123565,1302.362347
3702.916897,-10584.944971,-296.082377,536.266849
3702.917227,-9178.553681,0.000000,-1225.752797
3702.917557,-9178.553681,-296.082377,-1149.143247
3702.917887,-11177.109724,-592.164754,-612.876398
3702.918217,-9992.780217,-370.102971,76.609550
3702.918547,-8808.450710,-888.247130,-612.876398
3702.918877,-8290.306550,-444.123565,-1072.533697
3702.919207,-9992.780217,-444.123565,-995.924147
3702.919537,-10807.006753,-296.082377,536.266849
3702.919867,-9474.636058,-814.226536,612.876398
3702.920197,-8586.388927,-592.164754,-229.828649
3702.920527,-9178.553681,-222.061783,0.000000
3702.920857,-11547.212695,74.020594,689.485948
3702.921187,-10658.965565,-296.082377,612.876398
3702.921517,-8956.491898,-592.164754,229.828649
3702.921847,-8512.368333,0.000000,0.000000
3702.922177,-9474.636058,148.041188,153.219100
3702.922507,-10807.006753,148.041188,842.705048
3702.922837,-9770.718434,0.000000,306.438199
3702.923167,-9252.574275,0.000000,-919.314598
3702.923497,-8956.491898,222.061783,-689.485948
3702.923827,-10881.027347,0.000000,536.266849
3702.924157,-9992.780217,0.000000,1532.190996
3702.924487,-9030.512492,-296.082377,995.924147
3702.924817,-8512.368333,-222.061783,-459.657299
3702.925147,-10066.800811,-222.061783,229.828649
3702.925477,-11103.089130,0.000000,1608.800546
3702.925807,-9696.697840,-148.041188,1838.629195
3702.926137,-9252.574275,0.000000,842.705048
3702.926467,-8438.347739,0.000000,383.047749
3702.926797,-10066.800811,592.164754,383.047749
3702.927127,-11029.068536,814.226536,1072.533697
3702.927457,-10214.842000,444.123565,1149.143247
3702.927787,-8660.409521,888.247130,536.266849
3702.928117,-9548.656652,148.041188,153.219100
3702.928447,-11843.295072,814.226536,689.485948
3702.928777,-10807.006753,740.205942,383.047749
3702.929107,-8808.450710,148.041188,0.000000
3702.929437,-7994.224174,222.061783,-612.876398
3702.929767,-9770.718434,370.102971,0.000000
3702.930097,-10584.944971,518.144159,459.657299
3702.930428,-10140.821405,296.082377,459.657299
3702.930758,-9326.594869,518.144159,-229.828649
3702.931088,-9622.677246,148.041188,-459.657299
3702.931418,-11547.212695,0.000000,0.000000
3702.931748,-10214.842000,0.000000,612.876398
3702.932078,-8290.306550,-666.185348,-459.657299
3702.932408,-7698.141797,-296.082377,-536.266849
3702.932738,-9252.574275,-444.123565,-536.266849
3702.933068,-10584.944971,296.082377,383.047749
3702.933398,-9474.636058,370.102971,0.000000
3702.933728,-9104.533087,296.082377,-689.485948
3702.934058,-9474.636058,0.000000,-1225.752797
3702.934388,-11177.109724,-74.020594,-459.657299
3702.934718,-10807.006753,0.000000,306.438199
3702.935048,-9622.677246,-592.164754,-229.828649
3702.935378,-8142.265362,-444.123565,-1225.752797
3702.935708,-9030.512492,-444.123565,-76.609550
3702.936038,-11103.089130,0.000000,842.705048
3702.936368,-10955.047942,-148.041188,689.485948
3702.936698,-9474.636058,-370.102971,229.828649
3702.937028,-8586.388927,296.082377,76.609550
3702.937358,-10140.821405,74.020594,842.705048
3702.937688,-11251.130318,370.102971,842.705048
3702.938018,-9770.718434,-148.041188,-459.657299
3702.938348,-8512.368333,0.000000,-919.314598
3702.938678,-9030.512492,0.000000,-919.314598
3702.939008,-11399.171507,0.000000,459.657299
3702.939338,-10732.986159,74.020594,1608.800546
3702.939668,-9548.656652,-444.123565,1149.143247
3702.939998,-7994.224174,-74.020594,689.485948
3702.940328,-9696.697840,-444.123565,1378.971896
3702.940658,-10732.986159,222.061783,2145.067394
3702.940988,-9474.636058,444.123565,1378.971896
3702.941318,-8512.368333,740.205942,689.485948
3702.941648,-9474.636058,444.123565,459.657299
3702.941978,-11547.212695,666.185348,612.876398
3702.942308,-10807.006753,888.247130,612.876398
3702.942638,-9548.656652,148.041188,383.047749
3702.942967,-8882.471304,74.020594,0.000000
3702.943297,-9918.759623,0.000000,766.095498
3702.943627,-10807.006753,222.061783,766.095498
3702.943957,-9696.697840,444.123565,842.705048
3702.944287,-8586.388927,518.144159,-536.266849
3702.944617,-9178.553681,814.226536,-153.219100
3702.944947,-11621.233289,1184.329507,-383.047749
3702.945277,-10881.027347,1036.288319,-459.657299
3702.945607,-9844.739029,296.082377,-995.924147
3702.945937,-7994.224174,74.020594,-1225.752797
3702.946267,-9178.553681,-148.041188,-766.095498
3702.946597,-10214.842000,0.000000,-229.828649
3702.946927,-9844.739029,-296.082377,766.095498
3702.947257,-8956.491898,0.000000,-306.438199
3702.947587,-8956.491898,0.000000,-766.095498
3702.947917,-10732.986159,74.020594,-919.314598
3702.948247,-11177.109724,74.020594,76.609550
3702.948576,-9474.636058,0.000000,-229.828649
3702.948906,-8216.285956,-222.061783,-1302.362347
3702.949236,-9178.553681,0.000000,-766.095498
3702.949566,-10510.924376,-444.123565,383.047749
3702.949896,-10436.903782,0.000000,459.657299
3702.950226,-9178.553681,-518.144159,-459.657299
3702.950556,-8586.388927,-222.061783,-1149.143247
3702.950886,-9918.759623,-444.123565,0.000000
3702.951216,-10881.027347,74.020594,842.705048
3702.951546,-9400.615463,-370.102971,612.876398
3702.951876,-9030.512492,0.000000,0.000000
3702.952206,-9474.636058,74.020594,-153.219100
3702.952536,-11029.068536,0.000000,459.657299
3702.952866,-10288.862594,-74.020594,1072.533697
3702.953196,-9104.533087,-666.185348,0.000000
3702.953526,-8290.306550,-74.020594,383.047749
3702.953856,-9622.677246,-444.123565,612.876398
3702.954186,-10807.006753,0.000000,1225.752797
3702.954515,-9770.718434,-296.082377,306.438199
3702.954845,-8734.430116,-370.102971,-306.438199
3702.955175,-8660.409521,-296.082377,306.438199
3702.955505,-10436.903782,-296.082377,1991.848295
3702.955835,-10362.883188,0.000000,2068.457845
3702.956165,-9252.574275,-740.205942,1072.533697
3702.956495,-7994.224174,74.020594,689.485948
3702.956825,-9474.636058,74.020594,459.657299
3702.957155,-10807.006753,666.185348,1302.362347
3702.957485,-10214.842000,444.123565,1532.190996
3702.957815,-9770.718434,666.185348,1149.143247
3702.958145,-9844.739029,444.123565,0.000000
3702.958475,-11547.212695,148.041188,-153.219100
3702.958805,-10881.027347,370.102971,612.876398
3702.959135,-9030.512492,-296.082377,536.266849
3702.959465,-7254.018232,296.082377,229.828649
3702.959795,-9104.533087,444.123565,229.828649
3702.960124,-11917.315666,888.247130,76.609550
3702.960454,-11325.150913,444.123565,0.000000
3702.960784,-9844.739029,74.020594,-1072.533697
3702.961114,-9474.636058,0.000000,-612.876398
3702.961444,-11251.130318,-444.123565,306.438199
3702.961774,-10436.903782,-370.102971,536.266849
3702.962104,-7920.203579,-1036.288319,0.000000
3702.962434,-6809.894666,-74.020594,-919.314598
3702.962764,-8956.491898,592.164754,-76.609550
3702.963094,-12287.418637,740.205942,306.438199
3702.963424,-11621.233289,296.082377,383.047749
3702.963754,-9252.574275,-148.041188,-536.266849
3702.964084,-8586.388927,-444.123565,-1149.143247
3702.964414,-10140.821405,-740.205942,-153.219100
3702.964744,-10214.842000,0.000000,459.657299
3702.965074,-8290.306550,-370.102971,0.000000
3702.965404,-7846.182985,370.102971,-689.485948
3702.965733,-9400.615463,518.144159,-689.485948
3702.966063,-11843.295072,888.247130,-229.828649
3702.966393,-10436.903782,592.164754,536.266849
3702.966723,-9548.656652,222.061783,0.000000
3702.967053,-9178.553681,0.000000,-383.047749
3702.967383,-10584.944971,-370.102971,536.266849
3702.967713,-10732.986159,222.061783,1225.752797
3702.968043,-9474.636058,-148.041188,689.485948
3702.968373,-8438.347739,296.082377,306.438199
3702.968703,-8808.450710,370.102971,0.000000
3702.969033,-11103.089130,888.247130,766.095498
3702.969363,-10658.965565,1036.288319,1302.362347
3702.969693,-9770.718434,0.000000,459.657299
3702.970023,-9104.533087,74.020594,306.438199
3702.970353,-9622.677246,-444.123565,919.314598
3702.970683,-10436.903782,-222.061783,1915.238745
3702.971013,-8808.450710,0.000000,2068.457845
3702.971343,-7772.162391,-296.082377,1302.362347
3702.971672,-8586.388927,444.123565,1225.752797
3702.972002,-11547.212695,592.164754,2068.457845
3702.972332,-11843.295072,814.226536,1685.410096
3702.972662,-10881.027347,222.061783,306.438199
3702.972992,-9918.759623,370.102971,-995.924147
3702.973322,-10066.800811,-74.020594,-612.876398
3702.973652,-10288.862594,-296.082377,153.219100
3702.973982,-8586.388927,-666.185348,766.095498
3702.974312,-7624.121203,-518.144159,306.438199
3702.974642,-7994.224174,296.082377,-229.828649
3702.974972,-10881.027347,740.205942,383.047749
3702.975302,-11695.253884,888.247130,689.485948
3702.975632,-10881.027347,0.000000,612.876398
3702.975962,-10140.821405,0.000000,-459.657299
3702.976292,-10140.821405,-444.123565,-229.828649
3702.976622,-11103.089130,-740.205942,-536.266849
3702.976952,-9400.615463,-1184.329507,153.219100
3702.977281,-8438.347739,-962.267725,0.000000
3702.977611,-7846.182985,0.000000,459.657299
3702.977941,-10214.842000,444.123565,0.000000
3702.978271,-11399.171507,1036.288319,-306.438199
3702.978601,-11103.089130,296.082377,-612.876398
3702.978931,-10658.965565,222.061783,-1608.800546
3702.979261,-10066.800811,-222.061783,-995.924147
3702.979591,-10584.944971,-518.144159,-153.219100
3702.979921,-9030.512492,-666.185348,153.219100
3702.980251,-8068.244768,-962.267725,-459.657299
3702.980581,-7624.121203,-592.164754,-536.266849
3702.980911,-9992.780217,0.000000,689.485948
3702.981241,-11547.212695,518.144159,1072.533697
3702.981571,-10807.006753,296.082377,1455.581446
3702.981901,-9548.656652,0.000000,383.047749
3702.982231,-8660.409521,-888.247130,153.219100
3702.982561,-10807.006753,-740.205942,-306.438199
3702.982891,-9918.759623,-370.102971,229.828649
3702.983220,-8142.265362,-962.267725,842.705048
3702.983550,-7402.059420,0.000000,1225.752797
3702.983880,-9474.636058,518.144159,1915.238745
3702.984210,-11843.295072,518.144159,995.924147
3702.984540,-10955.047942,222.061783,0.000000
3702.984870,-9400.615463,-222.061783,-536.266849
3702.985200,-8956.491898,0.000000,842.705048
3702.985530,-10140.821405,0.000000,1991.848295
3702.985860,-9918.759623,222.061783,2145.067394
3702.986190,-8882.471304,74.020594,459.657299
3702.986520,-8586.388927,814.226536,-306.438199
3702.986850,-10436.903782,740.205942,-153.219100
3702.987180,-12065.356855,962.267725,995.924147
3702.987510,-10807.006753,888.247130,1532.190996
3702.987840,-9400.615463,592.164754,995.924147
3702.988170,-9252.574275,74.020594,383.047749
3702.988500,-10732.986159,0.000000,0.000000
3702.988829,-11029.068536,222.061783,229.828649
3702.989159,-9030.512492,0.000000,306.438199
3702.989489,-8586.388927,370.102971,536.266849
3702.989819,-8956.491898,296.082377,919.314598
3702.990149,-11177.109724,814.226536,536.266849
3702.990479,-10214.842000,666.185348,-76.609550
3702.990809,-9252.574275,74.020594,-1225.752797
3702.991139,-9474.636058,444.123565,-842.705048
3702.991469,-11029.068536,0.000000,0.000000
3702.991799,-11103.089130,222.061783,612.876398
3702.992129,-9474.636058,-296.082377,229.828649
3702.992459,-8290.306550,-148.041188,-766.095498
3702.992789,-8882.471304,0.000000,-536.266849
3702.993119,-11251.130318,444.123565,306.438199
3702.993449,-10140.821405,74.020594,306.438199
3702.993779,-9178.553681,74.020594,-612.876398
3702.994109,-8734.430116,0.000000,-995.924147
3702.994439,-10362.883188,148.041188,-153.219100
3702.994768,-11251.130318,148.041188,919.314598
3702.995098,-9696.697840,0.000000,612.876398
3702.995428,-8734.430116,-296.082377,-842.705048
3702.995758,-9252.574275,0.000000,-536.266849
3702.996088,-11177.109724,148.041188,383.047749
3702.996418,-10658.965565,148.041188,1455.581446
3702.996748,-9178.553681,0.000000,1072.533697
3702.997078,-8290.306550,222.061783,0.000000
3702.997408,-9844.739029,0.000000,-459.657299
3702.997738,-11325.150913,74.020594,536.266849
3702.998068,-10436.903782,148.041188,1072.533697
3702.998398,-9104.533087,-296.082377,689.485948
3702.998728,-8660.409521,0.000000,1302.362347
3702.999058,-10140.821405,0.000000,1532.190996
3702.999388,-10362.883188,962.267725,1685.410096
3702.999718,-9474.636058,0.000000,536.266849
3703.000048,-9474.636058,592.164754,76.609550
3703.000377,-10510.924376,444.123565,919.314598
3703.000707,-11473.192101,296.082377,1991.848295
3703.001037,-9992.780217,0.000000,1532.190996
3703.001367,-9030.512492,-222.061783,536.266849
3703.001697,-7994.224174,0.000000,-306.438199
3703.002027,-9326.594869,444.123565,306.438199
3703.002357,-9844.739029,888.247130,919.314598
3703.002687,-9474.636058,666.185348,1072.533697
3703.003017,-9548.656652,1036.288319,0.000000
3703.003347,-10658.965565,370.102971,-383.047749
3703.003677,-11621.233289,518.144159,153.219100
3703.004007,-10510.924376,-222.061783,306.438199
3703.004337,-8882.471304,-740.205942,0.000000
3703.004667,-7698.141797,-222.061783,766.095498
3703.004997,-9770.718434,222.061783,995.924147
3703.005327,-10807.006753,444.123565,536.266849
3703.005657,-10066.800811,74.020594,-612.876398
3703.005986,-9474.636058,592.164754,-1532.190996
3703.006316,-9770.718434,0.000000,-1072.533697
3703.006646,-11325.150913,148.041188,689.485948
3703.006976,-10584.944971,-444.123565,766.095498
3703.007306,-9104.533087,-1110.308913,76.609550
3703.007636,-7994.224174,-666.185348,-919.314598
3703.007966,-9252.574275,-296.082377,-919.314598
3703.008296,-10807.006753,-74.020594,383.047749
3703.008626,-9696.697840,0.000000,536.266849
3703.008956,-9178.553681,-148.041188,-536.266849
3703.009286,-9400.615463,0.000000,76.609550
3703.009616,-11621.233289,-296.082377,-229.828649
3703.009946,-10807.006753,-518.144159,-612.876398
3703.010276,-8734.430116,-1110.308913,-1149.143247
3703.010606,-7328.038826,-666.185348,-612.876398
3703.010936,-8438.347739,-740.205942,0.000000
3703.011266,-10732.986159,-148.041188,919.314598
3703.011596,-10140.821405,-148.041188,536.266849
3703.011925,-9104.533087,-370.102971,-306.438199
3703.012255,-9030.512492,0.000000,-766.095498
3703.012585,-10807.006753,-370.102971,459.657299
3703.012915,-11251.130318,0.000000,1378.971896
3703.013245,-9326.594869,-740.205942,612.876398
3703.013575,-7698.141797,-222.061783,-383.047749
3703.013905,-8660.409521,-222.061783,689.485948
3703.014235,-11177.109724,444.123565,1685.410096
3703.014565,-10732.986159,888.247130,1762.019645
3703.014895,-10066.800811,518.144159,153.219100
3703.015225,-9326.594869,814.226536,-306.438199
3703.015555,-10807.006753,0.000000,229.828649
3703.015885,-11103.089130,518.144159,689.485948
3703.016215,-9474.636058,0.000000,229.828649
3703.016545,-7994.224174,0.000000,612.876398
3703.016875,-9030.512492,74.020594,1455.581446
3703.017205,-10955.047942,740.205942,2068.457845
3703.017534,-10436.903782,740.205942,1762.019645
3703.017864,-9252.574275,222.061783,1302.362347
3703.018194,-9030.512492,444.123565,306.438199
3703.018524,-10214.842000,0.000000,383.047749
3703.018854,-11399.171507,444.123565,919.314598
3703.019184,-9844.739029,-296.082377,383.047749
3703.019514,-8216.285956,-222.061783,-153.219100
3703.019844,-8216.285956,518.144159,0.000000
3703.020174,-10732.986159,518.144159,689.485948
3703.020504,-11103.089130,1036.288319,1455.581446
3703.020834,-9770.718434,296.082377,153.219100
3703.021164,-8956.491898,370.102971,-842.705048
3703.021494,-10066.800811,222.061783,-689.485948
3703.021824,-11251.130318,0.000000,153.219100
3703.022154,-9770.718434,74.020594,383.047749
3703.022484,-8660.409521,0.000000,-536.266849
3703.022814,-8216.285956,74.020594,-766.095498
3703.023144,-10584.944971,74.020594,-459.657299
3703.023473,-10881.027347,1110.308913,0.000000
3703.023803,-9844.739029,1110.308913,0.000000
3703.024133,-8734.430116,740.205942,-689.485948
3703.024463,-9474.636058,222.061783,-689.485948
3703.024793,-11547.212695,222.061783,306.438199
3703.025123,-10066.800811,-296.082377,153.219100
3703.025453,-8734.430116,-666.185348,-689.485948
3703.025783,-8068.244768,-74.020594,-459.657299
3703.026113,-9770.718434,-148.041188,995.924147
3703.026443,-10658.965565,888.247130,1838.629195
3703.026773,-9104.533087,0.000000,612.876398
3703.027103,-8882.471304,666.185348,-459.657299
3703.027433,-9474.636058,148.041188,-919.314598
3703.027763,-11769.274478,444.123565,-383.047749
3703.028093,-10955.047942,0.000000,306.438199
3703.028423,-8956.491898,-370.102971,306.438199
3703.028753,-7476.080014,148.041188,0.000000
3703.029082,-9548.656652,74.020594,689.485948
3703.029412,-10955.047942,518.144159,1072.533697
3703.029742,-9918.759623,222.061783,842.705048
3703.030072,-9252.574275,444.123565,842.705048
3703.030402,-9474.636058,0.000000,1302.362347
3703.030732,-11621.233289,296.082377,1532.190996
3703.031062,-10436.903782,-222.061783,1608.800546
3703.031392,-9030.512492,-740.205942,383.047749
3703.031722,-7846.182985,-370.102971,153.219100
3703.032052,-9326.594869,-296.082377,842.705048
3703.032382,-10955.047942,370.102971,2145.067394
3703.032712,-9918.759623,148.041188,1991.848295
3703.033042,-9326.594869,370.102971,459.657299
3703.033372,-9992.780217,148.041188,-536.266849
3703.033702,-12139.377449,74.020594,-536.266849
3703.034032,-11399.171507,0.000000,306.438199
3703.034362,-9474.636058,-740.205942,-229.828649
3703.034692,-7550.100608,-444.123565,-766.095498
3703.035021,-8586.388927,-666.185348,-766.095498
3703.035351,-11029.068536,444.123565,0.000000
3703.035681,-9918.759623,0.000000,-153.219100
3703.036011,-9104.533087,148.041188,-919.314598
3703.036341,-9030.512492,370.102971,-842.705048
3703.036671,-11325.150913,0.000000,-612.876398
3703.037001,-11843.295072,-444.123565,459.657299
3703.037331,-9770.718434,-962.267725,-459.657299
3703.037661,-8216.285956,-518.144159,-842.705048
3703.037991,-8660.409521,-296.082377,-612.876398
3703.038321,-10732.986159,-296.082377,0.000000
3703.038651,-10066.800811,0.000000,0.000000
3703.038981,-8660.409521,-74.020594,-612.876398
3703.039311,-9104.533087,296.082377,-766.095498
3703.039641,-10881.027347,296.082377,0.000000
3703.039971,-11547.212695,74.020594,536.266849
3703.040301,-9326.594869,-1036.288319,229.828649
3703.040630,-8142.265362,-370.102971,-689.485948
3703.040960,-8660.409521,0.000000,-76.609550
3703.041290,-11325.150913,0.000000,1225.752797
3703.041620,-10288.862594,296.082377,1302.362347
3703.041950,-9326.594869,0.000000,0.000000
3703.042280,-8660.409521,518.144159,0.000000
3703.042610,-10807.006753,0.000000,153.219100
3703.042940,-11473.192101,518.144159,459.657299
3703.043269,-9252.574275,-296.082377,0.000000
3703.043599,-7994.224174,0.000000,0.000000
3703.043929,-8586.388927,-296.082377,842.705048
3703.044259,-10955.047942,-148.041188,1378.971896
3703.044589,-10140.821405,148.041188,1685.410096
3703.044919,-8882.471304,0.000000,766.095498
3703.045249,-8512.368333,592.164754,536.266849
3703.045578,-10510.924376,222.061783,1302.362347
3703.045908,-11695.253884,444.123565,1532.190996
3703.046238,-9918.759623,0.000000,1072.533697
3703.046568,-8068.244768,-222.061783,-306.438199
3703.046898,-8290.306550,222.061783,306.438199
3703.047228,-10807.006753,370.102971,689.485948
3703.047557,-10584.944971,740.205942,1149.143247
3703.047887,-8808.450710,222.061783,383.047749
3703.048217,-8438.347739,888.247130,-306.438199
3703.048547,-10658.965565,740.205942,0.000000
3703.048877,-12065.356855,1036.288319,0.000000
3703.049207,-10140.821405,0.000000,612.876398
3703.049537,-8956.491898,296.082377,-306.438199
3703.049866,-9178.553681,592.164754,-919.314598
3703.050196,-10732.986159,148.041188,-766.095498
3703.050526,-10288.862594,296.082377,0.000000
3703.050856,-9030.512492,370.102971,306.438199
3703.051186,-8882.471304,518.144159,-153.219100
3703.051516,-10214.842000,296.082377,153.219100
3703.051846,-11399.171507,444.123565,612.876398
3703.052175,-10066.800811,0.000000,0.000000
3703.052505,-9326.594869,0.000000,-1532.190996
3703.052835,-9326.594869,-222.061783,-1225.752797
3703.053165,-10140.821405,-370.102971,229.828649
3703.053495,-10214.842000,0.000000,842.705048
3703.053825,-9178.553681,-740.205942,383.047749
3703.054155,-8142.265362,-740.205942,-689.485948
3703.054484,-8808.450710,-296.082377,-612.876398
3703.054814,-10807.006753,0.000000,612.876398
3703.055144,-9918.759623,518.144159,1302.362347
3703.055474,-9326.594869,-222.061783,0.000000
3703.055804,-8290.306550,-222.061783,-536.266849
3703.056134,-10140.821405,-518.144159,76.609550
3703.056464,-11251.130318,370.102971,0.000000
3703.056793,-9696.697840,-888.247130,76.609550
3703.057123,-8290.306550,-592.164754,153.219100
3703.057453,-8512.368333,-222.061783,229.828649
3703.057783,-10732.986159,148.041188,766.095498
3703.058113,-10436.903782,222.061783,536.266849
3703.058443,-9992.780217,-296.082377,-76.609550
3703.058773,-9326.594869,74.020594,-76.609550
3703.059102,-10362.883188,74.020594,842.705048
3703.059432,-11621.233289,666.185348,842.705048
3703.059762,-9252.574275,0.000000,536.266849
3703.060092,-8068.244768,0.000000,-153.219100
3703.060422,-8586.388927,0.000000,-76.609550
3703.060752,-11325.150913,666.185348,0.000000
3703.061082,-11843.295072,518.144159,1225.752797
3703.061411,-10140.821405,-444.123565,1072.533697
3703.061741,-8660.409521,-296.082377,459.657299
3703.062071,-9548.656652,-444.123565,1225.752797
3703.062401,-10807.006753,-74.020594,2221.676944
3703.062731,-9252.574275,-148.041188,1915.238745
3703.063061,-8438.347739,148.041188,1072.533697
3703.063390,-8956.491898,592.164754,612.876398
3703.063720,-11917.315666,740.205942,689.485948
3703.064050,-11991.336260,592.164754,612.876398
3703.064380,-9992.780217,-370.102971,-306.438199
3703.064710,-8216.285956,0.000000,-842.705048
3703.065040,-8142.265362,-74.020594,-766.095498
3703.065370,-10066.800811,74.020594,766.095498
3703.065699,-9622.677246,0.000000,919.314598
3703.066029,-9474.636058,222.061783,-536.266849
3703.066359,-8586.388927,296.082377,-842.705048
3703.066689,-10881.027347,-222.061783,0.000000
3703.067019,-11843.295072,518.144159,1302.362347
3703.067349,-10214.842000,-148.041188,383.047749
3703.067679,-8438.347739,-518.144159,-1072.533697
3703.068008,-8290.306550,-444.123565,-1378.971896
3703.068338,-11251.130318,74.020594,-842.705048
3703.068668,-10510.924376,222.061783,153.219100
3703.068998,-9696.697840,148.041188,-383.047749
3703.069328,-8882.471304,370.102971,-1608.800546
3703.069658,-10214.842000,-370.102971,-612.876398
3703.069988,-10881.027347,148.041188,153.219100
3703.070317,-9548.656652,-592.164754,153.219100
3703.070647,-7698.141797,148.041188,-919.314598
3703.070977,-7920.203579,0.000000,-153.219100
3703.071307,-11177.109724,518.144159,383.047749
3703.071637,-11399.171507,518.144159,919.314598
3703.071967,-9918.759623,0.000000,-766.095498
3703.072297,-8956.491898,0.000000,-306.438199
3703.072626,-9622.677246,-222.061783,153.219100
3703.072956,-11399.171507,296.082377,1532.190996
3703.073286,-9770.718434,0.000000,1072.533697
3703.073616,-8586.388927,0.000000,-76.609550
3703.073946,-8142.265362,0.000000,-842.705048
3703.074276,-10362.883188,74.020594,-612.876398
3703.074606,-10732.986159,148.041188,919.314598
3703.074935,-9474.636058,148.041188,919.314598
3703.075265,-8808.450710,370.102971,842.705048
3703.075595,-8956.491898,-370.102971,766.095498
3703.075925,-10658.965565,0.000000,1378.971896
3703.076255,-10436.903782,0.000000,1225.752797
3703.076585,-9622.677246,-296.082377,153.219100
3703.076914,-8734.430116,0.000000,0.000000
3703.077244,-10066.800811,-370.102971,1149.143247
3703.077574,-10584.944971,370.102971,1991.848295
3703.077904,-9178.553681,222.061783,995.924147
3703.078234,-8142.265362,148.041188,-229.828649
3703.078564,-8882.471304,74.020594,-383.047749
3703.078894,-11251.130318,518.144159,536.266849
3703.079223,-11029.068536,296.082377,1378.971896
3703.079553,-9918.759623,148.041188,229.828649
3703.079883,-8068.244768,296.082377,-459.657299
3703.080213,-9918.759623,370.102971,-995.924147
3703.080543,-11473.192101,592.164754,383.047749
3703.080873,-10881.027347,-74.020594,0.000000
3703.081203,-9474.636058,0.000000,229.828649
3703.081532,-8586.388927,0.000000,0.000000
3703.081862,-9918.759623,-296.082377,229.828649
3703.082192,-9474.636058,74.020594,76.609550
3703.082522,-9252.574275,0.000000,-995.924147
3703.082852,-9104.533087,592.164754,-1149.143247
3703.083182,-10510.924376,0.000000,-612.876398
3703.083512,-11843.295072,666.185348,306.438199
3703.083841,-9918.759623,-222.061783,612.876398
3703.084171,-9252.574275,-222.061783,-612.876398
3703.084501,-8438.347739,-592.164754,-1072.533697
3703.084831,-9252.574275,-518.144159,-536.266849
3703.085161,-9696.697840,0.000000,1302.362347
3703.085491,-8956.491898,0.000000,1532.190996
3703.085821,-8734.430116,518.144159,689.485948
3703.086150,-9622.677246,666.185348,0.000000
3703.086480,-11547.212695,518.144159,0.000000
3703.086810,-10881.027347,222.061783,612.876398
3703.087140,-9548.656652,74.020594,536.266849
3703.087470,-8808.450710,0.000000,766.095498
3703.087800,-10214.842000,0.000000,689.485948
3703.088130,-10881.027347,740.205942,1072.533697
3703.088459,-9918.759623,0.000000,76.609550
3703.088789,-8586.388927,222.061783,-536.266849
3703.089119,-8956.491898,148.041188,306.438199
3703.089449,-11177.109724,666.185348,1302.362347
3703.089779,-9770.718434,370.102971,1532.190996
3703.090109,-8882.471304,0.000000,153.219100
3703.090439,-7994.224174,0.000000,-383.047749
3703.090768,-10362.883188,222.061783,842.705048
3703.091098,-11251.130318,814.226536,1532.190996
3703.091428,-9844.739029,-148.041188,1378.971896
3703.091758,-9104.533087,296.082377,536.266849
3703.092088,-9178.553681,148.041188,229.828649
3703.092418,-10658.965565,0.000000,536.266849
3703.092747,-9992.780217,222.061783,766.095498
3703.093077,-9104.533087,0.000000,459.657299
3703.093407,-8290.306550,0.000000,0.000000
3703.093737,-9400.615463,0.000000,-536.266849
3703.094067,-10066.800811,370.102971,0.000000
3703.094397,-9548.656652,222.061783,-76.609550
3703.094727,-9548.656652,370.102971,153.219100
3703.095056,-9992.780217,592.164754,0.000000
3703.095386,-11177.109724,148.041188,-383.047749
3703.095716,-10362.883188,518.144159,-1072.533697
3703.096046,-9474.636058,-222.061783,-1302.362347
3703.096376,-8660.409521,0.000000,-1302.362347
3703.096706,-9252.574275,-518.144159,-383.047749
3703.097036,-10436.903782,148.041188,229.828649
3703.097365,-9992.780217,0.000000,459.657299
3703.097695,-9770.718434,-666.185348,-842.705048
3703.098025,-9474.636058,-296.082377,-1149.143247
3703.098355,-11177.109724,-592.164754,-689.485948
3703.098685,-11251.130318,-74.020594,612.876398
3703.099015,-9548.656652,-1184.329507,1302.362347
3703.099345,-8438.347739,-962.267725,0.000000
3703.099674,-8882.471304,-962.267725,76.609550
3703.100004,-10510.924376,-740.205942,689.485948
3703.100334,-10214.842000,0.000000,1225.752797
3703.100664,-9400.615463,-444.123565,459.657299
3703.100994,-8142.265362,0.000000,306.438199
3703.101324,-10584.944971,74.020594,536.266849
3703.101654,-11621.233289,222.061783,306.438199
3703.101983,-10288.862594,-518.144159,0.000000
3703.102313,-8956.491898,-222.061783,-229.828649
3703.102643,-9474.636058,-666.185348,76.609550
3703.102973,-11029.068536,-296.082377,536.266849
3703.103303,-9548.656652,-296.082377,612.876398
3703.103633,-8216.285956,-814.226536,153.219100
3703.103963,-7920.203579,148.041188,383.047749
3703.104292,-10362.883188,74.020594,995.924147
3703.104622,-11991.336260,74.020594,1378.971896
3703.104952,-10066.800811,0.000000,536.266849
3703.105282,-8956.491898,-518.144159,-306.438199
3703.105612,-9030.512492,-222.061783,229.828649
3703.105942,-10584.944971,0.000000,1378.971896
3703.106271,-9770.718434,74.020594,1762.019645
3703.106601,-8808.450710,0.000000,1072.533697
3703.106931,-8068.244768,222.061783,612.876398
3703.107261,-9918.759623,518.144159,459.657299
3703.107591,-11399.171507,888.247130,383.047749
3703.107921,-10214.842000,518.144159,0.000000
3703.108251,-8808.450710,74.020594,153.219100
3703.108580,-8808.450710,222.061783,0.000000
3703.108910,-10881.027347,-370.102971,1072.533697
3703.109240,-10732.986159,666.185348,536.266849
3703.109570,-9030.512492,148.041188,153.219100
3703.109900,-8364.327145,1036.288319,0.000000
3703.110230,-9918.759623,1184.329507,766.095498
3703.110560,-12065.356855,1258.350101,689.485948
3703.110889,-10881.027347,814.226536,-383.047749
3703.111219,-9548.656652,370.102971,-1532.190996
3703.111549,-9400.615463,518.144159,-1302.362347
3703.111879,-10955.047942,0.000000,306.438199
3703.112209,-10584.944971,518.144159,1149.143247
3703.112539,-8438.347739,74.020594,153.219100
3703.112869,-7846.182985,74.020594,-1149.143247
3703.113198,-9770.718434,370.102971,-689.485948
3703.113528,-11917.315666,666.185348,536.266849
3703.113858,-10807.006753,444.123565,919.314598
3703.114188,-9104.533087,0.000000,-306.438199
3703.114518,-8364.327145,0.000000,-229.828649
3703.114848,-10436.903782,0.000000,0.000000
3703.115178,-10584.944971,-148.041188,229.828649
3703.115507,-9104.533087,-592.164754,-306.438199
3703.115837,-7624.121203,0.000000,0.000000
3703.116167,-8956.491898,518.144159,995.924147
3703.116497,-11695.253884,740.205942,1378.971896
3703.116827,-10436.903782,666.185348,459.657299
3703.117157,-9622.677246,0.000000,-766.095498
3703.117487,-8734.430116,370.102971,-842.705048
3703.117816,-10436.903782,74.020594,383.047749
3703.118146,-11103.089130,148.041188,1455.581446
3703.118476,-8808.450710,-370.102971,1072.533697
3703.118806,-7772.162391,-444.123565,383.047749
3703.119136,-9030.512492,148.041188,0.000000
3703.119466,-11695.253884,592.164754,459.657299
3703.119796,-10955.047942,444.123565,766.095498
3703.120125,-9474.636058,-148.041188,306.438199
3703.120455,-9104.533087,222.061783,153.219100
3703.120785,-10214.842000,-296.082377,842.705048
3703.121115,-11251.130318,-296.082377,1225.752797
3703.121445,-9104.533087,-1036.288319,689.485948
3703.121775,-7920.203579,-888.247130,306.438199
3703.122104,-8438.347739,-74.020594,383.047749
3703.122434,-10807.006753,0.000000,1762.019645
3703.122764,-11029.068536,666.185348,2068.457845
3703.123094,-9548.656652,-444.123565,1225.752797
3703.123424,-9548.656652,148.041188,-76.609550
3703.123754,-10288.862594,-444.123565,-306.438199
3703.124084,-11251.130318,-222.061783,383.047749
3703.124413,-9548.656652,-148.041188,1225.752797
3703.124743,-8660.409521,-370.102971,229.828649
3703.125073,-8586.388927,444.123565,0.000000
3703.125403,-11325.150913,0.000000,-383.047749
3703.125733,-11695.253884,592.164754,-383.047749
3703.126063,-9992.780217,-222.061783,-766.095498
3703.126393,-9770.718434,-444.123565,-459.657299
3703.126722,-9696.697840,-740.205942,306.438199
3703.127052,-11029.068536,-592.164754,1072.533697
3703.127382,-8882.471304,-814.226536,306.438199
3703.127712,-8882.471304,-814.226536,-1072.533697
3703.128042,-8956.491898,222.061783,-1225.752797
3703.128372,-11251.130318,0.000000,-229.828649
3703.128702,-11547.212695,222.061783,-612.876398
3703.129031,-9696.697840,-296.082377,76.609550
3703.129361,-8586.388927,-962.267725,-995.924147
3703.129691,-8734.430116,-888.247130,-919.314598
3703.130021,-10658.965565,-592.164754,0.000000
3703.130351,-9622.677246,-74.020594,229.828649
3703.130681,-8512.368333,-740.205942,-153.219100
3703.131011,-8290.306550,148.041188,-306.438199
3703.131340,-10140.821405,-222.061783,0.000000
3703.131670,-11029.068536,74.020594,1149.143247
3703.132000,-9844.739029,0.000000,536.266849
3703.132330,-9178.553681,0.000000,-689.485948
3703.132660,-9252.574275,0.000000,-766.095498
3703.132990,-10510.924376,-296.082377,0.000000
3703.133320,-10362.883188,370.102971,766.095498
3703.133649,-9104.533087,0.000000,536.266849
3703.133979,-8068.244768,444.123565,76.609550
3703.134309,-9400.615463,296.082377,612.876398
3703.134639,-11251.130318,1184.329507,689.485948
3703.134969,-10214.842000,814.226536,1149.143247
3703.135299,-9844.739029,222.061783,76.609550
3703.135628,-9548.656652,444.123565,76.609550
3703.135958,-10807.006753,0.000000,919.314598
3703.136288,-10288.862594,296.082377,1532.190996
3703.136618,-8512.368333,-814.226536,842.705048
3703.136948,-8142.265362,370.102971,689.485948
3703.137278,-9474.636058,444.123565,1915.238745
3703.137608,-11769.274478,962.267725,2374.896044
3703.137937,-10362.883188,666.185348,1838.629195
3703.138267,-9474.636058,296.082377,612.876398
3703.138597,-9104.533087,666.185348,-306.438199
3703.138927,-10955.047942,518.144159,153.219100
3703.139257,-10807.006753,518.144159,153.219100
3703.139587,-8956.491898,-222.061783,-689.485948
3703.139917,-7994.224174,148.041188,0.000000
3703.140246,-9326.594869,222.061783,383.047749
3703.140576,-11325.150913,592.164754,0.000000
3703.140906,-9696.697840,962.267725,-306.438199
3703.141236,-9548.656652,296.082377,-842.705048
3703.141566,-9696.697840,370.102971,-612.876398
3703.141896,-11103.089130,0.000000,76.609550
3703.142226,-11177.109724,148.041188,612.876398
3703.142555,-9326.594869,-74.020594,383.047749
3703.142885,-8216.285956,-296.082377,153.219100
3703.143215,-8882.471304,222.061783,-689.485948
3703.143545,-11399.171507,0.000000,0.000000
3703.143875,-10436.903782,518.144159,383.047749
3703.144205,-9252.574275,-370.102971,-306.438199
3703.144535,-9030.512492,74.020594,-919.314598
3703.144865,-9696.697840,-148.041188,-153.219100
3703.145195,-10510.924376,0.000000,0.000000
3703.145525,-9918.759623,0.000000,459.657299
3703.145855,-8734.430116,-296.082377,-383.047749
3703.146185,-9030.512492,888.247130,383.047749
3703.146514,-11029.068536,222.061783,689.485948
3703.146844,-11103.089130,814.226536,995.924147
3703.147174,-9770.718434,444.123565,-153.219100
3703.147504,-9030.512492,148.041188,-1149.143247
3703.147834,-9696.697840,-222.061783,0.000000
3703.148164,-11325.150913,-148.041188,536.266849
3703.148494,-9474.636058,-222.061783,383.047749
3703.148824,-8216.285956,-888.247130,-459.657299
3703.149154,-7476.080014,0.000000,-306.438199
3703.149484,-10436.903782,222.061783,1072.533697
3703.149814,-11473.192101,888.247130,1685.410096
3703.150144,-9770.718434,74.020594,-306.438199
3703.150474,-9474.636058,74.020594,-1302.362347
3703.150804,-9770.718434,-444.123565,-306.438199
3703.151134,-11843.295072,-592.164754,1608.800546
3703.151463,-9548.656652,-740.205942,1991.848295
3703.151793,-7772.162391,-1628.453072,842.705048
3703.152123,-7476.080014,-666.185348,229.828649
3703.152453,-9474.636058,-518.144159,766.095498
3703.152783,-10807.006753,74.020594,1149.143247
3703.153113,-10066.800811,148.041188,766.095498
3703.153443,-9918.759623,444.123565,0.000000
3703.153773,-9696.697840,-296.082377,-536.266849
3703.154103,-10732.986159,-740.205942,0.000000
3703.154433,-10362.883188,-370.102971,0.000000
3703.154763,-9104.533087,-1036.288319,-229.828649
3703.155093,-8216.285956,-296.082377,-919.314598
3703.155423,-9104.533087,-814.226536,0.000000
3703.155753,-10584.944971,0.000000,766.095498
3703.156083,-10066.800811,148.041188,1149.143247
3703.156412,-10214.842000,0.000000,-536.266849
3703.156742,-9844.739029,-148.041188,-1608.800546
3703.157072,-10955.047942,-370.102971,-1302.362347
3703.157402,-10807.006753,-370.102971,306.438199
3703.157732,-9770.718434,-1258.350101,153.219100
3703.158062,-8364.327145,-888.247130,0.000000
3703.158392,-9030.512492,-888.247130,-153.219100
3703.158722,-11103.089130,74.020594,383.047749
3703.159052,-10362.883188,0.000000,383.047749
3703.159382,-9696.697840,0.000000,-536.266849
3703.159712,-9178.553681,222.061783,-766.095498
3703.160042,-11325.150913,0.000000,0.000000
3703.160372,-10955.047942,74.020594,1072.533697
3703.160702,-9252.574275,-666.185348,0.000000
3703.161032,-7402.059420,-444.123565,-919.314598
3703.161361,-7920.203579,-814.226536,-612.876398
3703.161691,-10955.047942,444.123565,919.314598
3703.162021,-10510.924376,444.123565,1685.410096
3703.162351,-9548.656652,444.123565,919.314598
3703.162681,-9178.553681,888.247130,-459.657299
3703.163011,-10881.027347,370.102971,306.438199
3703.163341,-11029.068536,518.144159,536.266849
3703.163671,-9400.615463,0.000000,383.047749
3703.164001,-8216.285956,444.123565,0.000000
3703.164331,-8438.347739,444.123565,383.047749
3703.164661,-10584.944971,888.247130,766.095498
3703.164991,-10214.842000,1406.391290,153.219100
3703.165321,-10362.883188,1406.391290,-383.047749
3703.165651,-9178.553681,370.102971,-766.095498
3703.165981,-9992.780217,0.000000,306.438199
3703.166310,-11177.109724,740.205942,1608.800546
3703.166640,-10140.821405,296.082377,2068.457845
3703.166970,-8882.471304,296.082377,1072.533697
3703.167300,-8142.265362,296.082377,0.000000
3703.167630,-9992.780217,592.164754,153.219100
3703.167960,-10066.800811,888.247130,689.485948
3703.168290,-9326.594869,814.226536,766.095498
3703.168620,-9178.553681,1036.288319,612.876398
3703.168950,-10881.027347,666.185348,1072.533697
3703.169280,-12435.459826,962.267725,383.047749
3703.169610,-10584.944971,0.000000,0.000000
3703.169940,-8586.388927,-74.020594,-766.095498
3703.170270,-8364.327145,0.000000,0.000000
3703.170600,-10288.862594,296.082377,766.095498
3703.170930,-9918.759623,1110.308913,1225.752797
3703.171259,-9030.512492,1036.288319,383.047749
3703.171589,-9400.615463,1184.329507,-1225.752797
3703.171919,-11177.109724,740.205942,-1915.238745
3703.172249,-12435.459826,222.061783,0.000000
3703.172579,-10288.862594,-370.102971,383.047749
3703.172909,-8068.244768,-1036.288319,-383.047749
3703.173239,-7550.100608,-444.123565,-383.047749
3703.173569,-9474.636058,-740.205942,0.000000
3703.173899,-10510.924376,296.082377,842.705048
3703.174229,-9474.636058,444.123565,306.438199
3703.174559,-9474.636058,444.123565,76.609550
3703.174889,-10362.883188,74.020594,459.657299
3703.175219,-12065.356855,0.000000,766.095498
3703.175549,-10510.924376,-370.102971,536.266849
3703.175879,-8438.347739,-1258.350101,-153.219100
3703.176208,-7105.977043,-444.123565,-153.219100
3703.176538,-9474.636058,0.000000,306.438199
3703.176868,-11177.109724,1184.329507,536.266849
3703.177198,-10658.965565,444.123565,536.266849
3703.177528,-10214.842000,518.144159,0.000000
3703.177858,-10288.862594,222.061783,383.047749
3703.178188,-11769.274478,74.020594,383.047749
3703.178518,-10066.800811,0.000000,612.876398
3703.178848,-8438.347739,-888.247130,383.047749
3703.179178,-7476.080014,-222.061783,383.047749
3703.179508,-9474.636058,-444.123565,1302.362347
3703.179838,-11843.295072,740.205942,1225.752797
3703.180168,-9918.759623,0.000000,612.876398
3703.180498,-8956.491898,0.000000,76.609550
3703.180827,-9474.636058,0.000000,536.266849
3703.181157,-11325.150913,-296.082377,1225.752797
3703.181487,-10658.965565,-74.020594,1532.190996
3703.181817,-8364.327145,-1406.391290,995.924147
3703.182147,-7328.038826,-296.082377,459.657299
3703.182477,-9252.574275,0.000000,689.485948
3703.182807,-11251.130318,518.144159,995.924147
3703.183137,-10066.800811,222.061783,919.314598
3703.183467,-8734.430116,444.123565,76.609550
3703.183797,-9104.533087,518.144159,229.828649
3703.184127,-11621.233289,592.164754,306.438199
3703.184457,-11769.274478,518.144159,536.266849
3703.184787,-9400.615463,-296.082377,-229.828649
3703.185117,-8512.368333,148.041188,-919.314598
3703.185447,-9104.533087,222.061783,0.000000
3703.185776,-11251.130318,296.082377,229.828649
3703.186106,-9178.553681,296.082377,306.438199
3703.186436,-8216.285956,148.041188,-842.705048
3703.186766,-9178.553681,814.226536,-1072.533697
3703.187096,-11769.274478,222.061783,-612.876398
3703.187426,-12287.418637,0.000000,0.000000
3703.187756,-9400.615463,-444.123565,-536.266849
3703.188086,-8216.285956,-518.144159,-995.924147
3703.188416,-8586.388927,-518.144159,0.000000
3703.188746,-10807.006753,-296.082377,766.095498
3703.189076,-9548.656652,296.082377,229.828649
3703.189406,-8216.285956,-518.144159,-1838.629195
3703.189736,-8660.409521,222.061783,-1302.362347
3703.190066,-10807.006753,0.000000,76.609550
3703.190396,-11473.192101,296.082377,1302.362347
3703.190725,-9400.615463,-370.102971,459.657299
3703.191055,-8364.327145,-888.247130,-229.828649
3703.191385,-9104.533087,-222.061783,-229.828649
3703.191715,-11177.109724,-370.102971,536.266849
3703.192045,-9918.759623,148.041188,766.095498
3703.192375,-8364.327145,0.000000,306.438199
3703.192705,-8512.368333,518.144159,-383.047749
3703.193035,-10658.965565,148.041188,0.000000
3703.193365,-11991.336260,444.123565,0.000000
3703.193695,-10288.862594,148.041188,0.000000
3703.194025,-8660.409521,-296.082377,-383.047749
3703.194355,-8364.327145,0.000000,383.047749
3703.194685,-10214.842000,-296.082377,1608.800546
3703.195015,-9770.718434,518.144159,1991.848295
3703.195345,-7994.224174,-370.102971,689.485948
3703.195674,-9030.512492,592.164754,-612.876398
3703.196004,-10881.027347,296.082377,0.000000
3703.196334,-12879.583391,592.164754,1149.143247
3703.196664,-10732.986159,0.000000,1838.629195
3703.196994,-8660.409521,-518.144159,383.047749
3703.197324,-7772.162391,-444.123565,459.657299
3703.197654,-9696.697840,-370.102971,689.485948
3703.197984,-10288.862594,148.041188,1532.190996
3703.198314,-9104.533087,0.000000,1532.190996
3703.198644,-9548.656652,592.164754,919.314598
3703.198974,-11029.068536,444.123565,1072.533697
3703.199304,-12213.398043,148.041188,689.485948
3703.199634,-9548.656652,0.000000,306.438199
3703.199964,-7994.224174,-518.144159,-919.314598
3703.200294,-8068.244768,518.144159,-766.095498
3703.200623,-10510.924376,296.082377,919.314598
3703.200953,-11251.130318,1184.329507,1149.143247
3703.201283,-9992.780217,222.061783,-689.485948
3703.201613,-9770.718434,296.082377,-1225.752797
3703.201943,-9992.780217,0.000000,-995.924147
3703.202273,-11029.068536,0.000000,0.000000
3703.202603,-9178.553681,-370.102971,1149.143247
3703.202933,-8438.347739,-1036.288319,76.609550
3703.203263,-8216.285956,0.000000,-306.438199
3703.203593,-10288.862594,0.000000,-153.219100
3703.203923,-11547.212695,296.082377,0.000000
3703.204253,-9770.718434,-444.123565,-383.047749
3703.204583,-8660.409521,-518.144159,-1149.143247
3703.204913,-8512.368333,-814.226536,-536.266849
3703.205243,-9992.780217,-1480.411884,0.000000
3703.205572,-9400.615463,-666.185348,612.876398
3703.205902,-7994.224174,-962.267725,-76.609550
3703.206232,-7994.224174,-148.041188,0.000000
3703.206562,-9770.718434,-148.041188,536.266849
3703.206892,-12065.356855,444.123565,1225.752797
3703.207222,-10658.965565,296.082377,1225.752797
3703.207552,-9622.677246,-222.061783,0.000000
3703.207882,-9326.594869,0.000000,0.000000
3703.208212,-11325.150913,222.061783,153.219100
3703.208542,-10807.006753,370.102971,536.266849
3703.208872,-9104.533087,-444.123565,-153.219100
3703.209202,-8956.491898,444.123565,-689.485948
3703.209532,-10214.842000,0.000000,0.000000
3703.209862,-11695.253884,814.226536,153.219100
3703.210192,-9844.739029,148.041188,689.485948
3703.210521,-9104.533087,0.000000,459.657299
3703.210851,-9178.553681,0.000000,153.219100
3703.211181,-11029.068536,0.000000,766.095498
3703.211511,-10955.047942,444.123565,1225.752797
3703.211841,-9326.594869,-222.061783,612.876398
3703.212171,-8956.491898,592.164754,536.266849
3703.212501,-10066.800811,-148.041188,689.485948
3703.212831,-11843.295072,-148.041188,1378.971896
3703.213161,-9400.615463,0.000000,1378.971896
3703.213491,-8290.306550,-666.185348,536.266849
3703.213821,-8364.327145,0.000000,229.828649
3703.214151,-9696.697840,-222.061783,229.828649
3703.214481,-10436.903782,518.144159,689.485948
3703.214811,-9252.574275,0.000000,0.000000
3703.215141,-9548.656652,0.000000,306.438199
3703.215470,-9548.656652,0.000000,306.438199
3703.215800,-10807.006753,296.082377,229.828649
3703.216130,-10658.965565,666.185348,459.657299
3703.216460,-9622.677246,-222.061783,0.000000
3703.216790,-8586.388927,370.102971,-459.657299
3703.217120,-9844.739029,0.000000,-306.438199
3703.217450,-10955.047942,296.082377,0.000000
3703.217780,-9622.677246,-444.123565,-76.609550
3703.218110,-9252.574275,0.000000,-766.095498
3703.218440,-8142.265362,0.000000,-766.095498
3703.218770,-11029.068536,296.082377,229.828649
3703.219100,-10436.903782,296.082377,383.047749
3703.219430,-9030.512492,0.000000,0.000000
3703.219760,-8808.450710,74.020594,-459.657299
3703.220090,-10362.883188,0.000000,0.000000
3703.220419,-11843.295072,148.041188,919.314598
3703.220749,-9622.677246,-296.082377,995.924147
3703.221079,-8734.430116,-370.102971,-153.219100
3703.221409,-8734.430116,74.020594,-76.609550
3703.221739,-10658.965565,-222.061783,536.266849
3703.222069,-10436.903782,518.144159,689.485948
3703.222399,-8808.450710,148.041188,229.828649
3703.222729,-8586.388927,666.185348,-383.047749
3703.223059,-10066.800811,222.061783,306.438199
3703.223389,-11917.315666,444.123565,1072.533697
3703.223719,-10436.903782,296.082377,995.924147
3703.224049,-9400.615463,-444.123565,-536.266849
3703.224379,-8882.471304,148.041188,0.000000
3703.224709,-10066.800811,-370.102971,689.485948
3703.225039,-9992.780217,296.082377,1838.629195
3703.225368,-8586.388927,-740.205942,1149.143247
3703.225698,-8142.265362,148.041188,612.876398
3703.226028,-9326.594869,148.041188,1532.190996
3703.226358,-11325.150913,518.144159,1685.410096
3703.226688,-11177.109724,888.247130,1991.848295
3703.227018,-10362.883188,-222.061783,536.266849
3703.227348,-9548.656652,222.061783,-306.438199
3703.227678,-10362.883188,-222.061783,306.438199
3703.228008,-10955.047942,74.020594,766.095498
3703.228338,-8882.471304,-222.061783,536.266849
3703.228668,-7994.224174,518.144159,76.609550
3703.228998,-8142.265362,370.102971,-383.047749
3703.229328,-10955.047942,444.123565,0.000000
3703.229658,-11251.130318,666.185348,306.438199
3703.229988,-9770.718434,0.000000,0.000000
3703.230317,-8364.327145,296.082377,-383.047749
3703.230647,-9992.780217,222.061783,153.219100
3703.230977,-11917.315666,592.164754,153.219100
3703.231307,-10066.800811,0.000000,-229.828649
3703.231637,-9326.594869,-296.082377,-1608.800546
3703.231967,-8956.491898,0.000000,-766.095498
3703.232297,-10288.862594,-296.082377,612.876398
3703.232627,-9918.759623,444.123565,1378.971896
3703.232957,-8438.347739,-444.123565,0.000000
3703.233287,-8364.327145,0.000000,-1915.238745
3703.233617,-9400.615463,74.020594,-1455.581446
3703.233947,-11177.109724,74.020594,-153.219100
3703.234277,-9844.739029,0.000000,536.266849
3703.234607,-9030.512492,-666.185348,383.047749
3703.234936,-8438.347739,-296.082377,1378.971896
3703.235266,-10214.842000,-518.144159,536.266849
3703.235596,-10658.965565,296.082377,842.705048
3703.235926,-10214.842000,-148.041188,229.828649
3703.236256,-9400.615463,148.041188,-689.485948
3703.236586,-8512.368333,-148.041188,-229.828649
3703.236916,-10658.965565,296.082377,612.876398
3703.237246,-10214.842000,518.144159,459.657299
3703.237576,-9474.636058,74.020594,-842.705048
3703.237906,-8660.409521,370.102971,-1225.752797
3703.238236,-10140.821405,-592.164754,-153.219100
3703.238566,-11177.109724,666.185348,1225.752797
3703.238896,-9918.759623,74.020594,1532.190996
3703.239226,-9104.533087,-148.041188,459.657299
3703.239556,-9400.615463,0.000000,536.266849
3703.239885,-11843.295072,370.102971,919.314598
3703.240215,-11029.068536,-74.020594,995.924147
3703.240545,-9622.677246,-666.185348,536.266849
3703.240875,-7994.224174,0.000000,612.876398
3703.241205,-9548.656652,-444.123565,1225.752797
3703.241535,-10955.047942,592.164754,1762.019645
3703.241865,-9770.718434,-74.020594,1532.190996
3703.242195,-8956.491898,0.000000,229.828649
3703.242525,-8956.491898,0.000000,0.000000
3703.242855,-11621.233289,0.000000,612.876398
3703.243185,-10732.986159,148.041188,1762.019645
3703.243515,-9326.594869,-222.061783,459.657299
3703.243844,-8660.409521,0.000000,-153.219100
3703.244174,-9622.677246,-518.144159,-842.705048
3703.244504,-10510.924376,0.000000,0.000000
3703.244834,-9104.533087,0.000000,536.266849
3703.245164,-8216.285956,0.000000,383.047749
3703.245494,-8364.327145,370.102971,0.000000
3703.245824,-10584.944971,666.185348,0.000000
3703.246154,-11769.274478,1036.288319,-459.657299
3703.246484,-11177.109724,0.000000,-1455.581446
3703.246813,-9696.697840,-444.123565,-1608.800546
3703.247143,-8956.491898,-666.185348,-689.485948
3703.247473,-10066.800811,-296.082377,459.657299
3703.247803,-9104.533087,-148.041188,919.314598
3703.248133,-8364.327145,-222.061783,-459.657299
3703.248463,-7772.162391,296.082377,-1072.533697
3703.248793,-10955.047942,814.226536,-536.266849
3703.249123,-12139.377449,1110.308913,459.657299
3703.249453,-10584.944971,-148.041188,0.000000
3703.249782,-9104.533087,-148.041188,-306.438199
3703.250112,-8808.450710,-740.205942,-306.438199
3703.250442,-10732.986159,-592.164754,612.876398
3703.250772,-9918.759623,-296.082377,1072.533697
3703.251102,-8734.430116,-222.061783,919.314598
3703.251432,-7994.224174,666.185348,383.047749
3703.251762,-10362.883188,666.185348,459.657299
3703.252092,-12287.418637,1406.391290,919.314598
3703.252422,-10658.965565,222.061783,536.266849
3703.252751,-8956.491898,0.000000,-459.657299
3703.253081,-9104.533087,0.000000,153.219100
3703.253411,-10732.986159,222.061783,1378.971896
3703.253741,-9770.718434,148.041188,842.705048
3703.254071,-8512.368333,-370.102971,0.000000
3703.254401,-8068.244768,518.144159,0.000000
3703.254731,-10362.883188,814.226536,842.705048
3703.255061,-12213.398043,888.247130,1302.362347
3703.255391,-10362.883188,0.000000,1302.362347
3703.255721,-9178.553681,-740.205942,536.266849
3703.256050,-8438.347739,-666.185348,306.438199
3703.256380,-10214.842000,-518.144159,842.705048
3703.256710,-9326.594869,148.041188,1608.800546
3703.257040,-8364.327145,-370.102971,842.705048
3703.257370,-8290.306550,370.102971,612.876398
3703.257700,-10362.883188,888.247130,995.924147
3703.258030,-12657.521608,1258.350101,689.485948
3703.258360,-11621.233289,814.226536,536.266849
3703.258690,-9992.780217,0.000000,-536.266849
3703.259019,-8882.471304,0.000000,306.438199
3703.259349,-10436.903782,0.000000,612.876398
3703.259679,-10510.924376,370.102971,919.314598
3703.260009,-8956.491898,-222.061783,76.609550
3703.260339,-7772.162391,666.185348,-766.095498
3703.260669,-9252.574275,518.144159,-459.657299
3703.260999,-12213.398043,1110.308913,0.000000
3703.261329,-11325.150913,444.123565,-383.047749
3703.261659,-9770.718434,-296.082377,-995.924147
3703.261988,-7698.141797,-444.123565,-1532.190996
3703.262318,-10066.800811,-962.267725,-536.266849
3703.262648,-10658.965565,-814.226536,459.657299
3703.262978,-8956.491898,-1110.308913,1149.143247
3703.263308,-7920.203579,0.000000,229.828649
3703.263638,-9030.512492,74.020594,0.000000
3703.263968,-11547.212695,74.020594,0.000000
3703.264298,-10584.944971,296.082377,153.219100
3703.264628,-8808.450710,-370.102971,-306.438199
3703.264957,-9252.574275,0.000000,-766.095498
3703.265287,-10658.965565,-370.102971,0.000000
3703.265617,-10807.006753,-148.041188,689.485948
3703.265947,-8290.306550,-370.102971,0.000000
3703.266277,-7402.059420,-666.185348,-459.657299
3703.266607,-8586.388927,0.000000,0.000000
3703.266937,-11251.130318,-148.041188,995.924147
3703.267267,-11103.089130,814.226536,1762.019645
3703.267597,-10214.842000,0.000000,1685.410096
3703.267926,-9400.615463,222.061783,383.047749
3703.268256,-10288.862594,-222.061783,459.657299
3703.268586,-11177.109724,222.061783,1149.143247
3703.268916,-9252.574275,0.000000,383.047749
3703.269246,-8142.265362,-222.061783,-306.438199
3703.269576,-8586.388927,74.020594,76.609550
3703.269906,-10807.006753,222.061783,612.876398
3703.270236,-11029.068536,888.247130,1225.752797
3703.270566,-9104.533087,-222.061783,306.438199
3703.270895,-8808.450710,296.082377,-76.609550
3703.271225,-9918.759623,0.000000,689.485948
3703.271555,-11399.171507,-296.082377,1838.629195
3703.271885,-10362.883188,0.000000,2604.724693
3703.272215,-8808.450710,0.000000,1532.190996
3703.272545,-8660.409521,296.082377,919.314598
3703.272875,-10362.883188,74.020594,229.828649
3703.273205,-11029.068536,1036.288319,995.924147
3703.273535,-9918.759623,296.082377,0.000000
3703.273864,-9400.615463,370.102971,-383.047749
3703.274194,-9474.636058,0.000000,-383.047749
3703.274524,-10732.986159,148.041188,0.000000
3703.274854,-9474.636058,74.020594,306.438199
3703.275184,-8808.450710,-444.123565,0.000000
3703.275514,-8734.430116,444.123565,0.000000
3703.275844,-10436.903782,222.061783,612.876398
3703.276174,-11547.212695,888.247130,0.000000
3703.276504,-10066.800811,296.082377,0.000000
3703.276833,-9696.697840,222.061783,-689.485948
3703.277163,-10288.862594,-296.082377,-383.047749
3703.277493,-11251.130318,-74.020594,0.000000
3703.277823,-9696.697840,-666.185348,383.047749
3703.278153,-8364.327145,-1332.370696,-459.657299
3703.278483,-7402.059420,-444.123565,-383.047749
3703.278813,-9326.594869,0.000000,0.000000
3703.279143,-10807.006753,666.185348,153.219100
3703.279473,-9696.697840,148.041188,-842.705048
3703.279802,-9844.739029,0.000000,-1302.362347
3703.280132,-9992.780217,-222.061783,-1302.362347
3703.280462,-11695.253884,-962.267725,229.828649
3703.280792,-9992.780217,-740.205942,1455.581446
3703.281122,-8882.471304,-1184.329507,612.876398
3703.281452,-7624.121203,-740.205942,383.047749
3703.281782,-8438.347739,-592.164754,229.828649
3703.282112,-10510.924376,222.061783,689.485948
3703.282442,-10288.862594,592.164754,536.266849
3703.282771,-10066.800811,370.102971,-459.657299
3703.283101,-10066.800811,222.061783,-612.876398
3703.283431,-11177.109724,-444.123565,-229.828649
3703.283761,-10732.986159,-370.102971,536.266849
3703.284091,-8660.409521,-1184.329507,229.828649
3703.284421,-7328.038826,-518.144159,306.438199
3703.284751,-8734.430116,0.000000,766.095498
3703.285081,-10881.027347,0.000000,1532.190996
3703.285411,-10955.047942,592.164754,1225.752797
3703.285740,-10214.842000,0.000000,689.485948
3703.286070,-9400.615463,296.082377,306.438199
3703.286400,-10584.944971,0.000000,689.485948
3703.286730,-10362.883188,296.082377,689.485948
3703.287060,-8956.491898,-222.061783,536.266849
3703.287390,-8512.368333,296.082377,0.000000
3703.287720,-9474.636058,592.164754,383.047749
3703.288050,-11991.336260,740.205942,1149.143247
3703.288380,-10584.944971,666.185348,766.095498
3703.288709,-8956.491898,-518.144159,0.000000
3703.289039,-8660.409521,148.041188,-229.828649
3703.289369,-10732.986159,-296.082377,919.314598
3703.289699,-11251.130318,74.020594,1762.019645
3703.290029,-9474.636058,0.000000,919.314598
3703.290359,-8586.388927,0.000000,76.609550
3703.290689,-9030.512492,518.144159,-612.876398
3703.291019,-11621.233289,444.123565,153.219100
3703.291349,-11177.109724,518.144159,229.828649
3703.291678,-9770.718434,0.000000,-153.219100
3703.292008,-9030.512492,444.123565,-919.314598
3703.292338,-10140.821405,-148.041188,-612.876398
3703.292668,-10955.047942,-148.041188,153.219100
3703.292998,-9252.574275,-740.205942,306.438199
3703.293328,-7920.203579,-592.164754,-153.219100
3703.293658,-8364.327145,0.000000,229.828649
3703.293988,-10881.027347,74.020594,995.924147
3703.294318,-10881.027347,518.144159,995.924147
3703.294647,-9622.677246,0.000000,-306.438199
3703.294977,-8734.430116,148.041188,-1608.800546
3703.295307,-10140.821405,-296.082377,-383.047749
3703.295637,-11103.089130,0.000000,459.657299
3703.295967,-8956.491898,-592.164754,689.485948
3703.296297,-7624.121203,-74.020594,-229.828649
3703.296627,-7846.182985,592.164754,0.000000
3703.296957,-10955.047942,592.164754,689.485948
3703.297287,-11029.068536,1554.432478,766.095498
3703.297616,-9622.677246,888.247130,153.219100
3703.297946,-9326.594869,962.267725,-919.314598
3703.298276,-10066.800811,444.123565,-1149.143247
3703.298606,-11621.233289,148.041188,153.219100
3703.298936,-9918.759623,296.082377,689.485948
3703.299266,-8438.347739,-296.082377,153.219100
3703.299596,-8142.265362,740.205942,1072.533697
3703.299926,-9992.780217,814.226536,1608.800546
3703.300256,-11177.109724,1332.370696,1685.410096
3703.300586,-9770.718434,148.041188,842.705048
3703.300915,-10066.800811,518.144159,-153.219100
3703.301245,-10362.883188,148.041188,0.000000
3703.301575,-11103.089130,-222.061783,919.314598
3703.301905,-9252.574275,-370.102971,1532.190996
3703.302235,-7698.141797,-962.267725,842.705048
3703.302565,-7772.162391,-296.082377,689.485948
3703.302895,-9474.636058,0.000000,995.924147
3703.303225,-11103.089130,1110.308913,1685.410096
3703.303555,-10288.862594,444.123565,1915.238745
3703.303884,-9696.697840,444.123565,306.438199
3703.304214,-10214.842000,444.123565,-383.047749
3703.304544,-11769.274478,0.000000,76.609550
3703.304874,-10140.821405,74.020594,459.657299
3703.305204,-9178.553681,-666.185348,0.000000
3703.305534,-8290.306550,148.041188,-919.314598
3703.305864,-9030.512492,0.000000,-153.219100
3703.306194,-10288.862594,666.185348,0.000000
3703.306524,-9400.615463,148.041188,-306.438199
3703.306853,-9326.594869,0.000000,-1225.752797
3703.307183,-9696.697840,0.000000,-995.924147
3703.307513,-11473.192101,-592.164754,-153.219100
3703.307843,-10658.965565,-370.102971,306.438199
3703.308173,-8956.491898,-1332.370696,0.000000
3703.308503,-8142.265362,-518.144159,0.000000
3703.308833,-8956.491898,-592.164754,229.828649
3703.309163,-10140.821405,222.061783,689.485948
3703.309493,-9992.780217,0.000000,306.438199
3703.309822,-9844.739029,-222.061783,-612.876398
3703.310152,-9474.636058,0.000000,-1149.143247
3703.310482,-10214.842000,-592.164754,-1149.143247
3703.310812,-10066.800811,-222.061783,229.828649
3703.311142,-8512.368333,-962.267725,536.266849
3703.311472,-8216.285956,-148.041188,306.438199
3703.311802,-8956.491898,-148.041188,383.047749
3703.312132,-11473.192101,0.000000,766.095498
3703.312462,-11103.089130,444.123565,383.047749
3703.312791,-10362.883188,-222.061783,383.047749
3703.313121,-8956.491898,148.041188,229.828649
3703.313451,-10362.883188,0.000000,536.266849
3703.313781,-10510.924376,370.102971,995.924147
3703.314111,-8882.471304,-666.185348,229.828649
3703.314441,-8290.306550,0.000000,-612.876398
3703.314771,-8882.471304,296.082377,-459.657299
3703.315101,-11621.233289,370.102971,1225.752797
3703.315431,-10510.924376,296.082377,1378.971896
3703.315760,-9030.512492,-148.041188,153.219100
3703.316090,-8882.471304,370.102971,153.219100
3703.316420,-10732.986159,-666.185348,689.485948
3703.316750,-11473.192101,0.000000,1532.190996
3703.317080,-9326.594869,-444.123565,1532.190996
3703.317410,-8290.306550,74.020594,1149.143247
3703.317740,-8364.327145,296.082377,1685.410096
3703.318070,-10955.047942,666.185348,1455.581446
3703.318400,-10436.903782,666.185348,766.095498
3703.318729,-9400.615463,592.164754,-766.095498
3703.319059,-9474.636058,1110.308913,-1455.581446
3703.319389,-10584.944971,518.144159,-383.047749
3703.319719,-11621.233289,666.185348,-459.657299
3703.320049,-9622.677246,0.000000,153.219100
3703.320379,-8290.306550,-518.144159,-306.438199
3703.320709,-8512.368333,0.000000,0.000000
3703.321039,-9992.780217,74.020594,919.314598
3703.321369,-10140.821405,740.205942,1225.752797
3703.321698,-9622.677246,666.185348,536.266849
3703.322028,-9918.759623,1258.350101,-842.705048
3703.322358,-10732.986159,296.082377,-1532.190996
3703.322688,-11695.253884,370.102971,-1072.533697
3703.323018,-9770.718434,0.000000,-459.657299
3703.323348,-8438.347739,-370.102971,-995.924147
3703.323678,-7476.080014,74.020594,-919.314598
3703.324008,-9252.574275,-296.082377,76.609550
3703.324338,-10288.862594,888.247130,459.657299
3703.324667,-9474.636058,592.164754,0.000000
3703.324997,-9400.615463,444.123565,-919.314598
3703.325327,-9844.739029,370.102971,-536.266849
3703.325657,-11325.150913,0.000000,689.485948
3703.325987,-9918.759623,0.000000,383.047749
3703.326317,-8438.347739,-740.205942,-306.438199
3703.326647,-7698.141797,0.000000,-383.047749
3703.326977,-9622.677246,74.020594,229.828649
3703.327307,-11473.192101,814.226536,995.924147
3703.327636,-10140.821405,148.041188,459.657299
3703.327966,-9474.636058,-296.082377,-766.095498
3703.328296,-9844.739029,-444.123565,153.219100
3703.328626,-10881.027347,-592.164754,766.095498
3703.328956,-9474.636058,0.000000,842.705048
3703.329286,-7920.203579,-1184.329507,0.000000
3703.329616,-7550.100608,-370.102971,689.485948
3703.329946,-10436.903782,0.000000,1608.800546
3703.330276,-11991.336260,592.164754,1225.752797
3703.330605,-10288.862594,0.000000,1225.752797
3703.330935,-9474.636058,-370.102971,919.314598
3703.331265,-9696.697840,-296.082377,1072.533697
3703.331595,-11621.233289,-888.247130,1378.971896
3703.331925,-10214.842000,-444.123565,1762.019645
3703.332255,-7994.224174,-814.226536,995.924147
3703.332585,-7846.182985,0.000000,612.876398
3703.332915,-9770.718434,74.020594,459.657299
3703.333245,-11843.295072,0.000000,536.266849
3703.333574,-10362.883188,666.185348,0.000000
3703.333904,-9104.533087,0.000000,-1149.143247
3703.334234,-9474.636058,148.041188,-995.924147
3703.334564,-11029.068536,-296.082377,-306.438199
3703.334894,-11177.109724,148.041188,0.000000
3703.335224,-9252.574275,-814.226536,-689.485948
3703.335554,-8882.471304,-296.082377,-1149.143247
3703.335884,-9252.574275,-518.144159,76.609550
3703.336214,-11399.171507,0.000000,1532.190996
3703.336543,-9696.697840,370.102971,1685.410096
3703.336873,-8660.409521,0.000000,0.000000
3703.337203,-8956.491898,518.144159,-1378.971896
3703.337533,-10584.944971,0.000000,-1378.971896
3703.337863,-11769.274478,296.082377,383.047749
3703.338193,-10584.944971,-296.082377,536.266849
3703.338523,-8734.430116,-740.205942,-153.219100
3703.338853,-7994.224174,-740.205942,-842.705048
3703.339183,-9918.759623,-370.102971,-76.609550
3703.339512,-9474.636058,222.061783,76.609550
3703.339842,-8364.327145,-296.082377,-306.438199
3703.340172,-8512.368333,592.164754,229.828649
3703.340502,-10732.986159,444.123565,612.876398
3703.340832,-11843.295072,740.205942,612.876398
3703.341162,-10288.862594,-74.020594,-536.266849
3703.341492,-8660.409521,-518.144159,-1608.800546
3703.341822,-8586.388927,-296.082377,-306.438199
3703.342152,-10881.027347,-148.041188,1762.019645
3703.342482,-9844.739029,444.123565,2528.115143
3703.342811,-7994.224174,0.000000,919.314598
3703.343141,-7476.080014,666.185348,-383.047749
3703.343471,-10140.821405,0.000000,-459.657299
3703.343801,-12139.377449,740.205942,536.266849
3703.344131,-10288.862594,370.102971,842.705048
3703.344461,-8290.306550,-222.061783,536.266849
3703.344791,-8290.306550,74.020594,536.266849
3703.345120,-10436.903782,0.000000,919.314598
3703.345450,-11177.109724,962.267725,1072.533697
3703.345780,-9326.594869,370.102971,612.876398
3703.346110,-8956.491898,888.247130,-306.438199
3703.346440,-9992.780217,592.164754,995.924147
3703.346769,-11473.192101,888.247130,1072.533697
3703.347099,-10140.821405,666.185348,919.314598
3703.347429,-8882.471304,148.041188,-153.219100
3703.347759,-8882.471304,666.185348,0.000000
3703.348088,-10436.903782,0.000000,306.438199
3703.348418,-10807.006753,740.205942,995.924147
3703.348748,-8956.491898,370.102971,536.266849
3703.349078,-9400.615463,740.205942,0.000000
3703.349407,-10066.800811,0.000000,0.000000
3703.349737,-11769.274478,296.082377,306.438199
3703.350067,-10066.800811,0.000000,842.705048
3703.350397,-9326.594869,-814.226536,689.485948
3703.350727,-8364.327145,74.020594,153.219100
3703.351056,-10140.821405,0.000000,689.485948
3703.351386,-10881.027347,518.144159,306.438199
3703.351716,-9770.718434,74.020594,536.266849
3703.352046,-9548.656652,222.061783,-383.047749
3703.352375,-9696.697840,74.020594,-612.876398
3703.352705,-10881.027347,-222.061783,-229.828649
3703.353035,-9992.780217,-222.061783,536.266849
3703.353365,-9104.533087,-592.164754,-689.485948
3703.353695,-8142.265362,-444.123565,-612.876398
3703.354024,-9918.759623,148.041188,153.219100
3703.354354,-10732.986159,518.144159,766.095498
3703.354684,-9178.553681,370.102971,766.095498
3703.355014,-8660.409521,0.000000,-612.876398
3703.355343,-9770.718434,148.041188,-229.828649
3703.355673,-11991.336260,296.082377,459.657299
3703.356003,-11029.068536,0.000000,612.876398
3703.356333,-8586.388927,-888.247130,-612.876398
3703.356663,-7698.141797,-518.144159,-612.876398
3703.356992,-9474.636058,74.020594,229.828649
3703.357322,-10881.027347,0.000000,1149.143247
3703.357652,-9104.533087,370.102971,459.657299
3703.357982,-8438.347739,222.061783,76.609550
3703.358311,-9918.759623,740.205942,766.095498
3703.358641,-11769.274478,296.082377,1149.143247
3703.358971,-11103.089130,296.082377,1149.143247
3703.359301,-8956.491898,-444.123565,536.266849
3703.359631,-8068.244768,0.000000,0.000000
3703.359960,-9178.553681,0.000000,306.438199
3703.360290,-10807.006753,0.000000,995.924147
3703.360620,-9622.677246,518.144159,1225.752797
3703.360950,-8734.430116,-74.020594,689.485948
3703.361279,-8882.471304,444.123565,153.219100
3703.361609,-10288.862594,296.082377,536.266849
3703.361939,-10881.027347,148.041188,1455.581446
3703.362269,-9770.718434,-296.082377,1149.143247
3703.362599,-9252.574275,370.102971,229.828649
3703.362928,-9696.697840,74.020594,536.266849
3703.363258,-11473.192101,444.123565,383.047749
3703.363588,-10288.862594,148.041188,383.047749
3703.363918,-8808.450710,-444.123565,0.000000
3703.364247,-8882.471304,222.061783,-306.438199
3703.364577,-10362.883188,-518.144159,0.000000
3703.364907,-11029.068536,296.082377,536.266849
3703.365237,-9622.677246,0.000000,0.000000
3703.365567,-8734.430116,-370.102971,-919.314598
3703.365896,-9548.656652,148.041188,-995.924147
3703.366226,-11325.150913,148.041188,-306.438199
3703.366556,-11325.150913,518.144159,0.000000
3703.366886,-9252.574275,-370.102971,-995.924147
3703.367215,-8882.471304,0.000000,-1838.629195
3703.367545,-10214.842000,-518.144159,-612.876398
3703.367875,-11177.109724,0.000000,383.047749
3703.368205,-9548.656652,-222.061783,-459.657299
3703.368535,-8142.265362,-888.247130,-1455.581446
3703.368864,-9252.574275,-148.041188,-842.705048
3703.369194,-11029.068536,-296.082377,0.000000
3703.369524,-10066.800811,222.061783,689.485948
3703.369854,-8438.347739,-518.144159,612.876398
3703.370183,-8734.430116,296.082377,76.609550
3703.370513,-9918.759623,0.000000,383.047749
3703.370843,-11177.109724,0.000000,383.047749
3703.371173,-10140.821405,222.061783,612.876398
3703.371503,-9400.615463,-740.205942,306.438199
3703.371832,-9030.512492,0.000000,689.485948
3703.372162,-9918.759623,-222.061783,919.314598
3703.372492,-9474.636058,148.041188,459.657299
3703.372822,-8290.306550,74.020594,612.876398
3703.373151,-9178.553681,518.144159,229.828649
3703.373481,-10288.862594,444.123565,536.266849
3703.373811,-10807.006753,518.144159,1302.362347
3703.374141,-10214.842000,814.226536,1378.971896
3703.374471,-9252.574275,0.000000,153.219100
3703.374800,-9178.553681,148.041188,0.000000
3703.375130,-10066.800811,-296.082377,612.876398
3703.375460,-10510.924376,444.123565,1378.971896
3703.375790,-9030.512492,0.000000,1991.848295
3703.376119,-9104.533087,518.144159,1685.410096
3703.376449,-9992.780217,444.123565,1838.629195
3703.376779,-11399.171507,518.144159,1608.800546
3703.377109,-10436.903782,814.226536,536.266849
3703.377439,-9252.574275,-296.082377,0.000000
3703.377768,-9326.594869,444.123565,689.485948
3703.378098,-10362.883188,740.205942,919.314598
3703.378428,-10955.047942,888.247130,0.000000
3703.378758,-9474.636058,222.061783,-689.485948
3703.379087,-9030.512492,222.061783,-1608.800546
3703.379417,-9622.677246,148.041188,-1149.143247
3703.379747,-10955.047942,0.000000,76.609550
3703.380077,-10066.800811,296.082377,383.047749
3703.380407,-8438.347739,-518.144159,-306.438199
3703.380736,-8808.450710,222.061783,-766.095498
3703.381066,-10584.944971,-148.041188,-459.657299
3703.381396,-11769.274478,-370.102971,-76.609550
3703.381726,-9844.739029,-296.082377,689.485948
3703.382055,-9030.512492,0.000000,0.000000
3703.382385,-9400.615463,296.082377,0.000000
3703.382715,-10510.924376,370.102971,-689.485948
3703.383045,-10436.903782,148.041188,-766.095498
3703.383375,-9178.553681,-370.102971,-1608.800546
3703.383704,-9030.512492,-370.102971,-1685.410096
3703.384034,-9548.656652,-370.102971,-459.657299
3703.384364,-10436.903782,-222.061783,0.000000
3703.384694,-8734.430116,-518.144159,76.609550
3703.385023,-8290.306550,-444.123565,-76.609550
3703.385353,-9326.594869,148.041188,689.485948
3703.385683,-10807.006753,0.000000,1532.190996
3703.386013,-11399.171507,740.205942,1762.019645
3703.386342,-9770.718434,-370.102971,459.657299
3703.386672,-9400.615463,-740.205942,-229.828649
3703.387002,-9030.512492,0.000000,153.219100
3703.387332,-10955.047942,-444.123565,995.924147
3703.387662,-9992.780217,0.000000,1149.143247
3703.387991,-7920.203579,-592.164754,536.266849
3703.388321,-8290.306550,222.061783,0.000000
3703.388651,-10066.800811,370.102971,766.095498
3703.388981,-12139.377449,1110.308913,1225.752797
3703.389310,-10881.027347,370.102971,536.266849
3703.389640,-9030.512492,0.000000,-459.657299
3703.389970,-9178.553681,74.020594,0.000000
3703.390300,-10955.047942,-296.082377,1072.533697
3703.390630,-10214.842000,148.041188,1149.143247
3703.390959,-8290.306550,-740.205942,689.485948
3703.391289,-7402.059420,296.082377,76.609550
3703.391619,-10066.800811,148.041188,1378.971896
3703.391949,-11843.295072,888.247130,1915.238745
3703.392278,-9770.718434,370.102971,919.314598
3703.392608,-8068.244768,296.082377,153.219100
3703.392938,-8808.450710,370.102971,306.438199
3703.393268,-11325.150913,296.082377,1072.533697
3703.393598,-11399.171507,1036.288319,612.876398
3703.393927,-9696.697840,148.041188,-459.657299
3703.394257,-9918.759623,814.226536,-1455.581446
3703.394587,-9992.780217,74.020594,-306.438199
3703.394917,-10436.903782,518.144159,229.828649
3703.395246,-8808.450710,1036.288319,153.219100
3703.395576,-7920.203579,592.164754,-383.047749
3703.395906,-9548.656652,962.267725,0.000000
3703.396236,-11769.274478,518.144159,0.000000
3703.396566,-12435.459826,888.247130,0.000000
3703.396895,-10066.800811,-222.061783,-306.438199
3703.397225,-8956.491898,-296.082377,-536.266849
3703.397555,-9252.574275,-296.082377,-229.828649
3703.397885,-9844.739029,-296.082377,383.047749
3703.398214,-9178.553681,0.000000,919.314598
3703.398544,-8364.327145,-370.102971,-459.657299
3703.398874,-8512.368333,148.041188,-766.095498
3703.399204,-11177.109724,74.020594,-383.047749
3703.399534,-11473.192101,0.000000,306.438199
3703.399863,-9178.553681,-1184.329507,-383.047749
3703.400193,-7772.162391,-1036.288319,-995.924147
3703.400523,-8660.409521,-962.267725,-153.219100
3703.400853,-10955.047942,-814.226536,919.314598
3703.401182,-9474.636058,0.000000,1302.362347
3703.401512,-8438.347739,-518.144159,383.047749
3703.401842,-8882.471304,74.020594,-536.266849
3703.402172,-10436.903782,-222.061783,153.219100
3703.402502,-11547.212695,740.205942,1455.581446
3703.402831,-9770.718434,-370.102971,1072.533697
3703.403161,-8734.430116,-666.185348,-612.876398
3703.403491,-9104.533087,0.000000,-612.876398
3703.403821,-10807.006753,-222.061783,0.000000
3703.404150,-10807.006753,740.205942,459.657299
3703.404480,-8956.491898,-222.061783,-536.266849
3703.404810,-8660.409521,0.000000,-383.047749
3703.405140,-10214.842000,370.102971,459.657299
3703.405470,-11843.295072,666.185348,1225.752797
3703.405799,-10881.027347,444.123565,1378.971896
3703.406129,-8882.471304,-444.123565,76.609550
3703.406459,-9178.553681,148.041188,383.047749
3703.406789,-10584.944971,-296.082377,1302.362347
3703.407118,-10955.047942,666.185348,2451.505594
3703.407448,-9252.574275,0.000000,1149.143247
3703.407778,-8586.388927,296.082377,306.438199
3703.408108,-10214.842000,518.144159,0.000000
3703.408438,-12287.418637,740.205942,0.000000
3703.408767,-10288.862594,444.123565,0.000000
3703.409097,-8586.388927,0.000000,-536.266849
3703.409427,-8808.450710,74.020594,-536.266849
3703.409757,-10214.842000,-370.102971,-306.438199
3703.410086,-10955.047942,74.020594,383.047749
3703.410416,-8808.450710,-444.123565,689.485948
3703.410746,-8586.388927,0.000000,612.876398
3703.411076,-9548.656652,222.061783,612.876398
3703.411406,-11473.192101,962.267725,995.924147
3703.411735,-10140.821405,296.082377,612.876398
3703.412065,-9030.512492,0.000000,-383.047749
3703.412395,-9252.574275,0.000000,-919.314598
3703.412725,-10510.924376,74.020594,-306.438199
3703.413054,-10510.924376,296.082377,-459.657299
3703.413384,-8512.368333,-444.123565,-689.485948
3703.413714,-7846.182985,-370.102971,-1532.190996
3703.414044,-8216.285956,0.000000,-689.485948
3703.414374,-10658.965565,518.144159,229.828649
3703.414703,-10362.883188,1036.288319,383.047749
3703.415033,-9474.636058,0.000000,0.000000
3703.415363,-9696.697840,740.205942,0.000000
3703.415693,-10732.986159,74.020594,-153.219100
3703.416022,-11547.212695,148.041188,612.876398
3703.416352,-9548.656652,74.020594,612.876398
3703.416682,-8068.244768,-296.082377,-306.438199
3703.417012,-7920.203579,370.102971,229.828649
3703.417342,-10658.965565,888.247130,612.876398
3703.417671,-11843.295072,1406.391290,919.314598
3703.418001,-9622.677246,74.020594,-229.828649
3703.418331,-9030.512492,148.041188,-919.314598
3703.418661,-9622.677246,0.000000,229.828649
3703.418990,-11251.130318,-296.082377,1225.752797
3703.419320,-9696.697840,0.000000,1532.190996
3703.419650,-7772.162391,-666.185348,689.485948
3703.419980,-8068.244768,74.020594,842.705048
3703.420310,-11325.150913,296.082377,1072.533697
3703.420639,-11695.253884,518.144159,1685.410096
3703.420969,-9622.677246,0.000000,1149.143247
3703.421299,-9104.533087,0.000000,689.485948
3703.421629,-10066.800811,-518.144159,612.876398
3703.421958,-11473.192101,-740.205942,1455.581446
3703.422288,-8882.471304,-666.185348,1149.143247
3703.422618,-7624.121203,-740.205942,842.705048
3703.422948,-7994.224174,0.000000,689.485948
3703.423278,-10584.944971,0.000000,612.876398
3703.423607,-11325.150913,666.185348,383.047749
3703.423937,-9770.718434,-296.082377,-383.047749
3703.424267,-9770.718434,-74.020594,-612.876398
3703.424597,-10140.821405,-518.144159,0.000000
3703.424926,-10807.006753,-592.164754,306.438199
3703.425256,-8882.471304,-444.123565,0.000000
3703.425586,-8068.244768,-666.185348,-306.438199
3703.425916,-8290.306550,-222.061783,-1149.143247
3703.426245,-10140.821405,444.123565,-689.485948
3703.426575,-11399.171507,1332.370696,-76.609550
3703.426905,-9844.739029,592.164754,0.000000
3703.427235,-9178.553681,296.082377,-1838.629195
3703.427565,-9844.739029,0.000000,-1685.410096
3703.427894,-11695.253884,0.000000,-766.095498
3703.428224,-10140.821405,-296.082377,766.095498
3703.428554,-9104.533087,-814.226536,306.438199
3703.428884,-8586.388927,-296.082377,-153.219100
3703.429213,-9622.677246,74.020594,-459.657299
3703.429543,-11325.150913,666.185348,153.219100
3703.429873,-10436.903782,518.144159,919.314598
3703.430203,-9400.615463,148.041188,689.485948
3703.430533,-9474.636058,0.000000,766.095498
3703.430862,-11547.212695,-370.102971,995.924147
3703.431192,-10510.924376,0.000000,2145.067394
3703.431522,-9178.553681,-888.247130,536.266849
3703.431852,-8216.285956,-666.185348,459.657299
3703.432181,-9696.697840,-444.123565,1532.190996
3703.432511,-11399.171507,370.102971,2068.457845
3703.432841,-9474.636058,-222.061783,919.314598
3703.433171,-8512.368333,-370.102971,229.828649
3703.433501,-9548.656652,74.020594,153.219100
3703.433830,-11547.212695,-592.164754,995.924147
3703.434160,-10288.862594,-518.144159,842.705048
3703.434490,-7179.997637,-1036.288319,229.828649
3703.434820,-7550.100608,-740.205942,76.609550
3703.435149,-9252.574275,-296.082377,689.485948
3703.435479,-11399.171507,296.082377,1532.190996
3703.435809,-9548.656652,296.082377,229.828649
3703.436139,-9178.553681,148.041188,0.000000
3703.436469,-9992.780217,0.000000,536.266849
3703.436798,-11029.068536,-370.102971,1072.533697
3703.437128,-10584.944971,-444.123565,612.876398
3703.437458,-8216.285956,-888.247130,-306.438199
3703.437788,-7476.080014,-592.164754,-1072.533697
3703.438117,-8438.347739,222.061783,-383.047749
3703.438447,-11029.068536,888.247130,153.219100
3703.438777,-10732.986159,1036.288319,153.219100
3703.439107,-10362.883188,518.144159,-383.047749
3703.439437,-10362.883188,518.144159,-1149.143247
3703.439766,-11547.212695,0.000000,0.000000
3703.440096,-11843.295072,148.041188,612.876398
3703.440426,-9622.677246,0.000000,689.485948
3703.440756,-8068.244768,-222.061783,0.000000
3703.441085,-8364.327145,518.144159,0.000000
3703.441415,-11695.253884,518.144159,383.047749
3703.441745,-11843.295072,1036.288319,229.828649
3703.442075,-9992.780217,296.082377,-612.876398
3703.442405,-9474.636058,444.123565,-1225.752797
3703.442734,-10066.800811,0.000000,-383.047749
3703.443064,-10510.924376,0.000000,459.657299
3703.443394,-8882.471304,0.000000,383.047749
3703.443724,-8586.388927,0.000000,-306.438199
3703.444054,-9622.677246,740.205942,0.000000
3703.444383,-11399.171507,592.164754,1072.533697
3703.444713,-11029.068536,962.267725,766.095498
3703.445043,-9400.615463,592.164754,306.438199
3703.445373,-8808.450710,0.000000,-383.047749
3703.445703,-9474.636058,444.123565,0.000000
3703.446033,-10658.965565,370.102971,766.095498
3703.446363,-9252.574275,370.102971,919.314598
3703.446692,-8290.306550,148.041188,0.000000
3703.447022,-8586.388927,592.164754,-306.438199
3703.447352,-10214.842000,518.144159,306.438199
3703.447682,-10807.006753,1110.308913,689.485948
3703.448012,-9326.594869,814.226536,766.095498
3703.448342,-8808.450710,592.164754,-306.438199
3703.448672,-9474.636058,370.102971,-612.876398
3703.449001,-10658.965565,222.061783,0.000000
3703.449331,-9918.759623,666.185348,536.266849
3703.449661,-8364.327145,-592.164754,306.438199
3703.449991,-7994.224174,518.144159,383.047749
3703.450321,-9252.574275,296.082377,536.266849
3703.450651,-10807.006753,1406.391290,612.876398
3703.450981,-9992.780217,740.205942,766.095498
3703.451311,-10066.800811,592.164754,-536.266849
3703.451640,-10436.903782,814.226536,-766.095498
3703.451970,-11325.150913,0.000000,689.485948
3703.452300,-10140.821405,0.000000,1225.752797
3703.452630,-8586.388927,-592.164754,459.657299
3703.452960,-8290.306550,-148.041188,689.485948
3703.453290,-9474.636058,0.000000,229.828649
3703.453620,-11251.130318,740.205942,536.266849
3703.453949,-10066.800811,222.061783,842.705048
3703.454279,-9918.759623,0.000000,-536.266849
3703.454609,-10362.883188,-370.102971,-306.438199
3703.454939,-11695.253884,-666.185348,0.000000
3703.455269,-10140.821405,-296.082377,0.000000
3703.455599,-8956.491898,-1110.308913,-383.047749
3703.455929,-8068.244768,-740.205942,0.000000
3703.456258,-9104.533087,-814.226536,919.314598
3703.456588,-11177.109724,0.000000,1455.581446
3703.456918,-9918.759623,-370.102971,383.047749
3703.457248,-9326.594869,-740.205942,-995.924147
3703.457578,-9548.656652,-518.144159,-1072.533697
3703.457908,-10955.047942,-1110.308913,0.000000
3703.458238,-10732.986159,-1554.432478,689.485948
3703.458567,-8956.491898,-1850.514855,229.828649
3703.458897,-8364.327145,-1480.411884,229.828649
3703.459227,-8808.450710,-1110.308913,766.095498
3703.459557,-10955.047942,-592.164754,306.438199
3703.459887,-10214.842000,-444.123565,459.657299
3703.460217,-9178.553681,-740.205942,-306.438199
3703.460547,-9252.574275,-222.061783,-229.828649
3703.460876,-10510.924376,-518.144159,-766.095498
3703.461206,-10807.006753,-148.041188,459.657299
3703.461536,-8734.430116,-814.226536,-306.438199
3703.461866,-7698.141797,-666.185348,-766.095498
3703.462196,-8290.306550,-370.102971,459.657299
3703.462526,-11103.089130,148.041188,1532.190996
3703.462856,-11547.212695,1036.288319,1532.190996
3703.463185,-10066.800811,74.020594,229.828649
3703.463515,-10140.821405,814.226536,-766.095498
3703.463845,-10584.944971,0.000000,-612.876398
3703.464175,-10955.047942,222.061783,612.876398
3703.464505,-8808.450710,0.000000,766.095498
3703.464835,-8068.244768,-74.020594,612.876398
3703.465165,-8068.244768,222.061783,536.266849
3703.465494,-11399.171507,740.205942,1072.533697
3703.465824,-11325.150913,1036.288319,919.314598
3703.466154,-9696.697840,222.061783,76.609550
3703.466484,-8956.491898,666.185348,306.438199
3703.466814,-9918.759623,296.082377,1149.143247
3703.467144,-11843.295072,518.144159,1762.019645
3703.467474,-10066.800811,444.123565,1072.533697
3703.467803,-8660.409521,-148.041188,-383.047749
3703.468133,-7994.224174,0.000000,0.000000
3703.468463,-10066.800811,740.205942,766.095498
3703.468793,-10066.800811,1184.329507,1455.581446
3703.469123,-8956.491898,666.185348,306.438199
3703.469453,-8808.450710,1110.308913,-1532.190996
3703.469783,-10066.800811,666.185348,-1302.362347
3703.470112,-12213.398043,666.185348,-536.266849
3703.470442,-10362.883188,444.123565,-229.828649
3703.470772,-8586.388927,-222.061783,-383.047749
3703.471102,-8290.306550,0.000000,0.000000
3703.471432,-9474.636058,0.000000,383.047749
3703.471762,-10288.862594,740.205942,536.266849
3703.472092,-9326.594869,296.082377,-76.609550
3703.472421,-8660.409521,1036.288319,-1225.752797
3703.472751,-9844.739029,370.102971,-1149.143247
3703.473081,-11399.171507,592.164754,-612.876398
3703.473411,-9918.759623,0.000000,-383.047749
3703.473741,-9030.512492,-444.123565,-1378.971896
3703.474071,-8216.285956,-222.061783,-612.876398
3703.474401,-9622.677246,-592.164754,383.047749
3703.474730,-10732.986159,444.123565,995.924147
3703.475060,-9400.615463,296.082377,1302.362347
3703.475390,-9474.636058,444.123565,76.609550
3703.475720,-9770.718434,296.082377,383.047749
3703.476050,-11695.253884,222.061783,1072.533697
3703.476380,-10732.986159,740.205942,1378.971896
3703.476710,-9252.574275,-222.061783,0.000000
3703.477039,-8956.491898,148.041188,0.000000
3703.477369,-9696.697840,0.000000,-153.219100
3703.477699,-11473.192101,592.164754,919.314598
3703.478029,-9770.718434,518.144159,383.047749
3703.478359,-9326.594869,148.041188,536.266849
3703.478689,-9696.697840,296.082377,1072.533697
3703.479019,-11547.212695,0.000000,1302.362347
3703.479349,-11177.109724,370.102971,459.657299
3703.479678,-8882.471304,-1036.288319,1225.752797
3703.480008,-8216.285956,-592.164754,1072.533697
3703.480338,-9474.636058,-592.164754,1762.019645
3703.480668,-11251.130318,74.020594,2068.457845
3703.480998,-9844.739029,0.000000,1072.533697
3703.481328,-8364.327145,-518.144159,-306.438199
3703.481658,-8660.409521,-444.123565,0.000000
3703.481987,-10881.027347,-592.164754,1378.971896
3703.482317,-11103.089130,0.000000,1838.629195
3703.482647,-8512.368333,-962.267725,689.485948
3703.482977,-7994.224174,-814.226536,-153.219100
3703.483307,-8956.491898,-518.144159,-76.609550
3703.483637,-10955.047942,-222.061783,459.657299
3703.483967,-9844.739029,296.082377,1225.752797
3703.484296,-8734.430116,0.000000,76.609550
3703.484626,-9104.533087,444.123565,-536.266849
3703.484956,-10658.965565,0.000000,-612.876398
3703.485286,-11769.274478,814.226536,-766.095498
3703.485616,-9474.636058,296.082377,-1072.533697
3703.485946,-8512.368333,0.000000,-1685.410096
3703.486276,-9030.512492,0.000000,-766.095498
3703.486605,-11399.171507,74.020594,-306.438199
3703.486935,-10362.883188,148.041188,0.000000
3703.487265,-8734.430116,-814.226536,-919.314598
3703.487595,-8512.368333,0.000000,-1072.533697
3703.487925,-10140.821405,370.102971,-229.828649
3703.488255,-10732.986159,296.082377,612.876398
3703.488585,-9030.512492,148.041188,0.000000
3703.488914,-9326.594869,74.020594,-995.924147
3703.489244,-9918.759623,74.020594,-1762.019645
3703.489574,-11769.274478,-296.082377,-76.609550
3703.489904,-10362.883188,0.000000,0.000000
3703.490234,-7994.224174,-888.247130,-306.438199
3703.490564,-8364.327145,0.000000,-536.266849
3703.490894,-9770.718434,-148.041188,-689.485948
3703.491223,-11473.192101,74.020594,536.266849
3703.491553,-9400.615463,0.000000,0.000000
3703.491883,-8882.471304,-74.020594,-689.485948
3703.492213,-9474.636058,296.082377,76.609550
3703.492543,-11621.233289,0.000000,1302.362347
3703.492873,-11029.068536,296.082377,1762.019645
3703.493203,-8364.327145,-592.164754,306.438199
3703.493532,-8290.306550,444.123565,-842.705048
3703.493862,-10066.800811,148.041188,229.828649
3703.494192,-12065.356855,518.144159,919.314598
3703.494522,-10066.800811,370.102971,919.314598
3703.494852,-9104.533087,-592.164754,153.219100
3703.495182,-8512.368333,0.000000,0.000000
3703.495512,-9770.718434,-518.144159,383.047749
3703.495841,-10288.862594,370.102971,1072.533697
3703.496171,-8068.244768,-740.205942,1378.971896
3703.496501,-8290.306550,370.102971,0.000000
3703.496831,-9696.697840,0.000000,1072.533697
3703.497161,-11769.274478,148.041188,1685.410096
3703.497491,-10510.924376,592.164754,1225.752797
3703.497821,-8956.491898,222.061783,536.266849
3703.498150,-8512.368333,0.000000,383.047749
3703.498480,-9844.739029,74.020594,995.924147
3703.498810,-10881.027347,592.164754,919.314598
3703.499140,-9252.574275,74.020594,383.047749
3703.499470,-8882.471304,296.082377,-536.266849
3703.499800,-9474.636058,444.123565,0.000000
3703.500130,-11325.150913,592.164754,612.876398
3703.500459,-10658.965565,962.267725,995.924147
3703.500789,-9252.574275,148.041188,0.000000
3703.501119,-9400.615463,592.164754,-536.266849
3703.501449,-10584.944971,296.082377,153.219100
3703.501779,-11843.295072,888.247130,766.095498
3703.502109,-9030.512492,148.041188,76.609550
3703.502439,-8290.306550,0.000000,-842.705048
3703.502768,-8734.430116,296.082377,-689.485948
3703.503098,-10881.027347,0.000000,0.000000
3703.503428,-10362.883188,814.226536,229.828649
3703.503758,-8882.471304,0.000000,-919.314598
3703.504088,-8660.409521,0.000000,-689.485948
3703.504418,-9770.718434,0.000000,-153.219100
3703.504748,-11917.315666,222.061783,612.876398
3703.505077,-9770.718434,0.000000,383.047749
3703.505407,-8364.327145,-666.185348,-229.828649
3703.505737,-8512.368333,0.000000,-842.705048
3703.506067,-10807.006753,-222.061783,0.000000
3703.506397,-11029.068536,814.226536,153.219100
3703.506727,-8660.409521,-148.041188,-153.219100
3703.507057,-8512.368333,-148.041188,-689.485948
3703.507386,-9252.574275,-444.123565,0.000000
3703.507716,-11695.253884,148.041188,842.705048
3703.508046,-9474.636058,0.000000,459.657299
3703.508376,-8734.430116,-518.144159,0.000000
3703.508706,-9178.553681,74.020594,-459.657299
3703.509036,-11029.068536,-592.164754,689.485948
3703.509366,-11029.068536,222.061783,1532.190996
3703.509696,-9252.574275,-592.164754,1149.143247
3703.510025,-8734.430116,0.000000,306.438199
3703.510355,-9030.512492,-370.102971,153.219100
3703.510685,-10955.047942,148.041188,306.438199
3703.511015,-9844.739029,-222.061783,459.657299
3703.511345,-9326.594869,-370.102971,1149.143247
3703.511675,-9992.780217,148.041188,689.485948
3703.512005,-10658.965565,-222.061783,766.095498
3703.512334,-10658.965565,296.082377,1225.752797
3703.512664,-8586.388927,-444.123565,536.266849
3703.512994,-9474.636058,0.000000,0.000000
3703.513324,-10436.903782,0.000000,459.657299
3703.513654,-12065.356855,222.061783,1225.752797
3703.513984,-10510.924376,370.102971,1608.800546
3703.514314,-8882.471304,-444.123565,459.657299
3703.514643,-9326.594869,74.020594,-842.705048
3703.514973,-10066.800811,-296.082377,-919.314598
3703.515303,-9992.780217,0.000000,229.828649
3703.515633,-9104.533087,-296.082377,766.095498
3703.515963,-9770.718434,444.123565,383.047749
3703.516293,-10066.800811,370.102971,-766.095498
3703.516623,-11029.068536,0.000000,153.219100
3703.516952,-9844.739029,0.000000,0.000000
3703.517282,-9178.553681,-1036.288319,-383.047749
3703.517612,-9104.533087,0.000000,306.438199
3703.517942,-9104.533087,-666.185348,306.438199
3703.518272,-9844.739029,0.000000,842.705048
3703.518602,-8882.471304,0.000000,-153.219100
3703.518932,-9326.594869,-296.082377,-1532.190996
3703.519261,-9178.553681,370.102971,-919.314598
3703.519591,-10214.842000,148.041188,-383.047749
3703.519921,-10881.027347,740.205942,612.876398
3703.520251,-9548.656652,148.041188,0.000000
3703.520581,-9178.553681,518.144159,-306.438199
3703.520911,-9622.677246,0.000000,-689.485948
3703.521241,-10732.986159,592.164754,0.000000
3703.521570,-9622.677246,592.164754,76.609550
3703.521900,-8882.471304,148.041188,0.000000
3703.522230,-9326.594869,518.144159,383.047749
3703.522560,-10214.842000,0.000000,995.924147
3703.522890,-11177.109724,888.247130,689.485948
3703.523220,-9474.636058,296.082377,383.047749
3703.523550,-8586.388927,518.144159,0.000000
3703.523879,-8734.430116,666.185348,842.705048
3703.524209,-11177.109724,592.164754,1149.143247
3703.524539,-10955.047942,1406.391290,1149.143247
3703.524869,-9548.656652,-296.082377,-459.657299
3703.525199,-9474.636058,518.144159,-689.485948
3703.525529,-10362.883188,370.102971,383.047749
3703.525859,-11843.295072,444.123565,1072.533697
3703.526188,-8956.491898,-444.123565,995.924147
3703.526518,-7698.141797,-444.123565,536.266849
3703.526848,-7846.182985,222.061783,766.095498
3703.527178,-10584.944971,0.000000,2068.457845
3703.527508,-10955.047942,518.144159,2145.067394
3703.527838,-9622.677246,74.020594,1072.533697
3703.528168,-9992.780217,518.144159,459.657299
3703.528497,-10732.986159,148.041188,306.438199
3703.528827,-11473.192101,74.020594,306.438199
3703.529157,-8956.491898,518.144159,0.000000
3703.529487,-8142.265362,-296.082377,-612.876398
3703.529817,-7920.203579,148.041188,-306.438199
3703.530147,-9918.759623,74.020594,-306.438199
3703.530477,-10362.883188,1184.329507,76.609550
3703.530806,-9252.574275,0.000000,-689.485948
3703.531136,-9548.656652,148.041188,-766.095498
3703.531466,-10066.800811,-222.061783,0.000000
3703.531796,-11843.295072,-222.061783,1072.533697
3703.532126,-10066.800811,-296.082377,459.657299
3703.532456,-9400.615463,-666.185348,153.219100
3703.532786,-9474.636058,370.102971,-306.438199
3703.533115,-10658.965565,-222.061783,76.609550
3703.533445,-11103.089130,592.164754,536.266849
3703.533775,-9326.594869,-222.061783,-306.438199
3703.534105,-8882.471304,0.000000,-1532.190996
3703.534435,-8586.388927,-148.041188,-1608.800546
3703.534765,-10436.903782,-148.041188,-612.876398
3703.535095,-9770.718434,148.041188,-76.609550
3703.535424,-9548.656652,-444.123565,-306.438199
3703.535754,-9474.636058,0.000000,0.000000
3703.536084,-10362.883188,-370.102971,842.705048
3703.536414,-11547.212695,222.061783,1915.238745
3703.536744,-9770.718434,-370.102971,995.924147
3703.537074,-9178.553681,-296.082377,229.828649
3703.537404,-9178.553681,0.000000,229.828649
3703.537734,-10955.047942,0.000000,229.828649
3703.538063,-10362.883188,370.102971,766.095498
3703.538393,-9178.553681,-148.041188,-306.438199
3703.538723,-8660.409521,148.041188,-842.705048
3703.539053,-9400.615463,-444.123565,0.000000
3703.539383,-10881.027347,296.082377,995.924147
3703.539713,-10066.800811,148.041188,1072.533697
3703.540043,-8956.491898,-148.041188,229.828649
3703.540372,-9104.533087,444.123565,306.438199
3703.540702,-11399.171507,74.020594,1455.581446
3703.541032,-11547.212695,296.082377,1455.581446
3703.541362,-8956.491898,-666.185348,383.047749
3703.541692,-8068.244768,-592.164754,76.609550
3703.542022,-8956.491898,-592.164754,1072.533697
3703.542352,-10584.944971,0.000000,1685.410096
3703.542682,-8956.491898,0.000000,1149.143247
3703.543012,-8216.285956,0.000000,0.000000
3703.543342,-8660.409521,592.164754,-459.657299
3703.543672,-11547.212695,296.082377,0.000000
3703.544002,-12805.562797,666.185348,229.828649
3703.544331,-10066.800811,-370.102971,0.000000
3703.544661,-9178.553681,-666.185348,0.000000
3703.544991,-9030.512492,-518.144159,76.609550
3703.545321,-10658.965565,-74.020594,306.438199
3703.545651,-9252.574275,296.082377,689.485948
3703.545980,-8364.327145,-296.082377,306.438199
3703.546310,-9326.594869,888.247130,-536.266849
3703.546640,-11473.192101,444.123565,-995.924147
3703.546970,-11991.336260,666.185348,-919.314598
3703.547300,-9400.615463,-444.123565,-766.095498
