#time,accel_x,accel_y,accel_z
4041.640839,-11103.089130,0.000000,2145.067394
4041.641169,-11547.212695,148.041188,1838.629195
4041.641499,-9622.677246,-888.247130,1455.581446
4041.641828,-8882.471304,-1332.370696,2068.457845
4041.642158,-8660.409521,-1258.350101,2681.334243
4041.642488,-9178.553681,-1480.411884,2834.553343
4041.642817,-9326.594869,-888.247130,1378.971896
4041.643147,-9252.574275,0.000000,0.000000
4041.643477,-9918.759623,444.123565,-536.266849
4041.643807,-10584.944971,592.164754,383.047749
4041.644136,-10658.965565,962.267725,919.314598
4041.644466,-10584.944971,370.102971,1608.800546
4041.644796,-10066.800811,222.061783,919.314598
4041.645126,-9918.759623,0.000000,995.924147
4041.645455,-9622.677246,-814.226536,2221.676944
4041.645785,-10214.842000,-814.226536,2834.553343
4041.646115,-10066.800811,-518.144159,2604.724693
4041.646445,-10140.821405,0.000000,1991.848295
4041.646774,-10510.924376,296.082377,1762.019645
4041.647104,-10732.986159,666.185348,1685.410096
4041.647434,-10214.842000,666.185348,1532.190996
4041.647764,-10436.903782,222.061783,1455.581446
4041.648093,-10066.800811,0.000000,1685.410096
4041.648423,-9770.718434,-814.226536,1915.238745
4041.648753,-9844.739029,-1480.411884,2987.772442
4041.649082,-9548.656652,-2294.638420,3294.210641
4041.649412,-9474.636058,-2590.720797,3064.381992
4041.649742,-9104.533087,-2664.741391,3447.429741
4041.650072,-9474.636058,-2146.597232,3830.477490
4041.650401,-9770.718434,-1850.514855,3524.039291
4041.650731,-10214.842000,-1332.370696,2298.286494
4041.651061,-9474.636058,-1258.350101,1225.752797
4041.651391,-9992.780217,-1628.453072,459.657299
4041.651720,-9252.574275,-2368.659014,3907.087040
4041.652050,-11769.274478,-3775.050304,4903.011187
4041.652380,-10362.883188,-3923.091493,4443.353888
4041.652710,-8808.450710,-4737.318029,3830.477490
4041.653039,-9770.718434,-4811.338623,2451.505594
4041.653369,-8808.450710,-4515.256246,2068.457845
4041.653699,-9326.594869,-3923.091493,2911.162892
4041.654028,-8586.388927,-3330.926739,3447.429741
4041.654358,-9326.594869,-2664.741391,3524.039291
4041.654688,-10658.965565,-2886.803174,3294.210641
4041.655018,-11399.171507,-2960.823768,2987.772442
4041.655347,-11843.295072,-3701.029710,2451.505594
4041.655677,-10584.944971,-4441.235652,1991.848295
4041.656007,-9622.677246,-4811.338623,2221.676944
4041.656337,-9252.574275,-5477.523971,3294.210641
4041.656666,-9622.677246,-5033.400406,3830.477490
4041.656996,-10362.883188,-4959.379811,4136.915689
4041.657326,-9400.615463,-4737.318029,3370.820191
4041.657656,-9104.533087,-4589.276840,2834.553343
4041.657985,-10066.800811,-4071.132681,2987.772442
4041.658315,-11399.171507,-3330.926739,3140.991542
4041.658645,-10510.924376,-3849.070898,2757.943793
4041.658975,-9844.739029,-4145.153275,2451.505594
4041.659304,-9326.594869,-4293.194464,1838.629195
4041.659634,-10288.862594,-4441.235652,2374.896044
4041.659964,-9918.759623,-4811.338623,2374.896044
4041.660293,-9326.594869,-4737.318029,3217.601092
4041.660623,-8438.347739,-5033.400406,4673.182538
4041.660953,-8512.368333,-4219.173869,5669.106685
4041.661283,-9252.574275,-3849.070898,4903.011187
4041.661612,-10584.944971,-2664.741391,1685.410096
4041.661942,-10066.800811,-1924.535449,-383.047749
4041.662272,-10362.883188,-1480.411884,0.000000
4041.662602,-10807.006753,-1406.391290,1455.581446
4041.662931,-10881.027347,-1554.432478,2987.772442
4041.663261,-10288.862594,-1702.473667,3140.991542
4041.663591,-9030.512492,-2072.576638,1532.190996
4041.663921,-8068.244768,-2368.659014,306.438199
4041.664250,-8586.388927,-2294.638420,1072.533697
4041.664580,-9326.594869,-1702.473667,2145.067394
4041.664910,-9400.615463,-1332.370696,3140.991542
4041.665240,-9104.533087,-666.185348,3294.210641
4041.665569,-10732.986159,0.000000,2374.896044
4041.665899,-11251.130318,1036.288319,1455.581446
4041.666229,-11399.171507,888.247130,76.609550
4041.666558,-10732.986159,1628.453072,-766.095498
4041.666888,-10140.821405,1110.308913,0.000000
4041.667218,-9474.636058,1184.329507,383.047749
4041.667548,-9400.615463,888.247130,1225.752797
4041.667877,-9326.594869,1258.350101,612.876398
4041.668207,-8660.409521,1184.329507,-459.657299
4041.668537,-8808.450710,1406.391290,-1378.971896
4041.668867,-9030.512492,1776.494261,-1072.533697
4041.669196,-9770.718434,2146.597232,383.047749
4041.669526,-9844.739029,1998.556043,919.314598
4041.669856,-10288.862594,1776.494261,612.876398
4041.670186,-10732.986159,2294.638420,-76.609550
4041.670515,-10807.006753,2294.638420,-383.047749
4041.670845,-9992.780217,2516.700203,-919.314598
4041.671175,-9474.636058,2368.659014,-1302.362347
4041.671505,-9178.553681,2590.720797,-1072.533697
4041.671835,-9844.739029,2516.700203,-153.219100
4041.672164,-10140.821405,2294.638420,0.000000
4041.672494,-9770.718434,2220.617826,-1455.581446
4041.672824,-9548.656652,1258.350101,-2987.772442
4041.673154,-9474.636058,1184.329507,-3217.601092
4041.673484,-9326.594869,518.144159,-1302.362347
4041.673814,-8882.471304,1036.288319,612.876398
4041.674143,-8882.471304,740.205942,2528.115143
4041.674473,-9548.656652,1184.329507,2221.676944
4041.674803,-10436.903782,1184.329507,612.876398
4041.675133,-10955.047942,1776.494261,-383.047749
4041.675463,-11399.171507,1036.288319,536.266849
4041.675792,-11103.089130,888.247130,1991.848295
4041.676122,-10066.800811,666.185348,2298.286494
4041.676452,-8882.471304,0.000000,229.828649
4041.676782,-8216.285956,0.000000,-1915.238745
4041.677112,-9104.533087,-222.061783,-2987.772442
4041.677441,-9474.636058,-148.041188,-2068.457845
4041.677771,-9548.656652,-444.123565,-229.828649
4041.678101,-8734.430116,0.000000,1532.190996
4041.678431,-9326.594869,0.000000,1685.410096
4041.678761,-10436.903782,0.000000,842.705048
4041.679091,-10584.944971,-518.144159,-1072.533697
4041.679420,-10584.944971,-296.082377,-2221.676944
4041.679750,-10658.965565,-962.267725,689.485948
4041.680080,-10214.842000,-1332.370696,2451.505594
4041.680410,-9918.759623,-1036.288319,2604.724693
4041.680740,-9178.553681,-1036.288319,459.657299
4041.681069,-8882.471304,-1998.556043,-1685.410096
4041.681399,-9178.553681,-1554.432478,-1378.971896
4041.681729,-9474.636058,-1110.308913,459.657299
4041.682059,-9992.780217,-1036.288319,2374.896044
4041.682389,-9696.697840,-1184.329507,2451.505594
4041.682718,-10362.883188,-1036.288319,689.485948
4041.683048,-10510.924376,-1406.391290,-536.266849
4041.683378,-10584.944971,-1850.514855,-383.047749
4041.683708,-10658.965565,-2146.597232,1225.752797
4041.684038,-10510.924376,-1924.535449,3447.429741
4041.684368,-8956.491898,-1924.535449,3217.601092
4041.684697,-8586.388927,-1850.514855,1302.362347
4041.685027,-9104.533087,-1554.432478,-689.485948
4041.685357,-10066.800811,-1554.432478,-536.266849
4041.685687,-10066.800811,-1110.308913,612.876398
4041.686017,-9992.780217,-1110.308913,1991.848295
4041.686346,-9622.677246,-740.205942,2374.896044
4041.686676,-10214.842000,-444.123565,1455.581446
4041.687006,-10288.862594,-1406.391290,-689.485948
4041.687336,-9770.718434,-1036.288319,-919.314598
4041.687666,-9474.636058,-740.205942,153.219100
4041.687995,-9252.574275,-370.102971,1225.752797
4041.688325,-8808.450710,74.020594,1915.238745
4041.688655,-9474.636058,0.000000,612.876398
4041.688985,-9918.759623,0.000000,-1149.143247
4041.689315,-10066.800811,592.164754,-1072.533697
4041.689645,-9992.780217,296.082377,76.609550
4041.689974,-9992.780217,0.000000,1302.362347
4041.690304,-9622.677246,370.102971,1378.971896
4041.690634,-9474.636058,296.082377,153.219100
4041.690964,-9474.636058,740.205942,-1225.752797
4041.691294,-9622.677246,814.226536,-1608.800546
4041.691623,-10066.800811,592.164754,0.000000
4041.691953,-9918.759623,888.247130,1455.581446
4041.692283,-9104.533087,1480.411884,1685.410096
4041.692613,-8660.409521,814.226536,0.000000
4041.692943,-8956.491898,888.247130,-1762.019645
4041.693272,-10214.842000,1480.411884,-1608.800546
4041.693602,-9992.780217,1480.411884,0.000000
4041.693932,-9918.759623,1628.453072,612.876398
4041.694262,-9400.615463,1776.494261,612.876398
4041.694592,-9696.697840,1998.556043,0.000000
4041.694922,-10288.862594,1924.535449,-1302.362347
4041.695251,-10066.800811,1554.432478,-1762.019645
4041.695581,-9918.759623,1258.350101,-842.705048
4041.695911,-9326.594869,1406.391290,153.219100
4041.696241,-9252.574275,1998.556043,612.876398
4041.696571,-9474.636058,1702.473667,0.000000
4041.696900,-9918.759623,1332.370696,-1302.362347
4041.697230,-10214.842000,1628.453072,-1532.190996
4041.697560,-10436.903782,1332.370696,-383.047749
4041.697890,-9992.780217,1628.453072,0.000000
4041.698220,-9622.677246,1258.350101,766.095498
4041.698549,-9548.656652,1036.288319,-306.438199
4041.698879,-9178.553681,740.205942,-1378.971896
4041.699209,-9770.718434,1258.350101,-1378.971896
4041.699539,-10510.924376,962.267725,-306.438199
4041.699869,-10510.924376,814.226536,689.485948
4041.700199,-9400.615463,962.267725,919.314598
4041.700528,-9474.636058,666.185348,0.000000
4041.700858,-9844.739029,444.123565,0.000000
4041.701188,-10510.924376,444.123565,-459.657299
4041.701518,-10436.903782,74.020594,76.609550
4041.701848,-9474.636058,-222.061783,919.314598
4041.702177,-8808.450710,148.041188,766.095498
4041.702507,-9474.636058,-148.041188,536.266849
4041.702837,-9400.615463,-296.082377,-689.485948
4041.703167,-9844.739029,0.000000,-1225.752797
4041.703497,-10066.800811,148.041188,-459.657299
4041.703827,-10214.842000,-148.041188,1455.581446
4041.704156,-9474.636058,-148.041188,1455.581446
4041.704486,-9326.594869,-814.226536,306.438199
4041.704816,-9548.656652,-518.144159,-1072.533697
4041.705146,-9622.677246,-666.185348,-459.657299
4041.705476,-9918.759623,-888.247130,689.485948
4041.705805,-9474.636058,-1036.288319,1685.410096
4041.706135,-9400.615463,-740.205942,2068.457845
4041.706465,-9548.656652,-962.267725,612.876398
4041.706795,-9844.739029,-814.226536,-689.485948
4041.707125,-10140.821405,-888.247130,-766.095498
4041.707454,-10436.903782,-1036.288319,306.438199
4041.707784,-10732.986159,-296.082377,1302.362347
4041.708114,-10140.821405,-666.185348,1455.581446
4041.708444,-9622.677246,-1036.288319,612.876398
4041.708774,-9696.697840,-814.226536,0.000000
4041.709104,-10288.862594,-592.164754,0.000000
4041.709433,-10436.903782,-1110.308913,536.266849
4041.709763,-9992.780217,-1258.350101,1302.362347
4041.710093,-9548.656652,-814.226536,2068.457845
4041.710423,-9326.594869,-666.185348,1225.752797
4041.710753,-9252.574275,-592.164754,-459.657299
4041.711082,-9770.718434,-222.061783,-689.485948
4041.711412,-10658.965565,-370.102971,229.828649
4041.711742,-10584.944971,0.000000,1072.533697
4041.712072,-9770.718434,0.000000,842.705048
4041.712402,-9548.656652,-518.144159,153.219100
4041.712731,-9696.697840,-444.123565,-842.705048
4041.713061,-9844.739029,-592.164754,-76.609550
4041.713391,-9696.697840,-296.082377,919.314598
4041.713721,-9474.636058,-222.061783,1378.971896
4041.714051,-9474.636058,0.000000,1532.190996
4041.714381,-9622.677246,-74.020594,383.047749
4041.714710,-9622.677246,-74.020594,-612.876398
4041.715040,-9696.697840,-296.082377,0.000000
4041.715370,-9992.780217,-74.020594,459.657299
4041.715700,-9696.697840,0.000000,1302.362347
4041.716030,-9252.574275,222.061783,995.924147
4041.716359,-9474.636058,592.164754,-306.438199
4041.716689,-9548.656652,148.041188,-919.314598
4041.717019,-10140.821405,518.144159,-229.828649
4041.717349,-10214.842000,74.020594,536.266849
4041.717679,-9326.594869,592.164754,1378.971896
4041.718008,-8956.491898,296.082377,919.314598
4041.718338,-9252.574275,444.123565,-459.657299
4041.718668,-9622.677246,518.144159,-1915.238745
4041.718998,-10214.842000,888.247130,-1149.143247
4041.719328,-10362.883188,666.185348,76.609550
4041.719658,-9474.636058,518.144159,1302.362347
4041.719987,-9474.636058,1036.288319,919.314598
4041.720317,-9474.636058,888.247130,-919.314598
4041.720647,-10214.842000,666.185348,-1532.190996
4041.720977,-10658.965565,814.226536,-995.924147
4041.721307,-10732.986159,444.123565,306.438199
4041.721636,-9770.718434,370.102971,1225.752797
4041.721966,-8882.471304,888.247130,919.314598
4041.722296,-9178.553681,296.082377,-153.219100
4041.722626,-9622.677246,592.164754,-2221.676944
4041.722956,-9918.759623,518.144159,-1378.971896
4041.723285,-10140.821405,296.082377,306.438199
4041.723615,-10140.821405,888.247130,1838.629195
4041.723945,-9696.697840,962.267725,1532.190996
4041.724275,-9622.677246,74.020594,-536.266849
4041.724605,-9548.656652,74.020594,-1532.190996
4041.724935,-9992.780217,0.000000,-766.095498
4041.725264,-9770.718434,-296.082377,1072.533697
4041.725594,-9178.553681,370.102971,2221.676944
4041.725924,-9178.553681,370.102971,1915.238745
4041.726254,-9474.636058,444.123565,0.000000
4041.726584,-10214.842000,296.082377,-1838.629195
4041.726913,-10584.944971,74.020594,-1532.190996
4041.727243,-10436.903782,74.020594,383.047749
4041.727573,-9696.697840,740.205942,1608.800546
4041.727903,-9178.553681,296.082377,1072.533697
4041.728233,-8882.471304,0.000000,-995.924147
4041.728562,-9474.636058,0.000000,-2298.286494
4041.728892,-10732.986159,0.000000,-919.314598
4041.729222,-10362.883188,0.000000,1455.581446
4041.729552,-9622.677246,0.000000,2528.115143
4041.729882,-9178.553681,-518.144159,2145.067394
4041.730212,-9252.574275,-518.144159,0.000000
4041.730541,-9326.594869,-296.082377,-995.924147
4041.730871,-9844.739029,-222.061783,-612.876398
4041.731201,-9844.739029,0.000000,1225.752797
4041.731531,-10140.821405,370.102971,2451.505594
4041.731861,-9622.677246,370.102971,2145.067394
4041.732190,-10066.800811,222.061783,-842.705048
4041.732520,-10214.842000,74.020594,-2221.676944
4041.732850,-10140.821405,-74.020594,-1149.143247
4041.733180,-10066.800811,-74.020594,536.266849
4041.733510,-9104.533087,0.000000,1608.800546
4041.733839,-9030.512492,-296.082377,919.314598
4041.734169,-9622.677246,-74.020594,-229.828649
4041.734499,-10214.842000,0.000000,-1072.533697
4041.734829,-11399.171507,-370.102971,0.000000
4041.735159,-10807.006753,-592.164754,1685.410096
4041.735489,-9622.677246,0.000000,2911.162892
4041.735818,-9178.553681,-296.082377,2374.896044
4041.736148,-8734.430116,-592.164754,-76.609550
4041.736478,-10066.800811,-370.102971,-1532.190996
4041.736808,-10436.903782,-740.205942,-459.657299
4041.737138,-9918.759623,-592.164754,1072.533697
4041.737467,-9548.656652,-296.082377,2681.334243
4041.737797,-9326.594869,-296.082377,995.924147
4041.738127,-9622.677246,-148.041188,-689.485948
4041.738457,-9548.656652,-222.061783,-1685.410096
4041.738787,-10214.842000,-74.020594,-842.705048
4041.739116,-10584.944971,148.041188,1685.410096
4041.739446,-10140.821405,0.000000,2681.334243
4041.739776,-9548.656652,-148.041188,1225.752797
4041.740106,-9548.656652,-296.082377,-766.095498
4041.740436,-10288.862594,0.000000,-1378.971896
4041.740766,-10362.883188,-444.123565,-689.485948
4041.741095,-9400.615463,-370.102971,1149.143247
4041.741425,-8216.285956,74.020594,1608.800546
4041.741755,-8290.306550,592.164754,995.924147
4041.742085,-9400.615463,296.082377,-1608.800546
4041.742415,-10584.944971,444.123565,-1532.190996
4041.742744,-11103.089130,296.082377,-383.047749
4041.743074,-10658.965565,74.020594,1455.581446
4041.743404,-9696.697840,222.061783,1608.800546
4041.743734,-9252.574275,148.041188,536.266849
4041.744064,-9326.594869,0.000000,-1532.190996
4041.744394,-9844.739029,222.061783,-1915.238745
4041.744723,-10436.903782,74.020594,-76.609550
4041.745053,-10362.883188,592.164754,1685.410096
4041.745383,-9696.697840,814.226536,2528.115143
4041.745713,-9474.636058,444.123565,919.314598
4041.746043,-9696.697840,0.000000,-1378.971896
4041.746372,-10066.800811,0.000000,-1455.581446
4041.746702,-10436.903782,0.000000,383.047749
4041.747032,-10362.883188,74.020594,2451.505594
4041.747362,-9474.636058,74.020594,2757.943793
4041.747692,-9178.553681,148.041188,306.438199
4041.748021,-9474.636058,74.020594,-1608.800546
4041.748351,-10658.965565,444.123565,-1532.190996
4041.748681,-10658.965565,518.144159,0.000000
4041.749011,-9918.759623,444.123565,1608.800546
4041.749341,-8882.471304,592.164754,1762.019645
4041.749671,-9178.553681,222.061783,306.438199
4041.750000,-9696.697840,0.000000,-1532.190996
4041.750330,-10066.800811,148.041188,-995.924147
4041.750660,-10288.862594,-222.061783,76.609550
4041.750990,-10066.800811,148.041188,1991.848295
4041.751320,-9326.594869,370.102971,2298.286494
4041.751649,-9030.512492,296.082377,995.924147
4041.751979,-9252.574275,-296.082377,-1302.362347
4041.752309,-9992.780217,148.041188,-1532.190996
4041.752639,-10362.883188,0.000000,0.000000
4041.752969,-9918.759623,148.041188,1762.019645
4041.753298,-8734.430116,518.144159,1915.238745
4041.753628,-8808.450710,370.102971,76.609550
4041.753958,-9622.677246,370.102971,-1838.629195
4041.754288,-10510.924376,370.102971,-1149.143247
4041.754618,-10807.006753,296.082377,459.657299
4041.754948,-9992.780217,222.061783,1762.019645
4041.755277,-9400.615463,222.061783,1608.800546
4041.755607,-8882.471304,74.020594,-383.047749
4041.755937,-9844.739029,666.185348,-1378.971896
4041.756267,-10807.006753,370.102971,-842.705048
4041.756597,-10881.027347,148.041188,689.485948
4041.756926,-10510.924376,370.102971,2221.676944
4041.757256,-9992.780217,444.123565,2374.896044
4041.757586,-9992.780217,0.000000,0.000000
4041.757916,-9992.780217,-518.144159,-1378.971896
4041.758246,-10436.903782,-518.144159,-842.705048
4041.758575,-10140.821405,-740.205942,1072.533697
4041.758905,-9400.615463,-888.247130,2451.505594
4041.759235,-8586.388927,-666.185348,2451.505594
4041.759565,-9178.553681,-666.185348,536.266849
4041.759895,-9918.759623,-592.164754,-459.657299
4041.760225,-10510.924376,-518.144159,306.438199
4041.760554,-10510.924376,-666.185348,1608.800546
4041.760884,-9844.739029,0.000000,2221.676944
4041.761214,-9252.574275,222.061783,1149.143247
4041.761544,-9104.533087,0.000000,-689.485948
4041.761874,-9474.636058,-222.061783,-2145.067394
4041.762203,-10140.821405,-370.102971,-689.485948
4041.762533,-10362.883188,-444.123565,536.266849
4041.762863,-9400.615463,-296.082377,1915.238745
4041.763193,-8734.430116,-296.082377,1149.143247
4041.763523,-8660.409521,-740.205942,-153.219100
4041.763852,-9474.636058,-888.247130,-995.924147
4041.764182,-10510.924376,-148.041188,153.219100
4041.764512,-10214.842000,222.061783,1532.190996
4041.764842,-9844.739029,222.061783,1685.410096
4041.765172,-9696.697840,814.226536,1302.362347
4041.765502,-10066.800811,814.226536,-919.314598
4041.765831,-10362.883188,1184.329507,-1762.019645
4041.766161,-10140.821405,222.061783,-1532.190996
4041.766491,-10214.842000,0.000000,229.828649
4041.766821,-9844.739029,370.102971,1532.190996
4041.767151,-8956.491898,0.000000,612.876398
4041.767480,-9252.574275,-296.082377,-919.314598
4041.767810,-10066.800811,148.041188,-1532.190996
4041.768140,-10510.924376,592.164754,-842.705048
4041.768470,-10658.965565,814.226536,1072.533697
4041.768800,-9992.780217,1036.288319,1838.629195
4041.769129,-10140.821405,888.247130,612.876398
4041.769459,-10436.903782,888.247130,-1072.533697
4041.769789,-10066.800811,370.102971,-2068.457845
4041.770119,-10288.862594,518.144159,0.000000
4041.770449,-9400.615463,74.020594,1225.752797
4041.770779,-8808.450710,0.000000,1685.410096
4041.771109,-8512.368333,74.020594,612.876398
4041.771439,-9400.615463,0.000000,-1149.143247
4041.771769,-9992.780217,0.000000,-1608.800546
4041.772099,-10214.842000,370.102971,76.609550
4041.772429,-9918.759623,222.061783,1455.581446
4041.772758,-9844.739029,962.267725,1762.019645
4041.773088,-10214.842000,1110.308913,919.314598
4041.773418,-10510.924376,592.164754,-612.876398
4041.773748,-10066.800811,0.000000,-1915.238745
4041.774078,-9918.759623,0.000000,0.000000
4041.774408,-9178.553681,0.000000,1532.190996
4041.774738,-8512.368333,-74.020594,1608.800546
4041.775068,-8216.285956,0.000000,76.609550
4041.775398,-8882.471304,-74.020594,-1762.019645
4041.775728,-9548.656652,0.000000,-995.924147
4041.776058,-10066.800811,592.164754,-306.438199
4041.776387,-10584.944971,444.123565,1608.800546
4041.776717,-9696.697840,518.144159,2068.457845
4041.777047,-9992.780217,814.226536,459.657299
4041.777377,-10732.986159,370.102971,-1378.971896
4041.777707,-10584.944971,222.061783,-1455.581446
4041.778037,-10140.821405,148.041188,153.219100
4041.778367,-9400.615463,148.041188,1225.752797
4041.778697,-9252.574275,222.061783,1532.190996
4041.779027,-8956.491898,0.000000,-153.219100
4041.779357,-9918.759623,-74.020594,-1991.848295
4041.779686,-10658.965565,222.061783,-1838.629195
4041.780016,-11103.089130,0.000000,229.828649
4041.780346,-9992.780217,0.000000,1532.190996
4041.780676,-9622.677246,222.061783,1762.019645
4041.781006,-9770.718434,444.123565,766.095498
4041.781336,-10436.903782,0.000000,-689.485948
4041.781666,-10955.047942,0.000000,-766.095498
4041.781996,-10807.006753,-592.164754,842.705048
4041.782326,-10214.842000,-888.247130,2298.286494
4041.782656,-8956.491898,-814.226536,2145.067394
4041.782986,-8512.368333,-1036.288319,766.095498
4041.783315,-8512.368333,-1332.370696,-1149.143247
4041.783645,-9474.636058,-592.164754,-1072.533697
4041.783975,-10510.924376,-148.041188,76.609550
4041.784305,-9696.697840,370.102971,1378.971896
4041.784635,-9770.718434,666.185348,1225.752797
4041.784965,-10066.800811,370.102971,383.047749
4041.785295,-10066.800811,-370.102971,-1378.971896
4041.785625,-10436.903782,-444.123565,-1608.800546
4041.785955,-10140.821405,-666.185348,229.828649
4041.786285,-9178.553681,-888.247130,1608.800546
4041.786615,-8068.244768,-592.164754,1532.190996
4041.786944,-8512.368333,-444.123565,459.657299
4041.787274,-9104.533087,-592.164754,-1149.143247
4041.787604,-10288.862594,0.000000,-1455.581446
4041.787934,-10584.944971,148.041188,-76.609550
4041.788264,-10510.924376,222.061783,1149.143247
4041.788594,-9918.759623,814.226536,2068.457845
4041.788924,-10288.862594,518.144159,689.485948
4041.789254,-10140.821405,0.000000,-689.485948
4041.789584,-9918.759623,0.000000,-995.924147
4041.789914,-10140.821405,-148.041188,383.047749
4041.790244,-9622.677246,0.000000,1532.190996
4041.790573,-9030.512492,0.000000,1225.752797
4041.790903,-8956.491898,74.020594,76.609550
4041.791233,-9474.636058,0.000000,-919.314598
4041.791563,-9918.759623,370.102971,-459.657299
4041.791893,-10214.842000,444.123565,459.657299
4041.792223,-10288.862594,592.164754,1302.362347
4041.792553,-10066.800811,962.267725,1149.143247
4041.792883,-10510.924376,666.185348,383.047749
4041.793213,-10658.965565,592.164754,-536.266849
4041.793543,-9844.739029,148.041188,-1302.362347
4041.793872,-9622.677246,0.000000,306.438199
4041.794202,-9030.512492,0.000000,1378.971896
4041.794532,-8512.368333,-148.041188,1072.533697
4041.794862,-8438.347739,-74.020594,-229.828649
4041.795192,-8956.491898,-296.082377,-1072.533697
4041.795522,-10584.944971,148.041188,-306.438199
4041.795852,-10436.903782,296.082377,76.609550
4041.796182,-9918.759623,666.185348,1149.143247
4041.796512,-10140.821405,814.226536,1378.971896
4041.796842,-10510.924376,592.164754,459.657299
4041.797172,-10732.986159,592.164754,-919.314598
4041.797501,-10436.903782,296.082377,-383.047749
4041.797831,-10140.821405,0.000000,383.047749
4041.798161,-9770.718434,222.061783,1149.143247
4041.798491,-9252.574275,-222.061783,1072.533697
4041.798821,-8808.450710,-370.102971,-689.485948
4041.799151,-9178.553681,-296.082377,-1378.971896
4041.799481,-9622.677246,148.041188,-919.314598
4041.799811,-10510.924376,0.000000,1072.533697
4041.800141,-9992.780217,814.226536,1455.581446
4041.800471,-9770.718434,592.164754,1455.581446
4041.800801,-10584.944971,518.144159,459.657299
4041.801130,-10362.883188,0.000000,-842.705048
4041.801460,-10362.883188,-148.041188,-459.657299
4041.801790,-9918.759623,-370.102971,459.657299
4041.802120,-9474.636058,-370.102971,919.314598
4041.802450,-8808.450710,-518.144159,919.314598
4041.802780,-7994.224174,-1110.308913,-459.657299
4041.803110,-8956.491898,-444.123565,-1455.581446
4041.803440,-9696.697840,0.000000,-766.095498
4041.803770,-10214.842000,222.061783,612.876398
4041.804100,-10140.821405,814.226536,1762.019645
4041.804429,-9918.759623,740.205942,1225.752797
4041.804759,-10140.821405,296.082377,76.609550
4041.805089,-9918.759623,0.000000,-766.095498
4041.805419,-10362.883188,0.000000,-383.047749
4041.805749,-9770.718434,-370.102971,689.485948
4041.806079,-9400.615463,-296.082377,1608.800546
4041.806409,-9104.533087,-296.082377,1072.533697
4041.806739,-9104.533087,-518.144159,-76.609550
4041.807069,-9400.615463,-148.041188,-1149.143247
4041.807399,-9770.718434,0.000000,-306.438199
4041.807729,-10362.883188,518.144159,536.266849
4041.808058,-9992.780217,666.185348,1149.143247
4041.808388,-9992.780217,592.164754,1149.143247
4041.808718,-10510.924376,222.061783,-536.266849
4041.809048,-10362.883188,148.041188,-766.095498
4041.809378,-10214.842000,0.000000,0.000000
4041.809708,-9770.718434,-888.247130,1225.752797
4041.810038,-8956.491898,-370.102971,1915.238745
4041.810368,-8438.347739,-222.061783,1455.581446
4041.810698,-8882.471304,-370.102971,0.000000
4041.811028,-9474.636058,-74.020594,-995.924147
4041.811358,-10214.842000,0.000000,-383.047749
4041.811687,-10510.924376,222.061783,919.314598
4041.812017,-10362.883188,518.144159,1378.971896
4041.812347,-9844.739029,888.247130,689.485948
4041.812677,-9844.739029,296.082377,-1072.533697
4041.813007,-9844.739029,222.061783,-1455.581446
4041.813337,-9992.780217,74.020594,-306.438199
4041.813667,-9844.739029,-296.082377,1149.143247
4041.813997,-9252.574275,-444.123565,1685.410096
4041.814327,-8808.450710,-444.123565,1149.143247
4041.814657,-8882.471304,-444.123565,229.828649
4041.814987,-9474.636058,-222.061783,-1149.143247
4041.815316,-9918.759623,148.041188,0.000000
4041.815646,-10436.903782,222.061783,1149.143247
4041.815976,-10510.924376,962.267725,1838.629195
4041.816306,-10732.986159,1036.288319,919.314598
4041.816636,-10732.986159,592.164754,-383.047749
4041.816966,-10214.842000,666.185348,-1378.971896
4041.817296,-9696.697840,0.000000,-766.095498
4041.817626,-9696.697840,-296.082377,842.705048
4041.817956,-9104.533087,-444.123565,1225.752797
4041.818286,-8734.430116,-444.123565,689.485948
4041.818615,-9178.553681,-592.164754,0.000000
4041.818945,-10140.821405,-296.082377,-459.657299
4041.819275,-10881.027347,0.000000,459.657299
4041.819605,-10584.944971,0.000000,2145.067394
4041.819935,-9844.739029,148.041188,1532.190996
4041.820265,-9770.718434,592.164754,689.485948
4041.820595,-9918.759623,296.082377,-995.924147
4041.820925,-9844.739029,222.061783,-1685.410096
4041.821255,-9918.759623,74.020594,-842.705048
4041.821585,-9622.677246,-296.082377,919.314598
4041.821915,-9326.594869,-296.082377,1378.971896
4041.822244,-8808.450710,-444.123565,153.219100
4041.822574,-9030.512492,-444.123565,-1149.143247
4041.822904,-9622.677246,-370.102971,-1072.533697
4041.823234,-10510.924376,74.020594,383.047749
4041.823564,-10362.883188,74.020594,1608.800546
4041.823894,-9844.739029,962.267725,1378.971896
4041.824224,-10288.862594,1036.288319,459.657299
4041.824554,-10510.924376,814.226536,-1915.238745
4041.824884,-9770.718434,296.082377,-2451.505594
4041.825214,-9622.677246,-296.082377,-612.876398
4041.825544,-9400.615463,0.000000,1149.143247
4041.825873,-8956.491898,-148.041188,1608.800546
4041.826203,-8808.450710,-296.082377,536.266849
4041.826533,-9252.574275,-740.205942,-1225.752797
4041.826863,-10362.883188,-444.123565,-995.924147
4041.827193,-10881.027347,370.102971,842.705048
4041.827523,-10288.862594,74.020594,1915.238745
4041.827853,-9696.697840,888.247130,2451.505594
4041.828183,-9696.697840,1036.288319,1378.971896
4041.828513,-10584.944971,740.205942,-1532.190996
4041.828843,-10584.944971,592.164754,-2604.724693
4041.829173,-10436.903782,-74.020594,-689.485948
4041.829502,-9474.636058,-370.102971,1455.581446
4041.829832,-8956.491898,-74.020594,1915.238745
4041.830162,-8586.388927,-370.102971,612.876398
4041.830492,-8956.491898,-592.164754,-1455.581446
4041.830822,-9696.697840,296.082377,-1378.971896
4041.831152,-10436.903782,592.164754,229.828649
4041.831482,-10881.027347,666.185348,2374.896044
4041.831812,-10214.842000,1184.329507,2681.334243
4041.832142,-10066.800811,962.267725,919.314598
4041.832472,-9474.636058,444.123565,-1455.581446
4041.832801,-10436.903782,148.041188,-2221.676944
4041.833131,-10214.842000,-296.082377,-459.657299
4041.833461,-9252.574275,-296.082377,1378.971896
4041.833791,-8142.265362,-296.082377,2145.067394
4041.834121,-8216.285956,-370.102971,459.657299
4041.834451,-9178.553681,-370.102971,-1378.971896
4041.834781,-9844.739029,-296.082377,-1532.190996
4041.835111,-10436.903782,74.020594,0.000000
4041.835441,-10288.862594,592.164754,2068.457845
4041.835771,-10362.883188,296.082377,1685.410096
4041.836101,-9696.697840,814.226536,1149.143247
4041.836430,-9918.759623,444.123565,-766.095498
4041.836760,-10510.924376,-74.020594,-1302.362347
4041.837090,-10436.903782,-518.144159,-229.828649
4041.837420,-9844.739029,-444.123565,1532.190996
4041.837750,-8512.368333,-592.164754,2221.676944
4041.838080,-8068.244768,-296.082377,-306.438199
4041.838410,-9178.553681,-370.102971,-1685.410096
4041.838740,-9992.780217,0.000000,-1302.362347
4041.839070,-10955.047942,148.041188,459.657299
4041.839400,-10955.047942,518.144159,2298.286494
4041.839730,-10436.903782,666.185348,2221.676944
4041.840059,-10362.883188,370.102971,0.000000
4041.840389,-9548.656652,-666.185348,-1991.848295
4041.840719,-9622.677246,-370.102971,-1838.629195
4041.841049,-9548.656652,-814.226536,0.000000
4041.841379,-9474.636058,-518.144159,2145.067394
4041.841709,-8438.347739,-740.205942,2068.457845
4041.842039,-8734.430116,-814.226536,459.657299
4041.842369,-9030.512492,-444.123565,-1532.190996
4041.842699,-10214.842000,-148.041188,-1072.533697
4041.843029,-10436.903782,0.000000,459.657299
4041.843358,-10066.800811,148.041188,1991.848295
4041.843688,-9844.739029,888.247130,1762.019645
4041.844018,-9918.759623,370.102971,0.000000
4041.844348,-10140.821405,148.041188,-1685.410096
4041.844678,-10584.944971,74.020594,-1762.019645
4041.845008,-10066.800811,-444.123565,0.000000
4041.845338,-9400.615463,-222.061783,1685.410096
4041.845668,-8586.388927,-518.144159,1455.581446
4041.845998,-8734.430116,-370.102971,0.000000
4041.846328,-9474.636058,-444.123565,-1302.362347
4041.846658,-10584.944971,370.102971,-919.314598
4041.846987,-11103.089130,740.205942,1149.143247
4041.847317,-10807.006753,962.267725,2145.067394
4041.847647,-10584.944971,1184.329507,1608.800546
4041.847977,-10066.800811,1110.308913,0.000000
4041.848307,-10214.842000,592.164754,-2221.676944
4041.848637,-10140.821405,0.000000,-1685.410096
4041.848967,-9696.697840,-518.144159,306.438199
4041.849297,-8734.430116,-444.123565,1608.800546
4041.849627,-8586.388927,148.041188,1455.581446
4041.849957,-8660.409521,-296.082377,-383.047749
4041.850287,-9400.615463,-148.041188,-1455.581446
4041.850616,-10510.924376,296.082377,-536.266849
4041.850946,-10732.986159,592.164754,766.095498
4041.851276,-10140.821405,518.144159,2298.286494
4041.851606,-9844.739029,1036.288319,1455.581446
4041.851936,-9992.780217,444.123565,-536.266849
4041.852266,-9992.780217,518.144159,-1991.848295
4041.852596,-10362.883188,148.041188,-1378.971896
4041.852926,-9844.739029,-444.123565,153.219100
4041.853256,-8660.409521,-370.102971,1149.143247
4041.853586,-7772.162391,-296.082377,689.485948
4041.853916,-8068.244768,-296.082377,-842.705048
4041.854245,-9178.553681,222.061783,-1608.800546
4041.854575,-10658.965565,740.205942,-383.047749
4041.854905,-11103.089130,370.102971,1225.752797
4041.855235,-10510.924376,888.247130,2145.067394
4041.855565,-10510.924376,740.205942,1991.848295
4041.855895,-10436.903782,0.000000,-153.219100
4041.856225,-9992.780217,-444.123565,-1838.629195
4041.856555,-9622.677246,0.000000,-612.876398
4041.856885,-9178.553681,-592.164754,919.314598
4041.857215,-8882.471304,0.000000,1685.410096
4041.857544,-8734.430116,222.061783,995.924147
4041.857874,-9474.636058,0.000000,-842.705048
4041.858204,-10436.903782,0.000000,-1225.752797
4041.858534,-10955.047942,-222.061783,-306.438199
4041.858864,-10584.944971,0.000000,1149.143247
4041.859194,-9400.615463,148.041188,1532.190996
4041.859524,-9104.533087,740.205942,536.266849
4041.859854,-10066.800811,444.123565,-1302.362347
4041.860184,-10436.903782,222.061783,-1608.800546
4041.860514,-10658.965565,74.020594,-306.438199
4041.860844,-10140.821405,0.000000,919.314598
4041.861173,-9622.677246,-148.041188,1991.848295
4041.861503,-8808.450710,-444.123565,919.314598
4041.861833,-8882.471304,-592.164754,-919.314598
4041.862163,-9474.636058,-370.102971,-1225.752797
4041.862493,-10362.883188,74.020594,-153.219100
4041.862823,-10436.903782,370.102971,1838.629195
4041.863153,-10436.903782,592.164754,1762.019645
4041.863483,-10066.800811,592.164754,306.438199
4041.863813,-9918.759623,370.102971,-995.924147
4041.864143,-9992.780217,-148.041188,-1532.190996
4041.864473,-9844.739029,-592.164754,459.657299
4041.864802,-9252.574275,-740.205942,2145.067394
4041.865132,-8068.244768,-444.123565,1608.800546
4041.865462,-8438.347739,-296.082377,612.876398
4041.865792,-9326.594869,-518.144159,-1072.533697
4041.866122,-10214.842000,148.041188,-1072.533697
4041.866452,-10732.986159,740.205942,842.705048
4041.866782,-10436.903782,296.082377,1225.752797
4041.867112,-10066.800811,814.226536,1685.410096
4041.867442,-9918.759623,370.102971,842.705048
4041.867772,-9992.780217,0.000000,-689.485948
4041.868101,-10214.842000,0.000000,-1378.971896
4041.868431,-9992.780217,-518.144159,0.000000
4041.868761,-9400.615463,-740.205942,1302.362347
4041.869091,-8438.347739,-370.102971,1225.752797
4041.869421,-8438.347739,-296.082377,0.000000
4041.869751,-9252.574275,0.000000,-919.314598
4041.870081,-10066.800811,296.082377,-919.314598
4041.870411,-10881.027347,444.123565,536.266849
4041.870741,-10658.965565,518.144159,2068.457845
4041.871071,-9992.780217,518.144159,1532.190996
4041.871401,-9696.697840,148.041188,76.609550
4041.871730,-9770.718434,0.000000,-1302.362347
4041.872060,-10066.800811,370.102971,-995.924147
4041.872390,-9474.636058,0.000000,689.485948
4041.872719,-9400.615463,-222.061783,1378.971896
4041.873049,-8882.471304,222.061783,383.047749
4041.873379,-8808.450710,-592.164754,229.828649
4041.873709,-9326.594869,-592.164754,-536.266849
4041.874038,-10066.800811,-222.061783,0.000000
4041.874368,-10807.006753,0.000000,1378.971896
4041.874698,-10214.842000,0.000000,1532.190996
4041.875027,-9770.718434,740.205942,459.657299
4041.875357,-10066.800811,666.185348,-229.828649
4041.875687,-10140.821405,296.082377,-1225.752797
4041.876017,-10362.883188,370.102971,-919.314598
4041.876346,-10288.862594,222.061783,842.705048
4041.876676,-9770.718434,0.000000,919.314598
4041.877006,-9474.636058,-296.082377,612.876398
4041.877335,-9030.512492,-592.164754,-459.657299
4041.877665,-9104.533087,-1184.329507,-995.924147
4041.877995,-9770.718434,-518.144159,-383.047749
4041.878325,-10436.903782,74.020594,1225.752797
4041.878654,-10362.883188,370.102971,2145.067394
4041.878984,-10140.821405,814.226536,995.924147
4041.879314,-10140.821405,592.164754,-842.705048
4041.879643,-10510.924376,518.144159,-919.314598
4041.879973,-10362.883188,370.102971,-229.828649
4041.880303,-9696.697840,-222.061783,842.705048
4041.880632,-8956.491898,0.000000,459.657299
4041.880962,-8290.306550,-148.041188,689.485948
4041.881292,-8882.471304,-296.082377,-995.924147
4041.881622,-9548.656652,-370.102971,-1378.971896
4041.881951,-10140.821405,888.247130,-383.047749
4041.882281,-10584.944971,814.226536,1302.362347
4041.882611,-9992.780217,666.185348,1455.581446
4041.882940,-9696.697840,592.164754,766.095498
4041.883270,-10140.821405,444.123565,-536.266849
4041.883600,-10066.800811,74.020594,-1149.143247
4041.883930,-9992.780217,148.041188,-383.047749
4041.884259,-9770.718434,0.000000,842.705048
4041.884589,-9104.533087,296.082377,1608.800546
4041.884919,-7994.224174,0.000000,1378.971896
4041.885248,-9178.553681,-370.102971,-919.314598
4041.885578,-9474.636058,-592.164754,-1532.190996
4041.885908,-10362.883188,222.061783,0.000000
4041.886238,-10881.027347,222.061783,1915.238745
4041.886567,-10140.821405,518.144159,2068.457845
4041.886897,-9918.759623,962.267725,1149.143247
4041.887227,-10510.924376,592.164754,-536.266849
4041.887556,-10510.924376,296.082377,-1608.800546
4041.887886,-10362.883188,518.144159,-383.047749
4041.888216,-9918.759623,222.061783,919.314598
4041.888546,-9400.615463,0.000000,1225.752797
4041.888875,-9178.553681,0.000000,459.657299
4041.889205,-9178.553681,-740.205942,-919.314598
4041.889535,-9326.594869,-518.144159,-1378.971896
4041.889864,-9770.718434,-222.061783,0.000000
4041.890194,-9696.697840,0.000000,1532.190996
4041.890524,-9696.697840,1036.288319,1991.848295
4041.890854,-10140.821405,666.185348,1225.752797
4041.891183,-11103.089130,370.102971,-459.657299
4041.891513,-10807.006753,74.020594,-1149.143247
4041.891843,-10732.986159,-148.041188,76.609550
4041.892172,-9992.780217,-592.164754,842.705048
4041.892502,-8586.388927,-814.226536,995.924147
4041.892832,-8216.285956,-962.267725,229.828649
4041.893162,-8808.450710,-1036.288319,-612.876398
4041.893491,-9030.512492,-962.267725,-689.485948
4041.893821,-9696.697840,-370.102971,766.095498
4041.894151,-10288.862594,74.020594,1915.238745
4041.894480,-10288.862594,296.082377,1915.238745
4041.894810,-10881.027347,814.226536,1149.143247
4041.895140,-10807.006753,222.061783,-689.485948
4041.895469,-10584.944971,0.000000,-1072.533697
4041.895799,-9844.739029,-222.061783,-459.657299
4041.896129,-9252.574275,-592.164754,1225.752797
4041.896459,-8438.347739,-666.185348,1072.533697
4041.896788,-8660.409521,-222.061783,0.000000
4041.897118,-9770.718434,-592.164754,-919.314598
4041.897448,-10288.862594,-444.123565,-842.705048
4041.897777,-9696.697840,-370.102971,306.438199
4041.898107,-10140.821405,-222.061783,1685.410096
4041.898437,-9622.677246,74.020594,1685.410096
4041.898767,-9622.677246,74.020594,919.314598
4041.899096,-9770.718434,74.020594,-383.047749
4041.899426,-10436.903782,0.000000,-919.314598
4041.899756,-10807.006753,0.000000,76.609550
4041.900085,-10066.800811,0.000000,1378.971896
4041.900415,-9030.512492,74.020594,1685.410096
4041.900745,-8142.265362,-296.082377,459.657299
4041.901075,-8660.409521,-740.205942,-1225.752797
4041.901404,-9844.739029,-222.061783,-1302.362347
4041.901734,-10288.862594,74.020594,306.438199
4041.902064,-10214.842000,296.082377,995.924147
4041.902393,-9622.677246,518.144159,1532.190996
4041.902723,-10066.800811,592.164754,612.876398
4041.903053,-10584.944971,444.123565,-536.266849
4041.903383,-10140.821405,740.205942,-1378.971896
4041.903712,-9918.759623,74.020594,-76.609550
4041.904042,-9844.739029,74.020594,1455.581446
4041.904372,-9104.533087,0.000000,1915.238745
4041.904701,-8438.347739,0.000000,0.000000
4041.905031,-8956.491898,-518.144159,-689.485948
4041.905361,-9400.615463,-370.102971,-1225.752797
4041.905691,-9844.739029,0.000000,383.047749
4041.906020,-9844.739029,370.102971,1838.629195
4041.906350,-9844.739029,888.247130,1991.848295
4041.906680,-10140.821405,1406.391290,153.219100
4041.907009,-10436.903782,1110.308913,-1532.190996
4041.907339,-10510.924376,962.267725,-1762.019645
4041.907669,-11029.068536,962.267725,-612.876398
4041.907999,-10362.883188,444.123565,1608.800546
4041.908328,-9104.533087,370.102971,1302.362347
4041.908658,-8216.285956,0.000000,76.609550
4041.908988,-8734.430116,74.020594,-536.266849
4041.909317,-9622.677246,0.000000,-919.314598
4041.909647,-9844.739029,296.082377,76.609550
4041.909977,-9844.739029,444.123565,1378.971896
4041.910306,-9844.739029,888.247130,2068.457845
4041.910636,-10362.883188,1110.308913,1072.533697
4041.910966,-10807.006753,1036.288319,-689.485948
4041.911296,-10584.944971,666.185348,-1455.581446
4041.911625,-10214.842000,444.123565,-383.047749
4041.911955,-9622.677246,148.041188,919.314598
4041.912285,-8660.409521,74.020594,1378.971896
4041.912614,-8290.306550,0.000000,229.828649
4041.912944,-8882.471304,-740.205942,-1225.752797
4041.913274,-9548.656652,0.000000,-1915.238745
4041.913604,-9918.759623,0.000000,153.219100
4041.913933,-9992.780217,148.041188,1762.019645
4041.914263,-9992.780217,666.185348,2451.505594
4041.914593,-10066.800811,1184.329507,1149.143247
4041.914922,-10436.903782,222.061783,-383.047749
4041.915252,-10140.821405,222.061783,-1149.143247
4041.915582,-10732.986159,0.000000,0.000000
4041.915912,-10362.883188,0.000000,766.095498
4041.916241,-9326.594869,148.041188,1455.581446
4041.916571,-8586.388927,-296.082377,0.000000
4041.916901,-8956.491898,-1036.288319,-842.705048
4041.917230,-9622.677246,-592.164754,-919.314598
4041.917560,-9770.718434,-74.020594,229.828649
4041.917890,-9844.739029,-370.102971,1149.143247
4041.918220,-9474.636058,74.020594,2068.457845
4041.918549,-9844.739029,222.061783,766.095498
4041.918879,-9992.780217,370.102971,-842.705048
4041.919209,-10584.944971,0.000000,-1072.533697
4041.919538,-10732.986159,-74.020594,229.828649
4041.919868,-10214.842000,-74.020594,1762.019645
4041.920198,-9104.533087,-518.144159,1838.629195
4041.920528,-8586.388927,-888.247130,0.000000
4041.920857,-8956.491898,-1036.288319,-1302.362347
4041.921187,-9548.656652,-518.144159,-995.924147
4041.921517,-9770.718434,-444.123565,0.000000
4041.921846,-9474.636058,-296.082377,1608.800546
4041.922176,-9474.636058,222.061783,1838.629195
4041.922506,-9992.780217,518.144159,459.657299
4041.922836,-10362.883188,148.041188,-842.705048
4041.923165,-10436.903782,0.000000,-919.314598
4041.923495,-11103.089130,0.000000,229.828649
4041.923825,-10288.862594,-370.102971,1532.190996
4041.924154,-8882.471304,-814.226536,1532.190996
4041.924484,-8734.430116,-370.102971,459.657299
4041.924814,-9030.512492,-814.226536,-919.314598
4041.925144,-9622.677246,-370.102971,-995.924147
4041.925473,-10066.800811,0.000000,612.876398
4041.925803,-9844.739029,0.000000,1762.019645
4041.926133,-9992.780217,666.185348,2068.457845
4041.926462,-10436.903782,740.205942,76.609550
4041.926792,-10140.821405,444.123565,-1838.629195
4041.927122,-10214.842000,296.082377,-1838.629195
4041.927451,-10362.883188,444.123565,383.047749
4041.927781,-9992.780217,-148.041188,2221.676944
4041.928111,-8586.388927,74.020594,2145.067394
4041.928441,-8364.327145,-296.082377,612.876398
4041.928770,-8734.430116,0.000000,-842.705048
4041.929100,-9992.780217,148.041188,-842.705048
4041.929430,-10436.903782,74.020594,306.438199
4041.929759,-10066.800811,740.205942,1685.410096
4041.930089,-9770.718434,1110.308913,1455.581446
4041.930419,-9918.759623,1184.329507,306.438199
4041.930749,-10658.965565,592.164754,-1685.410096
4041.931078,-10362.883188,518.144159,-1455.581446
4041.931408,-10214.842000,592.164754,383.047749
4041.931738,-9696.697840,666.185348,1378.971896
4041.932067,-8660.409521,74.020594,995.924147
4041.932397,-8808.450710,0.000000,-612.876398
4041.932727,-9400.615463,-148.041188,-1302.362347
4041.933057,-10288.862594,0.000000,0.000000
4041.933386,-10658.965565,0.000000,1225.752797
4041.933716,-10140.821405,0.000000,2374.896044
4041.934046,-9844.739029,888.247130,2068.457845
4041.934375,-9918.759623,740.205942,153.219100
4041.934705,-10510.924376,370.102971,-1149.143247
4041.935035,-10732.986159,518.144159,-689.485948
4041.935365,-10658.965565,296.082377,689.485948
4041.935694,-9992.780217,222.061783,1532.190996
4041.936024,-9252.574275,74.020594,612.876398
4041.936354,-8956.491898,-518.144159,-842.705048
4041.936683,-8660.409521,-740.205942,-1838.629195
4041.937013,-9326.594869,-814.226536,-383.047749
4041.937343,-9844.739029,-370.102971,1378.971896
4041.937673,-9474.636058,148.041188,1608.800546
4041.938002,-9696.697840,592.164754,995.924147
4041.938332,-10510.924376,444.123565,-383.047749
4041.938662,-10955.047942,148.041188,-229.828649
4041.938991,-11325.150913,0.000000,0.000000
4041.939321,-10732.986159,0.000000,1302.362347
4041.939651,-9326.594869,-518.144159,1608.800546
4041.939981,-8364.327145,-592.164754,995.924147
4041.940310,-8882.471304,-814.226536,-919.314598
4041.940640,-9326.594869,-814.226536,-1762.019645
4041.940970,-10066.800811,-518.144159,-612.876398
4041.941299,-10288.862594,-148.041188,1149.143247
4041.941629,-9696.697840,444.123565,2145.067394
4041.941959,-9844.739029,518.144159,1072.533697
4041.942288,-10214.842000,148.041188,-689.485948
4041.942618,-10732.986159,0.000000,-995.924147
4041.942948,-10955.047942,592.164754,0.000000
4041.943278,-10362.883188,148.041188,1072.533697
4041.943607,-9400.615463,0.000000,2068.457845
4041.943937,-8512.368333,0.000000,689.485948
4041.944267,-8660.409521,-444.123565,-1532.190996
4041.944596,-9104.533087,-518.144159,-1915.238745
4041.944926,-9770.718434,0.000000,-459.657299
4041.945256,-9770.718434,74.020594,1762.019645
4041.945586,-9474.636058,74.020594,2145.067394
4041.945915,-9178.553681,740.205942,1072.533697
4041.946245,-10066.800811,148.041188,-689.485948
4041.946575,-10288.862594,222.061783,-1455.581446
4041.946904,-10362.883188,74.020594,0.000000
4041.947234,-10214.842000,592.164754,1838.629195
4041.947564,-9474.636058,444.123565,2145.067394
4041.947894,-9104.533087,444.123565,919.314598
4041.948223,-9326.594869,-370.102971,-1455.581446
4041.948553,-9548.656652,-222.061783,-1225.752797
4041.948883,-10066.800811,-222.061783,76.609550
4041.949212,-9622.677246,0.000000,1762.019645
4041.949542,-9326.594869,222.061783,2145.067394
4041.949872,-9474.636058,592.164754,842.705048
4041.950202,-10140.821405,444.123565,-766.095498
4041.950531,-10436.903782,296.082377,-1149.143247
4041.950861,-10807.006753,518.144159,-153.219100
4041.951191,-10214.842000,222.061783,1838.629195
4041.951520,-9622.677246,148.041188,2604.724693
4041.951850,-8660.409521,-148.041188,153.219100
4041.952180,-8956.491898,-592.164754,-1225.752797
4041.952510,-9696.697840,-296.082377,-1608.800546
4041.952839,-10066.800811,444.123565,383.047749
4041.953169,-10510.924376,148.041188,1608.800546
4041.953499,-9696.697840,74.020594,1762.019645
4041.953828,-9770.718434,740.205942,383.047749
4041.954158,-10140.821405,296.082377,-1378.971896
4041.954488,-10732.986159,370.102971,-1532.190996
4041.954818,-10807.006753,0.000000,0.000000
4041.955147,-9770.718434,-370.102971,1608.800546
4041.955477,-8660.409521,-222.061783,1838.629195
4041.955807,-8512.368333,-74.020594,229.828649
4041.956136,-9400.615463,-666.185348,-1378.971896
4041.956466,-9770.718434,-222.061783,-612.876398
4041.956796,-9844.739029,0.000000,0.000000
4041.957125,-9992.780217,666.185348,1685.410096
4041.957455,-9622.677246,296.082377,1762.019645
4041.957785,-9696.697840,592.164754,229.828649
4041.958115,-10288.862594,370.102971,-1149.143247
4041.958444,-10658.965565,148.041188,-1302.362347
4041.958774,-10807.006753,370.102971,0.000000
4041.959104,-9844.739029,0.000000,1302.362347
4041.959433,-8882.471304,296.082377,1302.362347
4041.959763,-8956.491898,-74.020594,76.609550
4041.960093,-9400.615463,-888.247130,-995.924147
4041.960423,-9844.739029,-148.041188,-383.047749
4041.960752,-10140.821405,-296.082377,1608.800546
4041.961082,-9992.780217,0.000000,1991.848295
4041.961412,-9696.697840,666.185348,1762.019645
4041.961741,-9918.759623,370.102971,0.000000
4041.962071,-10288.862594,370.102971,-1455.581446
4041.962401,-10658.965565,370.102971,-1608.800546
4041.962731,-10584.944971,444.123565,76.609550
4041.963060,-9918.759623,222.061783,842.705048
4041.963390,-9030.512492,148.041188,689.485948
4041.963720,-9030.512492,-222.061783,-842.705048
4041.964049,-9400.615463,-592.164754,-1378.971896
4041.964379,-9992.780217,0.000000,-766.095498
4041.964709,-9696.697840,0.000000,1149.143247
4041.965039,-9696.697840,296.082377,2221.676944
4041.965368,-9548.656652,296.082377,1838.629195
4041.965698,-10214.842000,888.247130,459.657299
4041.966028,-10732.986159,444.123565,-995.924147
4041.966357,-10807.006753,444.123565,-536.266849
4041.966687,-10658.965565,518.144159,842.705048
4041.967017,-9326.594869,148.041188,1532.190996
4041.967347,-8734.430116,148.041188,459.657299
4041.967676,-8660.409521,-296.082377,-1302.362347
4041.968006,-8956.491898,-444.123565,-1991.848295
4041.968336,-9474.636058,148.041188,-689.485948
4041.968665,-10140.821405,518.144159,1378.971896
4041.968995,-9844.739029,814.226536,1991.848295
4041.969325,-9622.677246,666.185348,1455.581446
4041.969655,-10362.883188,592.164754,-306.438199
4041.969984,-11029.068536,518.144159,-536.266849
4041.970314,-11325.150913,592.164754,536.266849
4041.970644,-10732.986159,0.000000,1685.410096
4041.970973,-9548.656652,0.000000,1762.019645
4041.971303,-8438.347739,0.000000,383.047749
4041.971633,-8956.491898,-296.082377,-766.095498
4041.971962,-9770.718434,-592.164754,-1455.581446
4041.972292,-9844.739029,0.000000,0.000000
4041.972622,-9622.677246,0.000000,1378.971896
4041.972952,-9770.718434,444.123565,1762.019645
4041.973281,-9992.780217,222.061783,1072.533697
4041.973611,-10214.842000,222.061783,-383.047749
4041.973941,-10584.944971,222.061783,-689.485948
4041.974270,-10732.986159,370.102971,0.000000
4041.974600,-10362.883188,222.061783,1455.581446
4041.974930,-9326.594869,74.020594,2068.457845
4041.975259,-8586.388927,74.020594,766.095498
4041.975589,-8882.471304,-518.144159,-229.828649
4041.975919,-9918.759623,-592.164754,-1149.143247
4041.976249,-10066.800811,-518.144159,0.000000
4041.976578,-9622.677246,-296.082377,1149.143247
4041.976908,-8956.491898,0.000000,1685.410096
4041.977238,-8956.491898,0.000000,536.266849
4041.977567,-9918.759623,370.102971,-536.266849
4041.977897,-10066.800811,74.020594,-919.314598
4041.978227,-10732.986159,592.164754,229.828649
4041.978556,-10881.027347,0.000000,1302.362347
4041.978886,-10510.924376,148.041188,1455.581446
4041.979216,-9474.636058,-222.061783,383.047749
4041.979546,-9326.594869,-740.205942,-766.095498
4041.979875,-9178.553681,-888.247130,-995.924147
4041.980205,-9696.697840,-444.123565,-76.609550
4041.980535,-9474.636058,-666.185348,689.485948
4041.980864,-9696.697840,74.020594,1149.143247
4041.981194,-9548.656652,74.020594,459.657299
4041.981524,-10436.903782,222.061783,-76.609550
4041.981853,-10955.047942,444.123565,-459.657299
4041.982183,-10807.006753,222.061783,229.828649
4041.982513,-10362.883188,0.000000,995.924147
4041.982842,-9696.697840,74.020594,919.314598
4041.983172,-8808.450710,0.000000,459.657299
4041.983502,-9178.553681,-666.185348,-1149.143247
4041.983832,-9326.594869,-444.123565,-1072.533697
4041.984161,-9622.677246,222.061783,76.609550
4041.984491,-9844.739029,74.020594,1225.752797
4041.984821,-9548.656652,592.164754,1455.581446
4041.985150,-9474.636058,592.164754,383.047749
4041.985480,-10066.800811,814.226536,-612.876398
4041.985810,-10140.821405,74.020594,-1302.362347
4041.986139,-10288.862594,222.061783,0.000000
4041.986469,-10066.800811,222.061783,1302.362347
4041.986799,-9030.512492,74.020594,1762.019645
4041.987129,-8734.430116,74.020594,229.828649
4041.987458,-9252.574275,-444.123565,-842.705048
4041.987788,-9918.759623,0.000000,-459.657299
4041.988118,-9992.780217,0.000000,995.924147
4041.988447,-9548.656652,222.061783,1685.410096
4041.988777,-9030.512492,296.082377,1532.190996
4041.989107,-9474.636058,814.226536,459.657299
4041.989436,-9844.739029,740.205942,-612.876398
4041.989766,-10955.047942,814.226536,-1225.752797
4041.990096,-10881.027347,962.267725,-383.047749
4041.990426,-10807.006753,666.185348,306.438199
4041.990755,-9918.759623,740.205942,689.485948
4041.991085,-9326.594869,0.000000,536.266849
4041.991415,-9252.574275,-148.041188,-689.485948
4041.991744,-9252.574275,-74.020594,-919.314598
4041.992074,-9474.636058,-74.020594,842.705048
4041.992404,-9992.780217,0.000000,2068.457845
4041.992733,-9992.780217,0.000000,2145.067394
4041.993063,-10436.903782,518.144159,1302.362347
4041.993393,-11029.068536,592.164754,-459.657299
4041.993723,-10362.883188,370.102971,-842.705048
4041.994052,-10436.903782,0.000000,0.000000
4041.994382,-9622.677246,0.000000,1072.533697
4041.994712,-9252.574275,0.000000,1149.143247
4041.995041,-8660.409521,0.000000,-76.609550
4041.995371,-8808.450710,-222.061783,-842.705048
4041.995701,-9474.636058,-518.144159,-1072.533697
4041.996030,-9400.615463,-592.164754,766.095498
4041.996360,-9474.636058,-148.041188,1991.848295
4041.996690,-9474.636058,0.000000,1838.629195
4041.997020,-9918.759623,148.041188,383.047749
4041.997349,-10436.903782,0.000000,-766.095498
4041.997679,-10658.965565,518.144159,-1072.533697
4041.998009,-11029.068536,444.123565,0.000000
4041.998338,-10807.006753,148.041188,612.876398
4041.998668,-9178.553681,0.000000,689.485948
4041.998998,-8586.388927,-518.144159,-306.438199
4041.999327,-8882.471304,-888.247130,-1378.971896
4041.999657,-9400.615463,-296.082377,-612.876398
4041.999987,-10140.821405,-888.247130,766.095498
4042.000317,-9918.759623,-592.164754,1608.800546
4042.000646,-9844.739029,-296.082377,1762.019645
4042.000976,-10066.800811,0.000000,766.095498
4042.001306,-10584.944971,74.020594,-383.047749
4042.001635,-10436.903782,370.102971,-612.876398
4042.001965,-10436.903782,296.082377,612.876398
4042.002295,-10436.903782,148.041188,1378.971896
4042.002624,-9844.739029,296.082377,1072.533697
4042.002954,-9326.594869,0.000000,-306.438199
4042.003284,-9252.574275,-740.205942,-1915.238745
4042.003613,-9104.533087,-666.185348,-1455.581446
4042.003943,-9178.553681,-518.144159,0.000000
4042.004273,-9252.574275,-296.082377,1225.752797
4042.004603,-9326.594869,222.061783,1302.362347
4042.004932,-9992.780217,444.123565,459.657299
4042.005262,-10436.903782,518.144159,-919.314598
4042.005592,-10955.047942,666.185348,-766.095498
4042.005921,-11177.109724,814.226536,536.266849
4042.006251,-10140.821405,444.123565,1302.362347
4042.006581,-9326.594869,74.020594,1378.971896
4042.006910,-8956.491898,-518.144159,306.438199
4042.007240,-9326.594869,-814.226536,-1302.362347
4042.007570,-9030.512492,-296.082377,-1225.752797
4042.007900,-9178.553681,-370.102971,0.000000
4042.008229,-9030.512492,-370.102971,1762.019645
4042.008559,-9474.636058,148.041188,1685.410096
4042.008889,-9918.759623,814.226536,842.705048
4042.009218,-10436.903782,962.267725,-536.266849
4042.009548,-10658.965565,962.267725,-1225.752797
4042.009878,-10881.027347,296.082377,76.609550
4042.010207,-10288.862594,370.102971,919.314598
4042.010537,-9400.615463,148.041188,1608.800546
4042.010867,-8882.471304,-74.020594,0.000000
4042.011197,-8734.430116,-814.226536,-919.314598
4042.011526,-9326.594869,-370.102971,-919.314598
4042.011856,-9918.759623,-74.020594,306.438199
4042.012186,-9844.739029,-74.020594,1455.581446
4042.012515,-9844.739029,592.164754,1762.019645
4042.012845,-10362.883188,592.164754,995.924147
4042.013175,-10510.924376,444.123565,-689.485948
4042.013504,-10436.903782,592.164754,-919.314598
4042.013834,-10807.006753,740.205942,-612.876398
4042.014164,-10288.862594,444.123565,689.485948
4042.014494,-9178.553681,0.000000,1149.143247
4042.014823,-9178.553681,-148.041188,0.000000
4042.015153,-9104.533087,-592.164754,-842.705048
4042.015483,-9474.636058,-814.226536,-536.266849
4042.015812,-9696.697840,-740.205942,459.657299
4042.016142,-9326.594869,-592.164754,1378.971896
4042.016472,-9030.512492,296.082377,1991.848295
4042.016801,-9696.697840,518.144159,766.095498
4042.017131,-10510.924376,1110.308913,-1225.752797
4042.017461,-11177.109724,1036.288319,-995.924147
4042.017791,-11547.212695,962.267725,612.876398
4042.018120,-10288.862594,592.164754,842.705048
4042.018450,-9474.636058,74.020594,766.095498
4042.018780,-8956.491898,-444.123565,-766.095498
4042.019109,-8512.368333,-1184.329507,-1685.410096
4042.019439,-8660.409521,-814.226536,-842.705048
4042.019769,-9030.512492,-1110.308913,536.266849
4042.020098,-9326.594869,-222.061783,1991.848295
4042.020428,-9622.677246,222.061783,2145.067394
4042.020758,-10584.944971,740.205942,459.657299
4042.021088,-10510.924376,222.061783,-919.314598
4042.021417,-10584.944971,370.102971,-766.095498
4042.021747,-10510.924376,148.041188,612.876398
4042.022077,-10066.800811,0.000000,1378.971896
4042.022406,-8882.471304,222.061783,612.876398
4042.022736,-8808.450710,-370.102971,-689.485948
4042.023066,-8956.491898,-740.205942,-2068.457845
4042.023395,-9474.636058,-296.082377,-1302.362347
4042.023725,-9400.615463,0.000000,76.609550
4042.024055,-9400.615463,296.082377,1608.800546
4042.024384,-9178.553681,740.205942,1378.971896
4042.024714,-10140.821405,1258.350101,-229.828649
4042.025044,-10807.006753,1258.350101,-1225.752797
4042.025374,-11843.295072,1184.329507,-995.924147
4042.025703,-11843.295072,962.267725,689.485948
4042.026033,-10881.027347,222.061783,1532.190996
4042.026363,-8956.491898,74.020594,995.924147
4042.026692,-8068.244768,-74.020594,-612.876398
4042.027022,-8882.471304,-222.061783,-1455.581446
4042.027352,-9622.677246,0.000000,-766.095498
4042.027681,-10066.800811,0.000000,919.314598
4042.028011,-9696.697840,740.205942,1378.971896
4042.028341,-9918.759623,814.226536,1608.800546
4042.028671,-10510.924376,1258.350101,76.609550
4042.029000,-10584.944971,740.205942,-1302.362347
4042.029330,-11029.068536,666.185348,-766.095498
4042.029660,-11029.068536,296.082377,766.095498
4042.029989,-9992.780217,0.000000,1991.848295
4042.030319,-9252.574275,0.000000,919.314598
4042.030649,-9030.512492,-518.144159,-459.657299
4042.030978,-8882.471304,-888.247130,-1072.533697
4042.031308,-8882.471304,-888.247130,-306.438199
4042.031638,-8956.491898,-666.185348,1072.533697
4042.031968,-8808.450710,-296.082377,2068.457845
4042.032297,-8734.430116,222.061783,1608.800546
4042.032627,-9992.780217,296.082377,0.000000
4042.032957,-10510.924376,370.102971,-1838.629195
4042.033286,-10658.965565,444.123565,-1072.533697
4042.033616,-10584.944971,0.000000,459.657299
4042.033946,-9548.656652,0.000000,1302.362347
4042.034275,-8586.388927,0.000000,689.485948
4042.034605,-9030.512492,-592.164754,-1225.752797
4042.034935,-9030.512492,-740.205942,-1532.190996
4042.035265,-8956.491898,-814.226536,-612.876398
4042.035594,-9326.594869,-814.226536,1302.362347
4042.035924,-9474.636058,0.000000,2145.067394
4042.036254,-10140.821405,0.000000,1455.581446
4042.036583,-10288.862594,222.061783,-612.876398
4042.036913,-10658.965565,148.041188,-1302.362347
4042.037243,-10807.006753,148.041188,-306.438199
4042.037572,-10584.944971,0.000000,1302.362347
4042.037902,-9326.594869,0.000000,1455.581446
4042.038232,-8808.450710,-444.123565,842.705048
4042.038562,-9030.512492,-962.267725,-919.314598
4042.038891,-9770.718434,-1184.329507,-1302.362347
4042.039221,-10288.862594,-1036.288319,459.657299
4042.039551,-9844.739029,-962.267725,2068.457845
4042.039880,-9030.512492,-370.102971,2528.115143
4042.040210,-9030.512492,222.061783,1532.190996
4042.040540,-9992.780217,444.123565,-383.047749
4042.040869,-11029.068536,666.185348,-1302.362347
4042.041199,-11621.233289,888.247130,-383.047749
4042.041529,-11473.192101,444.123565,1225.752797
4042.041859,-9770.718434,74.020594,1149.143247
4042.042188,-8586.388927,-74.020594,-229.828649
4042.042518,-8216.285956,-592.164754,-2068.457845
4042.042848,-8882.471304,-888.247130,-1762.019645
4042.043177,-9474.636058,-518.144159,153.219100
4042.043507,-9178.553681,-518.144159,2451.505594
4042.043837,-9178.553681,518.144159,2528.115143
4042.044166,-9918.759623,888.247130,1149.143247
4042.044496,-10436.903782,740.205942,-995.924147
4042.044826,-10807.006753,666.185348,-1455.581446
4042.045156,-10955.047942,518.144159,-229.828649
4042.045485,-10658.965565,740.205942,1762.019645
4042.045815,-9844.739029,888.247130,1608.800546
4042.046145,-8586.388927,666.185348,0.000000
4042.046474,-9326.594869,444.123565,-1991.848295
4042.046804,-9326.594869,148.041188,-2068.457845
4042.047134,-9696.697840,296.082377,-383.047749
4042.047463,-9252.574275,222.061783,1225.752797
4042.047793,-8956.491898,1036.288319,1072.533697
4042.048123,-9992.780217,1184.329507,842.705048
4042.048452,-10362.883188,666.185348,-1072.533697
4042.048782,-10807.006753,1036.288319,-1149.143247
4042.049112,-10955.047942,1332.370696,383.047749
4042.049442,-10732.986159,814.226536,2068.457845
4042.049771,-9770.718434,592.164754,1915.238745
4042.050101,-8956.491898,148.041188,306.438199
4042.050431,-9474.636058,148.041188,-1149.143247
4042.050760,-9844.739029,0.000000,-1455.581446
4042.051090,-9474.636058,-444.123565,153.219100
4042.051420,-8956.491898,-296.082377,1608.800546
4042.051749,-8586.388927,74.020594,1378.971896
4042.052079,-9252.574275,666.185348,-1072.533697
4042.052409,-9844.739029,74.020594,-1378.971896
4042.052739,-10658.965565,444.123565,-1072.533697
4042.053068,-11103.089130,592.164754,689.485948
4042.053398,-10362.883188,888.247130,2145.067394
4042.053728,-9400.615463,370.102971,1225.752797
4042.054057,-8586.388927,-74.020594,-229.828649
4042.054387,-8586.388927,-444.123565,-1915.238745
4042.054717,-9770.718434,-518.144159,-995.924147
4042.055046,-10214.842000,-740.205942,612.876398
4042.055376,-10066.800811,-592.164754,1685.410096
4042.055706,-9548.656652,-222.061783,1455.581446
4042.056036,-9548.656652,0.000000,306.438199
4042.056365,-9844.739029,-296.082377,-766.095498
4042.056695,-10436.903782,148.041188,-612.876398
4042.057025,-11103.089130,296.082377,1072.533697
4042.057354,-10584.944971,592.164754,2145.067394
4042.057684,-9622.677246,518.144159,1685.410096
4042.058014,-9696.697840,-148.041188,-612.876398
4042.058343,-9844.739029,-1036.288319,-1838.629195
4042.058673,-9992.780217,-1036.288319,-995.924147
4042.059003,-9770.718434,-1110.308913,459.657299
4042.059333,-9178.553681,-888.247130,2221.676944
4042.059662,-8882.471304,-592.164754,1608.800546
4042.059992,-9548.656652,0.000000,76.609550
4042.060322,-10288.862594,0.000000,-995.924147
4042.060651,-10955.047942,444.123565,-306.438199
4042.060981,-11325.150913,370.102971,1072.533697
4042.061311,-10436.903782,518.144159,1225.752797
4042.061640,-9030.512492,0.000000,689.485948
4042.061970,-8512.368333,-518.144159,-766.095498
4042.062300,-9474.636058,-888.247130,-1838.629195
4042.062630,-9622.677246,-740.205942,-689.485948
4042.062959,-9474.636058,-888.247130,1072.533697
4042.063289,-8734.430116,-666.185348,1991.848295
4042.063619,-8882.471304,-222.061783,1608.800546
4042.063948,-9992.780217,74.020594,229.828649
4042.064278,-10362.883188,0.000000,-1072.533697
4042.064608,-10510.924376,592.164754,-766.095498
4042.064937,-10584.944971,740.205942,383.047749
4042.065267,-9992.780217,740.205942,919.314598
4042.065597,-9400.615463,518.144159,0.000000
4042.065927,-9326.594869,0.000000,-1302.362347
4042.066256,-9252.574275,0.000000,-1915.238745
4042.066586,-9844.739029,-74.020594,0.000000
4042.066916,-9326.594869,-370.102971,1225.752797
4042.067245,-9030.512492,-148.041188,2298.286494
4042.067575,-8882.471304,592.164754,1991.848295
4042.067905,-9622.677246,444.123565,0.000000
4042.068234,-10436.903782,370.102971,-1149.143247
4042.068564,-11029.068536,1036.288319,0.000000
4042.068894,-11251.130318,1184.329507,919.314598
4042.069223,-10510.924376,1184.329507,1225.752797
4042.069553,-9474.636058,814.226536,0.000000
4042.069883,-9400.615463,74.020594,-1838.629195
4042.070213,-9400.615463,-296.082377,-2145.067394
4042.070542,-9622.677246,-518.144159,-383.047749
4042.070872,-9326.594869,0.000000,995.924147
4042.071202,-8808.450710,-148.041188,1685.410096
4042.071531,-9252.574275,222.061783,766.095498
4042.071861,-10066.800811,518.144159,0.000000
4042.072191,-10658.965565,74.020594,-536.266849
4042.072520,-11029.068536,518.144159,1225.752797
4042.072850,-11103.089130,370.102971,2068.457845
4042.073180,-9992.780217,222.061783,1685.410096
4042.073510,-8882.471304,222.061783,0.000000
4042.073840,-8882.471304,-370.102971,-1378.971896
4042.074170,-9326.594869,-370.102971,-1608.800546
4042.074499,-9770.718434,-222.061783,0.000000
4042.074829,-9474.636058,-370.102971,1608.800546
4042.075159,-9178.553681,-222.061783,1072.533697
4042.075489,-9252.574275,0.000000,153.219100
4042.075819,-10140.821405,0.000000,-1149.143247
4042.076149,-10140.821405,296.082377,-1455.581446
4042.076478,-10510.924376,370.102971,1072.533697
4042.076808,-10436.903782,444.123565,2451.505594
4042.077138,-10436.903782,370.102971,2145.067394
4042.077468,-9918.759623,592.164754,229.828649
4042.077798,-9918.759623,-74.020594,-1225.752797
4042.078128,-9918.759623,-814.226536,-1532.190996
4042.078457,-9474.636058,-666.185348,0.000000
4042.078787,-8660.409521,-740.205942,1532.190996
4042.079117,-8512.368333,-518.144159,1532.190996
4042.079447,-9326.594869,0.000000,229.828649
4042.079777,-10436.903782,-148.041188,-1225.752797
4042.080106,-10658.965565,148.041188,-1149.143247
4042.080436,-10584.944971,0.000000,0.000000
4042.080766,-10807.006753,0.000000,2221.676944
4042.081096,-9696.697840,148.041188,2298.286494
4042.081426,-8956.491898,-222.061783,536.266849
4042.081756,-9030.512492,0.000000,-1072.533697
4042.082085,-9400.615463,-518.144159,-1302.362347
4042.082415,-9844.739029,-222.061783,306.438199
4042.082745,-9474.636058,-148.041188,1072.533697
4042.083075,-9030.512492,0.000000,1149.143247
4042.083405,-9474.636058,74.020594,919.314598
4042.083735,-9992.780217,0.000000,-1072.533697
4042.084064,-10510.924376,444.123565,-1532.190996
4042.084394,-10658.965565,740.205942,-76.609550
4042.084724,-10510.924376,444.123565,995.924147
4042.085054,-9992.780217,518.144159,1225.752797
4042.085384,-9178.553681,296.082377,-153.219100
4042.085714,-9400.615463,222.061783,-1302.362347
4042.086043,-9326.594869,0.000000,-1225.752797
4042.086373,-9770.718434,-296.082377,0.000000
4042.086703,-8956.491898,-222.061783,1225.752797
4042.087033,-8734.430116,0.000000,1762.019645
4042.087363,-9474.636058,592.164754,689.485948
4042.087692,-10288.862594,148.041188,-612.876398
4042.088022,-10288.862594,296.082377,-1072.533697
4042.088352,-10881.027347,666.185348,383.047749
4042.088682,-10732.986159,518.144159,1532.190996
4042.089012,-9844.739029,666.185348,1608.800546
4042.089342,-9252.574275,518.144159,0.000000
4042.089671,-9548.656652,0.000000,-1149.143247
4042.090001,-10066.800811,74.020594,-1302.362347
4042.090331,-9770.718434,0.000000,-383.047749
4042.090661,-9326.594869,-370.102971,1225.752797
4042.090991,-8660.409521,-148.041188,1225.752797
4042.091321,-9326.594869,0.000000,766.095498
4042.091650,-9844.739029,222.061783,-153.219100
4042.091980,-10066.800811,0.000000,-383.047749
4042.092310,-10510.924376,444.123565,383.047749
4042.092640,-10510.924376,0.000000,1302.362347
4042.092970,-9844.739029,0.000000,1532.190996
4042.093300,-9474.636058,222.061783,536.266849
4042.093629,-9400.615463,-740.205942,-459.657299
4042.093959,-9696.697840,-518.144159,-1149.143247
4042.094289,-9696.697840,-740.205942,0.000000
4042.094619,-9104.533087,-222.061783,1532.190996
4042.094949,-8956.491898,0.000000,1608.800546
4042.095278,-9622.677246,0.000000,536.266849
4042.095608,-10066.800811,148.041188,-842.705048
4042.095938,-10214.842000,296.082377,-76.609550
4042.096268,-10881.027347,296.082377,306.438199
4042.096598,-10658.965565,296.082377,1302.362347
4042.096928,-10066.800811,0.000000,1455.581446
4042.097257,-9474.636058,0.000000,536.266849
4042.097587,-9326.594869,-296.082377,-1302.362347
4042.097917,-9696.697840,-370.102971,-1225.752797
4042.098247,-10066.800811,-296.082377,306.438199
4042.098577,-9770.718434,-444.123565,1072.533697
4042.098907,-9400.615463,-370.102971,1302.362347
4042.099236,-9548.656652,0.000000,459.657299
4042.099566,-10066.800811,148.041188,-229.828649
4042.099896,-10140.821405,0.000000,-306.438199
4042.100226,-10436.903782,444.123565,689.485948
4042.100556,-10436.903782,296.082377,1149.143247
4042.100886,-9992.780217,222.061783,1455.581446
4042.101215,-9548.656652,74.020594,-229.828649
4042.101545,-9326.594869,0.000000,-1225.752797
4042.101875,-9844.739029,-296.082377,-842.705048
4042.102205,-9844.739029,-370.102971,306.438199
4042.102535,-8882.471304,-666.185348,1302.362347
4042.102864,-8660.409521,0.000000,1149.143247
4042.103194,-9474.636058,444.123565,306.438199
4042.103524,-9474.636058,0.000000,-1149.143247
4042.103854,-10436.903782,518.144159,-1149.143247
4042.104184,-10658.965565,444.123565,306.438199
4042.104514,-10214.842000,814.226536,995.924147
4042.104843,-9844.739029,444.123565,842.705048
4042.105173,-9474.636058,148.041188,-459.657299
4042.105503,-9326.594869,-222.061783,-1762.019645
4042.105833,-9474.636058,370.102971,-842.705048
4042.106163,-9844.739029,0.000000,229.828649
4042.106493,-9696.697840,0.000000,1838.629195
4042.106822,-9104.533087,148.041188,995.924147
4042.107152,-9770.718434,222.061783,-229.828649
4042.107482,-9844.739029,444.123565,-1378.971896
4042.107812,-10214.842000,592.164754,-842.705048
4042.108142,-10658.965565,444.123565,459.657299
4042.108472,-10214.842000,296.082377,1838.629195
4042.108801,-9548.656652,296.082377,1685.410096
4042.109131,-9252.574275,0.000000,0.000000
4042.109461,-9474.636058,-148.041188,-1455.581446
4042.109791,-9548.656652,222.061783,-612.876398
4042.110121,-9918.759623,592.164754,919.314598
4042.110450,-9622.677246,74.020594,1608.800546
4042.110780,-9622.677246,518.144159,1685.410096
4042.111110,-9696.697840,370.102971,153.219100
4042.111440,-9696.697840,0.000000,-1225.752797
4042.111770,-9548.656652,222.061783,-1149.143247
4042.112100,-10510.924376,444.123565,383.047749
4042.112429,-10214.842000,518.144159,1378.971896
4042.112759,-9696.697840,518.144159,919.314598
4042.113089,-9178.553681,0.000000,153.219100
4042.113419,-9178.553681,0.000000,-1225.752797
4042.113749,-9770.718434,-296.082377,-612.876398
4042.114079,-10066.800811,-444.123565,1072.533697
4042.114408,-9400.615463,74.020594,1302.362347
4042.114738,-9252.574275,0.000000,2068.457845
4042.115068,-9474.636058,0.000000,153.219100
4042.115398,-9918.759623,0.000000,-1378.971896
4042.115728,-10214.842000,518.144159,-459.657299
4042.116057,-10510.924376,0.000000,766.095498
4042.116387,-10140.821405,222.061783,1762.019645
4042.116717,-9622.677246,296.082377,689.485948
4042.117047,-9474.636058,74.020594,-919.314598
4042.117377,-9696.697840,0.000000,-1378.971896
4042.117707,-10066.800811,0.000000,-919.314598
4042.118036,-9548.656652,-518.144159,766.095498
4042.118366,-9178.553681,-296.082377,2298.286494
4042.118696,-9104.533087,444.123565,1378.971896
4042.119026,-9622.677246,0.000000,-306.438199
4042.119356,-9918.759623,-74.020594,-1302.362347
4042.119686,-10066.800811,-222.061783,-459.657299
4042.120015,-10658.965565,370.102971,1072.533697
4042.120345,-10584.944971,0.000000,2451.505594
4042.120675,-9548.656652,74.020594,1225.752797
4042.121005,-9178.553681,-370.102971,-1225.752797
4042.121335,-9252.574275,-296.082377,-2451.505594
4042.121665,-9548.656652,0.000000,-1149.143247
4042.121994,-9548.656652,-296.082377,766.095498
4042.122324,-9326.594869,222.061783,1762.019645
4042.122654,-9474.636058,148.041188,1302.362347
4042.122984,-9548.656652,-222.061783,-459.657299
4042.123314,-10066.800811,-444.123565,-1225.752797
4042.123643,-10066.800811,-222.061783,0.000000
4042.123973,-9844.739029,-148.041188,1302.362347
4042.124303,-9104.533087,0.000000,2298.286494
4042.124633,-9104.533087,74.020594,1225.752797
4042.124963,-9326.594869,148.041188,-766.095498
4042.125293,-9844.739029,148.041188,-1455.581446
4042.125622,-10436.903782,296.082377,-153.219100
4042.125952,-10436.903782,74.020594,1149.143247
4042.126282,-9548.656652,0.000000,1455.581446
4042.126612,-9104.533087,0.000000,766.095498
4042.126942,-9326.594869,222.061783,-919.314598
4042.127272,-9770.718434,222.061783,-2068.457845
4042.127601,-10214.842000,370.102971,-842.705048
4042.127931,-9918.759623,0.000000,1225.752797
4042.128261,-9474.636058,592.164754,2451.505594
4042.128591,-9844.739029,962.267725,1225.752797
4042.128921,-9918.759623,370.102971,-229.828649
4042.129251,-10362.883188,148.041188,-995.924147
4042.129580,-10214.842000,0.000000,-536.266849
4042.129910,-9844.739029,0.000000,1838.629195
4042.130240,-9326.594869,0.000000,2451.505594
4042.130570,-8882.471304,74.020594,995.924147
4042.130900,-9474.636058,148.041188,-995.924147
4042.131229,-9770.718434,74.020594,-1762.019645
4042.131559,-10436.903782,444.123565,-689.485948
4042.131889,-10214.842000,444.123565,1225.752797
4042.132219,-9474.636058,444.123565,2221.676944
4042.132549,-9178.553681,444.123565,536.266849
4042.132879,-9474.636058,148.041188,-1685.410096
4042.133208,-10288.862594,0.000000,-1991.848295
4042.133538,-10732.986159,-370.102971,-153.219100
4042.133868,-10658.965565,0.000000,2068.457845
4042.134198,-9252.574275,-296.082377,2681.334243
4042.134528,-8808.450710,444.123565,1072.533697
4042.134858,-9400.615463,0.000000,-842.705048
4042.135187,-9844.739029,-296.082377,-1378.971896
4042.135517,-10510.924376,0.000000,306.438199
4042.135847,-10066.800811,-148.041188,1915.238745
4042.136177,-9474.636058,222.061783,1838.629195
4042.136507,-9326.594869,0.000000,306.438199
4042.136837,-9622.677246,-296.082377,-1991.848295
4042.137166,-9992.780217,-148.041188,-2374.896044
4042.137496,-9770.718434,0.000000,-842.705048
4042.137826,-9474.636058,0.000000,1532.190996
4042.138156,-9622.677246,444.123565,2068.457845
4042.138486,-9770.718434,518.144159,229.828649
4042.138815,-10066.800811,222.061783,-1838.629195
4042.139145,-10140.821405,-370.102971,-2221.676944
4042.139475,-10214.842000,-370.102971,153.219100
4042.139805,-9918.759623,-370.102971,2221.676944
4042.140135,-8956.491898,-592.164754,2221.676944
4042.140465,-8364.327145,-222.061783,689.485948
4042.140794,-8808.450710,-592.164754,-1532.190996
4042.141124,-10214.842000,-296.082377,-1762.019645
4042.141454,-10658.965565,518.144159,306.438199
4042.141784,-10140.821405,444.123565,1762.019645
4042.142114,-9178.553681,666.185348,1685.410096
4042.142444,-9252.574275,370.102971,0.000000
4042.142773,-10066.800811,296.082377,-1532.190996
4042.143103,-10510.924376,74.020594,-1302.362347
4042.143433,-10658.965565,74.020594,76.609550
4042.143763,-9770.718434,0.000000,1915.238745
4042.144093,-8808.450710,370.102971,2298.286494
4042.144423,-9252.574275,296.082377,689.485948
4042.144752,-9918.759623,148.041188,-1762.019645
4042.145082,-10584.944971,222.061783,-1762.019645
4042.145412,-10658.965565,74.020594,0.000000
4042.145742,-9844.739029,0.000000,2298.286494
4042.146072,-9252.574275,370.102971,2374.896044
4042.146401,-9474.636058,370.102971,383.047749
4042.146731,-9770.718434,74.020594,-1608.800546
4042.147061,-10362.883188,222.061783,-1532.190996
4042.147391,-10881.027347,222.061783,612.876398
4042.147721,-10658.965565,148.041188,2681.334243
4042.148051,-9326.594869,518.144159,2451.505594
4042.148380,-9178.553681,74.020594,536.266849
4042.148710,-9326.594869,0.000000,-1685.410096
4042.149040,-9770.718434,74.020594,-1378.971896
4042.149370,-10510.924376,370.102971,229.828649
4042.149700,-9770.718434,444.123565,2374.896044
4042.150030,-9178.553681,592.164754,1149.143247
4042.150359,-9252.574275,444.123565,0.000000
4042.150689,-10140.821405,0.000000,-1378.971896
4042.151019,-10214.842000,-370.102971,-995.924147
4042.151349,-10288.862594,-592.164754,1608.800546
4042.151679,-9622.677246,-740.205942,2757.943793
4042.152009,-9030.512492,-296.082377,2451.505594
4042.152338,-8882.471304,-370.102971,229.828649
4042.152668,-9918.759623,0.000000,-1225.752797
4042.152998,-10066.800811,74.020594,-1072.533697
4042.153328,-10732.986159,222.061783,919.314598
4042.153658,-9992.780217,592.164754,1685.410096
4042.153987,-9252.574275,962.267725,842.705048
4042.154317,-9030.512492,222.061783,-995.924147
4042.154647,-9400.615463,-444.123565,-3140.991542
4042.154977,-10140.821405,-296.082377,-1915.238745
4042.155307,-9770.718434,-148.041188,229.828649
4042.155637,-9474.636058,-296.082377,1762.019645
4042.155966,-9178.553681,0.000000,1532.190996
4042.156296,-9770.718434,-296.082377,-383.047749
4042.156626,-10436.903782,-296.082377,-1225.752797
4042.156956,-11029.068536,222.061783,0.000000
4042.157286,-10881.027347,74.020594,1378.971896
4042.157616,-10066.800811,444.123565,2068.457845
4042.157945,-9548.656652,444.123565,1225.752797
4042.158275,-9992.780217,74.020594,-383.047749
4042.158605,-9844.739029,-370.102971,-2374.896044
4042.158935,-9918.759623,-370.102971,-1149.143247
4042.159265,-9770.718434,-74.020594,1225.752797
4042.159595,-9104.533087,-296.082377,2374.896044
4042.159924,-8438.347739,0.000000,1455.581446
4042.160254,-9252.574275,-370.102971,-306.438199
4042.160584,-11103.089130,0.000000,-842.705048
4042.160914,-11251.130318,0.000000,76.609550
4042.161244,-10658.965565,296.082377,1991.848295
4042.161573,-9326.594869,370.102971,2528.115143
4042.161903,-9178.553681,518.144159,1455.581446
4042.162233,-9474.636058,518.144159,-919.314598
4042.162563,-10066.800811,74.020594,-1455.581446
4042.162893,-10214.842000,0.000000,-689.485948
4042.163223,-10140.821405,-74.020594,1149.143247
4042.163552,-8882.471304,-592.164754,1608.800546
4042.163882,-8068.244768,-518.144159,1378.971896
4042.164212,-8290.306550,-370.102971,-459.657299
4042.164542,-9326.594869,-148.041188,-459.657299
4042.164872,-10362.883188,666.185348,383.047749
4042.165202,-11103.089130,1036.288319,1532.190996
4042.165531,-10288.862594,1258.350101,1532.190996
4042.165861,-10658.965565,1628.453072,766.095498
4042.166191,-10807.006753,740.205942,-919.314598
4042.166521,-10362.883188,222.061783,-1915.238745
4042.166851,-9400.615463,592.164754,-1072.533697
4042.167181,-9252.574275,-444.123565,536.266849
4042.167510,-8734.430116,-148.041188,995.924147
4042.167840,-8586.388927,0.000000,383.047749
4042.168170,-9696.697840,518.144159,0.000000
4042.168500,-10362.883188,296.082377,-689.485948
4042.168830,-11103.089130,888.247130,76.609550
4042.169159,-10955.047942,740.205942,1149.143247
4042.169489,-10140.821405,666.185348,1149.143247
4042.169819,-9918.759623,962.267725,0.000000
4042.170149,-9696.697840,370.102971,-1072.533697
4042.170479,-9548.656652,222.061783,-1455.581446
4042.170809,-9992.780217,222.061783,-306.438199
4042.171138,-9844.739029,0.000000,995.924147
4042.171468,-9474.636058,-370.102971,842.705048
4042.171798,-8734.430116,-370.102971,229.828649
4042.172128,-9104.533087,-296.082377,-612.876398
4042.172457,-10362.883188,-74.020594,306.438199
4042.172787,-10584.944971,0.000000,1149.143247
4042.173117,-10140.821405,222.061783,1838.629195
4042.173447,-9918.759623,444.123565,1149.143247
4042.173776,-10140.821405,592.164754,0.000000
4042.174106,-10140.821405,0.000000,-1149.143247
4042.174436,-9696.697840,-444.123565,-1149.143247
4042.174765,-9474.636058,-370.102971,0.000000
4042.175095,-8956.491898,-962.267725,459.657299
4042.175425,-8734.430116,-444.123565,1072.533697
4042.175755,-8364.327145,-518.144159,0.000000
4042.176084,-9104.533087,-518.144159,-919.314598
4042.176414,-10214.842000,222.061783,-612.876398
4042.176744,-10955.047942,1110.308913,1225.752797
4042.177073,-11103.089130,888.247130,2068.457845
4042.177403,-10658.965565,814.226536,1072.533697
4042.177733,-10510.924376,1036.288319,0.000000
4042.178062,-10214.842000,444.123565,-1302.362347
4042.178392,-9770.718434,0.000000,-1455.581446
4042.178722,-9770.718434,222.061783,0.000000
4042.179052,-9178.553681,-518.144159,689.485948
4042.179381,-8956.491898,-518.144159,919.314598
4042.179711,-8882.471304,-222.061783,0.000000
4042.180041,-9400.615463,-592.164754,-612.876398
4042.180370,-10066.800811,-148.041188,0.000000
4042.180700,-10807.006753,370.102971,1762.019645
4042.181030,-10288.862594,296.082377,2604.724693
4042.181360,-10362.883188,518.144159,1838.629195
4042.181689,-10214.842000,296.082377,306.438199
4042.182019,-10362.883188,0.000000,-689.485948
4042.182349,-9992.780217,-296.082377,-536.266849
4042.182678,-9548.656652,-444.123565,842.705048
4042.183008,-8882.471304,-592.164754,1608.800546
4042.183338,-8586.388927,-296.082377,1608.800546
4042.183668,-8586.388927,-518.144159,153.219100
4042.183997,-9474.636058,-296.082377,-1225.752797
4042.184327,-9622.677246,0.000000,-766.095498
4042.184657,-10214.842000,148.041188,689.485948
4042.184986,-10288.862594,444.123565,1378.971896
4042.185316,-9622.677246,296.082377,1608.800546
4042.185646,-9770.718434,296.082377,153.219100
4042.185976,-9918.759623,0.000000,-1149.143247
4042.186305,-9696.697840,-222.061783,-995.924147
4042.186635,-9252.574275,-296.082377,306.438199
4042.186965,-9326.594869,-518.144159,995.924147
4042.187294,-8586.388927,-296.082377,1225.752797
4042.187624,-8956.491898,-296.082377,459.657299
4042.187954,-9622.677246,-296.082377,-306.438199
4042.188284,-10436.903782,370.102971,-383.047749
4042.188613,-10510.924376,222.061783,306.438199
4042.188943,-10732.986159,296.082377,842.705048
4042.189273,-10214.842000,444.123565,536.266849
4042.189602,-9992.780217,518.144159,-689.485948
4042.189932,-10140.821405,518.144159,-1915.238745
4042.190262,-9844.739029,0.000000,-1225.752797
4042.190592,-9696.697840,-148.041188,306.438199
4042.190921,-9252.574275,-222.061783,1608.800546
4042.191251,-9326.594869,-222.061783,1685.410096
4042.191581,-9326.594869,-518.144159,612.876398
4042.191910,-9992.780217,-74.020594,-612.876398
4042.192240,-10436.903782,0.000000,536.266849
4042.192570,-10807.006753,222.061783,1225.752797
4042.192900,-10214.842000,370.102971,1991.848295
4042.193229,-9844.739029,666.185348,1378.971896
4042.193559,-9918.759623,592.164754,0.000000
4042.193889,-10214.842000,666.185348,-1532.190996
4042.194218,-9844.739029,518.144159,-1378.971896
4042.194548,-9770.718434,74.020594,0.000000
4042.194878,-9770.718434,-74.020594,919.314598
4042.195208,-8660.409521,-296.082377,995.924147
4042.195537,-8956.491898,-370.102971,0.000000
4042.195867,-9252.574275,-296.082377,-995.924147
4042.196197,-9992.780217,0.000000,0.000000
4042.196526,-10584.944971,0.000000,919.314598
4042.196856,-10214.842000,296.082377,1838.629195
4042.197186,-10066.800811,814.226536,1762.019645
4042.197516,-10066.800811,666.185348,229.828649
4042.197845,-9992.780217,444.123565,-1685.410096
4042.198175,-9696.697840,296.082377,-1378.971896
4042.198505,-9326.594869,0.000000,0.000000
4042.198834,-9252.574275,0.000000,842.705048
4042.199164,-8660.409521,74.020594,995.924147
4042.199494,-8660.409521,0.000000,-153.219100
4042.199823,-9252.574275,148.041188,-1302.362347
4042.200153,-10362.883188,740.205942,-689.485948
4042.200483,-10955.047942,814.226536,459.657299
4042.200813,-10140.821405,370.102971,1149.143247
4042.201142,-9844.739029,1184.329507,1072.533697
4042.201472,-9918.759623,962.267725,-229.828649
4042.201802,-10288.862594,518.144159,-1838.629195
4042.202131,-10510.924376,518.144159,-1225.752797
4042.202461,-10362.883188,222.061783,383.047749
4042.202791,-9992.780217,0.000000,1072.533697
4042.203121,-8734.430116,-518.144159,1378.971896
4042.203450,-8586.388927,-962.267725,689.485948
4042.203780,-8808.450710,-148.041188,-229.828649
4042.204110,-9770.718434,-74.020594,76.609550
4042.204439,-10658.965565,222.061783,1149.143247
4042.204769,-10214.842000,518.144159,2068.457845
4042.205099,-9918.759623,148.041188,1762.019645
4042.205429,-10214.842000,518.144159,0.000000
4042.205758,-10658.965565,0.000000,-1072.533697
4042.206088,-10140.821405,-222.061783,-689.485948
4042.206418,-9844.739029,-518.144159,306.438199
4042.206747,-9104.533087,-962.267725,842.705048
4042.207077,-8290.306550,-814.226536,766.095498
4042.207407,-8364.327145,-962.267725,-153.219100
4042.207737,-8512.368333,-1036.288319,-383.047749
4042.208066,-9326.594869,-222.061783,459.657299
4042.208396,-10510.924376,0.000000,1302.362347
4042.208726,-10658.965565,370.102971,1685.410096
4042.209055,-10510.924376,888.247130,153.219100
4042.209385,-10436.903782,0.000000,-1378.971896
4042.209715,-10140.821405,0.000000,-2451.505594
4042.210045,-9844.739029,-296.082377,-995.924147
4042.210374,-10066.800811,-444.123565,306.438199
4042.210704,-9104.533087,-370.102971,842.705048
4042.211034,-8586.388927,-370.102971,612.876398
4042.211363,-9030.512492,-74.020594,-689.485948
4042.211693,-9770.718434,-148.041188,-1378.971896
4042.212023,-10584.944971,444.123565,-995.924147
4042.212353,-10584.944971,74.020594,1149.143247
4042.212682,-10807.006753,222.061783,1608.800546
4042.213012,-10436.903782,222.061783,1225.752797
4042.213342,-10510.924376,0.000000,-306.438199
4042.213671,-9992.780217,-444.123565,-919.314598
4042.214001,-9918.759623,-592.164754,76.609550
4042.214331,-9918.759623,-518.144159,1762.019645
4042.214661,-9104.533087,-296.082377,2145.067394
4042.214990,-8438.347739,0.000000,995.924147
4042.215320,-8956.491898,-592.164754,-153.219100
4042.215650,-9770.718434,-370.102971,-1225.752797
4042.215979,-10510.924376,74.020594,-153.219100
4042.216309,-10214.842000,0.000000,842.705048
4042.216639,-9622.677246,518.144159,1149.143247
4042.216969,-9030.512492,518.144159,612.876398
4042.217298,-9252.574275,296.082377,-1072.533697
4042.217628,-9844.739029,148.041188,-1532.190996
4042.217958,-9992.780217,148.041188,306.438199
4042.218287,-9918.759623,0.000000,2068.457845
4042.218617,-9400.615463,-222.061783,2451.505594
4042.218947,-8882.471304,-296.082377,612.876398
4042.219277,-8660.409521,-592.164754,-1149.143247
4042.219606,-8956.491898,0.000000,-2221.676944
4042.219936,-9770.718434,222.061783,76.609550
4042.220266,-10658.965565,592.164754,1455.581446
4042.220595,-9770.718434,1110.308913,1378.971896
4042.220925,-9548.656652,1480.411884,459.657299
4042.221255,-9844.739029,592.164754,-1915.238745
4042.221584,-10732.986159,444.123565,-2298.286494
4042.221914,-10658.965565,0.000000,-229.828649
4042.222244,-9622.677246,0.000000,1685.410096
4042.222574,-8808.450710,0.000000,1608.800546
4042.222903,-8512.368333,74.020594,689.485948
4042.223233,-9400.615463,0.000000,-1072.533697
4042.223563,-10214.842000,74.020594,-995.924147
4042.223892,-10955.047942,518.144159,-76.609550
4042.224222,-11103.089130,592.164754,2145.067394
4042.224552,-10510.924376,592.164754,2604.724693
4042.224882,-9844.739029,740.205942,995.924147
4042.225211,-9622.677246,740.205942,-919.314598
4042.225541,-9696.697840,74.020594,-2145.067394
4042.225871,-10288.862594,74.020594,-383.047749
4042.226200,-9918.759623,0.000000,1378.971896
4042.226530,-9252.574275,0.000000,1685.410096
4042.226860,-8956.491898,0.000000,612.876398
4042.227190,-9252.574275,-444.123565,-1072.533697
4042.227519,-9770.718434,-370.102971,-1072.533697
4042.227849,-10584.944971,222.061783,612.876398
4042.228179,-10732.986159,296.082377,2528.115143
4042.228508,-9844.739029,148.041188,2451.505594
4042.228838,-9918.759623,888.247130,842.705048
4042.229168,-10658.965565,592.164754,-1455.581446
4042.229498,-10807.006753,814.226536,-1915.238745
4042.229827,-9918.759623,-148.041188,-536.266849
4042.230157,-9474.636058,-222.061783,1455.581446
4042.230487,-8512.368333,-518.144159,1915.238745
4042.230816,-8808.450710,-444.123565,1072.533697
4042.231146,-9400.615463,-740.205942,-995.924147
4042.231476,-9474.636058,-148.041188,-2068.457845
4042.231806,-9992.780217,222.061783,0.000000
4042.232135,-10362.883188,592.164754,1762.019645
4042.232465,-10140.821405,1110.308913,1838.629195
4042.232795,-9548.656652,888.247130,459.657299
4042.233124,-9770.718434,370.102971,-1838.629195
4042.233454,-10214.842000,592.164754,-2451.505594
4042.233784,-10584.944971,666.185348,-229.828649
4042.234114,-9622.677246,74.020594,842.705048
4042.234443,-8438.347739,-148.041188,919.314598
4042.234773,-8882.471304,-148.041188,-229.828649
4042.235103,-9474.636058,-444.123565,-459.657299
4042.235432,-10066.800811,-148.041188,-536.266849
4042.235762,-10214.842000,74.020594,1149.143247
4042.236092,-10140.821405,444.123565,2451.505594
4042.236422,-10066.800811,1110.308913,2068.457845
4042.236751,-10288.862594,592.164754,842.705048
4042.237081,-10140.821405,148.041188,-1455.581446
4042.237411,-10214.842000,0.000000,-1225.752797
4042.237740,-10066.800811,-222.061783,306.438199
4042.238070,-9474.636058,-370.102971,2068.457845
4042.238400,-8216.285956,-518.144159,1762.019645
4042.238730,-8290.306550,-370.102971,76.609550
4042.239059,-9326.594869,-518.144159,-1225.752797
4042.239389,-10214.842000,0.000000,0.000000
4042.239719,-10732.986159,0.000000,1532.190996
4042.240048,-10362.883188,296.082377,2298.286494
4042.240378,-9992.780217,740.205942,1608.800546
4042.240708,-9918.759623,370.102971,229.828649
4042.241038,-10140.821405,0.000000,-1685.410096
4042.241367,-10436.903782,222.061783,-612.876398
4042.241697,-10214.842000,-222.061783,766.095498
4042.242027,-9400.615463,-518.144159,1838.629195
4042.242356,-8512.368333,-444.123565,612.876398
4042.242686,-8660.409521,-740.205942,-536.266849
4042.243016,-9400.615463,-592.164754,-1149.143247
4042.243345,-10066.800811,-518.144159,-383.047749
4042.243675,-10584.944971,444.123565,1532.190996
4042.244005,-9992.780217,592.164754,2374.896044
4042.244335,-10066.800811,1036.288319,1225.752797
4042.244664,-10362.883188,962.267725,-919.314598
4042.244994,-10658.965565,370.102971,-2451.505594
4042.245324,-10955.047942,518.144159,-1302.362347
4042.245653,-10510.924376,0.000000,689.485948
4042.245983,-9474.636058,-444.123565,1762.019645
4042.246313,-8586.388927,-444.123565,1072.533697
4042.246643,-8808.450710,-518.144159,-306.438199
4042.246972,-9400.615463,-444.123565,-1608.800546
4042.247302,-9992.780217,74.020594,-459.657299
4042.247632,-10584.944971,148.041188,1685.410096
4042.247961,-11029.068536,962.267725,2604.724693
4042.248291,-10955.047942,962.267725,1302.362347
4042.248621,-10584.944971,74.020594,-612.876398
4042.248951,-9918.759623,-592.164754,-1685.410096
4042.249280,-9622.677246,0.000000,-383.047749
4042.249610,-9400.615463,-148.041188,1302.362347
4042.249940,-8586.388927,-296.082377,1455.581446
4042.250269,-8290.306550,-296.082377,612.876398
4042.250599,-9104.533087,-444.123565,-536.266849
4042.250929,-10436.903782,0.000000,-1225.752797
4042.251259,-10362.883188,370.102971,-229.828649
4042.251588,-10362.883188,740.205942,1302.362347
4042.251918,-9696.697840,666.185348,1455.581446
4042.252248,-9178.553681,1110.308913,383.047749
4042.252577,-9992.780217,666.185348,-1302.362347
4042.252907,-10436.903782,740.205942,-1608.800546
4042.253237,-10584.944971,518.144159,0.000000
4042.253567,-9770.718434,74.020594,1685.410096
4042.253896,-8660.409521,-222.061783,612.876398
4042.254226,-8364.327145,148.041188,-153.219100
4042.254556,-8808.450710,-74.020594,-1685.410096
4042.254885,-9548.656652,0.000000,-1532.190996
4042.255215,-10066.800811,592.164754,-76.609550
4042.255545,-10436.903782,814.226536,1685.410096
4042.255875,-10140.821405,814.226536,1838.629195
4042.256204,-9992.780217,962.267725,0.000000
4042.256534,-9992.780217,814.226536,-1608.800546
4042.256864,-10436.903782,222.061783,-1762.019645
4042.257193,-10140.821405,0.000000,0.000000
4042.257523,-10066.800811,0.000000,1838.629195
4042.257853,-9178.553681,0.000000,2298.286494
4042.258183,-8734.430116,0.000000,459.657299
4042.258512,-9474.636058,-444.123565,-995.924147
4042.258842,-10066.800811,222.061783,-612.876398
4042.259172,-10140.821405,370.102971,842.705048
4042.259501,-10510.924376,74.020594,2068.457845
4042.259831,-9992.780217,592.164754,2068.457845
4042.260161,-10362.883188,222.061783,383.047749
4042.260491,-10436.903782,0.000000,-1072.533697
4042.260820,-10066.800811,-666.185348,-1532.190996
4042.261150,-10436.903782,-444.123565,383.047749
4042.261480,-9474.636058,-592.164754,2298.286494
4042.261809,-8290.306550,-740.205942,2528.115143
4042.262139,-8216.285956,-962.267725,1762.019645
4042.262469,-9252.574275,-962.267725,-459.657299
4042.262799,-9992.780217,-518.144159,-612.876398
4042.263128,-10214.842000,-296.082377,459.657299
4042.263458,-10214.842000,-518.144159,1838.629195
4042.263788,-9770.718434,222.061783,1608.800546
4042.264117,-9474.636058,370.102971,-76.609550
4042.264447,-9548.656652,148.041188,-1608.800546
4042.264777,-10214.842000,148.041188,-1915.238745
4042.265106,-10214.842000,222.061783,-459.657299
4042.265436,-9770.718434,-444.123565,689.485948
4042.265766,-8882.471304,-444.123565,459.657299
4042.266096,-8586.388927,-1036.288319,153.219100
4042.266425,-9178.553681,-1258.350101,-383.047749
4042.266755,-9992.780217,-666.185348,0.000000
4042.267085,-10732.986159,0.000000,1378.971896
4042.267414,-10658.965565,370.102971,1455.581446
4042.267744,-9992.780217,370.102971,919.314598
4042.268074,-10436.903782,962.267725,153.219100
4042.268404,-10732.986159,814.226536,-1225.752797
4042.268733,-10140.821405,370.102971,-1149.143247
4042.269063,-10214.842000,222.061783,-306.438199
4042.269393,-9548.656652,0.000000,306.438199
4042.269722,-8660.409521,-592.164754,0.000000
4042.270052,-8364.327145,-518.144159,-689.485948
4042.270382,-8882.471304,-740.205942,-766.095498
4042.270712,-9770.718434,222.061783,76.609550
4042.271041,-10732.986159,222.061783,1762.019645
4042.271371,-10807.006753,592.164754,2068.457845
4042.271701,-10807.006753,814.226536,1455.581446
4042.272030,-10362.883188,1110.308913,0.000000
4042.272360,-9918.759623,370.102971,-689.485948
4042.272690,-9696.697840,0.000000,-229.828649
4042.273020,-9474.636058,222.061783,842.705048
4042.273349,-9252.574275,-296.082377,766.095498
4042.273679,-8438.347739,-370.102971,0.000000
4042.274009,-8586.388927,-222.061783,-919.314598
4042.274338,-8956.491898,-740.205942,-689.485948
4042.274668,-9326.594869,74.020594,306.438199
4042.274998,-10066.800811,592.164754,1685.410096
4042.275328,-10436.903782,814.226536,1685.410096
4042.275657,-10436.903782,888.247130,842.705048
4042.275987,-10732.986159,888.247130,-995.924147
4042.276317,-9844.739029,148.041188,-1149.143247
4042.276646,-10066.800811,296.082377,0.000000
4042.276976,-9548.656652,74.020594,689.485948
4042.277306,-9252.574275,-518.144159,1072.533697
4042.277636,-8438.347739,-222.061783,306.438199
4042.277965,-8956.491898,0.000000,-919.314598
4042.278295,-9696.697840,-222.061783,-1072.533697
4042.278625,-10140.821405,0.000000,76.609550
4042.278954,-10436.903782,370.102971,1225.752797
4042.279284,-10362.883188,518.144159,1225.752797
4042.279614,-10214.842000,814.226536,0.000000
4042.279944,-10510.924376,814.226536,-1378.971896
4042.280273,-10214.842000,370.102971,-2068.457845
4042.280603,-10214.842000,370.102971,-229.828649
4042.280933,-9770.718434,518.144159,995.924147
4042.281262,-9622.677246,-148.041188,995.924147
4042.281592,-8808.450710,-296.082377,536.266849
4042.281922,-9252.574275,-592.164754,0.000000
4042.282252,-9770.718434,-888.247130,-383.047749
4042.282581,-10288.862594,-296.082377,995.924147
4042.282911,-10214.842000,0.000000,2221.676944
4042.283241,-9770.718434,74.020594,1991.848295
4042.283570,-9992.780217,814.226536,612.876398
4042.283900,-11177.109724,592.164754,-383.047749
4042.284230,-10955.047942,222.061783,-919.314598
4042.284560,-10066.800811,-222.061783,0.000000
4042.284889,-9622.677246,-74.020594,1149.143247
4042.285219,-8956.491898,-592.164754,1302.362347
4042.285549,-8290.306550,-666.185348,459.657299
4042.285878,-8364.327145,-518.144159,-612.876398
4042.286208,-9030.512492,-296.082377,-766.095498
4042.286538,-10362.883188,-222.061783,306.438199
4042.286868,-10584.944971,0.000000,1762.019645
4042.287197,-9844.739029,222.061783,1378.971896
4042.287527,-9770.718434,666.185348,536.266849
4042.287857,-10288.862594,148.041188,-919.314598
4042.288186,-10807.006753,222.061783,-1455.581446
4042.288516,-10288.862594,74.020594,0.000000
4042.288846,-9992.780217,-444.123565,1225.752797
4042.289175,-9918.759623,-222.061783,1149.143247
4042.289505,-8882.471304,-444.123565,0.000000
4042.289835,-8586.388927,-666.185348,-1149.143247
4042.290165,-8882.471304,-740.205942,-1072.533697
4042.290494,-9548.656652,0.000000,536.266849
4042.290824,-10140.821405,74.020594,1762.019645
4042.291154,-10658.965565,1036.288319,2145.067394
4042.291483,-10732.986159,1184.329507,919.314598
4042.291813,-11251.130318,592.164754,-306.438199
4042.292143,-11029.068536,296.082377,-1302.362347
4042.292473,-10362.883188,148.041188,0.000000
4042.292802,-9548.656652,0.000000,1149.143247
4042.293132,-9030.512492,-518.144159,1455.581446
4042.293462,-8438.347739,0.000000,153.219100
4042.293791,-8734.430116,-592.164754,-995.924147
4042.294121,-9104.533087,0.000000,-1225.752797
4042.294451,-9918.759623,222.061783,153.219100
4042.294781,-10510.924376,518.144159,1302.362347
4042.295110,-9918.759623,740.205942,2068.457845
4042.295440,-9918.759623,444.123565,919.314598
4042.295770,-10584.944971,370.102971,-536.266849
4042.296099,-10214.842000,370.102971,-536.266849
4042.296429,-9992.780217,74.020594,153.219100
4042.296759,-9474.636058,-296.082377,1149.143247
4042.297089,-9104.533087,-222.061783,1532.190996
4042.297418,-8586.388927,-518.144159,919.314598
4042.297748,-8586.388927,-592.164754,-766.095498
4042.298078,-9178.553681,-222.061783,-995.924147
4042.298407,-9844.739029,222.061783,459.657299
4042.298737,-10066.800811,0.000000,1532.190996
4042.299067,-10658.965565,814.226536,1608.800546
4042.299397,-10881.027347,1184.329507,229.828649
4042.299726,-10881.027347,814.226536,-766.095498
4042.300056,-10362.883188,518.144159,-1302.362347
4042.300386,-9918.759623,666.185348,0.000000
4042.300715,-9770.718434,296.082377,766.095498
4042.301045,-9474.636058,296.082377,612.876398
4042.301375,-9030.512492,148.041188,0.000000
4042.301705,-9474.636058,-370.102971,-1225.752797
4042.302034,-9474.636058,-296.082377,-1225.752797
4042.302364,-9770.718434,0.000000,612.876398
4042.302694,-10066.800811,0.000000,1838.629195
4042.303023,-10066.800811,370.102971,1608.800546
4042.303353,-10214.842000,814.226536,229.828649
4042.303683,-10510.924376,518.144159,-995.924147
4042.304013,-10510.924376,444.123565,-995.924147
4042.304342,-10436.903782,222.061783,919.314598
4042.304672,-10066.800811,0.000000,1838.629195
4042.305002,-9178.553681,-370.102971,1072.533697
4042.305331,-8808.450710,-814.226536,-383.047749
4042.305661,-8882.471304,-962.267725,-1532.190996
4042.305991,-9252.574275,-1258.350101,-1149.143247
4042.306321,-9696.697840,-148.041188,766.095498
4042.306650,-9770.718434,-296.082377,2451.505594
4042.306980,-9992.780217,74.020594,2681.334243
4042.307310,-10066.800811,444.123565,612.876398
4042.307639,-10658.965565,148.041188,-1149.143247
4042.307969,-10214.842000,0.000000,-842.705048
4042.308299,-10436.903782,74.020594,766.095498
4042.308629,-9844.739029,-370.102971,1685.410096
4042.308958,-9030.512492,-296.082377,1225.752797
4042.309288,-8438.347739,-370.102971,0.000000
4042.309618,-8956.491898,-962.267725,-1762.019645
4042.309947,-9400.615463,-444.123565,-2145.067394
4042.310277,-9770.718434,0.000000,766.095498
4042.310607,-9918.759623,0.000000,2451.505594
4042.310937,-10362.883188,370.102971,2757.943793
4042.311266,-10288.862594,1036.288319,689.485948
4042.311596,-10362.883188,814.226536,-1685.410096
4042.311926,-10807.006753,592.164754,-1455.581446
4042.312255,-10955.047942,222.061783,153.219100
4042.312585,-10214.842000,-74.020594,1302.362347
4042.312915,-8956.491898,-518.144159,1149.143247
4042.313244,-8290.306550,-888.247130,0.000000
4042.313574,-9030.512492,-962.267725,-1072.533697
4042.313904,-9178.553681,-814.226536,-842.705048
4042.314234,-9474.636058,-518.144159,919.314598
4042.314563,-9548.656652,-148.041188,2451.505594
4042.314893,-10066.800811,222.061783,2757.943793
4042.315223,-10140.821405,592.164754,995.924147
4042.315552,-10436.903782,222.061783,-1149.143247
4042.315882,-10807.006753,370.102971,-1072.533697
4042.316212,-10510.924376,0.000000,153.219100
4042.316542,-9844.739029,-74.020594,1225.752797
4042.316871,-8512.368333,0.000000,1532.190996
4042.317201,-8438.347739,0.000000,0.000000
4042.317531,-9622.677246,0.000000,-1532.190996
4042.317860,-10066.800811,-74.020594,-1685.410096
4042.318190,-9770.718434,0.000000,-612.876398
4042.318520,-9474.636058,148.041188,1149.143247
4042.318850,-9918.759623,888.247130,1838.629195
4042.319179,-10658.965565,1036.288319,995.924147
4042.319509,-10584.944971,444.123565,-995.924147
4042.319839,-10584.944971,666.185348,-919.314598
4042.320168,-11103.089130,518.144159,1149.143247
4042.320498,-10214.842000,296.082377,1838.629195
4042.320828,-8956.491898,-222.061783,1685.410096
4042.321158,-8734.430116,0.000000,306.438199
4042.321487,-9252.574275,-296.082377,-1378.971896
4042.321817,-9696.697840,74.020594,-1915.238745
4042.322147,-9770.718434,0.000000,-229.828649
4042.322476,-9474.636058,444.123565,1302.362347
4042.322806,-9474.636058,1110.308913,1378.971896
4042.323136,-9992.780217,888.247130,153.219100
4042.323466,-10510.924376,962.267725,-2145.067394
4042.323795,-10881.027347,962.267725,-1455.581446
4042.324125,-10658.965565,518.144159,0.000000
4042.324455,-10066.800811,0.000000,1762.019645
4042.324784,-9030.512492,148.041188,1378.971896
4042.325114,-8290.306550,-518.144159,229.828649
4042.325444,-8438.347739,-888.247130,-1149.143247
4042.325774,-9400.615463,-962.267725,-842.705048
4042.326103,-10140.821405,-148.041188,536.266849
4042.326433,-9918.759623,0.000000,1838.629195
4042.326763,-9622.677246,740.205942,1685.410096
4042.327092,-9622.677246,370.102971,-536.266849
4042.327422,-9844.739029,148.041188,-1608.800546
4042.327752,-10510.924376,222.061783,-1225.752797
4042.328082,-10658.965565,0.000000,459.657299
4042.328411,-9918.759623,74.020594,1762.019645
4042.328741,-9030.512492,148.041188,1608.800546
4042.329071,-8586.388927,-148.041188,-229.828649
4042.329400,-9918.759623,-592.164754,-1302.362347
4042.329730,-10436.903782,-370.102971,-689.485948
4042.330060,-10288.862594,0.000000,1378.971896
4042.330390,-9252.574275,0.000000,2145.067394
4042.330719,-9178.553681,148.041188,1455.581446
4042.331049,-9918.759623,888.247130,-536.266849
4042.331379,-10510.924376,666.185348,-1608.800546
4042.331708,-11251.130318,592.164754,-1072.533697
4042.332038,-11177.109724,296.082377,766.095498
4042.332368,-10362.883188,-74.020594,1915.238745
4042.332698,-9252.574275,-740.205942,1302.362347
4042.333027,-9030.512492,-962.267725,-383.047749
4042.333357,-8956.491898,-1258.350101,-689.485948
4042.333687,-9326.594869,-1036.288319,153.219100
4042.334016,-9918.759623,-592.164754,1455.581446
4042.334346,-9696.697840,-296.082377,2298.286494
4042.334676,-9770.718434,370.102971,1685.410096
4042.335006,-10362.883188,74.020594,-306.438199
4042.335335,-10807.006753,-518.144159,-1378.971896
4042.335665,-10436.903782,-296.082377,-306.438199
4042.335995,-9474.636058,-296.082377,689.485948
4042.336324,-8734.430116,-740.205942,1685.410096
4042.336654,-7994.224174,-222.061783,689.485948
4042.336984,-8660.409521,-962.267725,-612.876398
4042.337313,-9918.759623,-296.082377,-1302.362347
4042.337643,-10436.903782,-296.082377,0.000000
4042.337973,-9918.759623,0.000000,1378.971896
4042.338303,-9844.739029,222.061783,2068.457845
4042.338632,-10288.862594,592.164754,612.876398
4042.338962,-9992.780217,666.185348,-1532.190996
4042.339292,-10140.821405,370.102971,-2298.286494
4042.339621,-10288.862594,592.164754,-919.314598
4042.339951,-10807.006753,518.144159,1991.848295
4042.340281,-10214.842000,296.082377,1991.848295
4042.340611,-9030.512492,74.020594,842.705048
4042.340940,-8808.450710,-444.123565,-1302.362347
4042.341270,-9474.636058,-592.164754,-1302.362347
4042.341600,-10066.800811,-296.082377,842.705048
4042.341929,-9992.780217,0.000000,2528.115143
4042.342259,-9400.615463,444.123565,2604.724693
4042.342589,-9548.656652,1110.308913,919.314598
4042.342919,-10362.883188,592.164754,-1225.752797
4042.343248,-10732.986159,296.082377,-2374.896044
4042.343578,-10658.965565,592.164754,0.000000
4042.343908,-10140.821405,444.123565,1455.581446
4042.344237,-9104.533087,296.082377,1685.410096
4042.344567,-8068.244768,-592.164754,689.485948
4042.344897,-8734.430116,-444.123565,-1378.971896
4042.345227,-9400.615463,-296.082377,-1608.800546
4042.345556,-9918.759623,0.000000,153.219100
4042.345886,-10066.800811,518.144159,2604.724693
4042.346216,-9622.677246,666.185348,1838.629195
4042.346545,-10362.883188,740.205942,459.657299
4042.346875,-10658.965565,592.164754,-1302.362347
4042.347205,-10807.006753,0.000000,-1532.190996
4042.347535,-10658.965565,592.164754,0.000000
4042.347864,-9548.656652,74.020594,1532.190996
4042.348194,-8660.409521,148.041188,2221.676944
4042.348524,-8216.285956,0.000000,383.047749
4042.348853,-9474.636058,-444.123565,-1302.362347
4042.349183,-10066.800811,-370.102971,-1532.190996
4042.349513,-10807.006753,0.000000,229.828649
4042.349843,-10066.800811,0.000000,1838.629195
4042.350172,-8882.471304,296.082377,2298.286494
4042.350502,-9474.636058,740.205942,306.438199
4042.350832,-10584.944971,814.226536,-1378.971896
4042.351161,-11399.171507,518.144159,-1302.362347
4042.351491,-11325.150913,666.185348,459.657299
4042.351821,-10584.944971,148.041188,1915.238745
4042.352151,-9178.553681,-296.082377,1149.143247
4042.352480,-8586.388927,-518.144159,0.000000
4042.352810,-9030.512492,-962.267725,-995.924147
4042.353140,-9400.615463,-888.247130,-995.924147
4042.353469,-9696.697840,-222.061783,306.438199
4042.353799,-9992.780217,-370.102971,1532.190996
4042.354129,-9696.697840,0.000000,1991.848295
4042.354459,-10140.821405,222.061783,1378.971896
4042.354788,-10658.965565,-74.020594,0.000000
4042.355118,-10436.903782,-222.061783,-229.828649
4042.355448,-10214.842000,-296.082377,459.657299
4042.355777,-9474.636058,0.000000,2145.067394
4042.356107,-8882.471304,148.041188,1302.362347
4042.356437,-8808.450710,-148.041188,0.000000
4042.356767,-9400.615463,-518.144159,-1149.143247
4042.357096,-9696.697840,-592.164754,-919.314598
4042.357426,-9622.677246,74.020594,612.876398
4042.357756,-9326.594869,-296.082377,1149.143247
4042.358085,-9252.574275,666.185348,995.924147
4042.358415,-9548.656652,814.226536,0.000000
4042.358745,-10732.986159,666.185348,-995.924147
4042.359075,-10955.047942,666.185348,-1302.362347
4042.359404,-10807.006753,666.185348,0.000000
4042.359734,-10214.842000,370.102971,842.705048
4042.360064,-9400.615463,-222.061783,1455.581446
4042.360393,-9104.533087,-222.061783,-306.438199
4042.360723,-9030.512492,-962.267725,-1378.971896
4042.361053,-9178.553681,-444.123565,-306.438199
4042.361382,-9326.594869,0.000000,1072.533697
4042.361712,-9844.739029,74.020594,1915.238745
4042.362042,-9918.759623,666.185348,1532.190996
4042.362372,-10510.924376,444.123565,-76.609550
4042.362701,-10881.027347,148.041188,-1072.533697
4042.363031,-10066.800811,0.000000,-919.314598
4042.363361,-9918.759623,222.061783,766.095498
4042.363690,-9252.574275,296.082377,1225.752797
4042.364020,-8882.471304,0.000000,612.876398
4042.364350,-8956.491898,-74.020594,-842.705048
4042.364680,-9474.636058,-592.164754,-1608.800546
4042.365009,-9474.636058,-518.144159,0.000000
4042.365339,-9548.656652,-370.102971,1991.848295
4042.365669,-9030.512492,-222.061783,2221.676944
4042.365998,-8956.491898,296.082377,995.924147
4042.366328,-9992.780217,740.205942,-536.266849
4042.366658,-10732.986159,370.102971,-1378.971896
4042.366988,-10955.047942,444.123565,-383.047749
4042.367317,-10288.862594,592.164754,689.485948
4042.367647,-9696.697840,0.000000,1302.362347
4042.367977,-9030.512492,0.000000,229.828649
4042.368306,-9326.594869,-592.164754,-995.924147
4042.368636,-9178.553681,-1258.350101,-995.924147
4042.368966,-9252.574275,-444.123565,0.000000
4042.369296,-9992.780217,0.000000,1838.629195
4042.369625,-9992.780217,0.000000,1838.629195
4042.369955,-9844.739029,74.020594,842.705048
4042.370285,-9918.759623,666.185348,-536.266849
4042.370614,-10881.027347,148.041188,-1455.581446
4042.370944,-11325.150913,444.123565,76.609550
4042.371274,-10436.903782,296.082377,1302.362347
4042.371604,-9770.718434,74.020594,1302.362347
4042.371933,-8882.471304,-222.061783,76.609550
4042.372263,-9326.594869,0.000000,-995.924147
4042.372593,-9474.636058,-444.123565,-766.095498
4042.372923,-10066.800811,518.144159,919.314598
4042.373252,-10288.862594,148.041188,1838.629195
4042.373582,-10066.800811,0.000000,1838.629195
4042.373912,-9918.759623,518.144159,383.047749
4042.374242,-9992.780217,740.205942,-919.314598
4042.374572,-10436.903782,148.041188,-1225.752797
4042.374901,-10436.903782,518.144159,0.000000
4042.375231,-9770.718434,444.123565,919.314598
4042.375561,-9178.553681,222.061783,1225.752797
4042.375891,-8364.327145,0.000000,153.219100
4042.376221,-9252.574275,-148.041188,-1302.362347
4042.376550,-9696.697840,-592.164754,-995.924147
4042.376880,-9400.615463,-592.164754,383.047749
4042.377210,-8882.471304,-74.020594,1685.410096
4042.377540,-9400.615463,-444.123565,1455.581446
4042.377870,-9548.656652,0.000000,306.438199
4042.378199,-10214.842000,296.082377,-842.705048
4042.378529,-10362.883188,370.102971,-1225.752797
4042.378859,-10584.944971,444.123565,153.219100
4042.379189,-10881.027347,740.205942,995.924147
4042.379519,-9696.697840,148.041188,766.095498
4042.379849,-8882.471304,0.000000,-459.657299
4042.380178,-8882.471304,-370.102971,-1838.629195
4042.380508,-9326.594869,-888.247130,-1302.362347
4042.380838,-9548.656652,-222.061783,229.828649
4042.381168,-9696.697840,-296.082377,1532.190996
4042.381498,-10362.883188,74.020594,1991.848295
4042.381827,-10214.842000,222.061783,919.314598
4042.382157,-10658.965565,222.061783,-229.828649
4042.382487,-10510.924376,0.000000,-153.219100
4042.382817,-10510.924376,0.000000,1685.410096
4042.383147,-10362.883188,148.041188,1225.752797
4042.383476,-9992.780217,0.000000,1455.581446
4042.383806,-9326.594869,-592.164754,153.219100
4042.384136,-9400.615463,-1184.329507,-842.705048
4042.384466,-9178.553681,-1110.308913,-1149.143247
4042.384796,-9030.512492,-1036.288319,766.095498
4042.385125,-9178.553681,-518.144159,1838.629195
4042.385455,-9326.594869,-370.102971,1378.971896
4042.385785,-10288.862594,148.041188,689.485948
4042.386115,-10955.047942,592.164754,0.000000
4042.386445,-11177.109724,370.102971,-689.485948
4042.386775,-10881.027347,444.123565,536.266849
4042.387104,-10584.944971,296.082377,1149.143247
4042.387434,-9474.636058,-222.061783,612.876398
4042.387764,-8734.430116,-370.102971,-229.828649
4042.388094,-8808.450710,-370.102971,-1225.752797
4042.388424,-9030.512492,-444.123565,-919.314598
4042.388753,-9474.636058,0.000000,229.828649
4042.389083,-9918.759623,0.000000,1608.800546
4042.389413,-9844.739029,74.020594,1608.800546
4042.389743,-10288.862594,518.144159,383.047749
4042.390073,-10807.006753,370.102971,-842.705048
4042.390402,-10881.027347,444.123565,-1225.752797
4042.390732,-10436.903782,814.226536,0.000000
4042.391062,-9844.739029,370.102971,995.924147
4042.391392,-9474.636058,370.102971,459.657299
4042.391722,-9252.574275,444.123565,-229.828649
4042.392051,-9400.615463,-148.041188,-1455.581446
4042.392381,-9252.574275,-444.123565,-842.705048
4042.392711,-9178.553681,-666.185348,536.266849
4042.393041,-9326.594869,-148.041188,1762.019645
4042.393371,-9400.615463,296.082377,1991.848295
4042.393701,-9992.780217,518.144159,919.314598
4042.394030,-10362.883188,666.185348,-459.657299
4042.394360,-10584.944971,296.082377,-536.266849
4042.394690,-10881.027347,666.185348,995.924147
4042.395020,-10584.944971,518.144159,1915.238745
4042.395350,-9770.718434,444.123565,1072.533697
4042.395679,-8734.430116,0.000000,-459.657299
4042.396009,-9030.512492,-148.041188,-1302.362347
4042.396339,-9178.553681,-740.205942,-1225.752797
4042.396669,-9326.594869,-222.061783,306.438199
4042.396999,-8660.409521,-370.102971,1225.752797
4042.397328,-9104.533087,74.020594,1532.190996
4042.397658,-9844.739029,740.205942,383.047749
4042.397988,-10584.944971,740.205942,-995.924147
4042.398318,-10436.903782,666.185348,-1378.971896
4042.398648,-10658.965565,888.247130,-229.828649
4042.398977,-10881.027347,666.185348,1915.238745
4042.399307,-10214.842000,222.061783,1991.848295
4042.399637,-9474.636058,0.000000,383.047749
4042.399967,-8734.430116,-518.144159,-1838.629195
4042.400297,-9400.615463,-296.082377,-1225.752797
4042.400627,-9474.636058,-740.205942,-536.266849
4042.400956,-9030.512492,-74.020594,1072.533697
4042.401286,-9104.533087,148.041188,2221.676944
4042.401616,-10510.924376,888.247130,842.705048
4042.401946,-11547.212695,888.247130,-919.314598
4042.402276,-11251.130318,444.123565,-1608.800546
4042.402605,-10288.862594,296.082377,-306.438199
4042.402935,-10214.842000,0.000000,1378.971896
4042.403265,-9548.656652,0.000000,1838.629195
4042.403595,-8956.491898,-592.164754,1072.533697
4042.403925,-8734.430116,-666.185348,-689.485948
4042.404254,-8660.409521,-1258.350101,-1149.143247
4042.404584,-9548.656652,-444.123565,76.609550
4042.404914,-9918.759623,0.000000,1378.971896
4042.405244,-9474.636058,444.123565,1685.410096
4042.405574,-9992.780217,1110.308913,842.705048
4042.405904,-10881.027347,814.226536,-1225.752797
4042.406233,-11251.130318,740.205942,-1532.190996
4042.406563,-10881.027347,444.123565,-612.876398
4042.406893,-10214.842000,74.020594,229.828649
4042.407223,-8956.491898,-222.061783,612.876398
4042.407553,-8438.347739,-444.123565,612.876398
4042.407882,-8438.347739,-1036.288319,-383.047749
4042.408212,-9326.594869,-888.247130,153.219100
4042.408542,-9622.677246,-370.102971,536.266849
4042.408872,-10140.821405,-148.041188,1378.971896
4042.409202,-9918.759623,148.041188,1378.971896
4042.409531,-10214.842000,518.144159,459.657299
4042.409861,-10066.800811,740.205942,-1072.533697
4042.410191,-10288.862594,592.164754,-1149.143247
4042.410521,-10214.842000,740.205942,0.000000
4042.410851,-10214.842000,370.102971,842.705048
4042.411180,-9326.594869,-148.041188,229.828649
4042.411510,-8808.450710,0.000000,-536.266849
4042.411840,-9400.615463,-888.247130,-1225.752797
4042.412170,-9104.533087,-814.226536,-306.438199
4042.412500,-9178.553681,-666.185348,689.485948
4042.412830,-9400.615463,-296.082377,1762.019645
4042.413159,-9474.636058,444.123565,1838.629195
4042.413489,-9992.780217,444.123565,766.095498
4042.413819,-10362.883188,814.226536,-689.485948
4042.414149,-11177.109724,740.205942,-383.047749
4042.414479,-11695.253884,740.205942,842.705048
4042.414808,-10881.027347,222.061783,1378.971896
4042.415138,-9252.574275,74.020594,612.876398
4042.415468,-8290.306550,-518.144159,-689.485948
4042.415798,-8586.388927,-740.205942,-1532.190996
4042.416128,-9178.553681,-1110.308913,-536.266849
4042.416457,-9474.636058,-740.205942,1149.143247
4042.416787,-9992.780217,-518.144159,2145.067394
4042.417117,-9992.780217,0.000000,2298.286494
4042.417447,-10140.821405,370.102971,995.924147
4042.417777,-10436.903782,370.102971,-459.657299
4042.418106,-10362.883188,296.082377,-306.438199
4042.418436,-10807.006753,814.226536,842.705048
4042.418766,-10658.965565,518.144159,1838.629195
4042.419096,-9252.574275,74.020594,306.438199
4042.419426,-8956.491898,-296.082377,-1072.533697
4042.419756,-8956.491898,-148.041188,-2528.115143
4042.420085,-9326.594869,-592.164754,-1302.362347
4042.420415,-8956.491898,-370.102971,306.438199
4042.420745,-9252.574275,-370.102971,1685.410096
4042.421075,-9474.636058,518.144159,1378.971896
4042.421405,-10584.944971,740.205942,0.000000
4042.421734,-10955.047942,592.164754,-1455.581446
4042.422064,-11325.150913,518.144159,-459.657299
4042.422394,-11177.109724,1110.308913,1149.143247
4042.422724,-10288.862594,444.123565,1915.238745
4042.423054,-9696.697840,444.123565,383.047749
4042.423383,-8660.409521,-296.082377,-1532.190996
4042.423713,-9104.533087,-518.144159,-2604.724693
4042.424043,-9178.553681,-592.164754,-1378.971896
4042.424373,-9326.594869,-444.123565,766.095498
4042.424703,-9474.636058,0.000000,2068.457845
4042.425032,-9696.697840,444.123565,1302.362347
4042.425362,-10732.986159,444.123565,-153.219100
4042.425692,-10658.965565,370.102971,-1302.362347
4042.426022,-10807.006753,592.164754,0.000000
4042.426352,-10732.986159,740.205942,2221.676944
4042.426682,-9992.780217,518.144159,1608.800546
4042.427011,-8956.491898,518.144159,1072.533697
4042.427341,-8808.450710,0.000000,-1608.800546
4042.427671,-9400.615463,-518.144159,-2298.286494
4042.428001,-9548.656652,-444.123565,-766.095498
4042.428331,-9326.594869,-666.185348,1149.143247
4042.428660,-8734.430116,-444.123565,2374.896044
4042.428990,-9030.512492,370.102971,1225.752797
4042.429320,-9844.739029,222.061783,-459.657299
4042.429650,-10140.821405,518.144159,-1532.190996
4042.429980,-10658.965565,1184.329507,-536.266849
4042.430309,-11029.068536,1332.370696,1455.581446
4042.430639,-10436.903782,814.226536,1685.410096
4042.430969,-9252.574275,444.123565,229.828649
4042.431299,-8364.327145,-222.061783,-2528.115143
4042.431629,-9178.553681,-666.185348,-2451.505594
4042.431958,-9326.594869,-592.164754,-766.095498
4042.432288,-9252.574275,-370.102971,1225.752797
4042.432618,-9030.512492,-296.082377,2374.896044
4042.432948,-9918.759623,740.205942,1608.800546
4042.433278,-10658.965565,444.123565,-766.095498
4042.433608,-11177.109724,518.144159,-1302.362347
4042.433937,-11399.171507,888.247130,-153.219100
4042.434267,-11547.212695,666.185348,1762.019645
4042.434597,-10140.821405,74.020594,2451.505594
4042.434927,-9400.615463,296.082377,766.095498
4042.435257,-9178.553681,-370.102971,-1455.581446
4042.435586,-9030.512492,-814.226536,-2374.896044
4042.435916,-9548.656652,-962.267725,0.000000
4042.436246,-9030.512492,-1184.329507,1838.629195
4042.436576,-8734.430116,-592.164754,2681.334243
4042.436906,-9474.636058,0.000000,766.095498
4042.437235,-10436.903782,74.020594,-536.266849
4042.437565,-10140.821405,222.061783,-1149.143247
4042.437895,-10732.986159,592.164754,-153.219100
4042.438225,-11103.089130,740.205942,1149.143247
4042.438555,-10362.883188,592.164754,1455.581446
4042.438884,-9104.533087,-296.082377,153.219100
4042.439214,-9252.574275,-888.247130,-1838.629195
4042.439544,-9548.656652,-962.267725,-1838.629195
4042.439874,-8882.471304,-962.267725,76.609550
4042.440204,-8586.388927,-814.226536,1991.848295
4042.440534,-8364.327145,0.000000,2528.115143
4042.440863,-9474.636058,444.123565,1378.971896
4042.441193,-10436.903782,370.102971,-612.876398
4042.441523,-11029.068536,444.123565,-1378.971896
4042.441853,-10732.986159,444.123565,-306.438199
4042.442183,-11251.130318,518.144159,1225.752797
4042.442512,-10140.821405,0.000000,1762.019645
4042.442842,-8956.491898,0.000000,76.609550
4042.443172,-9178.553681,-444.123565,-1455.581446
4042.443502,-9548.656652,-444.123565,-995.924147
4042.443832,-10066.800811,-222.061783,766.095498
4042.444161,-9326.594869,74.020594,1915.238745
4042.444491,-8956.491898,0.000000,2068.457845
4042.444821,-9548.656652,296.082377,612.876398
4042.445151,-10066.800811,370.102971,-1225.752797
4042.445481,-10066.800811,814.226536,-1991.848295
4042.445810,-10658.965565,888.247130,0.000000
4042.446140,-10955.047942,814.226536,919.314598
4042.446470,-9770.718434,148.041188,919.314598
4042.446800,-8956.491898,0.000000,0.000000
4042.447130,-9030.512492,-370.102971,-1149.143247
4042.447460,-9400.615463,-296.082377,-306.438199
4042.447789,-9474.636058,-296.082377,842.705048
4042.448119,-9178.553681,0.000000,1991.848295
4042.448449,-8956.491898,222.061783,2068.457845
4042.448779,-9770.718434,370.102971,689.485948
4042.449109,-10658.965565,296.082377,-612.876398
4042.449438,-10436.903782,444.123565,-1455.581446
4042.449768,-10066.800811,592.164754,306.438199
4042.450098,-10140.821405,740.205942,1762.019645
4042.450428,-9326.594869,666.185348,842.705048
4042.450758,-8882.471304,518.144159,-612.876398
4042.451087,-9252.574275,0.000000,-1685.410096
4042.451417,-9992.780217,-74.020594,-1072.533697
4042.451747,-10140.821405,0.000000,842.705048
4042.452077,-9474.636058,-666.185348,1991.848295
4042.452407,-9030.512492,-518.144159,1608.800546
4042.452736,-9548.656652,-222.061783,766.095498
4042.453066,-10140.821405,0.000000,-842.705048
4042.453396,-10510.924376,296.082377,76.609550
4042.453726,-10584.944971,814.226536,1149.143247
4042.454056,-11029.068536,1036.288319,842.705048
4042.454386,-9622.677246,518.144159,76.609550
4042.454715,-9400.615463,0.000000,-1302.362347
4042.455045,-9548.656652,-518.144159,-2298.286494
4042.455375,-9696.697840,-370.102971,-1838.629195
4042.455705,-9474.636058,-666.185348,842.705048
4042.456035,-9030.512492,-740.205942,1608.800546
4042.456364,-8364.327145,-666.185348,1302.362347
4042.456694,-9770.718434,222.061783,306.438199
4042.457024,-10658.965565,740.205942,-536.266849
4042.457354,-10807.006753,592.164754,-306.438199
4042.457684,-10955.047942,518.144159,766.095498
4042.458013,-10807.006753,592.164754,1149.143247
4042.458343,-9326.594869,222.061783,0.000000
4042.458673,-9104.533087,0.000000,-1532.190996
4042.459003,-8956.491898,-518.144159,-2221.676944
4042.459333,-8956.491898,-592.164754,-1302.362347
4042.459662,-9178.553681,148.041188,76.609550
4042.459992,-9474.636058,-296.082377,1608.800546
4042.460322,-9696.697840,74.020594,1302.362347
4042.460652,-10214.842000,222.061783,536.266849
4042.460982,-10584.944971,0.000000,-612.876398
