#time,accel_x,accel_y,accel_z
4081.767503,-11399.171507,-666.185348,1149.143247
4081.767833,-9992.780217,-1554.432478,1302.362347
4081.768163,-7846.182985,-2960.823768,1762.019645
4081.768493,-7105.977043,-2886.803174,1608.800546
4081.768823,-7624.121203,-2072.576638,2451.505594
4081.769153,-8956.491898,-1702.473667,2145.067394
4081.769483,-10288.862594,-444.123565,1685.410096
4081.769813,-11325.150913,0.000000,1378.971896
4081.770143,-11547.212695,814.226536,1991.848295
4081.770473,-11177.109724,518.144159,2298.286494
4081.770803,-10066.800811,0.000000,2145.067394
4081.771133,-9474.636058,-296.082377,1072.533697
4081.771463,-9104.533087,-814.226536,842.705048
4081.771793,-8734.430116,-962.267725,612.876398
4081.772123,-9326.594869,-888.247130,1225.752797
4081.772453,-9770.718434,-370.102971,1378.971896
4081.772783,-9770.718434,-148.041188,1378.971896
4081.773113,-10066.800811,222.061783,689.485948
4081.773443,-10288.862594,148.041188,995.924147
4081.773774,-10436.903782,296.082377,1225.752797
4081.774104,-10362.883188,0.000000,2145.067394
4081.774434,-10732.986159,-222.061783,2681.334243
4081.774764,-11029.068536,-666.185348,3370.820191
4081.775094,-10807.006753,-1184.329507,3677.258390
4081.775424,-10584.944971,-1776.494261,2834.553343
4081.775754,-9622.677246,-2516.700203,2757.943793
4081.776084,-9474.636058,-2442.679609,3140.991542
4081.776414,-8882.471304,-2516.700203,3600.648841
4081.776744,-8956.491898,-1998.556043,3753.867940
4081.777074,-8808.450710,-1776.494261,2451.505594
4081.777404,-9474.636058,-1480.411884,1685.410096
4081.777734,-10807.006753,-1184.329507,766.095498
4081.778064,-11843.295072,-1110.308913,306.438199
4081.778394,-8290.306550,-962.267725,2374.896044
4081.778724,-8808.450710,-2664.741391,4290.134789
4081.779054,-8438.347739,-3923.091493,4903.011187
4081.779384,-8512.368333,-5107.421000,5515.887586
4081.779714,-9548.656652,-5403.503377,4596.572988
4081.780044,-8586.388927,-4885.359217,3294.210641
4081.780374,-8956.491898,-3849.070898,2528.115143
4081.780704,-8882.471304,-2886.803174,1608.800546
4081.781034,-9622.677246,-2368.659014,1455.581446
4081.781364,-10362.883188,-2072.576638,1685.410096
4081.781694,-11473.192101,-1776.494261,2145.067394
4081.782024,-11473.192101,-2442.679609,2451.505594
4081.782354,-10066.800811,-3923.091493,1915.238745
4081.782684,-9474.636058,-5625.565159,2451.505594
4081.783014,-9474.636058,-5995.668130,4213.525239
4081.783344,-9918.759623,-6143.709319,5362.668486
4081.783674,-9770.718434,-5329.482782,5592.497135
4081.784005,-9030.512492,-4515.256246,4519.963438
4081.784335,-9548.656652,-2960.823768,2451.505594
4081.784665,-11325.150913,-1998.556043,1608.800546
4081.784995,-12213.398043,-1406.391290,1685.410096
4081.785325,-12213.398043,-1480.411884,2451.505594
4081.785655,-10436.903782,-3108.864956,1915.238745
4081.785985,-9622.677246,-4441.235652,1532.190996
4081.786315,-9548.656652,-5329.482782,2681.334243
4081.786645,-9770.718434,-5699.585753,3907.087040
4081.786975,-9474.636058,-5181.441594,3830.477490
4081.787305,-8216.285956,-4811.338623,3294.210641
4081.787635,-8290.306550,-4515.256246,3677.258390
4081.787965,-9252.574275,-3108.864956,3983.696590
4081.788295,-10658.965565,-2072.576638,3677.258390
4081.788625,-11103.089130,-1258.350101,3140.991542
4081.788955,-10510.924376,-1554.432478,1685.410096
4081.789285,-9844.739029,-1406.391290,1302.362347
4081.789614,-10214.842000,-2368.659014,1378.971896
4081.789944,-10214.842000,-2664.741391,2451.505594
4081.790274,-9326.594869,-2886.803174,1915.238745
4081.790604,-7698.141797,-3330.926739,1302.362347
4081.790933,-7772.162391,-2886.803174,1838.629195
4081.791263,-8882.471304,-2368.659014,4213.525239
4081.791593,-9178.553681,-2072.576638,3524.039291
4081.791923,-9252.574275,-1184.329507,2451.505594
4081.792252,-9696.697840,-518.144159,1532.190996
4081.792582,-10732.986159,0.000000,2298.286494
4081.792912,-11621.233289,0.000000,3064.381992
4081.793242,-11621.233289,296.082377,3217.601092
4081.793571,-10955.047942,222.061783,1532.190996
4081.793901,-9992.780217,74.020594,689.485948
4081.794231,-9474.636058,-518.144159,766.095498
4081.794561,-9252.574275,-518.144159,995.924147
4081.794890,-9030.512492,-518.144159,1455.581446
4081.795220,-8512.368333,-518.144159,1455.581446
4081.795550,-8364.327145,0.000000,1915.238745
4081.795880,-9474.636058,444.123565,1762.019645
4081.796209,-10214.842000,518.144159,766.095498
4081.796539,-11473.192101,1258.350101,1455.581446
4081.796869,-12287.418637,1406.391290,1991.848295
4081.797199,-12139.377449,1036.288319,2298.286494
4081.797529,-11251.130318,888.247130,1915.238745
4081.797858,-9400.615463,-74.020594,919.314598
4081.798188,-8734.430116,-962.267725,229.828649
4081.798518,-9178.553681,-666.185348,1149.143247
4081.798848,-9178.553681,-1110.308913,1762.019645
4081.799177,-8660.409521,-740.205942,1455.581446
4081.799507,-7846.182985,-592.164754,689.485948
4081.799837,-8290.306550,0.000000,-383.047749
4081.800167,-10362.883188,74.020594,383.047749
4081.800496,-10658.965565,0.000000,1072.533697
4081.800826,-11621.233289,0.000000,2528.115143
4081.801156,-11103.089130,-296.082377,2374.896044
4081.801486,-9622.677246,-1332.370696,1915.238745
4081.801815,-9622.677246,-1036.288319,1838.629195
4081.802145,-10140.821405,-1332.370696,1302.362347
4081.802475,-9474.636058,-1258.350101,229.828649
4081.802805,-7846.182985,-1628.453072,766.095498
4081.803134,-7846.182985,-1628.453072,995.924147
4081.803464,-9548.656652,-1036.288319,2451.505594
4081.803794,-10955.047942,-444.123565,1838.629195
4081.804124,-11103.089130,-962.267725,0.000000
4081.804453,-9992.780217,-814.226536,-689.485948
4081.804783,-10140.821405,-1184.329507,459.657299
4081.805113,-11399.171507,-814.226536,1915.238745
4081.805443,-10732.986159,-1406.391290,1302.362347
4081.805772,-9252.574275,-1850.514855,-612.876398
4081.806102,-7846.182985,-2368.659014,-612.876398
4081.806432,-9400.615463,-1998.556043,0.000000
4081.806762,-8882.471304,-1702.473667,1225.752797
4081.807091,-8660.409521,-1776.494261,1225.752797
4081.807421,-9030.512492,-888.247130,995.924147
4081.807751,-10732.986159,-1110.308913,1838.629195
4081.808081,-11769.274478,-666.185348,1532.190996
4081.808411,-11695.253884,-1702.473667,536.266849
4081.808740,-11399.171507,-888.247130,689.485948
4081.809070,-9770.718434,-1480.411884,1532.190996
4081.809400,-9844.739029,-888.247130,1762.019645
4081.809730,-8808.450710,-296.082377,612.876398
4081.810059,-8660.409521,-740.205942,-536.266849
4081.810389,-9178.553681,-296.082377,-1225.752797
4081.810719,-10288.862594,-814.226536,-612.876398
4081.811049,-10807.006753,-222.061783,0.000000
4081.811378,-10066.800811,-740.205942,1149.143247
4081.811708,-9474.636058,-666.185348,76.609550
4081.812038,-8586.388927,-1554.432478,0.000000
4081.812368,-9474.636058,-592.164754,0.000000
4081.812697,-10288.862594,-74.020594,1225.752797
4081.813027,-9696.697840,222.061783,1685.410096
4081.813357,-8734.430116,444.123565,1762.019645
4081.813687,-9030.512492,-74.020594,919.314598
4081.814016,-9992.780217,0.000000,0.000000
4081.814346,-10584.944971,-518.144159,0.000000
4081.814676,-9622.677246,-444.123565,-76.609550
4081.815006,-8068.244768,-296.082377,-1225.752797
4081.815335,-8142.265362,740.205942,-2068.457845
4081.815665,-9400.615463,814.226536,-383.047749
4081.815995,-10807.006753,1554.432478,459.657299
4081.816325,-10288.862594,2368.659014,229.828649
4081.816654,-9622.677246,1554.432478,-689.485948
4081.816984,-9770.718434,1702.473667,-1225.752797
4081.817314,-10066.800811,1406.391290,-459.657299
4081.817644,-10140.821405,814.226536,459.657299
4081.817974,-9844.739029,888.247130,153.219100
4081.818303,-9252.574275,1110.308913,-1378.971896
4081.818633,-9548.656652,740.205942,-689.485948
4081.818963,-9696.697840,1480.411884,0.000000
4081.819293,-10140.821405,1850.514855,1149.143247
4081.819622,-10584.944971,1850.514855,459.657299
4081.819952,-10362.883188,1554.432478,0.000000
4081.820282,-10066.800811,1628.453072,0.000000
4081.820612,-9696.697840,1110.308913,76.609550
4081.820941,-9992.780217,1332.370696,0.000000
4081.821271,-9770.718434,1332.370696,-536.266849
4081.821601,-9770.718434,962.267725,-1608.800546
4081.821931,-9918.759623,1036.288319,-1378.971896
4081.822260,-9918.759623,814.226536,0.000000
4081.822590,-10066.800811,740.205942,229.828649
4081.822920,-9622.677246,444.123565,612.876398
4081.823250,-8956.491898,296.082377,383.047749
4081.823579,-9104.533087,370.102971,1225.752797
4081.823909,-9326.594869,962.267725,1378.971896
4081.824239,-10066.800811,592.164754,306.438199
4081.824569,-10140.821405,148.041188,0.000000
4081.824898,-9548.656652,444.123565,0.000000
4081.825228,-9696.697840,0.000000,689.485948
4081.825558,-9770.718434,370.102971,0.000000
4081.825888,-9326.594869,0.000000,-919.314598
4081.826217,-8808.450710,0.000000,-919.314598
4081.826547,-9104.533087,-74.020594,383.047749
4081.826877,-10288.862594,666.185348,919.314598
4081.827207,-10140.821405,444.123565,612.876398
4081.827536,-10214.842000,740.205942,-612.876398
4081.827866,-10214.842000,814.226536,0.000000
4081.828196,-10658.965565,296.082377,689.485948
4081.828526,-10955.047942,296.082377,0.000000
4081.828856,-10214.842000,-444.123565,0.000000
4081.829185,-9474.636058,-666.185348,-306.438199
4081.829515,-8882.471304,-592.164754,459.657299
4081.829845,-8956.491898,-222.061783,229.828649
4081.830175,-9326.594869,-592.164754,0.000000
4081.830504,-9696.697840,-666.185348,536.266849
4081.830834,-10066.800811,-592.164754,1302.362347
4081.831164,-10288.862594,-888.247130,1838.629195
4081.831494,-10214.842000,-518.144159,1072.533697
4081.831823,-9770.718434,-962.267725,1225.752797
4081.832153,-9770.718434,-1110.308913,1149.143247
4081.832483,-9844.739029,-666.185348,536.266849
4081.832813,-9696.697840,-296.082377,0.000000
4081.833142,-9622.677246,-888.247130,0.000000
4081.833472,-9474.636058,-592.164754,153.219100
4081.833802,-8808.450710,-444.123565,919.314598
4081.834132,-9252.574275,-740.205942,306.438199
4081.834461,-9030.512492,-666.185348,0.000000
4081.834791,-9992.780217,-740.205942,459.657299
4081.835121,-10362.883188,-370.102971,536.266849
4081.835451,-10436.903782,-666.185348,1608.800546
4081.835780,-10140.821405,-222.061783,1225.752797
4081.836110,-9992.780217,-1110.308913,842.705048
4081.836440,-9770.718434,0.000000,1532.190996
4081.836770,-9400.615463,-370.102971,1532.190996
4081.837099,-8956.491898,-592.164754,76.609550
4081.837429,-9326.594869,-592.164754,-383.047749
4081.837759,-10066.800811,-222.061783,229.828649
4081.838089,-9992.780217,-444.123565,612.876398
4081.838419,-9326.594869,-222.061783,153.219100
4081.838748,-9474.636058,-370.102971,-459.657299
4081.839078,-9918.759623,74.020594,306.438199
4081.839408,-9918.759623,148.041188,1072.533697
4081.839738,-10362.883188,222.061783,842.705048
4081.840067,-10584.944971,592.164754,306.438199
4081.840397,-10436.903782,148.041188,76.609550
4081.840727,-10140.821405,0.000000,0.000000
4081.841057,-9548.656652,-74.020594,229.828649
4081.841386,-9474.636058,444.123565,0.000000
4081.841716,-9104.533087,0.000000,-459.657299
4081.842046,-9400.615463,296.082377,-153.219100
4081.842376,-9474.636058,518.144159,919.314598
4081.842705,-10436.903782,1036.288319,536.266849
4081.843035,-10732.986159,814.226536,-229.828649
4081.843365,-10362.883188,444.123565,-995.924147
4081.843695,-9622.677246,666.185348,-995.924147
4081.844024,-9474.636058,296.082377,229.828649
4081.844354,-9326.594869,518.144159,-153.219100
4081.844684,-9474.636058,222.061783,-306.438199
4081.845014,-9400.615463,666.185348,-459.657299
4081.845343,-9992.780217,814.226536,383.047749
4081.845673,-10288.862594,740.205942,153.219100
4081.846003,-10214.842000,518.144159,-153.219100
4081.846333,-10214.842000,518.144159,0.000000
4081.846662,-9622.677246,592.164754,0.000000
4081.846992,-9400.615463,296.082377,0.000000
4081.847322,-9252.574275,370.102971,-689.485948
4081.847652,-9696.697840,370.102971,0.000000
4081.847981,-9918.759623,518.144159,229.828649
4081.848311,-9844.739029,518.144159,536.266849
4081.848641,-9696.697840,592.164754,306.438199
4081.848971,-9474.636058,74.020594,-536.266849
4081.849301,-9548.656652,296.082377,-536.266849
4081.849630,-9992.780217,370.102971,0.000000
4081.849960,-9622.677246,518.144159,0.000000
4081.850290,-9548.656652,222.061783,0.000000
4081.850620,-9696.697840,444.123565,76.609550
4081.850949,-9696.697840,888.247130,995.924147
4081.851279,-10288.862594,296.082377,1072.533697
4081.851609,-10214.842000,370.102971,459.657299
4081.851939,-10214.842000,0.000000,306.438199
4081.852268,-10066.800811,444.123565,229.828649
4081.852598,-9326.594869,0.000000,229.828649
4081.852928,-9178.553681,0.000000,0.000000
4081.853258,-9474.636058,0.000000,-76.609550
4081.853587,-9178.553681,148.041188,612.876398
4081.853917,-9474.636058,370.102971,1302.362347
4081.854247,-10658.965565,222.061783,1225.752797
4081.854577,-11177.109724,296.082377,383.047749
4081.854906,-10955.047942,-666.185348,0.000000
4081.855236,-9770.718434,-518.144159,76.609550
4081.855566,-9326.594869,-1184.329507,689.485948
4081.855896,-9104.533087,-666.185348,612.876398
4081.856225,-9622.677246,-518.144159,689.485948
4081.856555,-9474.636058,-296.082377,612.876398
4081.856885,-9770.718434,-444.123565,919.314598
4081.857215,-10362.883188,-518.144159,306.438199
4081.857544,-10584.944971,-444.123565,459.657299
4081.857874,-10214.842000,-1406.391290,995.924147
4081.858204,-9474.636058,-1258.350101,1149.143247
4081.858534,-9474.636058,-1036.288319,995.924147
4081.858864,-9474.636058,-962.267725,229.828649
4081.859193,-9622.677246,-740.205942,229.828649
4081.859523,-9252.574275,-296.082377,383.047749
4081.859853,-10066.800811,-444.123565,1149.143247
4081.860183,-10288.862594,0.000000,1149.143247
4081.860512,-10362.883188,-740.205942,766.095498
4081.860842,-9696.697840,-814.226536,-76.609550
4081.861172,-8956.491898,-1184.329507,-766.095498
4081.861502,-9252.574275,-592.164754,-306.438199
4081.861831,-9622.677246,-888.247130,0.000000
4081.862161,-9770.718434,-666.185348,153.219100
4081.862491,-9770.718434,-148.041188,1149.143247
4081.862821,-10584.944971,-444.123565,1072.533697
4081.863150,-10362.883188,-148.041188,536.266849
4081.863480,-10066.800811,-740.205942,229.828649
4081.863810,-9252.574275,-296.082377,306.438199
4081.864140,-8734.430116,-592.164754,306.438199
4081.864469,-8956.491898,0.000000,536.266849
4081.864799,-10066.800811,0.000000,612.876398
4081.865129,-10510.924376,592.164754,0.000000
4081.865459,-10288.862594,444.123565,536.266849
4081.865788,-10288.862594,0.000000,459.657299
4081.866118,-9918.759623,0.000000,383.047749
4081.866448,-9252.574275,0.000000,-153.219100
4081.866778,-9030.512492,0.000000,0.000000
4081.867107,-9326.594869,0.000000,306.438199
4081.867437,-9548.656652,666.185348,0.000000
4081.867767,-9844.739029,592.164754,-459.657299
4081.868097,-10066.800811,1110.308913,-383.047749
4081.868426,-9918.759623,370.102971,842.705048
4081.868756,-10510.924376,518.144159,995.924147
4081.869086,-9992.780217,518.144159,536.266849
4081.869416,-9770.718434,814.226536,-229.828649
4081.869746,-9474.636058,518.144159,-153.219100
4081.870075,-9992.780217,814.226536,-383.047749
4081.870405,-9770.718434,740.205942,-536.266849
4081.870735,-10288.862594,592.164754,-1072.533697
4081.871065,-10140.821405,1258.350101,76.609550
4081.871394,-9844.739029,444.123565,842.705048
4081.871724,-9696.697840,962.267725,383.047749
4081.872054,-9326.594869,666.185348,-383.047749
4081.872384,-9400.615463,518.144159,-995.924147
4081.872713,-9696.697840,518.144159,0.000000
4081.873043,-10288.862594,592.164754,306.438199
4081.873373,-9770.718434,444.123565,306.438199
4081.873703,-9548.656652,148.041188,0.000000
4081.874032,-9474.636058,444.123565,153.219100
4081.874362,-9622.677246,0.000000,153.219100
4081.874692,-9326.594869,0.000000,0.000000
4081.875022,-9474.636058,-370.102971,0.000000
4081.875351,-9548.656652,370.102971,536.266849
4081.875681,-9770.718434,148.041188,995.924147
4081.876011,-10362.883188,74.020594,689.485948
4081.876341,-9474.636058,-666.185348,0.000000
4081.876670,-9548.656652,-370.102971,0.000000
4081.877000,-9252.574275,0.000000,1149.143247
4081.877330,-9918.759623,0.000000,1378.971896
4081.877660,-9622.677246,222.061783,1072.533697
4081.877989,-9474.636058,0.000000,-383.047749
4081.878319,-10510.924376,296.082377,-612.876398
4081.878649,-10510.924376,0.000000,0.000000
4081.878979,-10140.821405,0.000000,0.000000
4081.879309,-9844.739029,-592.164754,76.609550
4081.879638,-9400.615463,-296.082377,153.219100
4081.879968,-9770.718434,-74.020594,766.095498
4081.880298,-9992.780217,-222.061783,383.047749
4081.880628,-9918.759623,-222.061783,459.657299
4081.880957,-10436.903782,-74.020594,536.266849
4081.881287,-10214.842000,0.000000,766.095498
4081.881617,-9844.739029,-222.061783,612.876398
4081.881947,-9104.533087,-666.185348,229.828649
4081.882276,-9474.636058,-592.164754,0.000000
4081.882606,-9696.697840,-370.102971,842.705048
4081.882936,-9622.677246,-592.164754,1532.190996
4081.883266,-9474.636058,-296.082377,1072.533697
4081.883595,-9844.739029,-222.061783,383.047749
4081.883925,-9622.677246,-296.082377,0.000000
4081.884255,-9622.677246,-296.082377,-153.219100
4081.884585,-9844.739029,0.000000,-153.219100
4081.884914,-9770.718434,74.020594,0.000000
4081.885244,-9548.656652,-296.082377,0.000000
4081.885574,-8882.471304,0.000000,766.095498
4081.885904,-9326.594869,-444.123565,766.095498
4081.886233,-10066.800811,74.020594,383.047749
4081.886563,-9992.780217,-518.144159,0.000000
4081.886893,-9622.677246,-444.123565,0.000000
4081.887223,-9326.594869,-444.123565,153.219100
4081.887552,-9548.656652,148.041188,0.000000
4081.887882,-9548.656652,74.020594,-383.047749
4081.888212,-9696.697840,296.082377,-536.266849
4081.888542,-9918.759623,296.082377,153.219100
4081.888872,-10955.047942,444.123565,919.314598
4081.889202,-10436.903782,444.123565,612.876398
4081.889531,-10140.821405,-74.020594,153.219100
4081.889861,-9104.533087,-444.123565,153.219100
4081.890191,-9400.615463,-296.082377,459.657299
4081.890521,-9326.594869,0.000000,-612.876398
4081.890851,-9548.656652,-370.102971,-1225.752797
4081.891181,-9474.636058,370.102971,-459.657299
4081.891510,-9992.780217,592.164754,1378.971896
4081.891840,-10140.821405,592.164754,995.924147
4081.892170,-10288.862594,222.061783,306.438199
4081.892500,-10066.800811,-370.102971,76.609550
4081.892830,-9844.739029,-518.144159,536.266849
4081.893160,-9622.677246,-222.061783,766.095498
4081.893490,-9474.636058,0.000000,536.266849
4081.893819,-9622.677246,222.061783,306.438199
4081.894149,-9548.656652,814.226536,0.000000
4081.894479,-10288.862594,740.205942,-153.219100
4081.894809,-9770.718434,518.144159,-459.657299
4081.895139,-9474.636058,518.144159,-459.657299
4081.895469,-9474.636058,74.020594,-459.657299
4081.895798,-9400.615463,148.041188,229.828649
4081.896128,-9400.615463,296.082377,306.438199
4081.896458,-9326.594869,0.000000,-76.609550
4081.896788,-10288.862594,74.020594,0.000000
4081.897118,-9992.780217,-148.041188,1072.533697
4081.897448,-10140.821405,-222.061783,1302.362347
4081.897777,-9178.553681,370.102971,1455.581446
4081.898107,-9030.512492,-222.061783,766.095498
4081.898437,-9104.533087,222.061783,229.828649
4081.898767,-9474.636058,0.000000,229.828649
4081.899097,-9548.656652,888.247130,0.000000
4081.899427,-10214.842000,222.061783,-459.657299
4081.899756,-10510.924376,518.144159,76.609550
4081.900086,-9696.697840,74.020594,536.266849
4081.900416,-9622.677246,222.061783,459.657299
4081.900746,-10066.800811,444.123565,-153.219100
4081.901076,-10066.800811,148.041188,0.000000
4081.901406,-9844.739029,518.144159,229.828649
4081.901736,-10066.800811,666.185348,383.047749
4081.902065,-9918.759623,814.226536,0.000000
4081.902395,-10362.883188,148.041188,-306.438199
4081.902725,-10436.903782,296.082377,0.000000
4081.903055,-9918.759623,0.000000,842.705048
4081.903385,-10362.883188,-222.061783,76.609550
4081.903715,-9474.636058,-296.082377,536.266849
4081.904044,-9622.677246,-592.164754,229.828649
4081.904374,-9474.636058,-222.061783,76.609550
4081.904704,-9474.636058,0.000000,383.047749
4081.905034,-9474.636058,148.041188,0.000000
4081.905364,-9326.594869,-148.041188,-306.438199
4081.905694,-9548.656652,0.000000,0.000000
4081.906023,-10140.821405,0.000000,612.876398
4081.906353,-10214.842000,-296.082377,306.438199
4081.906683,-9474.636058,-518.144159,0.000000
4081.907013,-8882.471304,-370.102971,0.000000
4081.907343,-9474.636058,-296.082377,383.047749
4081.907673,-9992.780217,0.000000,689.485948
4081.908002,-9252.574275,0.000000,306.438199
4081.908332,-9400.615463,0.000000,0.000000
4081.908662,-9474.636058,444.123565,689.485948
4081.908992,-10732.986159,518.144159,1225.752797
4081.909322,-10436.903782,0.000000,0.000000
4081.909652,-9548.656652,-296.082377,-919.314598
4081.909982,-9030.512492,-370.102971,-612.876398
4081.910311,-8808.450710,-370.102971,-306.438199
4081.910641,-9104.533087,222.061783,-612.876398
4081.910971,-9474.636058,370.102971,-306.438199
4081.911301,-10881.027347,814.226536,0.000000
4081.911631,-11325.150913,962.267725,1072.533697
4081.911961,-11473.192101,222.061783,1302.362347
4081.912290,-10807.006753,222.061783,995.924147
4081.912620,-9918.759623,-740.205942,766.095498
4081.912950,-8956.491898,-1184.329507,1225.752797
4081.913280,-8290.306550,-444.123565,612.876398
4081.913610,-8882.471304,0.000000,459.657299
4081.913940,-10288.862594,-74.020594,0.000000
4081.914269,-10732.986159,370.102971,-306.438199
4081.914599,-10510.924376,592.164754,919.314598
4081.914929,-10066.800811,74.020594,306.438199
4081.915259,-9474.636058,-222.061783,76.609550
4081.915589,-9178.553681,-592.164754,76.609550
4081.915919,-9178.553681,0.000000,76.609550
4081.916249,-9992.780217,222.061783,306.438199
4081.916578,-10510.924376,0.000000,0.000000
4081.916908,-10510.924376,-74.020594,-383.047749
4081.917238,-9696.697840,148.041188,536.266849
4081.917568,-9548.656652,-222.061783,1072.533697
4081.917898,-9548.656652,296.082377,612.876398
4081.918228,-8956.491898,-444.123565,153.219100
4081.918557,-9696.697840,148.041188,-153.219100
4081.918887,-10214.842000,592.164754,229.828649
4081.919217,-10510.924376,148.041188,-229.828649
4081.919547,-9992.780217,0.000000,153.219100
4081.919877,-9696.697840,0.000000,306.438199
4081.920207,-9548.656652,888.247130,536.266849
4081.920536,-9400.615463,222.061783,0.000000
4081.920866,-9770.718434,518.144159,-995.924147
4081.921196,-9770.718434,222.061783,-689.485948
4081.921526,-10510.924376,444.123565,306.438199
4081.921856,-9844.739029,0.000000,1149.143247
4081.922186,-9696.697840,296.082377,153.219100
4081.922515,-9252.574275,74.020594,0.000000
4081.922845,-9400.615463,74.020594,-1149.143247
4081.923175,-9474.636058,962.267725,-995.924147
4081.923505,-9844.739029,444.123565,0.000000
4081.923835,-10584.944971,444.123565,306.438199
4081.924165,-10732.986159,444.123565,306.438199
4081.924495,-9622.677246,370.102971,-383.047749
4081.924824,-9252.574275,-370.102971,-459.657299
4081.925154,-8734.430116,0.000000,-459.657299
4081.925484,-9104.533087,-222.061783,153.219100
4081.925814,-9474.636058,444.123565,459.657299
4081.926144,-9622.677246,740.205942,1225.752797
4081.926474,-10807.006753,740.205942,612.876398
4081.926803,-11177.109724,592.164754,0.000000
4081.927133,-10658.965565,74.020594,-459.657299
4081.927463,-9400.615463,222.061783,306.438199
4081.927793,-9178.553681,296.082377,536.266849
4081.928123,-9622.677246,222.061783,536.266849
4081.928453,-10066.800811,0.000000,-153.219100
4081.928782,-9400.615463,814.226536,306.438199
4081.929112,-10066.800811,-74.020594,689.485948
4081.929442,-10510.924376,74.020594,689.485948
4081.929772,-10066.800811,-444.123565,383.047749
4081.930102,-9326.594869,-222.061783,229.828649
4081.930432,-8734.430116,-592.164754,459.657299
4081.930761,-9548.656652,74.020594,306.438199
4081.931091,-9918.759623,74.020594,383.047749
4081.931421,-10436.903782,0.000000,-76.609550
4081.931751,-9622.677246,0.000000,536.266849
4081.932081,-9844.739029,-296.082377,1225.752797
4081.932411,-9918.759623,0.000000,995.924147
4081.932741,-9918.759623,-666.185348,536.266849
4081.933070,-8734.430116,148.041188,0.000000
4081.933400,-9178.553681,-444.123565,0.000000
4081.933730,-9918.759623,0.000000,76.609550
4081.934060,-10362.883188,-296.082377,383.047749
4081.934390,-10288.862594,-222.061783,229.828649
4081.934720,-9696.697840,-222.061783,612.876398
4081.935049,-10214.842000,-148.041188,689.485948
4081.935379,-9474.636058,-296.082377,0.000000
4081.935709,-9474.636058,-148.041188,0.000000
4081.936039,-9030.512492,74.020594,766.095498
4081.936369,-9622.677246,-296.082377,1225.752797
4081.936699,-10510.924376,296.082377,1149.143247
4081.937028,-10807.006753,0.000000,842.705048
4081.937358,-10436.903782,74.020594,-153.219100
4081.937688,-9696.697840,-740.205942,306.438199
4081.938018,-9400.615463,-296.082377,689.485948
4081.938348,-9326.594869,-148.041188,689.485948
4081.938678,-9548.656652,0.000000,1225.752797
4081.939008,-9400.615463,0.000000,536.266849
4081.939337,-9696.697840,74.020594,229.828649
4081.939667,-10288.862594,592.164754,-612.876398
4081.939997,-10881.027347,0.000000,-766.095498
4081.940327,-9992.780217,0.000000,459.657299
4081.940657,-9252.574275,-444.123565,919.314598
4081.940987,-9104.533087,0.000000,1149.143247
4081.941316,-9400.615463,0.000000,306.438199
4081.941646,-10066.800811,444.123565,0.000000
4081.941976,-9844.739029,0.000000,229.828649
4081.942306,-9992.780217,666.185348,536.266849
4081.942636,-9918.759623,740.205942,536.266849
4081.942966,-10140.821405,1332.370696,0.000000
4081.943295,-9696.697840,518.144159,-459.657299
4081.943625,-9474.636058,518.144159,-459.657299
4081.943955,-9474.636058,370.102971,-995.924147
4081.944285,-10214.842000,222.061783,-842.705048
4081.944615,-9918.759623,74.020594,153.219100
4081.944945,-9400.615463,0.000000,842.705048
4081.945274,-9326.594869,444.123565,536.266849
4081.945604,-9548.656652,0.000000,153.219100
4081.945934,-9992.780217,0.000000,-153.219100
4081.946264,-9622.677246,222.061783,459.657299
4081.946594,-9844.739029,370.102971,842.705048
4081.946924,-10066.800811,370.102971,842.705048
4081.947254,-9770.718434,370.102971,306.438199
4081.947583,-9696.697840,0.000000,0.000000
4081.947913,-9548.656652,-222.061783,-459.657299
4081.948243,-9548.656652,222.061783,-153.219100
4081.948573,-9844.739029,0.000000,0.000000
4081.948903,-9548.656652,148.041188,0.000000
4081.949233,-8956.491898,0.000000,612.876398
4081.949562,-9326.594869,222.061783,0.000000
4081.949892,-9696.697840,370.102971,-612.876398
4081.950222,-10288.862594,222.061783,-306.438199
4081.950552,-10436.903782,148.041188,612.876398
4081.950882,-9918.759623,222.061783,919.314598
4081.951212,-9252.574275,518.144159,842.705048
4081.951541,-9474.636058,222.061783,-76.609550
4081.951871,-9844.739029,296.082377,-306.438199
4081.952201,-10066.800811,518.144159,-689.485948
4081.952531,-9474.636058,444.123565,-1378.971896
4081.952861,-9326.594869,74.020594,-459.657299
4081.953191,-9696.697840,0.000000,153.219100
4081.953520,-9696.697840,0.000000,612.876398
4081.953850,-9770.718434,370.102971,229.828649
4081.954180,-9400.615463,0.000000,0.000000
4081.954510,-10214.842000,0.000000,0.000000
4081.954840,-10584.944971,0.000000,1302.362347
4081.955170,-10436.903782,-148.041188,1608.800546
4081.955500,-9918.759623,296.082377,612.876398
4081.955829,-9992.780217,0.000000,-383.047749
4081.956159,-9992.780217,74.020594,-536.266849
4081.956489,-9252.574275,-444.123565,-153.219100
4081.956819,-9474.636058,592.164754,-459.657299
4081.957149,-9844.739029,592.164754,459.657299
4081.957479,-10658.965565,740.205942,76.609550
4081.957808,-9992.780217,148.041188,459.657299
4081.958138,-9918.759623,0.000000,-153.219100
4081.958468,-9918.759623,74.020594,-536.266849
4081.958798,-10140.821405,74.020594,0.000000
4081.959128,-9696.697840,74.020594,306.438199
4081.959458,-9548.656652,-222.061783,1149.143247
4081.959787,-9252.574275,370.102971,919.314598
4081.960117,-9844.739029,592.164754,76.609550
4081.960447,-10140.821405,296.082377,0.000000
4081.960777,-9474.636058,0.000000,0.000000
4081.961107,-9844.739029,296.082377,153.219100
4081.961437,-9474.636058,0.000000,306.438199
4081.961766,-10140.821405,-148.041188,229.828649
4081.962096,-9252.574275,-740.205942,842.705048
4081.962426,-9474.636058,-444.123565,1072.533697
4081.962756,-9178.553681,-296.082377,1149.143247
4081.963086,-9400.615463,-814.226536,689.485948
4081.963416,-9030.512492,0.000000,842.705048
4081.963746,-9622.677246,-222.061783,1455.581446
4081.964075,-9622.677246,74.020594,1149.143247
4081.964405,-9992.780217,-296.082377,306.438199
4081.964735,-10584.944971,0.000000,0.000000
4081.965065,-9844.739029,-740.205942,306.438199
4081.965395,-9844.739029,-296.082377,459.657299
4081.965725,-9252.574275,-222.061783,229.828649
4081.966054,-9548.656652,-444.123565,0.000000
4081.966384,-9770.718434,222.061783,459.657299
4081.966714,-10436.903782,0.000000,306.438199
4081.967044,-11251.130318,740.205942,76.609550
4081.967374,-10807.006753,74.020594,-689.485948
4081.967704,-9992.780217,0.000000,0.000000
4081.968033,-9918.759623,-518.144159,1149.143247
4081.968363,-9992.780217,74.020594,1149.143247
4081.968693,-9770.718434,0.000000,612.876398
4081.969023,-10362.883188,0.000000,306.438199
4081.969353,-10214.842000,-296.082377,689.485948
4081.969683,-10214.842000,-370.102971,536.266849
4081.970013,-9548.656652,-148.041188,153.219100
4081.970342,-9622.677246,0.000000,383.047749
4081.970672,-9474.636058,-74.020594,842.705048
4081.971002,-9548.656652,-444.123565,76.609550
4081.971332,-9474.636058,-148.041188,0.000000
4081.971662,-10066.800811,-444.123565,0.000000
4081.971992,-9770.718434,0.000000,0.000000
4081.972321,-9178.553681,-666.185348,612.876398
4081.972651,-9326.594869,0.000000,306.438199
4081.972981,-8956.491898,-444.123565,-229.828649
4081.973311,-9770.718434,0.000000,-153.219100
4081.973641,-9992.780217,74.020594,0.000000
4081.973971,-9770.718434,74.020594,153.219100
4081.974300,-10066.800811,222.061783,0.000000
4081.974630,-10732.986159,-148.041188,-306.438199
4081.974960,-9844.739029,0.000000,0.000000
4081.975290,-9252.574275,-148.041188,383.047749
4081.975620,-9326.594869,222.061783,-459.657299
4081.975950,-9474.636058,444.123565,-1302.362347
4081.976279,-9770.718434,444.123565,-995.924147
4081.976609,-9548.656652,444.123565,-153.219100
4081.976939,-10362.883188,1184.329507,459.657299
4081.977269,-10214.842000,888.247130,0.000000
4081.977599,-10881.027347,0.000000,0.000000
4081.977929,-9252.574275,-148.041188,-153.219100
4081.978259,-8882.471304,-518.144159,306.438199
4081.978588,-9326.594869,370.102971,383.047749
4081.978918,-9992.780217,296.082377,306.438199
4081.979248,-9918.759623,814.226536,306.438199
4081.979578,-9622.677246,444.123565,459.657299
4081.979908,-10140.821405,962.267725,153.219100
4081.980238,-9770.718434,444.123565,76.609550
4081.980567,-10066.800811,370.102971,-383.047749
4081.980897,-9770.718434,518.144159,306.438199
4081.981227,-9326.594869,148.041188,153.219100
4081.981557,-9400.615463,666.185348,-536.266849
4081.981887,-10066.800811,444.123565,-995.924147
4081.982217,-10140.821405,444.123565,-919.314598
4081.982546,-9770.718434,814.226536,612.876398
4081.982876,-9622.677246,666.185348,612.876398
4081.983206,-10140.821405,0.000000,842.705048
4081.983536,-9474.636058,518.144159,766.095498
4081.983866,-9030.512492,-296.082377,306.438199
4081.984196,-9918.759623,-296.082377,-306.438199
4081.984525,-9696.697840,-370.102971,0.000000
4081.984855,-9844.739029,-370.102971,306.438199
4081.985185,-9696.697840,74.020594,766.095498
4081.985515,-10140.821405,222.061783,1532.190996
4081.985845,-10066.800811,370.102971,766.095498
4081.986175,-10140.821405,148.041188,76.609550
4081.986505,-10436.903782,592.164754,0.000000
4081.986834,-9844.739029,-296.082377,306.438199
4081.987164,-9548.656652,222.061783,153.219100
4081.987494,-9622.677246,-74.020594,0.000000
4081.987824,-9696.697840,148.041188,-153.219100
4081.988154,-9770.718434,-74.020594,-536.266849
4081.988484,-9622.677246,0.000000,-229.828649
4081.988813,-9474.636058,0.000000,-383.047749
4081.989143,-10214.842000,-74.020594,76.609550
4081.989473,-9918.759623,-444.123565,1455.581446
4081.989803,-10066.800811,-518.144159,1455.581446
4081.990133,-9474.636058,0.000000,689.485948
4081.990463,-9918.759623,-592.164754,306.438199
4081.990792,-9992.780217,-296.082377,0.000000
4081.991122,-10214.842000,-222.061783,459.657299
4081.991452,-9696.697840,370.102971,995.924147
4081.991782,-9770.718434,-222.061783,229.828649
4081.992111,-9548.656652,-222.061783,-383.047749
4081.992441,-9548.656652,-518.144159,0.000000
4081.992771,-9474.636058,-296.082377,0.000000
4081.993101,-9030.512492,-222.061783,-689.485948
4081.993430,-8956.491898,-666.185348,-459.657299
4081.993760,-9400.615463,0.000000,919.314598
4081.994090,-10066.800811,-74.020594,1532.190996
4081.994420,-9770.718434,222.061783,995.924147
4081.994750,-10436.903782,-222.061783,229.828649
4081.995079,-10140.821405,-148.041188,383.047749
4081.995409,-10214.842000,-592.164754,689.485948
4081.995739,-9474.636058,0.000000,689.485948
4081.996069,-9104.533087,-74.020594,306.438199
4081.996398,-9178.553681,0.000000,-612.876398
4081.996728,-9474.636058,296.082377,-536.266849
4081.997058,-10214.842000,444.123565,-536.266849
4081.997388,-9622.677246,444.123565,-459.657299
4081.997718,-9992.780217,74.020594,0.000000
4081.998047,-9622.677246,444.123565,383.047749
4081.998377,-9474.636058,-296.082377,1225.752797
4081.998707,-9918.759623,222.061783,919.314598
4081.999037,-10658.965565,0.000000,842.705048
4081.999366,-11103.089130,296.082377,76.609550
4081.999696,-10658.965565,-148.041188,459.657299
4082.000026,-9918.759623,444.123565,1149.143247
4082.000356,-9400.615463,74.020594,919.314598
4082.000685,-9622.677246,222.061783,76.609550
4082.001015,-9696.697840,370.102971,-229.828649
4082.001345,-9622.677246,222.061783,-383.047749
4082.001675,-9178.553681,222.061783,-612.876398
4082.002005,-9992.780217,222.061783,0.000000
4082.002334,-9844.739029,148.041188,536.266849
4082.002664,-9474.636058,-518.144159,229.828649
4082.002994,-9474.636058,0.000000,383.047749
4082.003324,-9400.615463,-370.102971,459.657299
4082.003653,-10066.800811,444.123565,689.485948
4082.003983,-9844.739029,148.041188,1378.971896
4082.004313,-9548.656652,222.061783,1072.533697
4082.004643,-9326.594869,444.123565,536.266849
4082.004972,-10066.800811,444.123565,76.609550
4082.005302,-10066.800811,148.041188,-612.876398
4082.005632,-9622.677246,0.000000,-1685.410096
4082.005962,-9104.533087,222.061783,-459.657299
4082.006292,-9252.574275,0.000000,0.000000
4082.006621,-9770.718434,888.247130,459.657299
4082.006951,-9918.759623,962.267725,1149.143247
4082.007281,-10584.944971,740.205942,0.000000
4082.007611,-10214.842000,0.000000,-536.266849
4082.007940,-10436.903782,370.102971,-612.876398
4082.008270,-9622.677246,-222.061783,612.876398
4082.008600,-9918.759623,0.000000,1608.800546
4082.008930,-9474.636058,74.020594,842.705048
4082.009259,-9992.780217,0.000000,-306.438199
4082.009589,-9622.677246,740.205942,-536.266849
4082.009919,-10214.842000,148.041188,153.219100
4082.010249,-9992.780217,592.164754,0.000000
4082.010579,-9474.636058,148.041188,0.000000
4082.010908,-9326.594869,74.020594,0.000000
4082.011238,-9474.636058,0.000000,536.266849
4082.011568,-10214.842000,74.020594,766.095498
4082.011898,-10214.842000,-74.020594,229.828649
4082.012227,-9918.759623,-74.020594,0.000000
4082.012557,-9474.636058,222.061783,842.705048
4082.012887,-10066.800811,-296.082377,1608.800546
4082.013217,-10214.842000,370.102971,1072.533697
4082.013547,-9992.780217,0.000000,536.266849
4082.013876,-9844.739029,296.082377,-383.047749
4082.014206,-10288.862594,0.000000,0.000000
4082.014536,-9918.759623,296.082377,383.047749
4082.014866,-9770.718434,-148.041188,0.000000
4082.015195,-9548.656652,-222.061783,-689.485948
4082.015525,-9474.636058,0.000000,-536.266849
4082.015855,-9622.677246,0.000000,-459.657299
4082.016185,-9474.636058,0.000000,-612.876398
4082.016514,-9918.759623,0.000000,-612.876398
4082.016844,-9474.636058,-518.144159,995.924147
4082.017174,-9548.656652,-370.102971,1455.581446
4082.017504,-9992.780217,0.000000,1302.362347
4082.017834,-10436.903782,-740.205942,612.876398
4082.018163,-10362.883188,0.000000,153.219100
4082.018493,-9770.718434,-444.123565,536.266849
4082.018823,-9252.574275,74.020594,306.438199
4082.019153,-9400.615463,-74.020594,0.000000
4082.019482,-9622.677246,0.000000,-306.438199
4082.019812,-9326.594869,-148.041188,383.047749
4082.020142,-9992.780217,0.000000,689.485948
4082.020472,-9622.677246,222.061783,383.047749
4082.020801,-10140.821405,-222.061783,306.438199
4082.021131,-9770.718434,148.041188,766.095498
4082.021461,-9252.574275,-814.226536,766.095498
4082.021791,-9770.718434,148.041188,76.609550
4082.022121,-9992.780217,0.000000,383.047749
4082.022450,-9992.780217,0.000000,229.828649
4082.022780,-10066.800811,148.041188,842.705048
4082.023110,-10214.842000,592.164754,919.314598
4082.023440,-9992.780217,0.000000,383.047749
4082.023769,-9696.697840,0.000000,-153.219100
4082.024099,-9400.615463,74.020594,306.438199
4082.024429,-9178.553681,-592.164754,383.047749
4082.024759,-9104.533087,370.102971,459.657299
4082.025088,-9770.718434,0.000000,-536.266849
4082.025418,-9696.697840,814.226536,-842.705048
4082.025748,-10066.800811,0.000000,0.000000
4082.026078,-10066.800811,518.144159,842.705048
4082.026408,-9918.759623,-296.082377,612.876398
4082.026737,-10140.821405,0.000000,995.924147
4082.027067,-9770.718434,0.000000,1762.019645
4082.027397,-10140.821405,-148.041188,766.095498
4082.027727,-9844.739029,-296.082377,-229.828649
4082.028056,-9992.780217,0.000000,-612.876398
4082.028386,-9548.656652,222.061783,0.000000
4082.028716,-9844.739029,0.000000,536.266849
4082.029046,-9770.718434,666.185348,76.609550
4082.029376,-9918.759623,-222.061783,-306.438199
4082.029705,-10362.883188,666.185348,-153.219100
4082.030035,-9992.780217,0.000000,229.828649
4082.030365,-9992.780217,0.000000,0.000000
4082.030695,-9622.677246,0.000000,0.000000
4082.031024,-9844.739029,222.061783,383.047749
4082.031354,-9548.656652,-296.082377,76.609550
4082.031684,-9844.739029,0.000000,76.609550
4082.032014,-9474.636058,0.000000,0.000000
4082.032343,-9326.594869,0.000000,0.000000
4082.032673,-9696.697840,518.144159,383.047749
4082.033003,-9918.759623,-74.020594,842.705048
4082.033333,-10140.821405,444.123565,-153.219100
4082.033663,-9548.656652,-370.102971,-383.047749
4082.033992,-9844.739029,0.000000,-689.485948
4082.034322,-9474.636058,0.000000,0.000000
4082.034652,-9622.677246,296.082377,689.485948
4082.034982,-9400.615463,0.000000,1072.533697
4082.035311,-9696.697840,296.082377,689.485948
4082.035641,-9918.759623,296.082377,306.438199
4082.035971,-10658.965565,0.000000,459.657299
4082.036301,-10066.800811,222.061783,0.000000
4082.036630,-9770.718434,148.041188,306.438199
4082.036960,-9696.697840,148.041188,459.657299
4082.037290,-9992.780217,0.000000,689.485948
4082.037620,-9252.574275,222.061783,-153.219100
4082.037950,-9400.615463,74.020594,-995.924147
4082.038279,-9400.615463,222.061783,-995.924147
4082.038609,-9548.656652,148.041188,612.876398
4082.038939,-10066.800811,444.123565,919.314598
4082.039269,-9622.677246,444.123565,229.828649
4082.039598,-9474.636058,0.000000,0.000000
4082.039928,-9474.636058,370.102971,-1149.143247
4082.040258,-10066.800811,0.000000,-306.438199
4082.040588,-9992.780217,666.185348,0.000000
4082.040917,-9992.780217,74.020594,1072.533697
4082.041247,-9622.677246,296.082377,1072.533697
4082.041577,-9548.656652,222.061783,1608.800546
4082.041907,-9770.718434,592.164754,0.000000
4082.042237,-9474.636058,222.061783,-842.705048
4082.042566,-9474.636058,666.185348,-842.705048
4082.042896,-9770.718434,222.061783,0.000000
4082.043226,-10214.842000,740.205942,1072.533697
4082.043556,-10140.821405,370.102971,842.705048
4082.043885,-10658.965565,-148.041188,536.266849
4082.044215,-9696.697840,444.123565,76.609550
4082.044545,-9770.718434,-222.061783,383.047749
4082.044875,-9696.697840,148.041188,0.000000
4082.045205,-9400.615463,-74.020594,383.047749
4082.045534,-9696.697840,296.082377,229.828649
4082.045864,-9696.697840,0.000000,919.314598
4082.046194,-9992.780217,148.041188,-76.609550
4082.046524,-9918.759623,-740.205942,-689.485948
4082.046853,-10288.862594,-740.205942,-459.657299
4082.047183,-9548.656652,-666.185348,919.314598
4082.047513,-9474.636058,-814.226536,1302.362347
4082.047843,-9400.615463,-222.061783,995.924147
4082.048172,-9400.615463,0.000000,0.000000
4082.048502,-9918.759623,0.000000,0.000000
4082.048832,-10214.842000,-296.082377,153.219100
4082.049162,-10658.965565,148.041188,612.876398
4082.049492,-9918.759623,-666.185348,919.314598
4082.049821,-9252.574275,-370.102971,153.219100
4082.050151,-8734.430116,-518.144159,153.219100
4082.050481,-9400.615463,-518.144159,-383.047749
4082.050811,-9400.615463,-222.061783,-612.876398
4082.051140,-10288.862594,-74.020594,-383.047749
4082.051470,-9696.697840,-148.041188,153.219100
4082.051800,-9696.697840,-518.144159,1072.533697
4082.052130,-9770.718434,74.020594,1532.190996
4082.052459,-9844.739029,-740.205942,1149.143247
4082.052789,-9770.718434,-296.082377,306.438199
4082.053119,-9252.574275,-444.123565,612.876398
4082.053449,-10288.862594,0.000000,766.095498
4082.053779,-10140.821405,0.000000,689.485948
4082.054108,-9918.759623,0.000000,0.000000
4082.054438,-9400.615463,74.020594,-229.828649
4082.054768,-9770.718434,74.020594,-383.047749
4082.055098,-9770.718434,148.041188,76.609550
4082.055427,-9844.739029,-592.164754,0.000000
4082.055757,-9326.594869,0.000000,612.876398
4082.056087,-9474.636058,-444.123565,1532.190996
4082.056417,-10510.924376,0.000000,1225.752797
4082.056746,-10955.047942,-148.041188,229.828649
4082.057076,-9992.780217,0.000000,0.000000
4082.057406,-9252.574275,-296.082377,689.485948
4082.057736,-9622.677246,222.061783,995.924147
4082.058066,-9844.739029,222.061783,842.705048
4082.058395,-9696.697840,296.082377,229.828649
4082.058725,-9400.615463,666.185348,-383.047749
4082.059055,-9622.677246,444.123565,-1072.533697
4082.059385,-10288.862594,888.247130,-995.924147
4082.059714,-9992.780217,518.144159,-919.314598
4082.060044,-9770.718434,592.164754,0.000000
4082.060374,-9918.759623,222.061783,459.657299
4082.060704,-9474.636058,666.185348,0.000000
4082.061034,-10066.800811,222.061783,229.828649
4082.061363,-10066.800811,666.185348,306.438199
4082.061693,-9844.739029,370.102971,306.438199
4082.062023,-10140.821405,444.123565,536.266849
4082.062353,-9622.677246,444.123565,536.266849
4082.062682,-9770.718434,148.041188,0.000000
4082.063012,-9474.636058,222.061783,0.000000
4082.063342,-9548.656652,0.000000,306.438199
4082.063672,-9252.574275,518.144159,-536.266849
4082.064001,-9474.636058,74.020594,-459.657299
4082.064331,-9400.615463,1036.288319,-229.828649
4082.064661,-9548.656652,592.164754,766.095498
4082.064991,-10140.821405,888.247130,689.485948
4082.065321,-9844.739029,296.082377,-153.219100
4082.065650,-9918.759623,370.102971,0.000000
4082.065980,-9400.615463,444.123565,0.000000
4082.066310,-9844.739029,0.000000,383.047749
4082.066640,-9474.636058,370.102971,612.876398
4082.066969,-9696.697840,0.000000,459.657299
4082.067299,-9622.677246,1036.288319,1072.533697
4082.067629,-9696.697840,222.061783,919.314598
4082.067959,-10510.924376,518.144159,383.047749
4082.068288,-10362.883188,222.061783,-459.657299
4082.068618,-9622.677246,74.020594,-536.266849
4082.068948,-9696.697840,0.000000,536.266849
4082.069278,-9770.718434,148.041188,689.485948
4082.069608,-9178.553681,-444.123565,459.657299
4082.069937,-9474.636058,-518.144159,459.657299
4082.070267,-9622.677246,0.000000,995.924147
4082.070597,-10066.800811,-1036.288319,1455.581446
4082.070927,-9992.780217,-444.123565,842.705048
4082.071256,-9696.697840,-888.247130,689.485948
4082.071586,-9474.636058,-518.144159,0.000000
4082.071916,-9770.718434,-888.247130,383.047749
4082.072246,-9918.759623,-444.123565,306.438199
4082.072575,-9622.677246,-444.123565,-306.438199
4082.072905,-9844.739029,-814.226536,-383.047749
4082.073235,-9770.718434,-1036.288319,612.876398
4082.073565,-9770.718434,-962.267725,766.095498
4082.073895,-9474.636058,-444.123565,689.485948
4082.074224,-9622.677246,-666.185348,0.000000
4082.074554,-9548.656652,-592.164754,0.000000
4082.074884,-10214.842000,-444.123565,383.047749
4082.075214,-9918.759623,0.000000,229.828649
4082.075543,-10140.821405,-740.205942,0.000000
4082.075873,-10140.821405,-296.082377,536.266849
4082.076203,-10214.842000,-814.226536,1149.143247
4082.076533,-10066.800811,-370.102971,153.219100
4082.076863,-9252.574275,-1184.329507,-383.047749
4082.077192,-8734.430116,-814.226536,-766.095498
4082.077522,-9104.533087,-592.164754,0.000000
4082.077852,-10288.862594,-222.061783,1378.971896
4082.078182,-10066.800811,-74.020594,1072.533697
4082.078511,-10288.862594,-518.144159,919.314598
4082.078841,-9474.636058,0.000000,0.000000
4082.079171,-10510.924376,-518.144159,766.095498
4082.079501,-10288.862594,592.164754,229.828649
4082.079830,-10214.842000,222.061783,383.047749
4082.080160,-9696.697840,592.164754,153.219100
4082.080490,-9622.677246,296.082377,459.657299
4082.080820,-10362.883188,888.247130,76.609550
4082.081150,-9992.780217,222.061783,-689.485948
4082.081479,-9918.759623,148.041188,-766.095498
4082.081809,-9030.512492,370.102971,612.876398
4082.082139,-9770.718434,444.123565,995.924147
4082.082469,-9178.553681,888.247130,995.924147
4082.082798,-9104.533087,518.144159,459.657299
4082.083128,-10214.842000,888.247130,229.828649
4082.083458,-10214.842000,814.226536,229.828649
4082.083788,-10140.821405,1332.370696,229.828649
4082.084117,-9696.697840,592.164754,306.438199
4082.084447,-9622.677246,962.267725,0.000000
4082.084777,-9326.594869,740.205942,0.000000
4082.085107,-9400.615463,814.226536,-306.438199
4082.085437,-9326.594869,814.226536,-689.485948
4082.085766,-9770.718434,1036.288319,-919.314598
4082.086096,-9696.697840,1184.329507,-383.047749
4082.086426,-9770.718434,740.205942,689.485948
4082.086756,-9696.697840,1332.370696,229.828649
4082.087085,-10362.883188,888.247130,0.000000
4082.087415,-10362.883188,962.267725,-306.438199
4082.087745,-9696.697840,518.144159,-76.609550
4082.088075,-9400.615463,666.185348,536.266849
4082.088404,-9474.636058,740.205942,0.000000
4082.088734,-9622.677246,518.144159,-306.438199
4082.089064,-9400.615463,222.061783,-306.438199
4082.089394,-9992.780217,518.144159,0.000000
4082.089723,-10658.965565,666.185348,-612.876398
4082.090053,-10362.883188,-74.020594,-306.438199
4082.090383,-9400.615463,-148.041188,612.876398
4082.090713,-9252.574275,-592.164754,1302.362347
4082.091042,-10362.883188,0.000000,689.485948
4082.091372,-9918.759623,-592.164754,-536.266849
4082.091702,-8882.471304,-518.144159,-536.266849
4082.092031,-9030.512492,-148.041188,229.828649
4082.092361,-9844.739029,0.000000,1149.143247
4082.092691,-10066.800811,-296.082377,689.485948
4082.093021,-10140.821405,-740.205942,459.657299
4082.093350,-9548.656652,-962.267725,842.705048
4082.093680,-10066.800811,-814.226536,1762.019645
4082.094010,-10214.842000,-740.205942,766.095498
4082.094339,-9696.697840,-592.164754,306.438199
4082.094669,-9474.636058,-296.082377,153.219100
4082.094999,-10140.821405,-370.102971,383.047749
4082.095329,-10584.944971,0.000000,459.657299
4082.095658,-10140.821405,74.020594,-306.438199
4082.095988,-9474.636058,-222.061783,-689.485948
4082.096318,-9400.615463,-592.164754,383.047749
4082.096647,-10140.821405,-518.144159,1378.971896
4082.096977,-9548.656652,-1036.288319,766.095498
4082.097307,-9622.677246,-1184.329507,0.000000
4082.097636,-9770.718434,-370.102971,536.266849
4082.097966,-10510.924376,-296.082377,1455.581446
4082.098296,-10584.944971,296.082377,1302.362347
4082.098626,-9622.677246,-518.144159,383.047749
4082.098955,-9844.739029,74.020594,689.485948
4082.099285,-10066.800811,444.123565,995.924147
4082.099615,-10732.986159,-370.102971,76.609550
4082.099944,-9918.759623,74.020594,-995.924147
4082.100274,-9326.594869,-222.061783,-1532.190996
4082.100604,-9326.594869,74.020594,-766.095498
4082.100934,-9252.574275,-370.102971,0.000000
4082.101263,-9252.574275,0.000000,0.000000
4082.101593,-9252.574275,-148.041188,76.609550
4082.101923,-9622.677246,74.020594,306.438199
4082.102252,-10510.924376,74.020594,1225.752797
4082.102582,-10584.944971,0.000000,536.266849
4082.102912,-10436.903782,148.041188,153.219100
4082.103242,-9474.636058,-222.061783,383.047749
4082.103571,-9474.636058,74.020594,1455.581446
4082.103901,-9770.718434,0.000000,1225.752797
4082.104231,-9474.636058,0.000000,689.485948
4082.104560,-9844.739029,296.082377,153.219100
4082.104890,-9770.718434,592.164754,459.657299
4082.105220,-10214.842000,0.000000,229.828649
4082.105549,-9326.594869,518.144159,306.438199
4082.105879,-9474.636058,296.082377,0.000000
4082.106209,-9622.677246,592.164754,0.000000
4082.106539,-9844.739029,148.041188,689.485948
4082.106868,-9622.677246,740.205942,0.000000
4082.107198,-9548.656652,666.185348,-766.095498
4082.107528,-10362.883188,962.267725,-306.438199
4082.107857,-10510.924376,888.247130,1149.143247
4082.108187,-10066.800811,148.041188,229.828649
4082.108517,-9178.553681,222.061783,-229.828649
4082.108847,-9178.553681,0.000000,-229.828649
4082.109176,-9326.594869,370.102971,153.219100
4082.109506,-9326.594869,74.020594,153.219100
4082.109836,-9474.636058,814.226536,0.000000
4082.110165,-10288.862594,518.144159,0.000000
4082.110495,-10658.965565,740.205942,153.219100
4082.110825,-10362.883188,444.123565,1455.581446
4082.111155,-9844.739029,444.123565,1072.533697
4082.111484,-9104.533087,222.061783,0.000000
4082.111814,-9474.636058,296.082377,-766.095498
4082.112144,-10288.862594,296.082377,0.000000
4082.112473,-10436.903782,592.164754,0.000000
4082.112803,-9918.759623,814.226536,0.000000
4082.113133,-10288.862594,0.000000,76.609550
4082.113462,-9992.780217,666.185348,306.438199
4082.113792,-10140.821405,0.000000,459.657299
4082.114122,-9918.759623,296.082377,0.000000
4082.114452,-9252.574275,0.000000,-995.924147
4082.114781,-9326.594869,0.000000,-76.609550
4082.115111,-9622.677246,-444.123565,612.876398
4082.115441,-10510.924376,370.102971,1302.362347
4082.115770,-9918.759623,222.061783,229.828649
4082.116100,-9918.759623,222.061783,-383.047749
4082.116430,-9622.677246,0.000000,-229.828649
4082.116760,-9992.780217,0.000000,612.876398
4082.117089,-9326.594869,0.000000,306.438199
4082.117419,-9474.636058,-222.061783,-383.047749
4082.117749,-9622.677246,-518.144159,0.000000
4082.118078,-9770.718434,-370.102971,0.000000
4082.118408,-9770.718434,0.000000,153.219100
4082.118738,-9770.718434,-296.082377,-383.047749
4082.119068,-9918.759623,0.000000,0.000000
4082.119397,-9918.759623,222.061783,919.314598
4082.119727,-10066.800811,0.000000,306.438199
4082.120057,-9548.656652,-222.061783,-153.219100
4082.120386,-9474.636058,-444.123565,-919.314598
4082.120716,-9474.636058,-518.144159,153.219100
4082.121046,-9770.718434,-666.185348,689.485948
4082.121375,-9178.553681,-222.061783,536.266849
4082.121705,-9400.615463,-518.144159,76.609550
4082.122035,-9770.718434,0.000000,306.438199
4082.122365,-9770.718434,222.061783,383.047749
4082.122694,-10066.800811,296.082377,-383.047749
4082.123024,-9696.697840,296.082377,-689.485948
4082.123354,-10066.800811,370.102971,-689.485948
4082.123683,-9770.718434,74.020594,76.609550
4082.124013,-9474.636058,74.020594,-153.219100
4082.124343,-9252.574275,296.082377,76.609550
4082.124673,-9696.697840,0.000000,-383.047749
4082.125002,-9622.677246,0.000000,229.828649
4082.125332,-9548.656652,-74.020594,0.000000
4082.125662,-9474.636058,148.041188,306.438199
4082.125991,-9770.718434,0.000000,842.705048
4082.126321,-9844.739029,-148.041188,1762.019645
4082.126651,-9844.739029,-370.102971,1762.019645
4082.126981,-9770.718434,444.123565,1149.143247
4082.127310,-9696.697840,0.000000,612.876398
4082.127640,-10510.924376,222.061783,229.828649
4082.127970,-10288.862594,592.164754,1455.581446
4082.128299,-10658.965565,222.061783,1915.238745
4082.128629,-10510.924376,296.082377,612.876398
4082.128959,-10066.800811,222.061783,0.000000
4082.129288,-9918.759623,222.061783,-383.047749
4082.129618,-9622.677246,0.000000,306.438199
4082.129948,-10288.862594,592.164754,0.000000
4082.130278,-10436.903782,0.000000,229.828649
4082.130607,-9992.780217,222.061783,536.266849
4082.130937,-9252.574275,74.020594,1302.362347
4082.131267,-9918.759623,0.000000,1149.143247
4082.131596,-10288.862594,222.061783,306.438199
4082.131926,-10214.842000,0.000000,153.219100
4082.132256,-9252.574275,-592.164754,-153.219100
4082.132586,-9178.553681,-222.061783,-306.438199
4082.132915,-9474.636058,-296.082377,0.000000
4082.133245,-9400.615463,-1036.288319,76.609550
4082.133575,-9178.553681,-370.102971,153.219100
4082.133904,-8882.471304,-962.267725,919.314598
4082.134234,-9622.677246,-370.102971,153.219100
4082.134564,-9918.759623,-370.102971,-229.828649
4082.134894,-9992.780217,296.082377,0.000000
4082.135223,-9104.533087,-148.041188,-383.047749
4082.135553,-9622.677246,0.000000,153.219100
4082.135883,-9918.759623,74.020594,-306.438199
4082.136212,-10066.800811,-222.061783,-229.828649
4082.136542,-9918.759623,-148.041188,0.000000
4082.136872,-9178.553681,-666.185348,459.657299
4082.137201,-9178.553681,0.000000,306.438199
4082.137531,-9474.636058,-296.082377,229.828649
4082.137861,-9844.739029,148.041188,0.000000
4082.138191,-9474.636058,-296.082377,-306.438199
4082.138520,-9992.780217,370.102971,-766.095498
4082.138850,-10140.821405,296.082377,-1072.533697
4082.139180,-10436.903782,0.000000,-383.047749
4082.139509,-10436.903782,74.020594,306.438199
4082.139839,-10288.862594,-296.082377,536.266849
4082.140169,-9770.718434,-222.061783,76.609550
4082.140499,-9844.739029,-518.144159,766.095498
4082.140828,-9548.656652,-444.123565,153.219100
4082.141158,-9400.615463,-518.144159,76.609550
4082.141488,-9252.574275,296.082377,459.657299
4082.141817,-10140.821405,148.041188,536.266849
4082.142147,-10881.027347,296.082377,536.266849
4082.142477,-10288.862594,74.020594,1149.143247
4082.142807,-9696.697840,-370.102971,153.219100
4082.143136,-9178.553681,0.000000,0.000000
4082.143466,-9104.533087,-148.041188,0.000000
4082.143796,-8808.450710,0.000000,612.876398
4082.144125,-9252.574275,370.102971,766.095498
4082.144455,-10214.842000,1332.370696,306.438199
4082.144785,-10807.006753,962.267725,-153.219100
4082.145114,-10658.965565,888.247130,-76.609550
4082.145444,-9474.636058,0.000000,536.266849
4082.145774,-9844.739029,592.164754,536.266849
4082.146104,-9474.636058,222.061783,0.000000
4082.146433,-9474.636058,444.123565,-612.876398
4082.146763,-9030.512492,296.082377,0.000000
4082.147093,-9844.739029,888.247130,153.219100
4082.147422,-10362.883188,1184.329507,536.266849
4082.147752,-10658.965565,740.205942,0.000000
4082.148082,-9770.718434,592.164754,919.314598
4082.148412,-10288.862594,74.020594,2068.457845
4082.148741,-10510.924376,370.102971,1302.362347
4082.149071,-10140.821405,0.000000,0.000000
4082.149401,-9104.533087,370.102971,-766.095498
4082.149730,-8586.388927,0.000000,0.000000
4082.150060,-9326.594869,1258.350101,-306.438199
4082.150390,-9770.718434,1184.329507,-612.876398
4082.150720,-9844.739029,666.185348,-612.876398
4082.151049,-9770.718434,740.205942,153.219100
4082.151379,-10658.965565,370.102971,612.876398
4082.151709,-10510.924376,148.041188,536.266849
4082.152038,-9178.553681,-370.102971,-229.828649
4082.152368,-8142.265362,-148.041188,-459.657299
4082.152698,-9178.553681,0.000000,-383.047749
4082.153028,-10288.862594,888.247130,0.000000
4082.153357,-10214.842000,148.041188,0.000000
4082.153687,-10436.903782,518.144159,-153.219100
4082.154017,-10214.842000,-296.082377,919.314598
4082.154346,-9918.759623,-518.144159,842.705048
4082.154676,-8512.368333,-666.185348,76.609550
4082.155006,-8808.450710,-814.226536,-459.657299
4082.155335,-9326.594869,-888.247130,-306.438199
4082.155665,-10066.800811,-814.226536,229.828649
4082.155995,-9104.533087,-296.082377,459.657299
4082.156325,-9474.636058,-296.082377,0.000000
4082.156654,-10066.800811,0.000000,0.000000
4082.156984,-9770.718434,-740.205942,383.047749
4082.157314,-9548.656652,-444.123565,0.000000
4082.157643,-8808.450710,-1258.350101,229.828649
4082.157973,-9474.636058,-740.205942,383.047749
4082.158303,-9918.759623,-370.102971,842.705048
4082.158633,-10288.862594,-148.041188,766.095498
4082.158962,-9548.656652,-296.082377,153.219100
4082.159292,-10510.924376,-444.123565,-306.438199
4082.159622,-10584.944971,-148.041188,383.047749
4082.159951,-10214.842000,-740.205942,1455.581446
4082.160281,-9474.636058,0.000000,1302.362347
4082.160611,-9326.594869,-370.102971,459.657299
4082.160941,-9548.656652,0.000000,0.000000
4082.161270,-9918.759623,74.020594,-153.219100
4082.161600,-10214.842000,296.082377,-536.266849
4082.161930,-9770.718434,148.041188,-536.266849
4082.162259,-10362.883188,74.020594,76.609550
4082.162589,-9992.780217,222.061783,1378.971896
4082.162919,-10510.924376,74.020594,1762.019645
4082.163248,-9918.759623,0.000000,612.876398
4082.163578,-10140.821405,-296.082377,0.000000
4082.163908,-9548.656652,222.061783,-229.828649
4082.164238,-9252.574275,-814.226536,536.266849
4082.164567,-9474.636058,296.082377,536.266849
4082.164897,-9622.677246,74.020594,766.095498
4082.165227,-9992.780217,814.226536,153.219100
4082.165556,-9252.574275,74.020594,536.266849
4082.165886,-10288.862594,666.185348,689.485948
4082.166216,-10066.800811,444.123565,306.438199
4082.166546,-9844.739029,0.000000,229.828649
4082.166875,-9474.636058,74.020594,459.657299
4082.167205,-9696.697840,-370.102971,612.876398
4082.167535,-9326.594869,222.061783,0.000000
4082.167864,-9178.553681,0.000000,-612.876398
4082.168194,-9252.574275,1184.329507,-153.219100
4082.168524,-9770.718434,1036.288319,995.924147
4082.168854,-10362.883188,1554.432478,153.219100
4082.169183,-9918.759623,518.144159,0.000000
4082.169513,-10066.800811,666.185348,-1685.410096
4082.169843,-9548.656652,0.000000,-1378.971896
4082.170172,-9770.718434,666.185348,-1915.238745
4082.170502,-8586.388927,444.123565,-1302.362347
4082.170832,-8512.368333,148.041188,-842.705048
4082.171161,-9326.594869,888.247130,153.219100
4082.171491,-10584.944971,666.185348,1149.143247
4082.171821,-11177.109724,1110.308913,766.095498
4082.172151,-10732.986159,148.041188,-76.609550
4082.172480,-10362.883188,592.164754,-306.438199
4082.172810,-9622.677246,0.000000,536.266849
4082.173140,-8808.450710,0.000000,153.219100
4082.173469,-8586.388927,0.000000,-383.047749
4082.173799,-9474.636058,222.061783,-1225.752797
4082.174129,-10140.821405,518.144159,0.000000
4082.174459,-11251.130318,740.205942,459.657299
4082.174788,-10140.821405,444.123565,229.828649
4082.175118,-9474.636058,-148.041188,0.000000
4082.175448,-9548.656652,148.041188,306.438199
4082.175777,-10066.800811,-296.082377,766.095498
4082.176107,-9844.739029,0.000000,306.438199
4082.176437,-9474.636058,-592.164754,76.609550
4082.176767,-9770.718434,74.020594,766.095498
4082.177096,-9696.697840,-222.061783,2145.067394
4082.177426,-10510.924376,-148.041188,2145.067394
4082.177756,-10066.800811,-444.123565,612.876398
4082.178085,-9548.656652,-444.123565,0.000000
4082.178415,-9326.594869,-296.082377,76.609550
4082.178745,-9400.615463,-444.123565,0.000000
4082.179074,-9326.594869,148.041188,612.876398
4082.179404,-9992.780217,0.000000,306.438199
4082.179734,-9844.739029,148.041188,-229.828649
4082.180064,-9548.656652,-592.164754,612.876398
4082.180393,-10140.821405,222.061783,0.000000
4082.180723,-10362.883188,-222.061783,459.657299
4082.181053,-10584.944971,0.000000,536.266849
4082.181382,-9844.739029,-370.102971,766.095498
4082.181712,-9770.718434,-370.102971,229.828649
4082.182042,-9178.553681,-148.041188,-76.609550
4082.182372,-9844.739029,-518.144159,0.000000
4082.182701,-9844.739029,518.144159,536.266849
4082.183031,-9400.615463,-148.041188,1225.752797
4082.183361,-9844.739029,518.144159,612.876398
4082.183690,-10362.883188,-296.082377,0.000000
4082.184020,-10362.883188,0.000000,-612.876398
4082.184350,-9622.677246,-592.164754,76.609550
4082.184680,-9622.677246,0.000000,0.000000
4082.185009,-9474.636058,-296.082377,229.828649
4082.185339,-9474.636058,0.000000,0.000000
4082.185669,-9326.594869,74.020594,689.485948
4082.185998,-10066.800811,74.020594,766.095498
4082.186328,-10214.842000,0.000000,459.657299
4082.186658,-9770.718434,-296.082377,612.876398
4082.186987,-9400.615463,0.000000,842.705048
4082.187317,-9252.574275,-1036.288319,1072.533697
4082.187647,-9474.636058,0.000000,459.657299
4082.187977,-9326.594869,-296.082377,-459.657299
4082.188306,-9326.594869,222.061783,-995.924147
4082.188636,-9326.594869,222.061783,536.266849
4082.188966,-10807.006753,518.144159,689.485948
4082.189295,-10214.842000,518.144159,689.485948
4082.189625,-9844.739029,-740.205942,-536.266849
4082.189955,-8512.368333,0.000000,383.047749
4082.190285,-9030.512492,-444.123565,306.438199
4082.190614,-9474.636058,222.061783,306.438199
4082.190944,-9770.718434,-74.020594,0.000000
4082.191274,-10288.862594,518.144159,-383.047749
4082.191604,-10510.924376,592.164754,612.876398
4082.191933,-10214.842000,518.144159,0.000000
4082.192263,-10066.800811,74.020594,-306.438199
4082.192593,-9104.533087,0.000000,-306.438199
4082.192923,-9326.594869,0.000000,383.047749
4082.193253,-9474.636058,0.000000,689.485948
4082.193583,-9696.697840,370.102971,76.609550
4082.193913,-10807.006753,592.164754,153.219100
4082.194243,-10732.986159,666.185348,76.609550
4082.194573,-10214.842000,74.020594,306.438199
4082.194903,-9548.656652,148.041188,0.000000
4082.195232,-8882.471304,74.020594,-383.047749
4082.195562,-9474.636058,666.185348,-459.657299
4082.195892,-9548.656652,148.041188,76.609550
4082.196222,-9548.656652,814.226536,0.000000
4082.196552,-9770.718434,592.164754,-459.657299
4082.196882,-10214.842000,518.144159,-383.047749
4082.197212,-9918.759623,518.144159,459.657299
4082.197542,-9622.677246,74.020594,919.314598
4082.197872,-9400.615463,592.164754,459.657299
4082.198202,-10066.800811,0.000000,459.657299
4082.198531,-10881.027347,592.164754,995.924147
4082.198861,-10140.821405,-148.041188,612.876398
4082.199191,-9918.759623,444.123565,229.828649
4082.199521,-9252.574275,-148.041188,612.876398
4082.199851,-10066.800811,0.000000,1072.533697
4082.200181,-9548.656652,0.000000,2068.457845
4082.200511,-9770.718434,222.061783,919.314598
4082.200841,-9548.656652,0.000000,-383.047749
4082.201171,-10066.800811,0.000000,-536.266849
4082.201501,-9992.780217,0.000000,0.000000
4082.201830,-9844.739029,-518.144159,383.047749
4082.202160,-9030.512492,0.000000,229.828649
4082.202490,-8808.450710,-740.205942,-459.657299
4082.202820,-9178.553681,222.061783,153.219100
4082.203150,-9474.636058,-296.082377,995.924147
4082.203480,-10510.924376,592.164754,766.095498
4082.203810,-9992.780217,0.000000,536.266849
4082.204140,-10066.800811,0.000000,536.266849
4082.204470,-8956.491898,-666.185348,229.828649
4082.204799,-9548.656652,-814.226536,842.705048
4082.205129,-9474.636058,0.000000,383.047749
4082.205459,-9696.697840,-666.185348,-459.657299
4082.205789,-9326.594869,370.102971,-76.609550
4082.206119,-9770.718434,148.041188,689.485948
4082.206449,-10436.903782,592.164754,306.438199
4082.206779,-10214.842000,0.000000,-383.047749
4082.207109,-10066.800811,296.082377,-383.047749
4082.207439,-9548.656652,-296.082377,842.705048
4082.207769,-10140.821405,0.000000,1149.143247
4082.208098,-9918.759623,-296.082377,153.219100
4082.208428,-10436.903782,0.000000,0.000000
4082.208758,-9252.574275,0.000000,0.000000
4082.209088,-9770.718434,-370.102971,306.438199
4082.209418,-10214.842000,296.082377,536.266849
4082.209748,-10066.800811,-296.082377,766.095498
4082.210078,-9918.759623,0.000000,1072.533697
4082.210408,-10140.821405,-814.226536,1225.752797
4082.210738,-10288.862594,-370.102971,612.876398
4082.211068,-9548.656652,-1110.308913,0.000000
4082.211397,-9474.636058,-444.123565,-306.438199
4082.211727,-9104.533087,-666.185348,383.047749
4082.212057,-9622.677246,-222.061783,1149.143247
4082.212387,-9622.677246,0.000000,995.924147
4082.212717,-10140.821405,814.226536,459.657299
4082.213047,-9918.759623,296.082377,-76.609550
4082.213377,-10066.800811,0.000000,0.000000
4082.213707,-10140.821405,0.000000,153.219100
4082.214037,-9548.656652,-592.164754,-229.828649
4082.214367,-9030.512492,0.000000,-459.657299
4082.214696,-9104.533087,-370.102971,536.266849
4082.215026,-10214.842000,74.020594,383.047749
4082.215356,-9992.780217,0.000000,383.047749
4082.215686,-10658.965565,296.082377,459.657299
4082.216016,-9770.718434,74.020594,995.924147
4082.216346,-9844.739029,0.000000,1072.533697
4082.216676,-9474.636058,296.082377,153.219100
4082.217006,-9326.594869,222.061783,-612.876398
4082.217336,-9474.636058,740.205942,-612.876398
4082.217665,-9474.636058,518.144159,-306.438199
4082.217995,-10288.862594,1036.288319,-459.657299
4082.218325,-9844.739029,592.164754,-229.828649
4082.218655,-10066.800811,740.205942,-153.219100
4082.218985,-9474.636058,296.082377,459.657299
4082.219315,-9548.656652,444.123565,612.876398
4082.219645,-9770.718434,814.226536,76.609550
4082.219975,-9548.656652,74.020594,-153.219100
4082.220305,-9474.636058,444.123565,536.266849
4082.220635,-10140.821405,370.102971,1149.143247
4082.220964,-9992.780217,444.123565,229.828649
4082.221294,-9696.697840,444.123565,76.609550
4082.221624,-9474.636058,814.226536,-306.438199
4082.221954,-9400.615463,-74.020594,76.609550
4082.222284,-9770.718434,962.267725,536.266849
4082.222614,-9918.759623,666.185348,459.657299
4082.222944,-9844.739029,740.205942,-383.047749
4082.223274,-9252.574275,740.205942,-76.609550
4082.223604,-10436.903782,888.247130,-306.438199
4082.223934,-10436.903782,370.102971,-459.657299
4082.224263,-10066.800811,148.041188,-689.485948
4082.224593,-9326.594869,444.123565,383.047749
4082.224923,-9474.636058,-148.041188,612.876398
4082.225253,-9918.759623,666.185348,459.657299
4082.225583,-10214.842000,0.000000,-229.828649
4082.225913,-9548.656652,0.000000,0.000000
4082.226243,-9178.553681,0.000000,766.095498
4082.226573,-10288.862594,296.082377,995.924147
4082.226903,-10658.965565,0.000000,995.924147
4082.227232,-9918.759623,-370.102971,0.000000
4082.227562,-8808.450710,-814.226536,306.438199
4082.227892,-9104.533087,-296.082377,383.047749
4082.228222,-9178.553681,222.061783,153.219100
4082.228552,-9252.574275,-74.020594,-536.266849
4082.228882,-9474.636058,148.041188,-459.657299
4082.229212,-10362.883188,0.000000,229.828649
4082.229542,-10732.986159,74.020594,229.828649
4082.229872,-9918.759623,-740.205942,-383.047749
4082.230202,-9696.697840,-666.185348,76.609550
4082.230531,-9770.718434,-444.123565,612.876398
4082.230861,-9622.677246,-518.144159,229.828649
4082.231191,-9030.512492,-296.082377,153.219100
4082.231521,-9918.759623,-518.144159,-153.219100
4082.231851,-9770.718434,74.020594,459.657299
4082.232181,-10214.842000,-296.082377,919.314598
4082.232511,-9474.636058,0.000000,612.876398
4082.232841,-9326.594869,-888.247130,0.000000
4082.233171,-9474.636058,-370.102971,76.609550
4082.233501,-9696.697840,-1036.288319,842.705048
4082.233830,-10140.821405,0.000000,919.314598
4082.234160,-9622.677246,-666.185348,383.047749
4082.234490,-10214.842000,-296.082377,0.000000
4082.234820,-9918.759623,-222.061783,536.266849
4082.235150,-10436.903782,-592.164754,689.485948
4082.235480,-9400.615463,-592.164754,536.266849
4082.235810,-9474.636058,-814.226536,229.828649
4082.236140,-8956.491898,-444.123565,842.705048
4082.236470,-10066.800811,-296.082377,1072.533697
4082.236800,-9918.759623,740.205942,536.266849
4082.237129,-9844.739029,-74.020594,0.000000
4082.237459,-9844.739029,0.000000,536.266849
4082.237789,-10140.821405,74.020594,919.314598
4082.238119,-10140.821405,0.000000,1149.143247
4082.238449,-9696.697840,0.000000,536.266849
4082.238779,-9474.636058,74.020594,-383.047749
4082.239109,-9400.615463,-74.020594,76.609550
4082.239439,-9178.553681,148.041188,229.828649
4082.239769,-9474.636058,518.144159,229.828649
4082.240098,-9992.780217,148.041188,-306.438199
4082.240428,-9844.739029,296.082377,0.000000
4082.240758,-10140.821405,0.000000,536.266849
4082.241088,-9918.759623,740.205942,153.219100
4082.241418,-9548.656652,148.041188,-383.047749
4082.241748,-9696.697840,296.082377,-229.828649
4082.242078,-9474.636058,296.082377,383.047749
4082.242408,-10066.800811,962.267725,1378.971896
4082.242738,-9918.759623,592.164754,153.219100
4082.243068,-10510.924376,740.205942,-536.266849
4082.243397,-10436.903782,592.164754,-306.438199
4082.243727,-10214.842000,148.041188,229.828649
4082.244057,-9474.636058,592.164754,383.047749
4082.244387,-9030.512492,222.061783,0.000000
4082.244717,-9548.656652,222.061783,-383.047749
4082.245047,-10066.800811,74.020594,306.438199
4082.245377,-9992.780217,962.267725,766.095498
4082.245707,-10066.800811,518.144159,536.266849
4082.246037,-10140.821405,296.082377,153.219100
4082.246367,-9622.677246,74.020594,1225.752797
4082.246696,-9770.718434,148.041188,1149.143247
4082.247026,-9548.656652,74.020594,76.609550
4082.247356,-10140.821405,0.000000,-766.095498
4082.247686,-9770.718434,74.020594,-536.266849
4082.248016,-9400.615463,0.000000,0.000000
4082.248346,-9326.594869,592.164754,76.609550
4082.248676,-9474.636058,-222.061783,0.000000
4082.249006,-9326.594869,370.102971,-229.828649
4082.249336,-9474.636058,74.020594,0.000000
4082.249665,-10288.862594,518.144159,-153.219100
4082.249995,-9548.656652,0.000000,-689.485948
4082.250325,-9548.656652,296.082377,0.000000
4082.250655,-9178.553681,0.000000,612.876398
4082.250985,-9992.780217,370.102971,1072.533697
4082.251315,-9548.656652,370.102971,153.219100
4082.251645,-10288.862594,0.000000,-612.876398
4082.251975,-10066.800811,296.082377,0.000000
4082.252305,-9548.656652,-370.102971,995.924147
4082.252635,-9474.636058,444.123565,689.485948
4082.252964,-9252.574275,-296.082377,0.000000
4082.253294,-9696.697840,0.000000,0.000000
4082.253624,-9770.718434,-592.164754,383.047749
4082.253954,-9696.697840,-444.123565,536.266849
4082.254284,-9844.739029,-222.061783,842.705048
4082.254614,-10066.800811,-370.102971,689.485948
4082.254944,-9622.677246,-222.061783,1225.752797
4082.255274,-9770.718434,-370.102971,842.705048
4082.255604,-9474.636058,296.082377,229.828649
4082.255934,-9696.697840,-222.061783,0.000000
4082.256263,-10288.862594,222.061783,229.828649
4082.256593,-10140.821405,0.000000,919.314598
4082.256923,-9548.656652,0.000000,459.657299
4082.257253,-9252.574275,-444.123565,-229.828649
4082.257583,-9326.594869,0.000000,-766.095498
4082.257913,-9326.594869,74.020594,153.219100
4082.258243,-9918.759623,-74.020594,383.047749
4082.258573,-10436.903782,296.082377,0.000000
4082.258903,-10584.944971,0.000000,-153.219100
4082.259233,-9770.718434,0.000000,0.000000
4082.259562,-9918.759623,-296.082377,1149.143247
4082.259892,-9622.677246,0.000000,919.314598
4082.260222,-9770.718434,-518.144159,0.000000
4082.260552,-9474.636058,-592.164754,76.609550
4082.260882,-8956.491898,148.041188,1455.581446
4082.261212,-9696.697840,-518.144159,1455.581446
4082.261542,-10288.862594,0.000000,842.705048
4082.261872,-10436.903782,0.000000,536.266849
4082.262202,-9844.739029,74.020594,0.000000
4082.262531,-9844.739029,0.000000,-306.438199
4082.262861,-9252.574275,0.000000,-689.485948
4082.263191,-9400.615463,-444.123565,-459.657299
4082.263521,-8734.430116,222.061783,-153.219100
4082.263851,-9548.656652,-296.082377,459.657299
4082.264181,-10140.821405,74.020594,-383.047749
4082.264511,-9474.636058,-666.185348,-689.485948
4082.264841,-9326.594869,-148.041188,229.828649
4082.265171,-9696.697840,-444.123565,1608.800546
4082.265501,-10584.944971,-74.020594,1608.800546
4082.265830,-9622.677246,0.000000,995.924147
4082.266160,-10066.800811,74.020594,383.047749
4082.266490,-9918.759623,444.123565,229.828649
4082.266820,-10881.027347,370.102971,-153.219100
4082.267150,-9918.759623,814.226536,-689.485948
4082.267480,-9104.533087,74.020594,-459.657299
4082.267810,-9178.553681,666.185348,-459.657299
4082.268140,-10658.965565,148.041188,306.438199
4082.268470,-10510.924376,518.144159,0.000000
4082.268800,-9252.574275,-222.061783,-229.828649
4082.269129,-9548.656652,222.061783,153.219100
4082.269459,-9622.677246,296.082377,1608.800546
4082.269789,-10732.986159,444.123565,995.924147
4082.270119,-9548.656652,370.102971,-153.219100
4082.270449,-9474.636058,518.144159,-766.095498
4082.270779,-9548.656652,888.247130,612.876398
4082.271109,-10288.862594,592.164754,842.705048
4082.271439,-9696.697840,1036.288319,229.828649
4082.271769,-10066.800811,370.102971,0.000000
4082.272099,-10436.903782,518.144159,0.000000
4082.272428,-10436.903782,0.000000,612.876398
4082.272758,-9252.574275,0.000000,-306.438199
4082.273088,-8142.265362,-222.061783,-919.314598
4082.273418,-8734.430116,444.123565,0.000000
4082.273748,-9400.615463,148.041188,766.095498
4082.274078,-10510.924376,74.020594,612.876398
4082.274408,-10584.944971,962.267725,306.438199
4082.274738,-10732.986159,222.061783,0.000000
4082.275068,-9696.697840,518.144159,76.609550
4082.275397,-8808.450710,0.000000,0.000000
4082.275727,-8808.450710,296.082377,-459.657299
4082.276057,-9178.553681,0.000000,-842.705048
4082.276387,-10362.883188,1036.288319,-766.095498
4082.276717,-10214.842000,518.144159,-612.876398
4082.277047,-10436.903782,444.123565,-306.438199
4082.277377,-9918.759623,222.061783,153.219100
4082.277707,-9992.780217,-148.041188,306.438199
4082.278037,-9252.574275,222.061783,383.047749
4082.278367,-9104.533087,0.000000,0.000000
4082.278696,-9474.636058,0.000000,76.609550
4082.279026,-10140.821405,0.000000,76.609550
4082.279356,-10658.965565,814.226536,612.876398
4082.279686,-10288.862594,-370.102971,612.876398
4082.280016,-9548.656652,0.000000,459.657299
4082.280346,-8734.430116,-518.144159,229.828649
4082.280676,-9474.636058,-148.041188,1225.752797
4082.281006,-9844.739029,0.000000,1378.971896
4082.281336,-10510.924376,-444.123565,766.095498
4082.281666,-9844.739029,222.061783,76.609550
4082.281995,-9992.780217,-444.123565,-689.485948
4082.282325,-9548.656652,74.020594,0.000000
4082.282655,-9474.636058,-666.185348,536.266849
4082.282985,-9844.739029,296.082377,1149.143247
4082.283315,-9770.718434,-370.102971,383.047749
4082.283645,-10288.862594,0.000000,612.876398
4082.283975,-10140.821405,-444.123565,919.314598
4082.284305,-10214.842000,-296.082377,383.047749
4082.284635,-9622.677246,-888.247130,306.438199
4082.284964,-9474.636058,-888.247130,612.876398
4082.285294,-8956.491898,-740.205942,995.924147
4082.285624,-9326.594869,-370.102971,1378.971896
4082.285954,-9844.739029,74.020594,612.876398
4082.286284,-10955.047942,-444.123565,306.438199
4082.286614,-10436.903782,0.000000,689.485948
4082.286944,-9548.656652,-888.247130,1149.143247
4082.287274,-9326.594869,-222.061783,536.266849
4082.287604,-9696.697840,-592.164754,76.609550
4082.287934,-9622.677246,0.000000,-536.266849
4082.288263,-9030.512492,-518.144159,76.609550
4082.288593,-9622.677246,222.061783,306.438199
4082.288923,-10288.862594,444.123565,383.047749
4082.289253,-10436.903782,74.020594,0.000000
4082.289583,-9104.533087,592.164754,153.219100
4082.289913,-9474.636058,148.041188,612.876398
4082.290243,-10658.965565,1036.288319,0.000000
4082.290573,-10732.986159,0.000000,0.000000
4082.290902,-9252.574275,296.082377,-766.095498
4082.291232,-9178.553681,-148.041188,-306.438199
4082.291562,-9622.677246,296.082377,153.219100
4082.291892,-10066.800811,-518.144159,306.438199
4082.292222,-9696.697840,0.000000,0.000000
4082.292551,-9178.553681,-148.041188,536.266849
4082.292881,-9992.780217,296.082377,459.657299
4082.293211,-9844.739029,518.144159,536.266849
4082.293541,-9918.759623,740.205942,0.000000
4082.293871,-9474.636058,666.185348,-536.266849
4082.294200,-9770.718434,444.123565,76.609550
4082.294530,-10214.842000,814.226536,0.000000
4082.294860,-10140.821405,-296.082377,-459.657299
4082.295190,-9326.594869,222.061783,-153.219100
4082.295520,-9104.533087,0.000000,536.266849
4082.295850,-9548.656652,666.185348,153.219100
4082.296179,-9622.677246,370.102971,0.000000
4082.296509,-9400.615463,592.164754,-536.266849
4082.296839,-9400.615463,518.144159,306.438199
4082.297169,-10658.965565,370.102971,1225.752797
4082.297499,-10807.006753,740.205942,842.705048
4082.297828,-10066.800811,-296.082377,0.000000
4082.298158,-9178.553681,0.000000,0.000000
4082.298488,-8808.450710,-666.185348,842.705048
4082.298818,-9622.677246,0.000000,995.924147
4082.299148,-9622.677246,0.000000,995.924147
4082.299477,-9326.594869,370.102971,0.000000
4082.299807,-9622.677246,148.041188,0.000000
4082.300137,-10362.883188,148.041188,229.828649
4082.300467,-10510.924376,148.041188,76.609550
4082.300797,-9918.759623,-444.123565,-383.047749
4082.301126,-9104.533087,148.041188,306.438199
4082.301456,-9252.574275,0.000000,229.828649
4082.301786,-9992.780217,740.205942,-383.047749
4082.302116,-10140.821405,74.020594,-919.314598
4082.302446,-10510.924376,518.144159,-766.095498
4082.302775,-10140.821405,-444.123565,306.438199
4082.303105,-9844.739029,0.000000,689.485948
4082.303435,-9548.656652,-592.164754,1455.581446
4082.303765,-9252.574275,-370.102971,842.705048
4082.304095,-9400.615463,0.000000,919.314598
4082.304424,-10584.944971,0.000000,766.095498
4082.304754,-10658.965565,740.205942,842.705048
4082.305084,-10658.965565,370.102971,0.000000
4082.305414,-9918.759623,814.226536,0.000000
4082.305744,-10140.821405,-74.020594,229.828649
4082.306073,-9844.739029,222.061783,383.047749
4082.306403,-9622.677246,-592.164754,-306.438199
4082.306733,-9400.615463,-296.082377,0.000000
4082.307063,-8882.471304,-888.247130,919.314598
4082.307393,-9622.677246,0.000000,842.705048
4082.307722,-9844.739029,0.000000,1225.752797
4082.308052,-9918.759623,148.041188,459.657299
4082.308382,-10140.821405,0.000000,689.485948
4082.308712,-10807.006753,296.082377,842.705048
4082.309042,-10066.800811,888.247130,842.705048
4082.309371,-9770.718434,-74.020594,-306.438199
4082.309701,-9474.636058,740.205942,459.657299
4082.310031,-10066.800811,-74.020594,842.705048
4082.310361,-9992.780217,296.082377,-306.438199
4082.310691,-9326.594869,-814.226536,-689.485948
4082.311020,-9474.636058,74.020594,-766.095498
4082.311350,-9326.594869,-518.144159,229.828649
4082.311680,-10066.800811,370.102971,995.924147
4082.312010,-9844.739029,0.000000,1225.752797
4082.312340,-9992.780217,296.082377,153.219100
4082.312669,-9992.780217,666.185348,0.000000
4082.312999,-10807.006753,222.061783,306.438199
4082.313329,-10658.965565,814.226536,306.438199
4082.313659,-9548.656652,-518.144159,-229.828649
4082.313989,-8956.491898,0.000000,-306.438199
4082.314319,-9696.697840,-518.144159,766.095498
4082.314648,-9696.697840,222.061783,1378.971896
4082.314978,-9400.615463,0.000000,0.000000
4082.315308,-9622.677246,518.144159,-459.657299
4082.315638,-9474.636058,740.205942,459.657299
4082.315968,-10584.944971,444.123565,919.314598
4082.316297,-10362.883188,592.164754,383.047749
4082.316627,-9622.677246,0.000000,-76.609550
4082.316957,-9696.697840,222.061783,-153.219100
4082.317287,-10066.800811,-222.061783,229.828649
4082.317617,-10436.903782,518.144159,995.924147
4082.317946,-10066.800811,-222.061783,0.000000
4082.318276,-9622.677246,74.020594,0.000000
4082.318606,-9326.594869,-222.061783,612.876398
4082.318936,-10066.800811,222.061783,689.485948
4082.319266,-9548.656652,-296.082377,229.828649
4082.319595,-9548.656652,0.000000,0.000000
4082.319925,-8882.471304,-296.082377,383.047749
4082.320255,-9918.759623,-296.082377,1149.143247
4082.320585,-9622.677246,-74.020594,919.314598
4082.320915,-10066.800811,-296.082377,-306.438199
4082.321244,-9770.718434,148.041188,0.000000
4082.321574,-9326.594869,-444.123565,459.657299
4082.321904,-9696.697840,0.000000,1225.752797
4082.322234,-9770.718434,-148.041188,0.000000
4082.322564,-10362.883188,222.061783,-153.219100
4082.322893,-10214.842000,-740.205942,0.000000
4082.323223,-9918.759623,-370.102971,1532.190996
4082.323553,-9622.677246,0.000000,383.047749
4082.323883,-9992.780217,222.061783,0.000000
4082.324213,-9474.636058,148.041188,459.657299
4082.324542,-10362.883188,0.000000,536.266849
4082.324872,-10288.862594,518.144159,-459.657299
4082.325202,-9474.636058,-222.061783,-1072.533697
4082.325532,-9400.615463,222.061783,-536.266849
4082.325862,-9030.512492,-222.061783,842.705048
4082.326191,-10140.821405,962.267725,536.266849
4082.326521,-9918.759623,0.000000,229.828649
4082.326851,-10362.883188,-148.041188,0.000000
4082.327181,-9770.718434,0.000000,612.876398
4082.327511,-9918.759623,0.000000,1915.238745
4082.327840,-9770.718434,148.041188,842.705048
4082.328170,-9696.697840,0.000000,229.828649
4082.328500,-9844.739029,444.123565,153.219100
4082.328830,-10214.842000,74.020594,76.609550
4082.329160,-10362.883188,740.205942,-306.438199
4082.329489,-9400.615463,74.020594,-306.438199
4082.329819,-9400.615463,370.102971,76.609550
4082.330149,-9252.574275,444.123565,1149.143247
4082.330479,-9548.656652,148.041188,153.219100
4082.330809,-9770.718434,74.020594,-459.657299
4082.331138,-9770.718434,148.041188,-459.657299
4082.331468,-9844.739029,444.123565,76.609550
4082.331798,-9474.636058,0.000000,1532.190996
4082.332128,-9770.718434,666.185348,459.657299
4082.332458,-9622.677246,-148.041188,0.000000
4082.332788,-10214.842000,444.123565,0.000000
4082.333117,-10214.842000,-148.041188,306.438199
4082.333447,-9696.697840,-296.082377,76.609550
4082.333777,-9400.615463,-74.020594,383.047749
4082.334107,-8956.491898,370.102971,689.485948
4082.334437,-9622.677246,-148.041188,536.266849
4082.334766,-9992.780217,0.000000,383.047749
4082.335096,-10066.800811,0.000000,0.000000
4082.335426,-10436.903782,0.000000,-229.828649
4082.335756,-9844.739029,666.185348,536.266849
4082.336086,-10140.821405,222.061783,995.924147
4082.336415,-10066.800811,814.226536,76.609550
4082.336745,-9918.759623,74.020594,-1302.362347
4082.337075,-10140.821405,444.123565,-1455.581446
4082.337405,-10140.821405,-296.082377,-383.047749
4082.337735,-9770.718434,222.061783,76.609550
4082.338064,-8734.430116,-666.185348,689.485948
4082.338394,-9474.636058,0.000000,689.485948
4082.338724,-9622.677246,-296.082377,995.924147
4082.339054,-9844.739029,-518.144159,0.000000
4082.339384,-9844.739029,0.000000,-383.047749
4082.339713,-9844.739029,-74.020594,-229.828649
4082.340043,-9400.615463,296.082377,0.000000
4082.340373,-10066.800811,-148.041188,612.876398
4082.340703,-9548.656652,370.102971,383.047749
4082.341033,-9474.636058,-518.144159,0.000000
4082.341362,-9992.780217,296.082377,-229.828649
4082.341692,-9622.677246,-222.061783,842.705048
4082.342022,-10288.862594,148.041188,0.000000
4082.342352,-9104.533087,-296.082377,0.000000
4082.342682,-9622.677246,0.000000,-459.657299
4082.343011,-9696.697840,0.000000,0.000000
4082.343341,-10066.800811,0.000000,76.609550
4082.343671,-9918.759623,518.144159,536.266849
4082.344001,-10066.800811,-370.102971,76.609550
4082.344331,-10066.800811,74.020594,1149.143247
4082.344660,-9252.574275,-592.164754,766.095498
4082.344990,-9474.636058,0.000000,0.000000
4082.345320,-9844.739029,-444.123565,0.000000
4082.345650,-9918.759623,-222.061783,0.000000
4082.345980,-9178.553681,-222.061783,612.876398
4082.346309,-9622.677246,0.000000,919.314598
4082.346639,-9178.553681,0.000000,612.876398
4082.346969,-9992.780217,0.000000,0.000000
4082.347299,-9474.636058,518.144159,536.266849
4082.347629,-10288.862594,0.000000,766.095498
4082.347958,-9992.780217,666.185348,-153.219100
4082.348288,-9992.780217,74.020594,76.609550
4082.348618,-10214.842000,370.102971,0.000000
4082.348948,-9252.574275,0.000000,459.657299
4082.349278,-9400.615463,370.102971,229.828649
4082.349607,-9548.656652,222.061783,229.828649
4082.349937,-10510.924376,740.205942,459.657299
4082.350267,-9918.759623,666.185348,1072.533697
4082.350597,-10362.883188,0.000000,995.924147
4082.350927,-10436.903782,0.000000,612.876398
4082.351257,-9992.780217,-222.061783,0.000000
4082.351586,-9252.574275,0.000000,229.828649
4082.351916,-9252.574275,-592.164754,766.095498
4082.352246,-9696.697840,592.164754,919.314598
4082.352576,-10436.903782,0.000000,153.219100
4082.352906,-10066.800811,296.082377,153.219100
4082.353235,-9548.656652,-222.061783,766.095498
4082.353565,-10066.800811,74.020594,536.266849
4082.353895,-9400.615463,-518.144159,229.828649
4082.354225,-9178.553681,-296.082377,-76.609550
4082.354555,-8808.450710,-296.082377,459.657299
4082.354884,-9548.656652,-296.082377,612.876398
4082.355214,-10066.800811,370.102971,306.438199
4082.355544,-10288.862594,-222.061783,-306.438199
4082.355874,-9622.677246,518.144159,-919.314598
4082.356204,-8882.471304,0.000000,0.000000
4082.356533,-9548.656652,0.000000,-383.047749
4082.356863,-9400.615463,-370.102971,-689.485948
4082.357193,-9326.594869,222.061783,-766.095498
4082.357523,-9474.636058,-222.061783,-306.438199
4082.357853,-10362.883188,444.123565,-306.438199
4082.358182,-10436.903782,222.061783,-229.828649
4082.358512,-10066.800811,-370.102971,-153.219100
4082.358842,-9252.574275,-296.082377,612.876398
4082.359172,-9844.739029,-592.164754,1149.143247
4082.359502,-10140.821405,0.000000,766.095498
4082.359831,-9400.615463,-592.164754,-383.047749
4082.360161,-9326.594869,740.205942,-689.485948
4082.360491,-9918.759623,0.000000,0.000000
4082.360821,-10584.944971,370.102971,76.609550
4082.361151,-10140.821405,148.041188,153.219100
4082.361480,-10066.800811,592.164754,-459.657299
4082.361810,-10066.800811,740.205942,459.657299
4082.362140,-10658.965565,296.082377,689.485948
4082.362470,-10214.842000,296.082377,459.657299
4082.362800,-10584.944971,296.082377,0.000000
4082.363129,-10214.842000,148.041188,229.828649
4082.363459,-9474.636058,-370.102971,612.876398
4082.363789,-9104.533087,740.205942,842.705048
4082.364119,-9400.615463,0.000000,383.047749
4082.364449,-10288.862594,740.205942,459.657299
4082.364778,-10214.842000,74.020594,1302.362347
4082.365108,-10066.800811,0.000000,842.705048
4082.365438,-9400.615463,0.000000,459.657299
4082.365768,-9474.636058,0.000000,0.000000
4082.366098,-9474.636058,0.000000,689.485948
4082.366427,-9474.636058,0.000000,689.485948
4082.366757,-9474.636058,518.144159,0.000000
4082.367087,-9474.636058,444.123565,-383.047749
4082.367417,-9252.574275,666.185348,-229.828649
4082.367747,-9548.656652,444.123565,689.485948
4082.368076,-10140.821405,888.247130,306.438199
4082.368406,-9992.780217,222.061783,-459.657299
4082.368736,-9992.780217,518.144159,-1072.533697
4082.369066,-9474.636058,0.000000,-766.095498
4082.369396,-9252.574275,0.000000,-229.828649
4082.369726,-9400.615463,296.082377,0.000000
4082.370055,-9474.636058,444.123565,-842.705048
4082.370385,-9474.636058,814.226536,689.485948
4082.370715,-10140.821405,592.164754,536.266849
4082.371045,-10658.965565,592.164754,0.000000
4082.371375,-10658.965565,0.000000,0.000000
4082.371704,-9992.780217,74.020594,-383.047749
4082.372034,-9474.636058,-888.247130,-306.438199
4082.372364,-8956.491898,0.000000,-536.266849
4082.372694,-9252.574275,-296.082377,0.000000
4082.373024,-10066.800811,296.082377,0.000000
4082.373353,-9770.718434,592.164754,459.657299
4082.373683,-10807.006753,444.123565,842.705048
4082.374013,-10288.862594,518.144159,383.047749
4082.374343,-9918.759623,148.041188,-306.438199
4082.374673,-9770.718434,-222.061783,-306.438199
4082.375002,-9622.677246,-888.247130,766.095498
4082.375332,-9548.656652,-148.041188,536.266849
4082.375662,-9178.553681,-814.226536,459.657299
4082.375992,-9474.636058,-74.020594,0.000000
4082.376322,-9622.677246,-296.082377,1149.143247
4082.376651,-10288.862594,0.000000,1455.581446
4082.376981,-10288.862594,0.000000,766.095498
4082.377311,-10066.800811,0.000000,-383.047749
4082.377641,-9696.697840,0.000000,-766.095498
4082.377971,-9844.739029,-740.205942,-306.438199
4082.378300,-9696.697840,-370.102971,0.000000
4082.378630,-9104.533087,-888.247130,229.828649
4082.378960,-8956.491898,-148.041188,766.095498
4082.379290,-9844.739029,-74.020594,1378.971896
4082.379620,-10658.965565,0.000000,995.924147
4082.379949,-10658.965565,-148.041188,1072.533697
4082.380279,-10214.842000,444.123565,306.438199
4082.380609,-10214.842000,0.000000,612.876398
4082.380939,-10214.842000,0.000000,1072.533697
4082.381269,-9474.636058,74.020594,0.000000
4082.381598,-9548.656652,-296.082377,-459.657299
4082.381928,-9474.636058,74.020594,-229.828649
4082.382258,-10140.821405,74.020594,612.876398
4082.382588,-10732.986159,148.041188,536.266849
4082.382918,-9696.697840,74.020594,153.219100
4082.383247,-9770.718434,222.061783,383.047749
4082.383577,-9844.739029,-296.082377,306.438199
4082.383907,-9992.780217,222.061783,459.657299
4082.384237,-9622.677246,0.000000,612.876398
4082.384567,-10362.883188,518.144159,766.095498
4082.384896,-10214.842000,444.123565,1149.143247
4082.385226,-10658.965565,0.000000,766.095498
4082.385556,-9770.718434,296.082377,612.876398
4082.385886,-9696.697840,0.000000,-459.657299
4082.386216,-9104.533087,0.000000,0.000000
4082.386545,-9104.533087,-444.123565,306.438199
4082.386875,-9178.553681,444.123565,76.609550
4082.387205,-9400.615463,0.000000,-459.657299
4082.387535,-9918.759623,518.144159,-689.485948
4082.387865,-9844.739029,148.041188,383.047749
4082.388195,-10510.924376,222.061783,536.266849
4082.388524,-9992.780217,296.082377,689.485948
4082.388854,-9992.780217,-370.102971,306.438199
4082.389184,-9400.615463,-444.123565,459.657299
4082.389514,-9400.615463,-444.123565,1149.143247
4082.389844,-9770.718434,370.102971,1225.752797
4082.390174,-10214.842000,0.000000,0.000000
4082.390503,-9918.759623,444.123565,153.219100
4082.390833,-9844.739029,148.041188,459.657299
4082.391163,-10140.821405,518.144159,0.000000
4082.391493,-9474.636058,74.020594,-1072.533697
4082.391823,-9326.594869,0.000000,-1225.752797
4082.392153,-9178.553681,0.000000,-536.266849
4082.392483,-9696.697840,74.020594,76.609550
4082.392813,-9548.656652,222.061783,0.000000
4082.393142,-9844.739029,0.000000,-612.876398
4082.393472,-9770.718434,222.061783,536.266849
4082.393802,-10732.986159,0.000000,1072.533697
4082.394132,-10732.986159,0.000000,1072.533697
4082.394462,-9918.759623,0.000000,229.828649
4082.394792,-9030.512492,370.102971,0.000000
4082.395122,-8882.471304,-148.041188,76.609550
4082.395452,-9918.759623,666.185348,612.876398
4082.395781,-10214.842000,444.123565,-229.828649
4082.396111,-10436.903782,74.020594,-536.266849
4082.396441,-10066.800811,148.041188,229.828649
4082.396771,-9918.759623,-370.102971,306.438199
4082.397101,-9326.594869,-518.144159,229.828649
4082.397431,-8956.491898,-444.123565,0.000000
4082.397761,-9474.636058,0.000000,0.000000
4082.398091,-9622.677246,-444.123565,689.485948
4082.398420,-9992.780217,0.000000,689.485948
4082.398750,-10436.903782,-148.041188,459.657299
4082.399080,-9992.780217,148.041188,306.438199
4082.399410,-9474.636058,-148.041188,766.095498
4082.399740,-9696.697840,0.000000,383.047749
4082.400070,-9844.739029,0.000000,-229.828649
4082.400400,-9696.697840,74.020594,-842.705048
4082.400730,-9622.677246,222.061783,-306.438199
4082.401059,-10362.883188,74.020594,306.438199
4082.401389,-10214.842000,592.164754,0.000000
4082.401719,-9770.718434,-296.082377,0.000000
4082.402049,-9770.718434,0.000000,689.485948
4082.402379,-9474.636058,0.000000,1532.190996
4082.402709,-10214.842000,814.226536,1149.143247
4082.403039,-9696.697840,0.000000,229.828649
4082.403369,-9696.697840,370.102971,-153.219100
4082.403699,-9770.718434,0.000000,0.000000
4082.404028,-9844.739029,296.082377,153.219100
4082.404358,-9474.636058,0.000000,0.000000
4082.404688,-9770.718434,-148.041188,229.828649
4082.405018,-9252.574275,0.000000,1149.143247
4082.405348,-9474.636058,0.000000,995.924147
4082.405678,-9548.656652,370.102971,383.047749
4082.406008,-9696.697840,74.020594,-76.609550
4082.406338,-9770.718434,296.082377,-76.609550
4082.406667,-9622.677246,-74.020594,766.095498
4082.406997,-10288.862594,444.123565,766.095498
4082.407327,-9844.739029,222.061783,766.095498
4082.407657,-9844.739029,148.041188,76.609550
4082.407987,-9770.718434,370.102971,306.438199
4082.408317,-10807.006753,0.000000,689.485948
4082.408647,-10214.842000,370.102971,842.705048
4082.408977,-9696.697840,222.061783,76.609550
4082.409306,-9992.780217,222.061783,-76.609550
4082.409636,-9474.636058,0.000000,0.000000
4082.409966,-9548.656652,444.123565,-689.485948
4082.410296,-9400.615463,0.000000,-842.705048
4082.410626,-9548.656652,370.102971,0.000000
4082.410956,-9844.739029,444.123565,766.095498
4082.411286,-10140.821405,74.020594,536.266849
4082.411616,-9696.697840,0.000000,0.000000
4082.411945,-9844.739029,-592.164754,-459.657299
4082.412275,-9400.615463,-296.082377,0.000000
4082.412605,-9992.780217,-666.185348,612.876398
4082.412935,-9770.718434,0.000000,842.705048
4082.413265,-9548.656652,-518.144159,306.438199
4082.413595,-9548.656652,0.000000,689.485948
4082.413925,-9622.677246,0.000000,459.657299
4082.414255,-10807.006753,814.226536,0.000000
4082.414584,-10584.944971,0.000000,-459.657299
4082.414914,-9992.780217,-74.020594,-842.705048
4082.415244,-9252.574275,-444.123565,76.609550
4082.415574,-9474.636058,0.000000,383.047749
4082.415904,-9548.656652,370.102971,-383.047749
4082.416234,-9992.780217,-222.061783,-536.266849
4082.416564,-9030.512492,0.000000,153.219100
4082.416894,-9770.718434,0.000000,1072.533697
4082.417223,-10362.883188,740.205942,306.438199
4082.417553,-10288.862594,-296.082377,536.266849
4082.417883,-9474.636058,222.061783,0.000000
4082.418213,-9474.636058,0.000000,459.657299
4082.418543,-10288.862594,444.123565,383.047749
4082.418873,-9770.718434,74.020594,-459.657299
4082.419203,-9918.759623,444.123565,-229.828649
4082.419533,-9474.636058,518.144159,383.047749
4082.419862,-10584.944971,148.041188,536.266849
4082.420192,-10066.800811,518.144159,-383.047749
4082.420522,-9474.636058,0.000000,-689.485948
4082.420852,-9770.718434,444.123565,76.609550
4082.421182,-9844.739029,-444.123565,612.876398
4082.421512,-9844.739029,222.061783,766.095498
4082.421842,-9178.553681,-592.164754,766.095498
4082.422172,-9030.512492,148.041188,612.876398
4082.422501,-9474.636058,-296.082377,995.924147
4082.422831,-10584.944971,148.041188,1302.362347
4082.423161,-9770.718434,0.000000,229.828649
4082.423491,-9696.697840,0.000000,229.828649
4082.423821,-9770.718434,0.000000,0.000000
4082.424151,-9548.656652,0.000000,153.219100
4082.424481,-8956.491898,0.000000,153.219100
4082.424811,-9548.656652,0.000000,229.828649
4082.425140,-10140.821405,370.102971,153.219100
4082.425470,-10140.821405,-296.082377,1149.143247
4082.425800,-9548.656652,370.102971,383.047749
4082.426130,-9474.636058,-444.123565,0.000000
4082.426460,-9992.780217,0.000000,0.000000
4082.426790,-9400.615463,-814.226536,612.876398
4082.427120,-9844.739029,296.082377,1149.143247
4082.427450,-9548.656652,74.020594,383.047749
4082.427780,-10807.006753,222.061783,-229.828649
4082.428109,-10807.006753,370.102971,536.266849
4082.428439,-10362.883188,0.000000,995.924147
4082.428769,-10140.821405,74.020594,0.000000
4082.429099,-9770.718434,-444.123565,0.000000
4082.429429,-9622.677246,0.000000,0.000000
4082.429759,-9326.594869,-296.082377,536.266849
4082.430089,-9548.656652,296.082377,306.438199
4082.430419,-10436.903782,0.000000,-306.438199
4082.430748,-10436.903782,0.000000,-459.657299
4082.431078,-9548.656652,0.000000,0.000000
4082.431408,-9178.553681,0.000000,612.876398
4082.431738,-9696.697840,296.082377,536.266849
4082.432068,-10214.842000,74.020594,459.657299
4082.432398,-9844.739029,0.000000,153.219100
4082.432728,-9548.656652,-222.061783,383.047749
4082.433058,-9844.739029,0.000000,-306.438199
4082.433387,-9696.697840,-370.102971,-459.657299
4082.433717,-9326.594869,0.000000,153.219100
4082.434047,-9252.574275,-222.061783,766.095498
4082.434377,-9918.759623,296.082377,766.095498
4082.434707,-9400.615463,-222.061783,-76.609550
4082.435037,-9252.574275,74.020594,-1072.533697
4082.435367,-8956.491898,370.102971,-842.705048
4082.435697,-9992.780217,0.000000,0.000000
4082.436026,-9770.718434,148.041188,383.047749
4082.436356,-9696.697840,-592.164754,306.438199
4082.436686,-9178.553681,0.000000,229.828649
4082.437016,-9474.636058,0.000000,1302.362347
4082.437346,-10214.842000,222.061783,766.095498
4082.437676,-9844.739029,-370.102971,0.000000
4082.438006,-9992.780217,666.185348,-229.828649
4082.438336,-9622.677246,518.144159,459.657299
4082.438665,-10140.821405,740.205942,383.047749
4082.438995,-9992.780217,296.082377,-306.438199
4082.439325,-9844.739029,0.000000,-766.095498
4082.439655,-9400.615463,370.102971,0.000000
4082.439985,-9548.656652,0.000000,689.485948
4082.440315,-9844.739029,370.102971,612.876398
4082.440645,-9992.780217,0.000000,153.219100
4082.440975,-9770.718434,296.082377,-612.876398
4082.441304,-9326.594869,0.000000,0.000000
4082.441634,-10140.821405,148.041188,0.000000
4082.441964,-9696.697840,-74.020594,-153.219100
4082.442294,-9474.636058,-74.020594,76.609550
4082.442624,-9104.533087,0.000000,1378.971896
4082.442954,-10288.862594,-148.041188,1149.143247
4082.443284,-10288.862594,0.000000,689.485948
4082.443614,-9844.739029,-222.061783,-536.266849
4082.443943,-9474.636058,296.082377,-766.095498
4082.444273,-9326.594869,0.000000,-229.828649
4082.444603,-9326.594869,518.144159,0.000000
4082.444933,-9622.677246,0.000000,-536.266849
4082.445263,-9252.574275,370.102971,-536.266849
4082.445593,-9622.677246,740.205942,-536.266849
4082.445923,-10658.965565,592.164754,306.438199
4082.446253,-10436.903782,222.061783,0.000000
4082.446582,-10140.821405,74.020594,229.828649
4082.446912,-9104.533087,148.041188,766.095498
4082.447242,-9770.718434,0.000000,1455.581446
4082.447572,-10140.821405,222.061783,1072.533697
4082.447902,-10066.800811,0.000000,153.219100
4082.448232,-9548.656652,740.205942,76.609550
4082.448562,-10362.883188,518.144159,536.266849
4082.448892,-10658.965565,592.164754,-766.095498
4082.449221,-9770.718434,0.000000,-766.095498
4082.449551,-9178.553681,0.000000,-689.485948
4082.449881,-8586.388927,-148.041188,-689.485948
4082.450211,-9474.636058,0.000000,459.657299
4082.450541,-9400.615463,0.000000,612.876398
4082.450871,-10140.821405,-518.144159,0.000000
4082.451201,-10066.800811,296.082377,919.314598
4082.451531,-10288.862594,-814.226536,1378.971896
4082.451861,-10140.821405,0.000000,1838.629195
4082.452190,-9696.697840,-148.041188,1378.971896
4082.452520,-9474.636058,518.144159,153.219100
4082.452850,-9400.615463,0.000000,76.609550
4082.453180,-9918.759623,592.164754,-689.485948
4082.453510,-9622.677246,296.082377,-842.705048
4082.453840,-9770.718434,370.102971,-766.095498
4082.454170,-9474.636058,222.061783,766.095498
4082.454500,-10288.862594,74.020594,766.095498
4082.454829,-9844.739029,0.000000,0.000000
4082.455159,-9548.656652,-296.082377,-536.266849
4082.455489,-9400.615463,74.020594,0.000000
4082.455819,-9252.574275,148.041188,612.876398
4082.456149,-10066.800811,1110.308913,1225.752797
4082.456479,-10362.883188,0.000000,842.705048
4082.456809,-10732.986159,740.205942,229.828649
4082.457139,-10288.862594,74.020594,153.219100
4082.457468,-10066.800811,222.061783,612.876398
4082.457798,-9548.656652,74.020594,0.000000
4082.458128,-9474.636058,0.000000,-383.047749
4082.458458,-9178.553681,-148.041188,153.219100
4082.458788,-9474.636058,-444.123565,153.219100
4082.459118,-9548.656652,222.061783,-612.876398
4082.459448,-9696.697840,-444.123565,-766.095498
4082.459778,-9992.780217,518.144159,383.047749
4082.460107,-9918.759623,0.000000,2451.505594
4082.460437,-9770.718434,74.020594,1685.410096
4082.460767,-9844.739029,-148.041188,536.266849
4082.461097,-10066.800811,0.000000,0.000000
4082.461427,-9400.615463,-222.061783,0.000000
4082.461757,-9474.636058,-370.102971,153.219100
4082.462087,-9030.512492,-296.082377,0.000000
4082.462417,-9474.636058,-222.061783,-383.047749
4082.462746,-9178.553681,444.123565,0.000000
4082.463076,-9844.739029,0.000000,383.047749
4082.463406,-9918.759623,370.102971,76.609550
4082.463736,-9622.677246,-148.041188,0.000000
4082.464066,-9696.697840,296.082377,-153.219100
4082.464396,-9918.759623,-148.041188,153.219100
4082.464726,-10214.842000,0.000000,459.657299
4082.465056,-9474.636058,-296.082377,-612.876398
4082.465385,-9992.780217,0.000000,-459.657299
4082.465715,-9400.615463,222.061783,229.828649
4082.466045,-9548.656652,-444.123565,1225.752797
4082.466375,-9548.656652,0.000000,689.485948
4082.466705,-9474.636058,148.041188,536.266849
4082.467035,-9918.759623,444.123565,0.000000
4082.467365,-10584.944971,-444.123565,-306.438199
4082.467695,-10288.862594,518.144159,-153.219100
4082.468024,-9548.656652,-296.082377,-306.438199
4082.468354,-9548.656652,0.000000,0.000000
4082.468684,-9400.615463,-148.041188,1225.752797
4082.469014,-10436.903782,148.041188,1608.800546
4082.469344,-10436.903782,222.061783,306.438199
4082.469674,-10140.821405,0.000000,-153.219100
4082.470004,-9474.636058,370.102971,-383.047749
4082.470334,-9548.656652,148.041188,536.266849
4082.470663,-9474.636058,666.185348,612.876398
4082.470993,-9918.759623,0.000000,0.000000
4082.471323,-9844.739029,1036.288319,229.828649
4082.471653,-9844.739029,222.061783,229.828649
4082.471983,-10066.800811,666.185348,383.047749
4082.472313,-9326.594869,-74.020594,-766.095498
4082.472643,-9622.677246,740.205942,-689.485948
4082.472973,-9474.636058,148.041188,306.438199
4082.473303,-9622.677246,74.020594,459.657299
4082.473632,-9400.615463,370.102971,153.219100
4082.473962,-10214.842000,0.000000,-612.876398
4082.474292,-9622.677246,1036.288319,-766.095498
4082.474622,-9548.656652,0.000000,842.705048
4082.474952,-9992.780217,370.102971,766.095498
4082.475282,-9178.553681,-296.082377,459.657299
4082.475612,-9326.594869,1554.432478,383.047749
4082.475942,-9992.780217,0.000000,459.657299
4082.476271,-10658.965565,666.185348,459.657299
4082.476601,-9844.739029,74.020594,-383.047749
4082.476931,-9474.636058,592.164754,-689.485948
4082.477261,-9030.512492,370.102971,0.000000
4082.477591,-9918.759623,74.020594,689.485948
4082.477921,-10362.883188,592.164754,383.047749
4082.478251,-10584.944971,222.061783,76.609550
4082.478581,-9918.759623,222.061783,-459.657299
4082.478910,-9844.739029,-666.185348,306.438199
4082.479240,-9844.739029,370.102971,459.657299
4082.479570,-9252.574275,-444.123565,536.266849
4082.479900,-9548.656652,296.082377,612.876398
4082.480230,-9696.697840,148.041188,383.047749
4082.480560,-10066.800811,148.041188,0.000000
4082.480890,-9918.759623,74.020594,-459.657299
4082.481220,-10510.924376,370.102971,-536.266849
4082.481549,-9696.697840,0.000000,306.438199
4082.481879,-9178.553681,-666.185348,459.657299
4082.482209,-9030.512492,148.041188,-229.828649
4082.482539,-9326.594869,-518.144159,-1149.143247
4082.482869,-9548.656652,148.041188,-459.657299
4082.483199,-9918.759623,-518.144159,842.705048
4082.483529,-10436.903782,0.000000,995.924147
4082.483859,-10066.800811,-740.205942,995.924147
4082.484188,-9326.594869,148.041188,306.438199
4082.484518,-8660.409521,-962.267725,689.485948
4082.484848,-9548.656652,0.000000,612.876398
4082.485178,-9844.739029,222.061783,-229.828649
4082.485508,-10362.883188,-148.041188,536.266849
4082.485838,-10436.903782,222.061783,306.438199
4082.486168,-9992.780217,-370.102971,1225.752797
4082.486498,-10066.800811,0.000000,536.266849
4082.486827,-9474.636058,-518.144159,-229.828649
4082.487157,-9548.656652,0.000000,-153.219100
4082.487487,-9474.636058,-740.205942,689.485948
4082.487817,-10658.965565,592.164754,842.705048
4082.488147,-10510.924376,74.020594,1302.362347
4082.488477,-10510.924376,0.000000,383.047749
4082.488807,-9474.636058,222.061783,536.266849
4082.489137,-9844.739029,-444.123565,1072.533697
4082.489466,-9918.759623,-296.082377,842.705048
4082.489796,-9622.677246,-814.226536,306.438199
4082.490126,-9400.615463,-444.123565,229.828649
4082.490456,-9252.574275,-592.164754,766.095498
4082.490786,-9992.780217,370.102971,536.266849
4082.491116,-9844.739029,-222.061783,0.000000
4082.491446,-9918.759623,148.041188,-536.266849
4082.491776,-9548.656652,222.061783,153.219100
4082.492105,-9844.739029,0.000000,612.876398
4082.492435,-9622.677246,0.000000,459.657299
4082.492765,-9696.697840,148.041188,0.000000
4082.493095,-9252.574275,0.000000,-766.095498
4082.493425,-9770.718434,0.000000,-229.828649
4082.493755,-10288.862594,666.185348,-76.609550
4082.494085,-10584.944971,-222.061783,-383.047749
4082.494415,-9844.739029,518.144159,-459.657299
4082.494745,-9400.615463,148.041188,229.828649
4082.495074,-9548.656652,222.061783,383.047749
4082.495404,-9770.718434,0.000000,306.438199
4082.495734,-9696.697840,518.144159,0.000000
4082.496064,-9178.553681,222.061783,306.438199
4082.496394,-10066.800811,444.123565,612.876398
4082.496724,-10066.800811,814.226536,0.000000
4082.497054,-10362.883188,370.102971,-536.266849
4082.497384,-9770.718434,370.102971,-536.266849
4082.497714,-9400.615463,0.000000,229.828649
4082.498043,-9696.697840,518.144159,76.609550
4082.498373,-9400.615463,0.000000,76.609550
4082.498703,-9474.636058,592.164754,-229.828649
4082.499033,-9474.636058,0.000000,459.657299
4082.499363,-10362.883188,888.247130,612.876398
4082.499693,-10140.821405,148.041188,153.219100
4082.500023,-10288.862594,148.041188,-383.047749
4082.500353,-9548.656652,296.082377,383.047749
4082.500683,-10066.800811,148.041188,842.705048
4082.501012,-9918.759623,444.123565,536.266849
4082.501342,-9548.656652,148.041188,0.000000
4082.501672,-9474.636058,592.164754,229.828649
4082.502002,-9918.759623,0.000000,459.657299
4082.502332,-9992.780217,962.267725,459.657299
4082.502662,-9400.615463,0.000000,-766.095498
4082.502992,-9474.636058,666.185348,-536.266849
4082.503322,-9400.615463,148.041188,842.705048
4082.503652,-10362.883188,370.102971,612.876398
4082.503981,-9918.759623,444.123565,-306.438199
4082.504311,-9696.697840,-370.102971,-612.876398
4082.504641,-9548.656652,0.000000,-229.828649
4082.504971,-9622.677246,-370.102971,612.876398
4082.505301,-9844.739029,296.082377,612.876398
4082.505631,-9696.697840,-148.041188,459.657299
4082.505961,-9844.739029,296.082377,0.000000
4082.506291,-10066.800811,0.000000,459.657299
4082.506621,-10658.965565,-296.082377,0.000000
4082.506950,-9918.759623,-370.102971,0.000000
4082.507280,-9400.615463,-962.267725,0.000000
4082.507610,-8808.450710,-666.185348,689.485948
4082.507940,-9326.594869,-592.164754,1149.143247
4082.508270,-9548.656652,0.000000,612.876398
4082.508600,-10510.924376,-222.061783,-306.438199
4082.508930,-10362.883188,222.061783,306.438199
4082.509260,-10066.800811,-592.164754,536.266849
4082.509589,-10066.800811,-74.020594,689.485948
4082.509919,-9548.656652,-740.205942,766.095498
4082.510249,-9474.636058,-74.020594,919.314598
4082.510579,-9696.697840,-592.164754,459.657299
4082.510909,-9770.718434,-296.082377,0.000000
4082.511239,-9474.636058,-148.041188,-536.266849
4082.511569,-9400.615463,-962.267725,-229.828649
4082.511899,-9178.553681,-74.020594,153.219100
4082.512229,-9548.656652,-518.144159,459.657299
4082.512558,-9548.656652,-296.082377,383.047749
4082.512888,-9474.636058,-666.185348,153.219100
4082.513218,-9918.759623,-148.041188,383.047749
4082.513548,-9770.718434,-592.164754,689.485948
4082.513878,-10140.821405,0.000000,1225.752797
4082.514208,-10066.800811,-592.164754,689.485948
4082.514538,-9696.697840,0.000000,0.000000
4082.514868,-9104.533087,-666.185348,383.047749
4082.515198,-9622.677246,0.000000,306.438199
4082.515527,-10066.800811,222.061783,153.219100
4082.515857,-9992.780217,222.061783,76.609550
4082.516187,-9770.718434,74.020594,306.438199
4082.516517,-9548.656652,-222.061783,536.266849
4082.516847,-9770.718434,444.123565,383.047749
4082.517177,-9474.636058,370.102971,-612.876398
4082.517507,-9622.677246,444.123565,0.000000
4082.517837,-9474.636058,74.020594,76.609550
4082.518167,-10214.842000,518.144159,306.438199
4082.518496,-10362.883188,148.041188,-612.876398
4082.518826,-10066.800811,222.061783,153.219100
4082.519156,-9474.636058,296.082377,766.095498
4082.519486,-9844.739029,222.061783,1072.533697
4082.519816,-9918.759623,592.164754,766.095498
4082.520146,-9474.636058,0.000000,153.219100
4082.520476,-9474.636058,518.144159,306.438199
4082.520806,-9918.759623,74.020594,1225.752797
4082.521136,-10732.986159,518.144159,689.485948
4082.521465,-9474.636058,0.000000,-229.828649
4082.521795,-9104.533087,444.123565,-306.438199
4082.522125,-9252.574275,370.102971,0.000000
4082.522455,-10140.821405,666.185348,0.000000
4082.522785,-9770.718434,444.123565,-459.657299
4082.523115,-9622.677246,444.123565,0.000000
4082.523445,-9252.574275,296.082377,229.828649
4082.523775,-10066.800811,74.020594,383.047749
4082.524105,-9918.759623,74.020594,0.000000
4082.524434,-9252.574275,0.000000,-383.047749
4082.524764,-9474.636058,444.123565,-229.828649
4082.525094,-9992.780217,148.041188,612.876398
4082.525424,-9770.718434,518.144159,766.095498
4082.525754,-9104.533087,0.000000,-76.609550
4082.526084,-9474.636058,222.061783,-842.705048
4082.526414,-9622.677246,370.102971,-383.047749
4082.526744,-10362.883188,222.061783,0.000000
4082.527073,-9770.718434,518.144159,-612.876398
4082.527403,-9992.780217,0.000000,0.000000
4082.527733,-9770.718434,0.000000,919.314598
4082.528063,-9918.759623,-592.164754,1072.533697
4082.528393,-9622.677246,148.041188,536.266849
4082.528723,-9252.574275,-370.102971,76.609550
4082.529053,-9622.677246,296.082377,76.609550
4082.529383,-10140.821405,222.061783,689.485948
4082.529713,-10732.986159,444.123565,383.047749
4082.530042,-9844.739029,148.041188,-383.047749
4082.530372,-9178.553681,0.000000,-1225.752797
4082.530702,-9030.512492,0.000000,-383.047749
4082.531032,-9696.697840,74.020594,383.047749
4082.531362,-9326.594869,74.020594,612.876398
4082.531692,-9844.739029,-148.041188,-306.438199
4082.532022,-9992.780217,-148.041188,0.000000
4082.532352,-9844.739029,-740.205942,1072.533697
4082.532682,-9474.636058,-370.102971,1149.143247
4082.533011,-9548.656652,-666.185348,689.485948
4082.533341,-9770.718434,0.000000,612.876398
4082.533671,-9770.718434,-296.082377,612.876398
4082.534001,-10214.842000,0.000000,536.266849
4082.534331,-9474.636058,0.000000,306.438199
4082.534661,-10140.821405,0.000000,0.000000
4082.534991,-9992.780217,148.041188,306.438199
4082.535321,-10140.821405,-444.123565,383.047749
4082.535651,-9252.574275,222.061783,0.000000
4082.535980,-9622.677246,-444.123565,-919.314598
4082.536310,-9844.739029,0.000000,-842.705048
4082.536640,-9622.677246,-888.247130,536.266849
4082.536970,-9474.636058,370.102971,229.828649
4082.537300,-9770.718434,-444.123565,612.876398
4082.537630,-9696.697840,-296.082377,0.000000
4082.537960,-9474.636058,-518.144159,1072.533697
4082.538290,-9696.697840,0.000000,842.705048
4082.538620,-9696.697840,74.020594,459.657299
4082.538949,-9770.718434,0.000000,0.000000
4082.539279,-9326.594869,0.000000,229.828649
4082.539609,-9400.615463,-296.082377,383.047749
4082.539939,-9474.636058,222.061783,1225.752797
4082.540269,-10288.862594,0.000000,229.828649
4082.540599,-9918.759623,666.185348,383.047749
4082.540929,-9326.594869,0.000000,612.876398
4082.541259,-10510.924376,370.102971,919.314598
4082.541589,-11029.068536,222.061783,0.000000
4082.541918,-10658.965565,592.164754,306.438199
4082.542248,-9622.677246,74.020594,0.000000
4082.542578,-9548.656652,222.061783,459.657299
4082.542908,-9326.594869,370.102971,0.000000
4082.543238,-9622.677246,148.041188,-229.828649
4082.543568,-9622.677246,296.082377,-153.219100
4082.543898,-10288.862594,74.020594,766.095498
4082.544228,-10510.924376,592.164754,766.095498
4082.544557,-9400.615463,-74.020594,153.219100
4082.544887,-9326.594869,0.000000,-459.657299
4082.545217,-9400.615463,-592.164754,383.047749
4082.545547,-9474.636058,74.020594,842.705048
4082.545877,-9992.780217,296.082377,153.219100
4082.546207,-9992.780217,0.000000,-536.266849
4082.546537,-9622.677246,222.061783,0.000000
4082.546867,-9400.615463,518.144159,383.047749
4082.547197,-8956.491898,370.102971,-76.609550
4082.547526,-9252.574275,222.061783,-383.047749
4082.547856,-10066.800811,444.123565,-383.047749
4082.548186,-10214.842000,-148.041188,306.438199
4082.548516,-10214.842000,592.164754,842.705048
4082.548846,-10214.842000,74.020594,76.609550
4082.549176,-9622.677246,370.102971,-383.047749
4082.549506,-9030.512492,444.123565,153.219100
4082.549836,-9696.697840,592.164754,76.609550
4082.550166,-10436.903782,740.205942,-536.266849
4082.550495,-10510.924376,592.164754,-842.705048
4082.550825,-10140.821405,222.061783,-229.828649
4082.551155,-9548.656652,370.102971,536.266849
4082.551485,-9696.697840,444.123565,229.828649
4082.551815,-9548.656652,-296.082377,229.828649
4082.552145,-9622.677246,74.020594,-153.219100
4082.552475,-9918.759623,-296.082377,689.485948
4082.552805,-10807.006753,148.041188,459.657299
4082.553135,-10214.842000,296.082377,229.828649
4082.553464,-9696.697840,296.082377,153.219100
4082.553794,-8882.471304,0.000000,536.266849
4082.554124,-9696.697840,370.102971,689.485948
4082.554454,-9696.697840,444.123565,306.438199
4082.554784,-10214.842000,0.000000,-306.438199
4082.555114,-10066.800811,444.123565,-306.438199
4082.555444,-10066.800811,-148.041188,995.924147
4082.555774,-10066.800811,0.000000,766.095498
4082.556104,-9252.574275,-666.185348,76.609550
4082.556433,-8216.285956,0.000000,-536.266849
4082.556763,-8364.327145,-444.123565,229.828649
4082.557093,-9844.739029,296.082377,1685.410096
4082.557423,-10732.986159,518.144159,1685.410096
4082.557753,-11029.068536,592.164754,536.266849
4082.558083,-9696.697840,222.061783,0.000000
4082.558413,-9844.739029,-296.082377,0.000000
4082.558743,-9474.636058,-222.061783,-612.876398
4082.559072,-9178.553681,-518.144159,-766.095498
4082.559402,-9030.512492,370.102971,-229.828649
4082.559732,-9178.553681,0.000000,0.000000
4082.560062,-9622.677246,740.205942,76.609550
4082.560392,-9770.718434,0.000000,0.000000
4082.560722,-10881.027347,296.082377,-153.219100
4082.561052,-10066.800811,370.102971,1072.533697
4082.561382,-9992.780217,-518.144159,536.266849
4082.561712,-10066.800811,-296.082377,153.219100
4082.562041,-10214.842000,-666.185348,76.609550
4082.562371,-10140.821405,-148.041188,229.828649
4082.562701,-9548.656652,-444.123565,612.876398
4082.563031,-9770.718434,296.082377,612.876398
4082.563361,-10436.903782,0.000000,612.876398
4082.563691,-10436.903782,444.123565,536.266849
4082.564021,-10214.842000,-518.144159,689.485948
4082.564351,-10436.903782,0.000000,306.438199
4082.564681,-10140.821405,-518.144159,-459.657299
4082.565010,-9992.780217,0.000000,-612.876398
4082.565340,-8956.491898,-222.061783,536.266849
4082.565670,-8956.491898,0.000000,76.609550
4082.566000,-9548.656652,148.041188,306.438199
4082.566330,-10584.944971,0.000000,536.266849
4082.566660,-10140.821405,0.000000,612.876398
4082.566990,-9844.739029,-148.041188,612.876398
4082.567320,-9622.677246,0.000000,0.000000
4082.567650,-9252.574275,-962.267725,0.000000
4082.567979,-9104.533087,0.000000,0.000000
4082.568309,-9104.533087,0.000000,0.000000
4082.568639,-9992.780217,370.102971,-153.219100
4082.568969,-9918.759623,74.020594,-612.876398
4082.569299,-9844.739029,0.000000,-383.047749
4082.569629,-9548.656652,740.205942,459.657299
4082.569959,-9474.636058,-74.020594,1072.533697
4082.570289,-9548.656652,296.082377,229.828649
4082.570619,-9400.615463,-296.082377,-383.047749
4082.570948,-9474.636058,74.020594,383.047749
4082.571278,-9844.739029,-370.102971,1072.533697
4082.571608,-10362.883188,444.123565,1072.533697
4082.571938,-9770.718434,296.082377,1072.533697
4082.572268,-9918.759623,592.164754,229.828649
4082.572598,-10066.800811,666.185348,536.266849
4082.572928,-10658.965565,370.102971,306.438199
4082.573258,-9622.677246,518.144159,-842.705048
4082.573588,-9030.512492,0.000000,-1072.533697
4082.573917,-8882.471304,518.144159,-612.876398
4082.574247,-9992.780217,148.041188,995.924147
4082.574577,-9918.759623,740.205942,306.438199
4082.574907,-9992.780217,-296.082377,-153.219100
4082.575237,-10140.821405,74.020594,153.219100
4082.575567,-10066.800811,-148.041188,1378.971896
4082.575897,-10066.800811,148.041188,1225.752797
4082.576227,-9400.615463,0.000000,459.657299
4082.576556,-9696.697840,592.164754,0.000000
4082.576886,-9474.636058,444.123565,0.000000
4082.577216,-10362.883188,370.102971,0.000000
4082.577546,-9992.780217,370.102971,76.609550
4082.577876,-9844.739029,-296.082377,229.828649
4082.578206,-9252.574275,444.123565,459.657299
4082.578536,-8956.491898,-444.123565,306.438199
4082.578866,-9844.739029,222.061783,-383.047749
4082.579196,-9326.594869,-296.082377,-919.314598
4082.579525,-9992.780217,370.102971,-766.095498
4082.579855,-9622.677246,74.020594,689.485948
4082.580185,-10584.944971,222.061783,766.095498
4082.580515,-10140.821405,74.020594,1225.752797
4082.580845,-9770.718434,-222.061783,536.266849
4082.581175,-9548.656652,0.000000,0.000000
4082.581505,-9548.656652,-74.020594,0.000000
4082.581835,-9622.677246,148.041188,-76.609550
4082.582165,-9548.656652,-222.061783,76.609550
4082.582494,-9474.636058,296.082377,76.609550
4082.582824,-10362.883188,148.041188,459.657299
4082.583154,-10510.924376,296.082377,0.000000
4082.583484,-10288.862594,-444.123565,-306.438199
4082.583814,-9992.780217,-222.061783,76.609550
4082.584144,-9104.533087,0.000000,2145.067394
4082.584474,-9770.718434,0.000000,1149.143247
4082.584804,-9770.718434,0.000000,536.266849
4082.585134,-10066.800811,-222.061783,0.000000
4082.585463,-9918.759623,370.102971,76.609550
4082.585793,-10288.862594,0.000000,536.266849
4082.586123,-9992.780217,222.061783,612.876398
4082.586453,-9474.636058,-740.205942,229.828649
4082.586783,-8882.471304,0.000000,306.438199
4082.587113,-9252.574275,74.020594,229.828649
4082.587443,-10214.842000,296.082377,-383.047749
4082.587773,-9844.739029,0.000000,-919.314598
4082.588103,-9992.780217,222.061783,-459.657299
4082.588432,-8956.491898,0.000000,689.485948
4082.588762,-10066.800811,0.000000,1072.533697
4082.589092,-9844.739029,74.020594,459.657299
4082.589422,-9770.718434,-444.123565,153.219100
4082.589752,-9400.615463,296.082377,383.047749
4082.590082,-9770.718434,-370.102971,1378.971896
4082.590412,-10362.883188,0.000000,766.095498
4082.590742,-9918.759623,-370.102971,76.609550
4082.591072,-9252.574275,0.000000,-689.485948
4082.591401,-8808.450710,-518.144159,0.000000
4082.591731,-9770.718434,0.000000,306.438199
4082.592061,-9548.656652,74.020594,76.609550
4082.592391,-9622.677246,-148.041188,-153.219100
4082.592721,-9474.636058,518.144159,229.828649
4082.593051,-9992.780217,0.000000,766.095498
4082.593381,-10214.842000,222.061783,0.000000
4082.593711,-9696.697840,-296.082377,-459.657299
4082.594040,-9622.677246,370.102971,229.828649
4082.594370,-9548.656652,-74.020594,995.924147
4082.594700,-9696.697840,518.144159,689.485948
4082.595030,-9696.697840,0.000000,459.657299
4082.595360,-9696.697840,148.041188,0.000000
4082.595689,-9474.636058,74.020594,-766.095498
4082.596019,-10362.883188,296.082377,76.609550
4082.596349,-10066.800811,222.061783,-766.095498
4082.596679,-9770.718434,-148.041188,-689.485948
4082.597009,-9252.574275,74.020594,-383.047749
4082.597338,-9696.697840,-666.185348,612.876398
4082.597668,-9696.697840,0.000000,1149.143247
4082.597998,-9622.677246,-814.226536,536.266849
4082.598328,-9178.553681,0.000000,459.657299
4082.598658,-9696.697840,-148.041188,766.095498
4082.598987,-10658.965565,148.041188,842.705048
4082.599317,-9992.780217,0.000000,612.876398
4082.599647,-9622.677246,-74.020594,0.000000
4082.599977,-9104.533087,0.000000,306.438199
4082.600307,-9844.739029,-222.061783,229.828649
4082.600636,-9770.718434,296.082377,0.000000
4082.600966,-9622.677246,-370.102971,-689.485948
4082.601296,-9178.553681,592.164754,0.000000
4082.601626,-9622.677246,0.000000,612.876398
4082.601956,-10214.842000,740.205942,842.705048
4082.602285,-9548.656652,0.000000,306.438199
4082.602615,-9474.636058,444.123565,-153.219100
4082.602945,-9770.718434,518.144159,76.609550
4082.603275,-10362.883188,592.164754,153.219100
4082.603605,-9770.718434,222.061783,-229.828649
4082.603934,-9696.697840,0.000000,0.000000
4082.604264,-9548.656652,222.061783,766.095498
4082.604594,-10066.800811,0.000000,766.095498
4082.604924,-9622.677246,592.164754,0.000000
4082.605254,-9030.512492,0.000000,-459.657299
