#time,accel_x,accel_y,accel_z
3671.761530,-9622.677246,-1998.556043,-2451.505594
3671.761860,-9030.512492,-2072.576638,-2987.772442
3671.762190,-8882.471304,-1332.370696,-2298.286494
3671.762520,-10584.944971,-1036.288319,-1838.629195
3671.762850,-9696.697840,-1036.288319,-2911.162892
3671.763180,-8808.450710,-1924.535449,-3217.601092
3671.763510,-8882.471304,-1258.350101,-2528.115143
3671.763840,-9474.636058,-1110.308913,-1608.800546
3671.764170,-9696.697840,-666.185348,-919.314598
3671.764500,-9326.594869,-1258.350101,-612.876398
3671.764830,-9918.759623,-222.061783,-689.485948
3671.765160,-10732.986159,222.061783,-995.924147
3671.765490,-10955.047942,-370.102971,-1149.143247
3671.765820,-10288.862594,0.000000,-689.485948
3671.766150,-9548.656652,-296.082377,-1225.752797
3671.766480,-9548.656652,0.000000,-1608.800546
3671.766810,-9770.718434,-222.061783,-1762.019645
3671.767140,-9918.759623,74.020594,-2298.286494
3671.767470,-9474.636058,-518.144159,-2221.676944
3671.767800,-9770.718434,0.000000,-2298.286494
3671.768130,-9844.739029,-592.164754,-842.705048
3671.768460,-9770.718434,-888.247130,383.047749
3671.768790,-9622.677246,-1332.370696,306.438199
3671.769120,-9770.718434,-888.247130,-306.438199
3671.769450,-9474.636058,-1258.350101,-1072.533697
3671.769780,-9474.636058,-296.082377,0.000000
3671.770110,-9252.574275,222.061783,0.000000
3671.770440,-10658.965565,-222.061783,-689.485948
3671.770770,-11621.233289,0.000000,-1915.238745
3671.771100,-9178.553681,-888.247130,-1302.362347
3671.771430,-10732.986159,74.020594,-2298.286494
3671.771760,-11621.233289,-1110.308913,-2604.724693
3671.772090,-9992.780217,-1110.308913,-2987.772442
3671.772420,-9104.533087,-2072.576638,-2987.772442
3671.772750,-8290.306550,-2738.761985,-2451.505594
3671.773081,-8290.306550,-2664.741391,-689.485948
3671.773411,-8660.409521,-1998.556043,306.438199
3671.773741,-9474.636058,-1702.473667,-766.095498
3671.774071,-10658.965565,-1332.370696,-995.924147
3671.774401,-11177.109724,-1036.288319,-1608.800546
3671.774731,-11621.233289,-1628.453072,-1915.238745
3671.775061,-11547.212695,-2368.659014,-1608.800546
3671.775391,-10658.965565,-2738.761985,-1915.238745
3671.775721,-10066.800811,-3256.906145,-2528.115143
3671.776051,-9622.677246,-3552.988522,-3677.258390
3671.776381,-9474.636058,-3552.988522,-5132.839837
3671.776711,-9400.615463,-3256.906145,-5439.278036
3671.777041,-9104.533087,-4145.153275,-5898.935335
3671.777371,-9252.574275,-4293.194464,-3983.696590
3671.777701,-9104.533087,-4737.318029,-2068.457845
3671.778031,-8882.471304,-4885.359217,-1915.238745
3671.778361,-8956.491898,-4959.379811,-1762.019645
3671.778691,-8438.347739,-5033.400406,-2145.067394
3671.779021,-10214.842000,-4663.297435,-2451.505594
3671.779351,-11843.295072,-3923.091493,-1608.800546
3671.779681,-11843.295072,-4219.173869,-2451.505594
3671.780011,-11251.130318,-4515.256246,-4443.353888
3671.780341,-9622.677246,-5033.400406,-5898.935335
3671.780671,-8956.491898,-5847.626942,-5669.106685
3671.781001,-8290.306550,-5329.482782,-4213.525239
3671.781331,-7179.997637,-5477.523971,-3677.258390
3671.781661,-6809.894666,-4737.318029,-2987.772442
3671.781991,-8364.327145,-4441.235652,-3447.429741
3671.782321,-10362.883188,-3923.091493,-2987.772442
3671.782651,-11621.233289,-4145.153275,-3140.991542
3671.782981,-11177.109724,-4589.276840,-1838.629195
3671.783311,-10362.883188,-5625.565159,0.000000
3671.783641,-10214.842000,-5921.647536,1455.581446
3671.783971,-9992.780217,-5847.626942,2374.896044
3671.784301,-9326.594869,-4515.256246,842.705048
3671.784631,-8956.491898,-3034.844362,-2374.896044
3671.784961,-8956.491898,-2738.761985,-4596.572988
3671.785291,-9474.636058,-1924.535449,-2757.943793
3671.785621,-10584.944971,-1554.432478,842.705048
3671.785950,-10732.986159,-1628.453072,1225.752797
3671.786280,-9918.759623,-2146.597232,919.314598
3671.786610,-9770.718434,-2146.597232,-689.485948
3671.786940,-11029.068536,-2220.617826,-1991.848295
3671.787269,-10881.027347,-1332.370696,-1225.752797
3671.787599,-10436.903782,-2072.576638,766.095498
3671.787929,-9030.512492,-1480.411884,2834.553343
3671.788258,-9178.553681,-1036.288319,4443.353888
3671.788588,-10658.965565,-148.041188,4213.525239
3671.788918,-10436.903782,666.185348,2221.676944
3671.789248,-9030.512492,518.144159,-689.485948
3671.789577,-8364.327145,888.247130,-842.705048
3671.789907,-9844.739029,1480.411884,766.095498
3671.790237,-10881.027347,1406.391290,2374.896044
3671.790567,-10140.821405,1628.453072,1915.238745
3671.790896,-9770.718434,1184.329507,-919.314598
3671.791226,-10584.944971,1628.453072,-2604.724693
3671.791556,-11177.109724,1702.473667,-995.924147
3671.791886,-10658.965565,1332.370696,612.876398
3671.792215,-8660.409521,1554.432478,2374.896044
3671.792545,-7846.182985,2294.638420,2604.724693
3671.792875,-8586.388927,2516.700203,2145.067394
3671.793205,-8956.491898,2590.720797,0.000000
3671.793534,-9548.656652,3034.844362,0.000000
3671.793864,-10510.924376,3182.885551,153.219100
3671.794194,-10658.965565,2590.720797,1072.533697
3671.794524,-10584.944971,2812.782580,1762.019645
3671.794853,-11399.171507,3034.844362,229.828649
3671.795183,-10807.006753,2812.782580,-2834.553343
3671.795513,-8438.347739,2664.741391,-5745.716235
3671.795842,-8364.327145,2886.803174,-4979.620737
3671.796172,-8290.306550,1998.556043,-1225.752797
3671.796502,-9400.615463,3108.864956,2221.676944
3671.796832,-10066.800811,3034.844362,2298.286494
3671.797161,-8364.327145,2960.823768,-1149.143247
3671.797491,-8808.450710,2146.597232,-3524.039291
3671.797821,-10436.903782,1924.535449,-2298.286494
3671.798151,-11695.253884,2146.597232,76.609550
3671.798480,-11029.068536,1776.494261,1685.410096
3671.798810,-9770.718434,1258.350101,76.609550
3671.799140,-9178.553681,1110.308913,-1915.238745
3671.799470,-10362.883188,1036.288319,-2834.553343
3671.799799,-10732.986159,296.082377,-2987.772442
3671.800129,-9326.594869,-444.123565,0.000000
3671.800459,-8882.471304,740.205942,1991.848295
3671.800789,-8956.491898,148.041188,2528.115143
3671.801118,-8882.471304,0.000000,536.266849
3671.801448,-9104.533087,0.000000,-1838.629195
3671.801778,-10140.821405,-370.102971,-2757.943793
3671.802107,-10955.047942,-740.205942,-612.876398
3671.802437,-11103.089130,-592.164754,2221.676944
3671.802767,-10584.944971,-1332.370696,2757.943793
3671.803097,-10140.821405,-2220.617826,1378.971896
3671.803426,-9992.780217,-2738.761985,-612.876398
3671.803756,-9474.636058,-3404.947333,-1225.752797
3671.804086,-8586.388927,-2738.761985,1302.362347
3671.804416,-8290.306550,-1924.535449,3677.258390
3671.804745,-8586.388927,-1776.494261,3524.039291
3671.805075,-8068.244768,-1554.432478,1072.533697
3671.805405,-9252.574275,-1776.494261,-1302.362347
3671.805735,-10658.965565,-1480.411884,-689.485948
3671.806064,-11843.295072,-1258.350101,1149.143247
3671.806394,-10955.047942,-1554.432478,2298.286494
3671.806724,-9696.697840,-1776.494261,1991.848295
3671.807054,-9918.759623,-1998.556043,383.047749
3671.807383,-10955.047942,-2516.700203,-919.314598
3671.807713,-10214.842000,-2590.720797,-459.657299
3671.808043,-9326.594869,-2368.659014,689.485948
3671.808373,-8586.388927,-1998.556043,2374.896044
3671.808702,-7698.141797,-1702.473667,3294.210641
3671.809032,-7920.203579,-1184.329507,2451.505594
3671.809362,-9696.697840,-740.205942,766.095498
3671.809691,-11399.171507,-888.247130,459.657299
3671.810021,-12361.439231,0.000000,1762.019645
3671.810351,-11843.295072,0.000000,2757.943793
3671.810681,-11399.171507,0.000000,1915.238745
3671.811010,-10732.986159,-666.185348,-919.314598
3671.811340,-10140.821405,-1258.350101,-2528.115143
3671.811670,-9326.594869,-1036.288319,-1302.362347
3671.812000,-8290.306550,-370.102971,383.047749
3671.812329,-8216.285956,1036.288319,2145.067394
3671.812659,-7920.203579,962.267725,1762.019645
3671.812989,-8512.368333,1258.350101,-842.705048
3671.813319,-9622.677246,888.247130,-1532.190996
3671.813648,-11547.212695,1406.391290,306.438199
3671.813978,-11843.295072,1332.370696,1838.629195
3671.814308,-10658.965565,1258.350101,1532.190996
3671.814638,-9992.780217,740.205942,153.219100
3671.814967,-10140.821405,222.061783,-1915.238745
3671.815297,-9622.677246,0.000000,-2681.334243
3671.815627,-8734.430116,666.185348,-2221.676944
3671.815957,-7846.182985,888.247130,-612.876398
3671.816286,-7031.956449,1554.432478,153.219100
3671.816616,-7105.977043,1628.453072,-76.609550
3671.816946,-8512.368333,1998.556043,-1838.629195
3671.817275,-10066.800811,2220.617826,-2604.724693
3671.817605,-11399.171507,2072.576638,-1455.581446
3671.817935,-11325.150913,1628.453072,229.828649
3671.818265,-10955.047942,1628.453072,612.876398
3671.818594,-10140.821405,962.267725,-995.924147
3671.818924,-10066.800811,148.041188,-2451.505594
3671.819254,-9474.636058,-518.144159,-1915.238745
3671.819584,-9474.636058,296.082377,153.219100
3671.819913,-8660.409521,962.267725,1838.629195
3671.820243,-7994.224174,1554.432478,1225.752797
3671.820573,-8142.265362,1406.391290,-612.876398
3671.820903,-9326.594869,1776.494261,-1762.019645
3671.821232,-9770.718434,1628.453072,-919.314598
3671.821562,-11399.171507,1850.514855,306.438199
3671.821892,-11769.274478,1554.432478,306.438199
3671.822222,-11473.192101,592.164754,-76.609550
3671.822551,-11103.089130,-148.041188,-1532.190996
3671.822881,-10658.965565,-1184.329507,-689.485948
3671.823211,-9474.636058,-1110.308913,919.314598
3671.823541,-8660.409521,-592.164754,2834.553343
3671.823870,-7328.038826,74.020594,3370.820191
3671.824200,-7476.080014,740.205942,2911.162892
3671.824530,-9252.574275,962.267725,995.924147
3671.824859,-10436.903782,962.267725,536.266849
3671.825189,-11103.089130,1110.308913,1455.581446
3671.825519,-11103.089130,1480.411884,2221.676944
3671.825849,-11843.295072,814.226536,1608.800546
3671.826178,-11399.171507,444.123565,0.000000
3671.826508,-10436.903782,-814.226536,-2068.457845
3671.826838,-9696.697840,-1036.288319,-1378.971896
3671.827168,-9326.594869,-814.226536,1072.533697
3671.827497,-8734.430116,-1036.288319,3064.381992
3671.827827,-7105.977043,-888.247130,3753.867940
3671.828157,-7179.997637,-814.226536,2451.505594
3671.828487,-8660.409521,-296.082377,766.095498
3671.828816,-10584.944971,-148.041188,1685.410096
3671.829146,-11769.274478,740.205942,3294.210641
3671.829476,-11325.150913,518.144159,3677.258390
3671.829806,-11695.253884,814.226536,1455.581446
3671.830135,-11843.295072,0.000000,-995.924147
3671.830465,-11399.171507,-1036.288319,-2374.896044
3671.830795,-10288.862594,-1258.350101,-842.705048
3671.831125,-9622.677246,-814.226536,306.438199
3671.831454,-7994.224174,-740.205942,2145.067394
3671.831784,-6883.915261,-370.102971,1378.971896
3671.832114,-7328.038826,0.000000,-459.657299
3671.832443,-9178.553681,0.000000,-842.705048
3671.832773,-10732.986159,814.226536,306.438199
3671.833103,-11103.089130,370.102971,2374.896044
3671.833433,-11695.253884,444.123565,2298.286494
3671.833762,-11621.233289,-518.144159,536.266849
3671.834092,-11103.089130,-740.205942,-2604.724693
3671.834422,-10066.800811,-2072.576638,-2834.553343
3671.834752,-9474.636058,-1258.350101,-1072.533697
3671.835081,-8956.491898,-666.185348,1225.752797
3671.835411,-7105.977043,-222.061783,459.657299
3671.835741,-7031.956449,74.020594,-842.705048
3671.836071,-8142.265362,74.020594,-2911.162892
3671.836400,-9696.697840,296.082377,-3140.991542
3671.836730,-10881.027347,370.102971,-919.314598
3671.837060,-11029.068536,222.061783,766.095498
3671.837390,-11103.089130,74.020594,612.876398
3671.837719,-11399.171507,-518.144159,-1532.190996
3671.838049,-11251.130318,-1480.411884,-3064.381992
3671.838379,-10658.965565,-1554.432478,-2757.943793
3671.838708,-10288.862594,-1184.329507,0.000000
3671.839038,-9030.512492,-592.164754,1685.410096
3671.839368,-6883.915261,-296.082377,1225.752797
3671.839698,-6957.935855,222.061783,-995.924147
3671.840027,-8364.327145,0.000000,-2374.896044
3671.840357,-10066.800811,296.082377,-1838.629195
3671.840687,-11251.130318,814.226536,153.219100
3671.841017,-10881.027347,666.185348,1072.533697
3671.841346,-11177.109724,444.123565,306.438199
3671.841676,-11103.089130,-370.102971,-2221.676944
3671.842006,-11251.130318,-1554.432478,-2911.162892
3671.842336,-10510.924376,-1554.432478,-995.924147
3671.842665,-9104.533087,-1332.370696,1838.629195
3671.842995,-7550.100608,-740.205942,3524.039291
3671.843325,-6291.750507,-370.102971,2451.505594
3671.843655,-7105.977043,370.102971,0.000000
3671.843984,-8956.491898,814.226536,-1762.019645
3671.844314,-10362.883188,1036.288319,229.828649
3671.844644,-11103.089130,1628.453072,2451.505594
3671.844974,-11399.171507,1406.391290,2528.115143
3671.845303,-12139.377449,962.267725,766.095498
3671.845633,-11399.171507,-518.144159,-1608.800546
3671.845963,-10955.047942,-1258.350101,-1991.848295
3671.846292,-9696.697840,-814.226536,0.000000
3671.846622,-8586.388927,-518.144159,1378.971896
3671.846952,-6809.894666,0.000000,2528.115143
3671.847282,-6291.750507,74.020594,2068.457845
3671.847611,-7624.121203,592.164754,766.095498
3671.847941,-10288.862594,1480.411884,1072.533697
3671.848271,-11695.253884,1998.556043,1838.629195
3671.848601,-11769.274478,1776.494261,2911.162892
3671.848930,-12213.398043,1480.411884,2298.286494
3671.849260,-12657.521608,518.144159,76.609550
3671.849590,-11325.150913,-444.123565,-1762.019645
3671.849920,-10658.965565,-518.144159,-689.485948
3671.850249,-8142.265362,-592.164754,1302.362347
3671.850579,-7772.162391,-518.144159,2604.724693
3671.850909,-7698.141797,814.226536,3140.991542
3671.851239,-8290.306550,1184.329507,1455.581446
3671.851568,-9326.594869,1184.329507,0.000000
3671.851898,-10510.924376,1628.453072,766.095498
3671.852228,-11473.192101,2368.659014,2068.457845
3671.852558,-10658.965565,1628.453072,1915.238745
3671.852887,-11325.150913,666.185348,536.266849
3671.853217,-11325.150913,-518.144159,-1532.190996
3671.853547,-11251.130318,-962.267725,-2221.676944
3671.853876,-11029.068536,-1480.411884,-536.266849
3671.854206,-9474.636058,-1258.350101,1149.143247
3671.854536,-7402.059420,-296.082377,1455.581446
3671.854866,-5995.668130,-296.082377,612.876398
3671.855195,-7105.977043,592.164754,-1608.800546
3671.855525,-8808.450710,814.226536,-1838.629195
3671.855855,-10066.800811,1628.453072,-76.609550
3671.856185,-11103.089130,1628.453072,919.314598
3671.856514,-11547.212695,1110.308913,-306.438199
3671.856844,-11621.233289,0.000000,-2298.286494
3671.857174,-11103.089130,-1554.432478,-4213.525239
3671.857504,-10732.986159,-1776.494261,-3064.381992
3671.857833,-9548.656652,-1628.453072,-459.657299
3671.858163,-7846.182985,-962.267725,306.438199
3671.858493,-7031.956449,-518.144159,306.438199
3671.858823,-7105.977043,0.000000,-1455.581446
3671.859152,-8438.347739,296.082377,-2374.896044
3671.859482,-9696.697840,1036.288319,-995.924147
3671.859812,-11473.192101,1036.288319,1455.581446
3671.860142,-11769.274478,962.267725,1991.848295
3671.860471,-11843.295072,-222.061783,76.609550
3671.860801,-11843.295072,-1332.370696,-2145.067394
3671.861131,-11029.068536,-2664.741391,-2604.724693
3671.861460,-9992.780217,-2590.720797,-383.047749
3671.861790,-9030.512492,-2146.597232,2374.896044
3671.862120,-7402.059420,-1480.411884,3294.210641
3671.862450,-5773.606348,-962.267725,1608.800546
3671.862779,-7105.977043,148.041188,-689.485948
3671.863109,-9474.636058,592.164754,-919.314598
3671.863439,-11251.130318,888.247130,689.485948
3671.863769,-11251.130318,888.247130,1838.629195
3671.864098,-11399.171507,444.123565,1915.238745
3671.864428,-11695.253884,-592.164754,-383.047749
3671.864758,-10732.986159,-1702.473667,-2145.067394
3671.865088,-9844.739029,-2146.597232,-1455.581446
3671.865417,-8956.491898,-1332.370696,1072.533697
3671.865747,-8586.388927,-740.205942,2911.162892
3671.866077,-7846.182985,-370.102971,3140.991542
3671.866407,-7624.121203,0.000000,1302.362347
3671.866736,-8216.285956,74.020594,153.219100
3671.867066,-9326.594869,0.000000,306.438199
3671.867396,-10436.903782,592.164754,1991.848295
3671.867725,-10362.883188,740.205942,2834.553343
3671.868055,-10066.800811,370.102971,1838.629195
3671.868385,-11695.253884,74.020594,-383.047749
3671.868715,-12509.480420,-222.061783,-1302.362347
3671.869044,-11917.315666,-296.082377,459.657299
3671.869374,-10214.842000,0.000000,1149.143247
3671.869704,-8882.471304,222.061783,2451.505594
3671.870034,-7179.997637,444.123565,1302.362347
3671.870363,-7772.162391,666.185348,-383.047749
3671.870693,-9104.533087,1184.329507,-459.657299
3671.871023,-10066.800811,1850.514855,842.705048
3671.871353,-10584.944971,1998.556043,2451.505594
3671.871682,-11029.068536,2072.576638,1608.800546
3671.872012,-11695.253884,1406.391290,-383.047749
3671.872342,-11547.212695,740.205942,-2451.505594
3671.872672,-11917.315666,-222.061783,-1915.238745
3671.873001,-10510.924376,0.000000,153.219100
3671.873331,-8808.450710,74.020594,1608.800546
3671.873661,-6957.935855,518.144159,919.314598
3671.873991,-6809.894666,518.144159,-459.657299
3671.874320,-8216.285956,1036.288319,-1838.629195
3671.874650,-9326.594869,1406.391290,-1762.019645
3671.874980,-10288.862594,1554.432478,383.047749
3671.875309,-10288.862594,1998.556043,1608.800546
3671.875639,-10807.006753,1406.391290,76.609550
3671.875969,-11695.253884,370.102971,-2374.896044
3671.876299,-11029.068536,-1036.288319,-4213.525239
3671.876628,-10510.924376,-814.226536,-3064.381992
3671.876958,-9696.697840,-518.144159,459.657299
3671.877288,-8808.450710,-518.144159,1455.581446
3671.877618,-6883.915261,-370.102971,766.095498
3671.877947,-6661.853478,370.102971,-1762.019645
3671.878277,-8512.368333,518.144159,-1915.238745
3671.878607,-10066.800811,1110.308913,-995.924147
3671.878937,-11103.089130,1628.453072,1378.971896
3671.879266,-10881.027347,1110.308913,1532.190996
3671.879596,-11103.089130,148.041188,229.828649
3671.879926,-11621.233289,-888.247130,-2068.457845
3671.880256,-11325.150913,-2146.597232,-2068.457845
3671.880585,-10140.821405,-1924.535449,0.000000
3671.880915,-8586.388927,-1332.370696,2451.505594
3671.881245,-7846.182985,-888.247130,2681.334243
3671.881575,-7254.018232,-370.102971,1302.362347
3671.881904,-8142.265362,296.082377,-766.095498
3671.882234,-9918.759623,888.247130,-766.095498
3671.882564,-10732.986159,1036.288319,612.876398
3671.882893,-10436.903782,962.267725,2451.505594
3671.883223,-10584.944971,592.164754,1915.238745
3671.883553,-11029.068536,74.020594,0.000000
3671.883883,-10955.047942,-962.267725,-1838.629195
3671.884212,-11251.130318,-1628.453072,-1302.362347
3671.884542,-9992.780217,-1258.350101,1302.362347
3671.884872,-8808.450710,-814.226536,3064.381992
3671.885202,-7328.038826,-296.082377,2451.505594
3671.885531,-7846.182985,-148.041188,689.485948
3671.885861,-9474.636058,74.020594,0.000000
3671.886191,-10066.800811,74.020594,842.705048
3671.886521,-10584.944971,962.267725,1685.410096
3671.886850,-10510.924376,518.144159,2987.772442
3671.887180,-10584.944971,74.020594,1455.581446
3671.887510,-11325.150913,-740.205942,0.000000
3671.887840,-11473.192101,-888.247130,-612.876398
3671.888170,-10955.047942,-1332.370696,536.266849
3671.888500,-9548.656652,-444.123565,2451.505594
3671.888830,-8808.450710,74.020594,3217.601092
3671.889160,-8438.347739,222.061783,1838.629195
3671.889490,-9104.533087,592.164754,-612.876398
3671.889820,-9400.615463,0.000000,-1225.752797
3671.890150,-9918.759623,740.205942,0.000000
3671.890480,-10140.821405,740.205942,1762.019645
3671.890810,-9992.780217,888.247130,1762.019645
3671.891140,-10732.986159,518.144159,76.609550
3671.891470,-11251.130318,-148.041188,-1915.238745
3671.891800,-11251.130318,-592.164754,-1685.410096
3671.892130,-10807.006753,-148.041188,536.266849
3671.892460,-9548.656652,-74.020594,2298.286494
3671.892789,-7846.182985,0.000000,1455.581446
3671.893119,-7476.080014,0.000000,-612.876398
3671.893449,-8512.368333,74.020594,-2298.286494
3671.893779,-9178.553681,666.185348,-1608.800546
3671.894109,-9918.759623,1184.329507,0.000000
3671.894439,-10066.800811,1184.329507,766.095498
3671.894769,-10362.883188,1184.329507,-76.609550
3671.895099,-10510.924376,296.082377,-2298.286494
3671.895429,-10955.047942,-370.102971,-2987.772442
3671.895759,-10955.047942,-592.164754,-689.485948
3671.896089,-9918.759623,-370.102971,689.485948
3671.896419,-8660.409521,222.061783,1302.362347
3671.896749,-8216.285956,296.082377,306.438199
3671.897079,-8956.491898,518.144159,-1608.800546
3671.897409,-9696.697840,222.061783,-2528.115143
3671.897739,-9992.780217,740.205942,-919.314598
3671.898069,-9992.780217,814.226536,1225.752797
3671.898399,-9696.697840,814.226536,1225.752797
3671.898729,-9992.780217,0.000000,-459.657299
3671.899059,-9844.739029,-740.205942,-2374.896044
3671.899388,-10140.821405,-962.267725,-1762.019645
3671.899718,-10362.883188,-592.164754,689.485948
3671.900048,-10362.883188,-296.082377,2528.115143
3671.900378,-8956.491898,-296.082377,2374.896044
3671.900708,-8438.347739,0.000000,689.485948
3671.901038,-9400.615463,148.041188,-1532.190996
3671.901368,-9770.718434,74.020594,-842.705048
3671.901698,-9918.759623,444.123565,1378.971896
3671.902028,-9844.739029,740.205942,2451.505594
3671.902358,-9474.636058,222.061783,1455.581446
3671.902688,-10362.883188,0.000000,-766.095498
3671.903018,-10807.006753,-740.205942,-2145.067394
3671.903348,-10807.006753,-1036.288319,-1378.971896
3671.903678,-10362.883188,-444.123565,1225.752797
3671.904008,-9474.636058,-444.123565,2451.505594
3671.904338,-8216.285956,-370.102971,2451.505594
3671.904668,-8512.368333,-148.041188,766.095498
3671.904998,-9770.718434,-370.102971,0.000000
3671.905328,-10658.965565,0.000000,1072.533697
3671.905658,-10881.027347,148.041188,2528.115143
3671.905987,-9844.739029,0.000000,3064.381992
3671.906317,-9696.697840,-148.041188,1225.752797
3671.906647,-10436.903782,-222.061783,-689.485948
3671.906977,-10732.986159,-814.226536,-1762.019645
3671.907307,-10214.842000,-444.123565,306.438199
3671.907637,-9696.697840,0.000000,2451.505594
3671.907967,-9178.553681,444.123565,2911.162892
3671.908297,-8882.471304,518.144159,1302.362347
3671.908627,-9844.739029,592.164754,-383.047749
3671.908957,-10881.027347,296.082377,-1378.971896
3671.909287,-10658.965565,444.123565,919.314598
3671.909617,-10066.800811,296.082377,2528.115143
3671.909947,-8956.491898,518.144159,2068.457845
3671.910277,-9326.594869,296.082377,-306.438199
3671.910607,-10584.944971,74.020594,-2221.676944
3671.910937,-10510.924376,-370.102971,-1685.410096
3671.911267,-10362.883188,-148.041188,229.828649
3671.911597,-9548.656652,370.102971,2221.676944
3671.911927,-9030.512492,74.020594,2451.505594
3671.912257,-8882.471304,444.123565,306.438199
3671.912587,-9622.677246,296.082377,-2451.505594
3671.912916,-9770.718434,74.020594,-2298.286494
3671.913246,-9992.780217,222.061783,-536.266849
3671.913576,-9844.739029,592.164754,1072.533697
3671.913906,-9622.677246,444.123565,766.095498
3671.914236,-9770.718434,518.144159,-1532.190996
3671.914566,-9548.656652,-666.185348,-3140.991542
3671.914896,-9030.512492,-518.144159,-2145.067394
3671.915226,-9770.718434,148.041188,383.047749
3671.915556,-9770.718434,370.102971,1838.629195
3671.915886,-9474.636058,592.164754,1149.143247
3671.916216,-9252.574275,74.020594,-1072.533697
3671.916546,-10214.842000,148.041188,-2911.162892
3671.916876,-10436.903782,0.000000,-1685.410096
3671.917206,-10436.903782,0.000000,689.485948
3671.917536,-9178.553681,74.020594,1302.362347
3671.917866,-8734.430116,-444.123565,153.219100
3671.918196,-9622.677246,-666.185348,-1455.581446
3671.918526,-10140.821405,-1110.308913,-1991.848295
3671.918856,-9770.718434,-666.185348,153.219100
3671.919186,-9400.615463,-296.082377,2221.676944
3671.919515,-9030.512492,0.000000,2757.943793
3671.919845,-8956.491898,0.000000,1685.410096
3671.920175,-9844.739029,0.000000,-612.876398
3671.920505,-10658.965565,-296.082377,-459.657299
3671.920835,-10436.903782,0.000000,229.828649
3671.921165,-10066.800811,148.041188,1455.581446
3671.921495,-9252.574275,0.000000,1225.752797
3671.921825,-9104.533087,-148.041188,-306.438199
3671.922155,-9474.636058,-370.102971,-1225.752797
3671.922485,-9622.677246,-444.123565,-612.876398
3671.922815,-10066.800811,74.020594,1532.190996
3671.923145,-10066.800811,222.061783,2834.553343
3671.923475,-9104.533087,74.020594,2068.457845
3671.923805,-9548.656652,148.041188,612.876398
3671.924135,-10807.006753,0.000000,-306.438199
3671.924465,-11029.068536,-370.102971,459.657299
3671.924795,-11325.150913,666.185348,2757.943793
3671.925125,-9992.780217,0.000000,2451.505594
3671.925455,-9252.574275,-74.020594,1072.533697
3671.925785,-9474.636058,74.020594,-689.485948
3671.926114,-9770.718434,-666.185348,-842.705048
3671.926444,-9474.636058,-222.061783,842.705048
3671.926774,-9326.594869,370.102971,2451.505594
3671.927104,-9696.697840,814.226536,2834.553343
3671.927434,-9326.594869,592.164754,1838.629195
3671.927764,-10288.862594,740.205942,-612.876398
3671.928094,-11399.171507,444.123565,-766.095498
3671.928424,-11399.171507,666.185348,766.095498
3671.928754,-10510.924376,444.123565,1991.848295
3671.929084,-9104.533087,666.185348,1149.143247
3671.929414,-9178.553681,222.061783,-229.828649
3671.929744,-9400.615463,0.000000,-1991.848295
3671.930074,-9252.574275,0.000000,-1915.238745
3671.930404,-9104.533087,592.164754,0.000000
3671.930734,-9918.759623,1184.329507,1762.019645
3671.931064,-9178.553681,814.226536,1149.143247
3671.931394,-9474.636058,666.185348,-612.876398
3671.931724,-10140.821405,222.061783,-2528.115143
3671.932054,-10732.986159,222.061783,-1838.629195
3671.932384,-10955.047942,370.102971,-229.828649
3671.932714,-10362.883188,518.144159,995.924147
3671.933043,-9474.636058,592.164754,153.219100
3671.933373,-9326.594869,74.020594,-1608.800546
3671.933703,-9474.636058,-370.102971,-2911.162892
3671.934033,-9326.594869,0.000000,-1302.362347
3671.934363,-9548.656652,370.102971,459.657299
3671.934693,-9474.636058,444.123565,1685.410096
3671.935023,-8808.450710,296.082377,0.000000
3671.935353,-9622.677246,370.102971,-1915.238745
3671.935683,-10288.862594,-444.123565,-2298.286494
3671.936013,-10955.047942,-518.144159,-612.876398
3671.936343,-10955.047942,-296.082377,1302.362347
3671.936673,-9770.718434,-296.082377,1762.019645
3671.937003,-8808.450710,-962.267725,612.876398
3671.937333,-8882.471304,-1110.308913,-1532.190996
3671.937663,-9178.553681,-1332.370696,-1762.019645
3671.937993,-9326.594869,-666.185348,612.876398
3671.938323,-8956.491898,-148.041188,2451.505594
3671.938653,-9030.512492,148.041188,2528.115143
3671.938983,-9326.594869,296.082377,1149.143247
3671.939313,-9992.780217,0.000000,-1225.752797
3671.939642,-10955.047942,-74.020594,-1378.971896
3671.939972,-11473.192101,222.061783,766.095498
3671.940302,-10362.883188,0.000000,1685.410096
3671.940632,-9474.636058,222.061783,1149.143247
3671.940962,-9178.553681,-296.082377,-689.485948
3671.941292,-8660.409521,-962.267725,-1762.019645
3671.941622,-9030.512492,-518.144159,0.000000
3671.941952,-9770.718434,74.020594,2374.896044
3671.942282,-9622.677246,222.061783,3294.210641
3671.942612,-8586.388927,148.041188,2757.943793
3671.942942,-9400.615463,74.020594,995.924147
3671.943272,-11695.253884,0.000000,-919.314598
3671.943602,-12213.398043,0.000000,153.219100
3671.943932,-11399.171507,0.000000,1991.848295
3671.944262,-9918.759623,222.061783,2451.505594
3671.944592,-9030.512492,0.000000,1762.019645
3671.944922,-9548.656652,-296.082377,-689.485948
3671.945252,-9622.677246,-296.082377,-995.924147
3671.945582,-9400.615463,222.061783,612.876398
3671.945912,-9178.553681,740.205942,1991.848295
3671.946241,-8882.471304,888.247130,2451.505594
3671.946571,-9104.533087,1184.329507,1762.019645
3671.946901,-10214.842000,1258.350101,0.000000
3671.947231,-11695.253884,814.226536,-536.266849
3671.947561,-12287.418637,888.247130,76.609550
3671.947891,-11325.150913,592.164754,2145.067394
3671.948221,-10362.883188,222.061783,1838.629195
3671.948551,-9548.656652,-222.061783,-153.219100
3671.948881,-9030.512492,-962.267725,-2451.505594
3671.949211,-7772.162391,-1110.308913,-1378.971896
3671.949541,-7254.018232,0.000000,229.828649
3671.949871,-7846.182985,592.164754,1378.971896
3671.950201,-8290.306550,1184.329507,1302.362347
3671.950531,-9548.656652,1184.329507,-842.705048
3671.950861,-10881.027347,814.226536,-2604.724693
3671.951191,-12139.377449,0.000000,-1455.581446
3671.951521,-11843.295072,0.000000,306.438199
3671.951851,-9696.697840,-888.247130,766.095498
3671.952181,-8660.409521,-888.247130,153.219100
3671.952511,-8734.430116,-592.164754,-2221.676944
3671.952841,-8956.491898,-888.247130,-3217.601092
3671.953170,-8512.368333,-222.061783,-1838.629195
3671.953500,-8956.491898,814.226536,459.657299
3671.953830,-9104.533087,1258.350101,1302.362347
3671.954160,-9178.553681,962.267725,76.609550
3671.954490,-9696.697840,222.061783,-1378.971896
3671.954820,-11029.068536,74.020594,-2451.505594
3671.955150,-12287.418637,0.000000,-919.314598
3671.955480,-11917.315666,-518.144159,1225.752797
3671.955810,-10584.944971,-666.185348,1149.143247
3671.956140,-8956.491898,-962.267725,76.609550
3671.956470,-9104.533087,-1554.432478,-1762.019645
3671.956800,-8882.471304,-1554.432478,-1608.800546
3671.957130,-9326.594869,-592.164754,766.095498
3671.957460,-8956.491898,592.164754,2298.286494
3671.957790,-7698.141797,296.082377,2374.896044
3671.958120,-8512.368333,518.144159,306.438199
3671.958450,-10140.821405,444.123565,-1762.019645
3671.958780,-11399.171507,0.000000,-612.876398
3671.959110,-12213.398043,-148.041188,1455.581446
3671.959440,-11769.274478,-518.144159,2834.553343
3671.959769,-10955.047942,-370.102971,2221.676944
3671.960099,-10066.800811,-1258.350101,-306.438199
3671.960429,-9104.533087,-1924.535449,-1991.848295
3671.960759,-7476.080014,-1776.494261,-995.924147
3671.961089,-7328.038826,-518.144159,1302.362347
3671.961419,-7550.100608,444.123565,3064.381992
3671.961749,-7328.038826,814.226536,2911.162892
3671.962079,-9326.594869,1184.329507,459.657299
3671.962409,-11399.171507,518.144159,-1072.533697
3671.962739,-12805.562797,296.082377,0.000000
3671.963069,-12805.562797,0.000000,1762.019645
3671.963399,-11621.233289,-370.102971,2451.505594
3671.963729,-10288.862594,-740.205942,1149.143247
3671.964059,-9844.739029,-1184.329507,-689.485948
3671.964389,-9326.594869,-1332.370696,-1225.752797
3671.964719,-8660.409521,-296.082377,1225.752797
3671.965049,-7920.203579,296.082377,2757.943793
3671.965379,-7402.059420,1184.329507,3064.381992
3671.965709,-7772.162391,1184.329507,1838.629195
3671.966039,-9770.718434,1258.350101,-459.657299
3671.966368,-11917.315666,1184.329507,-842.705048
3671.966698,-13397.727550,1036.288319,842.705048
3671.967028,-12731.542202,592.164754,2145.067394
3671.967358,-11547.212695,296.082377,1302.362347
3671.967688,-10066.800811,-592.164754,-919.314598
3671.968018,-9548.656652,-888.247130,-2145.067394
3671.968348,-8660.409521,-444.123565,-1302.362347
3671.968678,-7476.080014,74.020594,689.485948
3671.969008,-7476.080014,888.247130,2451.505594
3671.969338,-7550.100608,1184.329507,1991.848295
3671.969668,-8438.347739,1554.432478,-919.314598
3671.969998,-9992.780217,1036.288319,-3370.820191
3671.970328,-11251.130318,962.267725,-2451.505594
3671.970658,-11621.233289,0.000000,153.219100
3671.970988,-11177.109724,0.000000,1838.629195
3671.971318,-10881.027347,-592.164754,995.924147
3671.971648,-10288.862594,-1110.308913,-1762.019645
3671.971978,-9548.656652,-2072.576638,-2987.772442
3671.972308,-7772.162391,-1480.411884,-1685.410096
3671.972638,-7402.059420,-296.082377,995.924147
3671.972968,-6957.935855,148.041188,2681.334243
3671.973297,-7105.977043,1184.329507,1302.362347
3671.973627,-8956.491898,1480.411884,-1455.581446
3671.973957,-11177.109724,1406.391290,-2604.724693
3671.974287,-13249.686362,962.267725,-1225.752797
3671.974617,-13323.706956,592.164754,612.876398
3671.974947,-11473.192101,-666.185348,459.657299
3671.975277,-9992.780217,-1702.473667,-612.876398
3671.975607,-9622.677246,-2146.597232,-2145.067394
3671.975937,-8956.491898,-2590.720797,-1225.752797
3671.976267,-8364.327145,-1480.411884,306.438199
3671.976597,-7328.038826,-444.123565,2374.896044
3671.976927,-6587.832884,518.144159,3064.381992
3671.977257,-7476.080014,1110.308913,1608.800546
3671.977587,-9992.780217,1332.370696,-612.876398
3671.977917,-12435.459826,1332.370696,-842.705048
3671.978247,-13397.727550,666.185348,306.438199
3671.978577,-12879.583391,148.041188,1225.752797
3671.978907,-11473.192101,-740.205942,919.314598
3671.979237,-10510.924376,-1036.288319,-842.705048
3671.979567,-9252.574275,-1776.494261,-2451.505594
3671.979896,-7476.080014,-1776.494261,-1838.629195
3671.980226,-7031.956449,-888.247130,766.095498
3671.980556,-6809.894666,148.041188,3370.820191
3671.980886,-7476.080014,962.267725,3830.477490
3671.981216,-8882.471304,1184.329507,1378.971896
3671.981546,-11251.130318,1406.391290,-612.876398
3671.981876,-12065.356855,666.185348,76.609550
3671.982206,-13471.748144,370.102971,2374.896044
3671.982536,-12731.542202,-222.061783,2834.553343
3671.982866,-11251.130318,-592.164754,1302.362347
3671.983196,-9992.780217,-1036.288319,-383.047749
3671.983526,-8882.471304,-1480.411884,-1225.752797
3671.983856,-7846.182985,-740.205942,306.438199
3671.984186,-7402.059420,74.020594,2374.896044
3671.984516,-6957.935855,1036.288319,2681.334243
3671.984846,-7031.956449,1036.288319,1991.848295
3671.985176,-9178.553681,1628.453072,0.000000
3671.985506,-11621.233289,1628.453072,0.000000
3671.985836,-13027.624579,1628.453072,306.438199
3671.986165,-12879.583391,1184.329507,1225.752797
3671.986495,-12213.398043,444.123565,1072.533697
3671.986825,-11029.068536,0.000000,-306.438199
3671.987155,-9918.759623,-962.267725,-1762.019645
3671.987485,-9178.553681,-1036.288319,-995.924147
3671.987815,-7624.121203,-592.164754,383.047749
3671.988145,-7105.977043,148.041188,1915.238745
3671.988475,-6143.709319,592.164754,2068.457845
3671.988804,-7328.038826,1332.370696,76.609550
3671.989134,-9474.636058,1480.411884,-2298.286494
3671.989464,-11103.089130,1332.370696,-2145.067394
3671.989794,-12657.521608,1332.370696,-153.219100
3671.990124,-12361.439231,888.247130,689.485948
3671.990454,-12213.398043,0.000000,-76.609550
3671.990784,-10807.006753,-1110.308913,-2604.724693
3671.991114,-9622.677246,-2368.659014,-2987.772442
3671.991443,-8364.327145,-1776.494261,-919.314598
3671.991773,-7328.038826,-518.144159,1225.752797
3671.992103,-6439.791695,74.020594,2145.067394
3671.992433,-6069.688724,1036.288319,383.047749
3671.992763,-7846.182985,1776.494261,-1378.971896
3671.993093,-10510.924376,1702.473667,-1991.848295
3671.993423,-12657.521608,1184.329507,-612.876398
3671.993752,-13175.665768,666.185348,766.095498
3671.994082,-12509.480420,-518.144159,995.924147
3671.994412,-11843.295072,-1258.350101,0.000000
3671.994742,-10658.965565,-2220.617826,-1762.019645
3671.995072,-9104.533087,-2886.803174,-1072.533697
3671.995402,-7476.080014,-1998.556043,536.266849
3671.995732,-6587.832884,-1036.288319,2451.505594
3671.996062,-6291.750507,666.185348,3064.381992
3671.996391,-7550.100608,1702.473667,1762.019645
3671.996721,-9252.574275,2368.659014,-995.924147
3671.997051,-11251.130318,1998.556043,-1915.238745
3671.997381,-12731.542202,1702.473667,-995.924147
3671.997711,-13027.624579,814.226536,229.828649
3671.998041,-12731.542202,-222.061783,995.924147
3671.998371,-11251.130318,-1110.308913,-612.876398
3671.998701,-9844.739029,-2220.617826,-2068.457845
3671.999030,-8216.285956,-1998.556043,-995.924147
3671.999360,-7846.182985,-814.226536,2068.457845
3671.999690,-7328.038826,148.041188,3907.087040
3672.000020,-6513.812290,518.144159,3753.867940
3672.000350,-7846.182985,1702.473667,1149.143247
3672.000680,-9992.780217,1184.329507,0.000000
3672.001010,-12065.356855,1628.453072,0.000000
3672.001340,-12435.459826,888.247130,1685.410096
3672.001669,-12657.521608,0.000000,1685.410096
3672.001999,-11991.336260,-370.102971,842.705048
3672.002329,-11547.212695,-1110.308913,-229.828649
3672.002659,-9696.697840,-2072.576638,-306.438199
3672.002989,-8364.327145,-1406.391290,536.266849
3672.003319,-7550.100608,-814.226536,2068.457845
3672.003649,-6661.853478,148.041188,3294.210641
3672.003978,-6587.832884,814.226536,2604.724693
3672.004308,-7994.224174,1776.494261,919.314598
3672.004638,-10288.862594,1480.411884,0.000000
3672.004968,-12139.377449,1406.391290,153.219100
3672.005298,-12287.418637,1258.350101,229.828649
3672.005628,-12657.521608,740.205942,1532.190996
3672.005958,-12361.439231,-518.144159,-689.485948
3672.006288,-11399.171507,-1184.329507,-2221.676944
3672.006617,-9030.512492,-1850.514855,-1225.752797
3672.006947,-7550.100608,-1258.350101,-76.609550
3672.007277,-7105.977043,-444.123565,1378.971896
3672.007607,-5995.668130,222.061783,1915.238745
3672.007937,-7105.977043,1406.391290,229.828649
3672.008267,-8586.388927,1554.432478,-1532.190996
3672.008597,-10732.986159,1702.473667,-1915.238745
3672.008927,-12509.480420,1258.350101,-766.095498
3672.009256,-13101.645173,814.226536,0.000000
3672.009586,-11991.336260,-222.061783,-383.047749
3672.009916,-11325.150913,-888.247130,-1685.410096
3672.010246,-10436.903782,-2220.617826,-2145.067394
3672.010576,-8882.471304,-1924.535449,-919.314598
3672.010906,-8142.265362,-888.247130,0.000000
3672.011236,-7254.018232,-962.267725,1149.143247
3672.011566,-6735.874072,666.185348,919.314598
3672.011895,-7328.038826,1184.329507,-1072.533697
3672.012225,-9474.636058,1554.432478,-1149.143247
3672.012555,-11399.171507,1702.473667,-536.266849
3672.012885,-12287.418637,1036.288319,153.219100
3672.013215,-12731.542202,518.144159,76.609550
3672.013545,-12361.439231,-740.205942,-689.485948
3672.013875,-11843.295072,-1998.556043,-1455.581446
3672.014204,-9992.780217,-3256.906145,-995.924147
3672.014534,-8290.306550,-2368.659014,1225.752797
3672.014864,-7105.977043,-1480.411884,2604.724693
3672.015194,-5921.647536,-444.123565,2451.505594
3672.015524,-6513.812290,814.226536,1225.752797
3672.015854,-8364.327145,1776.494261,0.000000
3672.016184,-10584.944971,2146.597232,-536.266849
3672.016514,-12805.562797,1850.514855,612.876398
3672.016843,-12879.583391,1480.411884,612.876398
3672.017173,-12953.603985,-74.020594,153.219100
3672.017503,-11991.336260,-888.247130,-1378.971896
3672.017833,-10362.883188,-2516.700203,-1838.629195
3672.018163,-8882.471304,-2072.576638,0.000000
3672.018493,-7624.121203,-1110.308913,1378.971896
3672.018823,-6957.935855,-370.102971,2604.724693
3672.019153,-6439.791695,518.144159,2681.334243
3672.019482,-7624.121203,1110.308913,919.314598
3672.019812,-9474.636058,1332.370696,-459.657299
3672.020142,-10732.986159,1332.370696,612.876398
3672.020472,-11695.253884,1184.329507,1378.971896
3672.020802,-12065.356855,592.164754,1685.410096
3672.021132,-12213.398043,74.020594,0.000000
3672.021462,-11843.295072,-666.185348,-919.314598
3672.021792,-10955.047942,-1258.350101,-689.485948
3672.022121,-9992.780217,-740.205942,536.266849
3672.022451,-8438.347739,-518.144159,1685.410096
3672.022781,-6957.935855,518.144159,1762.019645
3672.023111,-6069.688724,222.061783,1072.533697
3672.023441,-7254.018232,1184.329507,-459.657299
3672.023771,-9326.594869,1406.391290,153.219100
3672.024101,-10881.027347,1554.432478,1455.581446
3672.024430,-11843.295072,1702.473667,2145.067394
3672.024760,-12509.480420,814.226536,1532.190996
3672.025090,-13323.706956,0.000000,-229.828649
3672.025420,-12361.439231,-1480.411884,-1915.238745
3672.025750,-10881.027347,-1924.535449,-842.705048
3672.026080,-8882.471304,-1480.411884,153.219100
3672.026410,-6661.853478,-1110.308913,1302.362347
3672.026740,-5329.482782,-74.020594,1149.143247
3672.027069,-5847.626942,518.144159,-536.266849
3672.027399,-7698.141797,1406.391290,-1608.800546
3672.027729,-9696.697840,1554.432478,-1455.581446
3672.028059,-11843.295072,2072.576638,0.000000
3672.028389,-12879.583391,1406.391290,459.657299
3672.028719,-13545.768739,592.164754,536.266849
3672.029049,-12731.542202,-814.226536,-1838.629195
3672.029379,-11473.192101,-2516.700203,-2451.505594
3672.029708,-9474.636058,-2220.617826,-1915.238745
3672.030038,-8216.285956,-2072.576638,383.047749
3672.030368,-6217.729913,-888.247130,1532.190996
3672.030698,-5329.482782,0.000000,766.095498
3672.031028,-6587.832884,1258.350101,-1072.533697
3672.031358,-8586.388927,1480.411884,-2298.286494
3672.031688,-11251.130318,2294.638420,-766.095498
3672.032018,-12657.521608,2146.597232,995.924147
3672.032347,-13175.665768,1406.391290,612.876398
3672.032677,-12361.439231,-370.102971,-1685.410096
3672.033007,-11621.233289,-2072.576638,-2298.286494
3672.033337,-10955.047942,-2886.803174,-1225.752797
3672.033667,-9400.615463,-2368.659014,842.705048
3672.033997,-7105.977043,-1258.350101,2834.553343
3672.034327,-5329.482782,-370.102971,2451.505594
3672.034656,-5773.606348,814.226536,842.705048
3672.034986,-7550.100608,1702.473667,-306.438199
3672.035316,-9474.636058,2368.659014,76.609550
3672.035646,-11399.171507,2146.597232,919.314598
3672.035976,-12065.356855,2072.576638,1608.800546
3672.036306,-12731.542202,592.164754,383.047749
3672.036636,-12583.501014,-592.164754,-995.924147
3672.036966,-11843.295072,-1924.535449,-1685.410096
3672.037295,-10066.800811,-1850.514855,-536.266849
3672.037625,-8068.244768,-1332.370696,995.924147
3672.037955,-5995.668130,-814.226536,1991.848295
3672.038285,-5255.462188,444.123565,2145.067394
3672.038615,-6883.915261,1110.308913,689.485948
3672.038945,-8734.430116,1258.350101,229.828649
3672.039275,-10658.965565,1924.535449,1762.019645
3672.039605,-11325.150913,1924.535449,2451.505594
3672.039934,-12213.398043,1480.411884,1915.238745
3672.040264,-12361.439231,814.226536,383.047749
3672.040594,-12953.603985,-444.123565,-1302.362347
3672.040924,-11917.315666,-1554.432478,-612.876398
3672.041254,-10658.965565,-814.226536,1455.581446
3672.041584,-8068.244768,-1110.308913,2911.162892
3672.041914,-5921.647536,-444.123565,1685.410096
3672.042243,-5403.503377,0.000000,536.266849
3672.042573,-6735.874072,1332.370696,-766.095498
3672.042903,-9326.594869,1554.432478,536.266849
3672.043233,-11695.253884,2294.638420,1915.238745
3672.043563,-12731.542202,1850.514855,2757.943793
3672.043893,-13027.624579,1184.329507,2221.676944
3672.044223,-13693.809927,-518.144159,-995.924147
3672.044553,-12139.377449,-1332.370696,-2911.162892
3672.044882,-11029.068536,-2294.638420,-612.876398
3672.045212,-8438.347739,-1998.556043,1072.533697
3672.045542,-6957.935855,-740.205942,1608.800546
3672.045872,-5625.565159,-148.041188,1302.362347
3672.046202,-6513.812290,814.226536,-1302.362347
3672.046532,-8438.347739,814.226536,-2068.457845
3672.046862,-9696.697840,1776.494261,-1149.143247
3672.047192,-11621.233289,1776.494261,383.047749
3672.047521,-12065.356855,1480.411884,842.705048
3672.047851,-12435.459826,0.000000,-536.266849
3672.048181,-12139.377449,-1184.329507,-2987.772442
3672.048511,-11917.315666,-2590.720797,-2757.943793
3672.048841,-10436.903782,-2294.638420,-459.657299
3672.049171,-8142.265362,-1702.473667,1455.581446
3672.049501,-6069.688724,-1110.308913,2068.457845
3672.049831,-5477.523971,0.000000,0.000000
3672.050160,-6809.894666,740.205942,-2451.505594
3672.050490,-8290.306550,1628.453072,-2757.943793
3672.050820,-10362.883188,1924.535449,-153.219100
3672.051150,-11917.315666,2072.576638,1608.800546
3672.051480,-12657.521608,1184.329507,1302.362347
3672.051810,-12879.583391,-222.061783,-1072.533697
3672.052140,-12287.418637,-2220.617826,-3064.381992
3672.052469,-11547.212695,-2738.761985,-1455.581446
3672.052799,-9696.697840,-2220.617826,1915.238745
3672.053129,-7402.059420,-1554.432478,3370.820191
3672.053459,-4885.359217,-444.123565,2451.505594
3672.053789,-5625.565159,814.226536,229.828649
3672.054119,-7920.203579,1628.453072,-1838.629195
3672.054449,-10658.965565,1850.514855,-536.266849
3672.054779,-11917.315666,2368.659014,1455.581446
3672.055108,-11991.336260,1776.494261,2145.067394
3672.055438,-11991.336260,592.164754,536.266849
3672.055768,-11843.295072,-1184.329507,-1838.629195
3672.056098,-11325.150913,-2516.700203,-1762.019645
3672.056428,-10288.862594,-1924.535449,536.266849
3672.056758,-9178.553681,-1332.370696,2298.286494
3672.057088,-7031.956449,-592.164754,3064.381992
3672.057418,-5403.503377,74.020594,1532.190996
3672.057747,-7402.059420,962.267725,-383.047749
3672.058077,-9622.677246,1776.494261,-229.828649
3672.058407,-10881.027347,1702.473667,536.266849
3672.058737,-11103.089130,1702.473667,2221.676944
3672.059067,-10955.047942,1184.329507,1915.238745
3672.059397,-12805.562797,370.102971,536.266849
3672.059727,-13027.624579,-962.267725,-1838.629195
3672.060057,-11991.336260,-1554.432478,-1608.800546
3672.060386,-10140.821405,-1480.411884,1302.362347
3672.060716,-8364.327145,-666.185348,3370.820191
3672.061046,-6587.832884,-666.185348,3983.696590
3672.061376,-5995.668130,74.020594,1455.581446
3672.061706,-7476.080014,740.205942,-383.047749
3672.062036,-9622.677246,1850.514855,0.000000
3672.062366,-11621.233289,2442.679609,1302.362347
3672.062695,-11917.315666,1998.556043,1991.848295
3672.063025,-11843.295072,888.247130,919.314598
3672.063355,-12435.459826,-370.102971,-1302.362347
3672.063685,-12583.501014,-1036.288319,-2298.286494
3672.064015,-10955.047942,-1480.411884,-1149.143247
3672.064345,-8660.409521,-1110.308913,1225.752797
3672.064675,-7254.018232,-592.164754,2145.067394
3672.065005,-6291.750507,-222.061783,766.095498
3672.065334,-7328.038826,222.061783,-1455.581446
3672.065664,-8734.430116,888.247130,-2604.724693
3672.065994,-9474.636058,1258.350101,-766.095498
3672.066324,-10140.821405,1036.288319,995.924147
3672.066654,-10658.965565,1332.370696,842.705048
3672.066984,-11621.233289,296.082377,-612.876398
3672.067314,-11991.336260,-814.226536,-2374.896044
3672.067644,-11843.295072,-1776.494261,-2451.505594
3672.067973,-10807.006753,-1332.370696,153.219100
3672.068303,-9474.636058,-1036.288319,2068.457845
3672.068633,-7402.059420,-740.205942,1685.410096
3672.068963,-6439.791695,-370.102971,-459.657299
3672.069293,-7105.977043,0.000000,-2604.724693
3672.069623,-8808.450710,1036.288319,-2374.896044
3672.069953,-10288.862594,1480.411884,689.485948
3672.070283,-11103.089130,1628.453072,2528.115143
3672.070612,-11695.253884,814.226536,1455.581446
3672.070942,-11843.295072,-370.102971,-1378.971896
3672.071272,-11843.295072,-1702.473667,-2451.505594
3672.071602,-11177.109724,-2442.679609,0.000000
3672.071932,-9918.759623,-1702.473667,2681.334243
3672.072262,-8586.388927,-888.247130,4136.915689
3672.072592,-6735.874072,-444.123565,2451.505594
3672.072921,-6809.894666,370.102971,-229.828649
3672.073251,-8734.430116,814.226536,-2221.676944
3672.073581,-9770.718434,2072.576638,-842.705048
3672.073911,-10510.924376,1924.535449,1149.143247
3672.074241,-10140.821405,1776.494261,1838.629195
3672.074571,-11029.068536,740.205942,0.000000
3672.074901,-11917.315666,0.000000,-2451.505594
3672.075231,-11991.336260,-1184.329507,-2834.553343
3672.075560,-10955.047942,-1036.288319,-459.657299
3672.075890,-9474.636058,-740.205942,2298.286494
3672.076220,-7254.018232,-814.226536,2757.943793
3672.076550,-5625.565159,74.020594,1915.238745
3672.076880,-7550.100608,592.164754,-612.876398
3672.077210,-9696.697840,1036.288319,-153.219100
3672.077540,-11325.150913,1702.473667,1608.800546
3672.077870,-11251.130318,1924.535449,2221.676944
3672.078199,-10362.883188,1184.329507,1455.581446
3672.078529,-11251.130318,370.102971,-459.657299
3672.078859,-11621.233289,-888.247130,-2145.067394
3672.079189,-11177.109724,-1258.350101,-459.657299
3672.079519,-10584.944971,-740.205942,1991.848295
3672.079849,-9326.594869,-74.020594,3294.210641
3672.080179,-7402.059420,0.000000,2911.162892
3672.080509,-7254.018232,592.164754,229.828649
3672.080838,-8438.347739,814.226536,-1455.581446
3672.081168,-10066.800811,1480.411884,0.000000
3672.081498,-10510.924376,1406.391290,1915.238745
3672.081828,-10658.965565,1184.329507,2451.505594
3672.082158,-10362.883188,296.082377,689.485948
3672.082488,-11769.274478,0.000000,-1838.629195
3672.082818,-11399.171507,-1110.308913,-2604.724693
3672.083147,-10362.883188,-1406.391290,-306.438199
3672.083477,-9104.533087,-592.164754,2374.896044
3672.083807,-7698.141797,-148.041188,2757.943793
3672.084137,-7031.956449,444.123565,1072.533697
3672.084467,-8068.244768,888.247130,-2221.676944
3672.084797,-9474.636058,222.061783,-3447.429741
3672.085127,-10510.924376,740.205942,-919.314598
3672.085457,-10807.006753,1036.288319,1149.143247
3672.085787,-9844.739029,370.102971,1225.752797
3672.086117,-9992.780217,-370.102971,-306.438199
3672.086447,-10436.903782,-888.247130,-2987.772442
3672.086776,-10955.047942,-1702.473667,-2451.505594
3672.087106,-10436.903782,-1258.350101,0.000000
3672.087436,-9696.697840,-444.123565,2757.943793
3672.087766,-8734.430116,-666.185348,2604.724693
3672.088096,-8216.285956,0.000000,-229.828649
3672.088426,-8660.409521,74.020594,-3447.429741
3672.088756,-9178.553681,-148.041188,-2987.772442
3672.089086,-10362.883188,296.082377,0.000000
3672.089416,-10066.800811,666.185348,2298.286494
3672.089746,-10214.842000,370.102971,1608.800546
3672.090076,-11029.068536,-518.144159,-766.095498
3672.090406,-11621.233289,-1406.391290,-2221.676944
3672.090736,-10881.027347,-2072.576638,-919.314598
3672.091066,-10584.944971,-1258.350101,2068.457845
3672.091396,-9030.512492,-962.267725,3064.381992
3672.091726,-7179.997637,-666.185348,2451.505594
3672.092055,-7179.997637,-444.123565,0.000000
3672.092385,-8734.430116,74.020594,-2451.505594
3672.092715,-10288.862594,592.164754,-842.705048
3672.093045,-10807.006753,888.247130,1762.019645
3672.093375,-10436.903782,962.267725,2298.286494
3672.093705,-10510.924376,74.020594,1608.800546
3672.094035,-11103.089130,-444.123565,-689.485948
3672.094365,-11103.089130,-1184.329507,-1608.800546
3672.094695,-10510.924376,-1258.350101,0.000000
3672.095025,-9400.615463,-444.123565,1608.800546
3672.095355,-7994.224174,-370.102971,2068.457845
3672.095685,-7179.997637,222.061783,995.924147
3672.096015,-8290.306550,666.185348,-1072.533697
3672.096345,-9844.739029,518.144159,-1532.190996
3672.096675,-10955.047942,592.164754,306.438199
3672.097005,-11029.068536,962.267725,2374.896044
3672.097335,-10362.883188,888.247130,2528.115143
3672.097664,-10288.862594,0.000000,306.438199
3672.097994,-10807.006753,-444.123565,-919.314598
3672.098324,-10658.965565,-962.267725,0.000000
3672.098654,-10584.944971,0.000000,1838.629195
3672.098984,-9918.759623,444.123565,2604.724693
3672.099314,-8290.306550,518.144159,1685.410096
3672.099644,-8142.265362,740.205942,0.000000
3672.099974,-9178.553681,814.226536,-1378.971896
3672.100304,-10214.842000,666.185348,-383.047749
3672.100634,-10807.006753,1480.411884,919.314598
3672.100964,-10066.800811,1332.370696,1302.362347
3672.101294,-10362.883188,888.247130,306.438199
3672.101624,-10955.047942,444.123565,-1838.629195
3672.101954,-10732.986159,-370.102971,-1455.581446
3672.102284,-10362.883188,-370.102971,0.000000
3672.102614,-9844.739029,0.000000,2221.676944
3672.102943,-8882.471304,148.041188,2221.676944
3672.103273,-8068.244768,222.061783,1378.971896
3672.103603,-8586.388927,666.185348,-1149.143247
3672.103933,-9770.718434,518.144159,-2374.896044
3672.104263,-10658.965565,814.226536,-995.924147
3672.104593,-10807.006753,1110.308913,842.705048
3672.104923,-9918.759623,296.082377,689.485948
3672.105253,-9474.636058,0.000000,-842.705048
3672.105583,-9622.677246,-370.102971,-2451.505594
3672.105913,-10066.800811,-814.226536,-1915.238745
3672.106243,-9918.759623,-814.226536,842.705048
3672.106573,-9770.718434,0.000000,2911.162892
3672.106903,-8956.491898,-444.123565,3064.381992
3672.107233,-9030.512492,296.082377,766.095498
3672.107563,-9696.697840,222.061783,-1532.190996
3672.107893,-9992.780217,0.000000,-1762.019645
3672.108222,-10584.944971,444.123565,306.438199
3672.108552,-10214.842000,592.164754,1532.190996
3672.108882,-9696.697840,148.041188,689.485948
3672.109212,-9844.739029,148.041188,-995.924147
3672.109542,-9918.759623,-740.205942,-1915.238745
3672.109872,-9992.780217,-740.205942,-995.924147
3672.110202,-10066.800811,-296.082377,1149.143247
3672.110532,-8956.491898,148.041188,2528.115143
3672.110862,-8586.388927,74.020594,1455.581446
3672.111192,-9030.512492,518.144159,-536.266849
3672.111522,-10066.800811,222.061783,-1762.019645
3672.111852,-10732.986159,0.000000,-76.609550
3672.112182,-10510.924376,518.144159,1685.410096
3672.112512,-9770.718434,518.144159,1762.019645
3672.112842,-9474.636058,222.061783,459.657299
3672.113172,-9918.759623,-148.041188,-1072.533697
3672.113502,-9918.759623,-740.205942,-1302.362347
3672.113831,-9770.718434,-370.102971,383.047749
3672.114161,-9918.759623,222.061783,1762.019645
3672.114491,-9030.512492,-74.020594,2145.067394
3672.114821,-8142.265362,0.000000,1302.362347
3672.115151,-9178.553681,0.000000,-383.047749
3672.115481,-10436.903782,0.000000,-229.828649
3672.115811,-10807.006753,74.020594,1225.752797
3672.116141,-10807.006753,0.000000,2834.553343
3672.116471,-9918.759623,74.020594,2068.457845
3672.116801,-10066.800811,-296.082377,153.219100
3672.117131,-9770.718434,-666.185348,-1225.752797
3672.117461,-9474.636058,-1110.308913,-383.047749
3672.117791,-9474.636058,-148.041188,1915.238745
3672.118121,-9178.553681,0.000000,2528.115143
3672.118451,-9030.512492,296.082377,2374.896044
3672.118781,-9622.677246,444.123565,76.609550
3672.119110,-10955.047942,222.061783,-1378.971896
3672.119440,-11177.109724,296.082377,-536.266849
3672.119770,-10807.006753,74.020594,766.095498
3672.120100,-9770.718434,222.061783,1378.971896
3672.120430,-9326.594869,-370.102971,1149.143247
3672.120760,-9474.636058,-222.061783,-1685.410096
3672.121090,-9844.739029,-888.247130,-1762.019645
3672.121420,-10066.800811,-370.102971,-229.828649
3672.121750,-10288.862594,222.061783,1685.410096
3672.122080,-9400.615463,0.000000,1455.581446
3672.122410,-8660.409521,-370.102971,229.828649
3672.122740,-9622.677246,0.000000,-1838.629195
3672.123070,-10584.944971,-222.061783,-2068.457845
3672.123400,-10362.883188,-444.123565,-536.266849
3672.123730,-10140.821405,222.061783,919.314598
3672.124060,-9474.636058,-148.041188,1072.533697
3672.124389,-9770.718434,0.000000,0.000000
3672.124719,-9696.697840,-518.144159,-2068.457845
3672.125049,-10066.800811,-666.185348,-1608.800546
3672.125379,-10066.800811,-148.041188,0.000000
3672.125709,-9918.759623,0.000000,1915.238745
3672.126039,-8956.491898,74.020594,1838.629195
3672.126369,-8438.347739,0.000000,-766.095498
3672.126699,-9622.677246,74.020594,-2068.457845
3672.127029,-10881.027347,0.000000,-1149.143247
3672.127359,-11103.089130,74.020594,766.095498
3672.127689,-10288.862594,148.041188,1762.019645
3672.128019,-9104.533087,0.000000,766.095498
3672.128349,-9252.574275,-592.164754,-766.095498
3672.128679,-9844.739029,-666.185348,-1685.410096
3672.129009,-9400.615463,-666.185348,153.219100
3672.129339,-9548.656652,74.020594,2145.067394
3672.129669,-9474.636058,518.144159,2451.505594
3672.129998,-8882.471304,518.144159,1225.752797
3672.130328,-9400.615463,-148.041188,-1072.533697
3672.130658,-9992.780217,370.102971,-1455.581446
3672.130988,-10214.842000,370.102971,383.047749
3672.131318,-10584.944971,740.205942,2221.676944
3672.131648,-9326.594869,592.164754,2068.457845
3672.131978,-9030.512492,444.123565,612.876398
3672.132308,-10214.842000,518.144159,-995.924147
3672.132638,-10214.842000,0.000000,-1532.190996
3672.132968,-10140.821405,0.000000,536.266849
3672.133298,-9844.739029,740.205942,2145.067394
3672.133628,-8660.409521,518.144159,2528.115143
3672.133958,-8068.244768,666.185348,1455.581446
3672.134288,-9400.615463,962.267725,-689.485948
3672.134618,-10510.924376,962.267725,-306.438199
3672.134948,-11621.233289,962.267725,1149.143247
3672.135277,-11399.171507,888.247130,2221.676944
3672.135607,-9992.780217,370.102971,1378.971896
3672.135937,-9474.636058,74.020594,-229.828649
3672.136267,-9178.553681,-74.020594,-1762.019645
3672.136597,-9252.574275,-444.123565,-229.828649
3672.136927,-9548.656652,444.123565,1532.190996
3672.137257,-9992.780217,1184.329507,2834.553343
3672.137587,-9178.553681,740.205942,1838.629195
3672.137917,-9696.697840,740.205942,0.000000
3672.138247,-10510.924376,222.061783,-1149.143247
3672.138577,-11251.130318,296.082377,383.047749
3672.138907,-10955.047942,444.123565,2221.676944
3672.139237,-10214.842000,148.041188,1838.629195
3672.139567,-9474.636058,148.041188,536.266849
3672.139897,-9474.636058,-148.041188,-1685.410096
3672.140227,-9474.636058,-296.082377,-2068.457845
3672.140556,-9622.677246,74.020594,-306.438199
3672.140886,-9474.636058,370.102971,1072.533697
3672.141216,-8734.430116,518.144159,1149.143247
3672.141546,-8882.471304,370.102971,0.000000
3672.141876,-9622.677246,222.061783,-2068.457845
3672.142206,-10807.006753,-518.144159,-2298.286494
3672.142536,-10732.986159,-444.123565,-306.438199
3672.142866,-10362.883188,-222.061783,995.924147
3672.143196,-9992.780217,0.000000,459.657299
3672.143526,-9252.574275,-518.144159,-1072.533697
3672.143856,-9474.636058,-666.185348,-2681.334243
3672.144186,-9474.636058,-740.205942,-1762.019645
3672.144516,-9844.739029,-222.061783,919.314598
3672.144846,-9252.574275,0.000000,2068.457845
3672.145176,-8438.347739,0.000000,1072.533697
3672.145506,-8956.491898,-222.061783,-689.485948
3672.145836,-10140.821405,-222.061783,-1991.848295
3672.146165,-11399.171507,0.000000,-306.438199
3672.146495,-11547.212695,222.061783,1608.800546
3672.146825,-10732.986159,222.061783,2221.676944
3672.147155,-10066.800811,0.000000,1149.143247
3672.147485,-10066.800811,-592.164754,-1225.752797
3672.147815,-9696.697840,-1036.288319,-1838.629195
3672.148145,-9252.574275,-814.226536,0.000000
3672.148475,-9326.594869,0.000000,1685.410096
3672.148805,-8290.306550,814.226536,2834.553343
3672.149135,-8438.347739,222.061783,1072.533697
3672.149465,-9696.697840,592.164754,-995.924147
3672.149795,-11177.109724,296.082377,-1302.362347
3672.150125,-11251.130318,148.041188,1072.533697
3672.150455,-10807.006753,222.061783,2068.457845
3672.150785,-9844.739029,0.000000,2298.286494
3672.151115,-9474.636058,-592.164754,459.657299
3672.151444,-9252.574275,-740.205942,-1532.190996
3672.151774,-8956.491898,-666.185348,-1455.581446
3672.152104,-9326.594869,-74.020594,766.095498
3672.152434,-9178.553681,592.164754,2987.772442
3672.152764,-8290.306550,518.144159,2911.162892
3672.153094,-8438.347739,296.082377,383.047749
3672.153424,-10510.924376,740.205942,-1302.362347
3672.153754,-11547.212695,148.041188,-1302.362347
3672.154084,-11843.295072,444.123565,995.924147
3672.154414,-10881.027347,0.000000,1838.629195
3672.154744,-9770.718434,0.000000,1378.971896
3672.155074,-9696.697840,-370.102971,-689.485948
3672.155404,-9548.656652,-740.205942,-1378.971896
3672.155734,-9252.574275,0.000000,-612.876398
3672.156064,-9474.636058,740.205942,1685.410096
3672.156394,-9400.615463,888.247130,2528.115143
3672.156723,-8586.388927,814.226536,1838.629195
3672.157053,-9474.636058,1110.308913,-459.657299
3672.157383,-10658.965565,296.082377,-1838.629195
3672.157713,-11547.212695,222.061783,-536.266849
3672.158043,-11103.089130,666.185348,1072.533697
3672.158373,-10288.862594,370.102971,1915.238745
3672.158703,-9696.697840,444.123565,0.000000
3672.159033,-9992.780217,0.000000,-1915.238745
3672.159363,-9770.718434,-148.041188,-2528.115143
3672.159693,-9178.553681,0.000000,-689.485948
3672.160023,-9178.553681,592.164754,1532.190996
3672.160353,-8364.327145,666.185348,1915.238745
3672.160683,-8290.306550,592.164754,-306.438199
3672.161013,-9400.615463,888.247130,-1915.238745
3672.161343,-11177.109724,370.102971,-2221.676944
3672.161673,-11991.336260,296.082377,0.000000
3672.162003,-11621.233289,444.123565,1302.362347
3672.162332,-10362.883188,222.061783,842.705048
3672.162662,-9770.718434,-518.144159,-1225.752797
3672.162992,-9474.636058,-1406.391290,-2451.505594
3672.163322,-8956.491898,-1406.391290,-1915.238745
3672.163652,-8438.347739,-444.123565,306.438199
3672.163982,-8216.285956,0.000000,1915.238745
3672.164312,-7550.100608,74.020594,1378.971896
3672.164642,-8512.368333,222.061783,-459.657299
3672.164972,-10140.821405,74.020594,-1378.971896
3672.165302,-11769.274478,0.000000,-612.876398
3672.165632,-12065.356855,148.041188,1149.143247
3672.165962,-10658.965565,0.000000,1838.629195
3672.166292,-9622.677246,-518.144159,536.266849
3672.166622,-9992.780217,-814.226536,-995.924147
3672.166952,-10066.800811,-1110.308913,-1608.800546
3672.167282,-9030.512492,-1480.411884,0.000000
3672.167611,-9030.512492,-148.041188,1378.971896
3672.167941,-8438.347739,148.041188,2374.896044
3672.168271,-8290.306550,222.061783,1455.581446
3672.168601,-8734.430116,74.020594,-1225.752797
3672.168931,-10288.862594,296.082377,-1532.190996
3672.169261,-11843.295072,0.000000,689.485948
3672.169591,-11843.295072,74.020594,2528.115143
3672.169921,-11103.089130,-296.082377,2298.286494
3672.170251,-10658.965565,-814.226536,766.095498
3672.170581,-10140.821405,-1258.350101,-1455.581446
3672.170911,-9400.615463,-1628.453072,-1225.752797
3672.171241,-8438.347739,-962.267725,1302.362347
3672.171571,-7846.182985,-592.164754,3447.429741
3672.171901,-7254.018232,222.061783,2834.553343
3672.172231,-7846.182985,518.144159,1072.533697
3672.172561,-9918.759623,1036.288319,-612.876398
3672.172890,-11251.130318,962.267725,-1072.533697
3672.173220,-12509.480420,444.123565,306.438199
3672.173550,-11251.130318,222.061783,1149.143247
3672.173880,-10140.821405,-296.082377,1225.752797
3672.174210,-9992.780217,-148.041188,-306.438199
3672.174540,-9770.718434,-1036.288319,-1225.752797
3672.174870,-9178.553681,-740.205942,0.000000
3672.175200,-9030.512492,0.000000,1532.190996
3672.175530,-8290.306550,222.061783,2068.457845
3672.175860,-7328.038826,740.205942,2068.457845
3672.176190,-8438.347739,1036.288319,536.266849
3672.176520,-10214.842000,1258.350101,-612.876398
3672.176850,-11473.192101,1036.288319,0.000000
3672.177180,-11769.274478,1480.411884,1149.143247
3672.177510,-11769.274478,888.247130,1072.533697
3672.177840,-11547.212695,592.164754,-229.828649
3672.178170,-10510.924376,-370.102971,-2145.067394
3672.178499,-9326.594869,-1036.288319,-1838.629195
3672.178829,-8438.347739,-592.164754,-229.828649
3672.179159,-8438.347739,0.000000,1302.362347
3672.179489,-7698.141797,592.164754,1915.238745
3672.179819,-7179.997637,370.102971,689.485948
3672.180149,-8660.409521,1036.288319,-995.924147
3672.180479,-10362.883188,1110.308913,-1378.971896
3672.180809,-11843.295072,1036.288319,76.609550
3672.181139,-12287.418637,962.267725,1072.533697
3672.181469,-11621.233289,74.020594,1149.143247
3672.181799,-11177.109724,-740.205942,-689.485948
3672.182129,-9992.780217,-1480.411884,-2604.724693
3672.182459,-8956.491898,-1480.411884,-1762.019645
3672.182789,-7550.100608,-814.226536,0.000000
3672.183119,-7846.182985,518.144159,919.314598
3672.183449,-7476.080014,370.102971,459.657299
3672.183778,-7846.182985,1184.329507,-842.705048
3672.184108,-9770.718434,1480.411884,-1762.019645
3672.184438,-11621.233289,888.247130,-1225.752797
3672.184768,-12435.459826,444.123565,536.266849
3672.185098,-11621.233289,0.000000,1532.190996
3672.185428,-10807.006753,-888.247130,766.095498
3672.185758,-10214.842000,-1628.453072,-689.485948
3672.186088,-9622.677246,-2146.597232,-1532.190996
3672.186418,-8586.388927,-1776.494261,1225.752797
3672.186748,-8438.347739,-296.082377,2451.505594
3672.187078,-7624.121203,444.123565,2757.943793
3672.187408,-7179.997637,370.102971,1072.533697
3672.187737,-8586.388927,1332.370696,-1302.362347
3672.188067,-9918.759623,1110.308913,-1838.629195
3672.188397,-11103.089130,962.267725,-536.266849
3672.188727,-11695.253884,592.164754,766.095498
3672.189057,-11473.192101,222.061783,1225.752797
3672.189386,-11325.150913,-962.267725,0.000000
3672.189716,-10732.986159,-1036.288319,-995.924147
3672.190046,-8660.409521,-1924.535449,-306.438199
3672.190376,-8364.327145,-814.226536,1378.971896
3672.190706,-8142.265362,-444.123565,3064.381992
3672.191035,-7624.121203,222.061783,3370.820191
3672.191365,-7550.100608,1110.308913,2068.457845
3672.191695,-9474.636058,888.247130,0.000000
3672.192025,-10807.006753,666.185348,0.000000
3672.192354,-11991.336260,1184.329507,1072.533697
3672.192684,-11621.233289,888.247130,1838.629195
3672.193014,-11843.295072,0.000000,1149.143247
3672.193344,-11547.212695,-296.082377,-995.924147
3672.193674,-10807.006753,-1184.329507,-1838.629195
3672.194003,-9178.553681,-1332.370696,-459.657299
3672.194333,-8216.285956,-444.123565,1378.971896
3672.194663,-7698.141797,0.000000,2681.334243
3672.194993,-6957.935855,518.144159,2298.286494
3672.195323,-7698.141797,1036.288319,153.219100
3672.195652,-9918.759623,1332.370696,-1378.971896
3672.195982,-12213.398043,962.267725,0.000000
3672.196312,-12805.562797,1184.329507,1685.410096
3672.196642,-11621.233289,666.185348,1915.238745
3672.196972,-10807.006753,0.000000,536.266849
3672.197301,-10807.006753,-740.205942,-1302.362347
3672.197631,-9844.739029,-1480.411884,-1762.019645
3672.197961,-9030.512492,-1036.288319,-536.266849
3672.198291,-7698.141797,-592.164754,383.047749
3672.198620,-6883.915261,592.164754,1225.752797
3672.198950,-6957.935855,962.267725,76.609550
3672.199280,-8216.285956,1258.350101,-2528.115143
3672.199610,-10214.842000,1184.329507,-2528.115143
3672.199940,-11917.315666,1036.288319,-919.314598
3672.200269,-12509.480420,740.205942,919.314598
3672.200599,-11547.212695,0.000000,689.485948
3672.200929,-10807.006753,-962.267725,-229.828649
3672.201259,-9622.677246,-1554.432478,-1608.800546
3672.201589,-9326.594869,-2146.597232,-1608.800546
3672.201918,-8586.388927,-1406.391290,306.438199
3672.202248,-7698.141797,-370.102971,1302.362347
3672.202578,-6513.812290,296.082377,766.095498
3672.202908,-7476.080014,888.247130,-306.438199
3672.203238,-9326.594869,1406.391290,-1762.019645
3672.203567,-10955.047942,1332.370696,-995.924147
3672.203897,-12065.356855,962.267725,459.657299
3672.204227,-12361.439231,592.164754,1149.143247
3672.204557,-11917.315666,-592.164754,919.314598
3672.204886,-11399.171507,-1036.288319,-383.047749
3672.205216,-10658.965565,-2220.617826,-1225.752797
3672.205546,-8882.471304,-2146.597232,153.219100
3672.205876,-7994.224174,-1036.288319,1455.581446
3672.206206,-6957.935855,-518.144159,2298.286494
3672.206535,-6957.935855,518.144159,1685.410096
3672.206865,-7772.162391,962.267725,229.828649
3672.207195,-9548.656652,1184.329507,-995.924147
3672.207525,-11399.171507,1036.288319,0.000000
3672.207855,-12287.418637,888.247130,1149.143247
3672.208184,-11917.315666,74.020594,1225.752797
3672.208514,-11695.253884,-296.082377,689.485948
3672.208844,-10955.047942,-1110.308913,-383.047749
3672.209174,-9992.780217,-1702.473667,-383.047749
3672.209504,-8956.491898,-1110.308913,919.314598
3672.209833,-7328.038826,-740.205942,1991.848295
3672.210163,-6291.750507,0.000000,2374.896044
3672.210493,-6883.915261,444.123565,1608.800546
3672.210823,-8808.450710,1110.308913,0.000000
3672.211152,-10362.883188,1184.329507,383.047749
3672.211482,-11991.336260,1184.329507,919.314598
3672.211812,-12287.418637,1184.329507,1532.190996
3672.212142,-11991.336260,296.082377,1685.410096
3672.212472,-11843.295072,0.000000,0.000000
3672.212801,-11177.109724,-1036.288319,-842.705048
3672.213131,-10066.800811,-962.267725,-383.047749
3672.213461,-9326.594869,-666.185348,766.095498
3672.213791,-7698.141797,0.000000,2298.286494
3672.214121,-6513.812290,222.061783,1915.238745
3672.214450,-7328.038826,1406.391290,229.828649
3672.214780,-8956.491898,962.267725,-536.266849
3672.215110,-11029.068536,1554.432478,-383.047749
3672.215440,-11547.212695,1776.494261,306.438199
3672.215770,-12805.562797,1406.391290,1302.362347
3672.216099,-12953.603985,740.205942,306.438199
3672.216429,-11843.295072,-296.082377,-1532.190996
3672.216759,-9844.739029,-1184.329507,-1915.238745
3672.217089,-8512.368333,-1332.370696,-766.095498
3672.217418,-8290.306550,-592.164754,1455.581446
3672.217748,-6809.894666,0.000000,2374.896044
3672.218078,-6661.853478,740.205942,459.657299
3672.218408,-7476.080014,1702.473667,-1762.019645
3672.218738,-9622.677246,1702.473667,-2145.067394
3672.219067,-12139.377449,1924.535449,-689.485948
3672.219397,-12213.398043,1332.370696,383.047749
3672.219727,-11547.212695,888.247130,153.219100
3672.220057,-11547.212695,-74.020594,-1455.581446
3672.220387,-10881.027347,-1480.411884,-2145.067394
3672.220716,-9770.718434,-1850.514855,-1225.752797
3672.221046,-9400.615463,-814.226536,1072.533697
3672.221376,-7772.162391,-1036.288319,1915.238745
3672.221706,-6883.915261,0.000000,1532.190996
3672.222036,-7328.038826,814.226536,229.828649
3672.222365,-8808.450710,1036.288319,-1072.533697
3672.222695,-10510.924376,1110.308913,-76.609550
3672.223025,-11621.233289,1406.391290,766.095498
3672.223355,-12065.356855,1184.329507,1149.143247
3672.223684,-12213.398043,0.000000,76.609550
3672.224014,-11621.233289,-888.247130,-1532.190996
3672.224344,-10807.006753,-2072.576638,-2068.457845
3672.224674,-9178.553681,-1998.556043,-842.705048
3672.225004,-7994.224174,-1406.391290,1378.971896
3672.225333,-6957.935855,0.000000,2604.724693
3672.225663,-6661.853478,296.082377,1378.971896
3672.225993,-7105.977043,888.247130,-536.266849
3672.226323,-9030.512492,1110.308913,-536.266849
3672.226653,-11547.212695,1406.391290,1762.019645
3672.226982,-12583.501014,1332.370696,2911.162892
3672.227312,-12361.439231,518.144159,1915.238745
3672.227642,-12065.356855,-444.123565,-153.219100
3672.227972,-11325.150913,-1258.350101,-1685.410096
3672.228302,-10732.986159,-1702.473667,-842.705048
3672.228631,-9252.574275,-962.267725,1149.143247
3672.228961,-7624.121203,-592.164754,2451.505594
3672.229291,-6217.729913,74.020594,2681.334243
3672.229621,-6809.894666,888.247130,1149.143247
3672.229950,-8512.368333,814.226536,-766.095498
3672.230280,-9918.759623,444.123565,0.000000
3672.230610,-11843.295072,1406.391290,1991.848295
3672.230940,-12213.398043,1258.350101,3447.429741
3672.231270,-12139.377449,592.164754,2221.676944
3672.231599,-12361.439231,-148.041188,-153.219100
3672.231929,-11843.295072,-740.205942,-1302.362347
3672.232259,-10807.006753,-814.226536,-383.047749
3672.232589,-9992.780217,-518.144159,1455.581446
3672.232919,-7846.182985,-444.123565,2604.724693
3672.233248,-6143.709319,0.000000,1915.238745
3672.233578,-6883.915261,592.164754,-383.047749
3672.233908,-8216.285956,888.247130,-1532.190996
3672.234238,-9918.759623,1184.329507,-919.314598
3672.234568,-11251.130318,1554.432478,1378.971896
3672.234897,-11769.274478,1628.453072,1991.848295
3672.235227,-12805.562797,814.226536,306.438199
3672.235557,-12583.501014,-148.041188,-2298.286494
3672.235887,-11251.130318,-1702.473667,-2298.286494
3672.236217,-9844.739029,-1554.432478,0.000000
3672.236546,-8290.306550,-1036.288319,1685.410096
3672.236876,-6365.771101,-666.185348,2221.676944
3672.237206,-5921.647536,222.061783,306.438199
3672.237536,-7105.977043,888.247130,-2374.896044
3672.237865,-9030.512492,1258.350101,-2374.896044
3672.238195,-10658.965565,1554.432478,-1302.362347
3672.238525,-11991.336260,1628.453072,153.219100
3672.238855,-12065.356855,444.123565,-76.609550
3672.239185,-11843.295072,-666.185348,-1915.238745
3672.239514,-10732.986159,-2146.597232,-2298.286494
3672.239844,-9770.718434,-2516.700203,-1225.752797
3672.240174,-9252.574275,-1628.453072,919.314598
3672.240504,-7624.121203,-1332.370696,2221.676944
3672.240834,-6365.771101,-518.144159,1762.019645
3672.241163,-7254.018232,592.164754,0.000000
3672.241493,-9326.594869,1184.329507,-1225.752797
3672.241823,-10955.047942,1702.473667,-612.876398
3672.242153,-11473.192101,1258.350101,536.266849
3672.242483,-11177.109724,1110.308913,689.485948
3672.242812,-11621.233289,0.000000,-306.438199
3672.243142,-11769.274478,-888.247130,-2145.067394
3672.243472,-11103.089130,-1998.556043,-1762.019645
3672.243802,-9622.677246,-1924.535449,153.219100
3672.244131,-8734.430116,-888.247130,2528.115143
3672.244461,-7179.997637,-444.123565,2834.553343
3672.244791,-6217.729913,0.000000,1608.800546
3672.245121,-7550.100608,666.185348,0.000000
3672.245451,-9696.697840,962.267725,-612.876398
3672.245780,-11547.212695,1332.370696,1378.971896
3672.246110,-11547.212695,1184.329507,2451.505594
3672.246440,-11473.192101,814.226536,2068.457845
3672.246770,-11621.233289,-148.041188,-153.219100
3672.247100,-11769.274478,-888.247130,-1838.629195
3672.247429,-10807.006753,-1554.432478,-689.485948
3672.247759,-9844.739029,-740.205942,689.485948
3672.248089,-8512.368333,-1184.329507,2298.286494
3672.248419,-6735.874072,-518.144159,2145.067394
3672.248749,-6365.771101,0.000000,383.047749
3672.249078,-8068.244768,222.061783,-383.047749
3672.249408,-9696.697840,888.247130,1608.800546
3672.249738,-11251.130318,1332.370696,2681.334243
3672.250068,-11473.192101,1184.329507,2987.772442
3672.250397,-11991.336260,740.205942,1608.800546
3672.250727,-12509.480420,74.020594,-612.876398
3672.251057,-12065.356855,-1036.288319,-1685.410096
3672.251387,-10881.027347,-1036.288319,-306.438199
3672.251717,-9622.677246,-518.144159,1915.238745
3672.252046,-8068.244768,-518.144159,2145.067394
3672.252376,-6365.771101,-222.061783,1225.752797
3672.252706,-7179.997637,814.226536,-766.095498
3672.253036,-8586.388927,814.226536,-1685.410096
3672.253366,-10362.883188,1258.350101,-306.438199
3672.253695,-11103.089130,1998.556043,1532.190996
3672.254025,-11547.212695,1480.411884,1608.800546
3672.254355,-12361.439231,222.061783,229.828649
3672.254685,-12139.377449,-814.226536,-1378.971896
3672.255015,-10584.944971,-1332.370696,-1532.190996
3672.255344,-9326.594869,-888.247130,0.000000
3672.255674,-8438.347739,-296.082377,1149.143247
3672.256004,-7328.038826,-444.123565,1302.362347
3672.256334,-7105.977043,444.123565,-229.828649
3672.256663,-7772.162391,592.164754,-2451.505594
3672.256993,-9178.553681,888.247130,-2068.457845
3672.257323,-10807.006753,1184.329507,-306.438199
3672.257653,-10732.986159,1110.308913,612.876398
3672.257983,-11103.089130,444.123565,-306.438199
3672.258312,-11843.295072,74.020594,-2451.505594
3672.258642,-11843.295072,-1110.308913,-2911.162892
3672.258972,-10658.965565,-1554.432478,-536.266849
3672.259302,-9770.718434,-962.267725,1685.410096
3672.259632,-8586.388927,-888.247130,2374.896044
3672.259961,-6957.935855,-740.205942,1072.533697
3672.260291,-7105.977043,0.000000,-1685.410096
3672.260621,-8956.491898,592.164754,-1762.019645
3672.260951,-9918.759623,962.267725,-229.828649
3672.261281,-11251.130318,1776.494261,766.095498
3672.261610,-11177.109724,1258.350101,766.095498
3672.261940,-11769.274478,518.144159,-1302.362347
3672.262270,-11621.233289,-296.082377,-2604.724693
3672.262600,-11103.089130,-1628.453072,-2068.457845
3672.262929,-10510.924376,-1480.411884,1149.143247
3672.263259,-9326.594869,-1036.288319,3140.991542
3672.263589,-7476.080014,-592.164754,2757.943793
3672.263919,-6735.874072,-222.061783,842.705048
3672.264249,-7846.182985,444.123565,-1072.533697
3672.264578,-9400.615463,962.267725,-459.657299
3672.264908,-10955.047942,1628.453072,1685.410096
3672.265238,-11473.192101,1628.453072,2604.724693
3672.265568,-11177.109724,888.247130,1455.581446
3672.265898,-11251.130318,-444.123565,-842.705048
3672.266227,-10955.047942,-1258.350101,-2451.505594
3672.266557,-9696.697840,-1924.535449,-536.266849
3672.266887,-9030.512492,-666.185348,1838.629195
3672.267217,-8586.388927,-296.082377,3830.477490
3672.267547,-7698.141797,0.000000,3370.820191
3672.267876,-7476.080014,444.123565,0.000000
3672.268206,-9178.553681,888.247130,-766.095498
3672.268536,-10658.965565,518.144159,459.657299
3672.268866,-11251.130318,1258.350101,2451.505594
3672.269195,-10658.965565,1332.370696,2451.505594
3672.269525,-10362.883188,148.041188,842.705048
3672.269855,-11103.089130,-74.020594,-1302.362347
3672.270185,-11547.212695,-592.164754,-1991.848295
3672.270515,-11251.130318,-444.123565,229.828649
3672.270844,-10214.842000,0.000000,2374.896044
3672.271174,-8438.347739,-444.123565,2374.896044
3672.271504,-7105.977043,0.000000,1455.581446
3672.271834,-8364.327145,444.123565,-459.657299
3672.272164,-9252.574275,444.123565,-1225.752797
3672.272493,-10658.965565,1036.288319,689.485948
3672.272823,-10807.006753,1702.473667,1685.410096
3672.273153,-10732.986159,1332.370696,1455.581446
3672.273483,-11769.274478,888.247130,-306.438199
3672.273813,-12139.377449,0.000000,-1915.238745
3672.274142,-11547.212695,-1184.329507,-995.924147
3672.274472,-9918.759623,-888.247130,76.609550
3672.274802,-8808.450710,-74.020594,1378.971896
3672.275132,-7179.997637,-74.020594,1378.971896
3672.275461,-7179.997637,444.123565,-919.314598
3672.275791,-8216.285956,962.267725,-2987.772442
3672.276121,-9622.677246,814.226536,-2987.772442
3672.276451,-11103.089130,1258.350101,-1072.533697
3672.276781,-10807.006753,814.226536,459.657299
3672.277110,-10288.862594,0.000000,0.000000
3672.277440,-10214.842000,-592.164754,-1378.971896
3672.277770,-9548.656652,-1480.411884,-1608.800546
3672.278100,-9104.533087,-1480.411884,-842.705048
3672.278430,-9400.615463,-666.185348,1302.362347
3672.278759,-9400.615463,148.041188,2221.676944
3672.279089,-8438.347739,74.020594,1072.533697
3672.279419,-8956.491898,444.123565,-1072.533697
3672.279749,-9696.697840,888.247130,-1915.238745
3672.280079,-10140.821405,518.144159,-995.924147
3672.280408,-10214.842000,740.205942,383.047749
3672.280738,-10436.903782,592.164754,229.828649
3672.281068,-10732.986159,148.041188,-383.047749
3672.281398,-10658.965565,-518.144159,-1991.848295
3672.281727,-10732.986159,-1110.308913,-1762.019645
3672.282057,-9992.780217,-888.247130,919.314598
3672.282387,-9474.636058,-370.102971,2911.162892
3672.282717,-8808.450710,-444.123565,2681.334243
3672.283047,-7772.162391,-222.061783,995.924147
3672.283376,-8438.347739,74.020594,-766.095498
3672.283706,-9844.739029,74.020594,-383.047749
3672.284036,-11103.089130,296.082377,1532.190996
3672.284366,-10881.027347,370.102971,2451.505594
3672.284696,-9548.656652,0.000000,1378.971896
3672.285025,-10066.800811,-296.082377,-459.657299
3672.285355,-10066.800811,-814.226536,-1149.143247
3672.285685,-10066.800811,-1110.308913,0.000000
3672.286015,-9918.759623,74.020594,1532.190996
3672.286345,-9326.594869,74.020594,2528.115143
3672.286674,-7994.224174,74.020594,1532.190996
3672.287004,-8660.409521,148.041188,-153.219100
3672.287334,-9548.656652,370.102971,-1378.971896
3672.287664,-10140.821405,222.061783,76.609550
3672.287994,-10955.047942,518.144159,1685.410096
3672.288324,-10732.986159,518.144159,2221.676944
3672.288654,-10436.903782,-444.123565,1149.143247
3672.288983,-10584.944971,-296.082377,-306.438199
3672.289313,-9992.780217,-1184.329507,-76.609550
3672.289643,-9770.718434,-444.123565,995.924147
3672.289973,-9326.594869,0.000000,2604.724693
3672.290303,-8808.450710,666.185348,2451.505594
3672.290633,-8438.347739,1036.288319,919.314598
3672.290963,-9992.780217,1480.411884,-1532.190996
3672.291292,-10955.047942,888.247130,-1302.362347
3672.291622,-11695.253884,666.185348,383.047749
3672.291952,-11251.130318,888.247130,1915.238745
3672.292282,-10362.883188,148.041188,1608.800546
3672.292612,-9918.759623,-148.041188,-919.314598
3672.292942,-9474.636058,-74.020594,-2298.286494
3672.293272,-9770.718434,-444.123565,-1072.533697
3672.293601,-9992.780217,296.082377,995.924147
3672.293931,-9992.780217,666.185348,2298.286494
3672.294261,-9030.512492,370.102971,1608.800546
3672.294591,-8882.471304,370.102971,-459.657299
3672.294921,-9178.553681,148.041188,-1991.848295
3672.295251,-9622.677246,-222.061783,-1685.410096
3672.295580,-10362.883188,222.061783,0.000000
3672.295910,-9770.718434,296.082377,689.485948
3672.296240,-9400.615463,0.000000,383.047749
3672.296570,-9918.759623,-592.164754,-1762.019645
3672.296900,-9844.739029,-962.267725,-2145.067394
3672.297230,-9548.656652,-888.247130,-689.485948
3672.297560,-8734.430116,0.000000,1225.752797
3672.297889,-8290.306550,222.061783,1378.971896
3672.298219,-8142.265362,222.061783,842.705048
3672.298549,-9104.533087,888.247130,-1378.971896
3672.298879,-10214.842000,518.144159,-2451.505594
3672.299209,-11029.068536,370.102971,-689.485948
3672.299539,-10881.027347,296.082377,459.657299
3672.299869,-10214.842000,-148.041188,995.924147
3672.300198,-9474.636058,-740.205942,-229.828649
3672.300528,-9104.533087,-1036.288319,-1072.533697
3672.300858,-9474.636058,-1480.411884,-612.876398
3672.301188,-9548.656652,-518.144159,1225.752797
3672.301518,-9474.636058,444.123565,2681.334243
3672.301848,-8364.327145,296.082377,2451.505594
3672.302178,-8956.491898,814.226536,-306.438199
3672.302507,-10510.924376,592.164754,-1685.410096
3672.302837,-11029.068536,296.082377,-1378.971896
3672.303167,-10732.986159,296.082377,76.609550
3672.303497,-10362.883188,444.123565,1455.581446
3672.303827,-9252.574275,-518.144159,1225.752797
3672.304157,-9400.615463,-592.164754,-306.438199
3672.304487,-9326.594869,-740.205942,-1149.143247
3672.304816,-9474.636058,-518.144159,-306.438199
3672.305146,-9770.718434,148.041188,1532.190996
3672.305476,-10066.800811,740.205942,2911.162892
3672.305806,-9252.574275,740.205942,2604.724693
3672.306136,-9474.636058,888.247130,229.828649
3672.306466,-10584.944971,666.185348,-1455.581446
3672.306795,-11769.274478,222.061783,-536.266849
3672.307125,-11251.130318,74.020594,995.924147
3672.307455,-10214.842000,0.000000,1302.362347
3672.307785,-9622.677246,0.000000,995.924147
3672.308115,-9548.656652,-444.123565,-536.266849
3672.308445,-9326.594869,-1110.308913,-306.438199
3672.308775,-9252.574275,-962.267725,842.705048
3672.309104,-9474.636058,0.000000,2451.505594
3672.309434,-9178.553681,222.061783,2757.943793
3672.309764,-9326.594869,222.061783,1455.581446
3672.310094,-9918.759623,0.000000,0.000000
3672.310424,-11029.068536,0.000000,-612.876398
3672.310754,-11029.068536,0.000000,153.219100
3672.311084,-10510.924376,222.061783,1072.533697
3672.311413,-9400.615463,0.000000,1149.143247
3672.311743,-8882.471304,-74.020594,-766.095498
3672.312073,-8882.471304,0.000000,-2604.724693
3672.312403,-9030.512492,-444.123565,-1685.410096
3672.312733,-9548.656652,74.020594,0.000000
3672.313063,-9474.636058,592.164754,1149.143247
3672.313393,-8586.388927,370.102971,995.924147
3672.313722,-9252.574275,592.164754,-1072.533697
3672.314052,-10510.924376,518.144159,-1838.629195
3672.314382,-11325.150913,0.000000,-1378.971896
3672.314712,-11177.109724,222.061783,306.438199
3672.315042,-10066.800811,666.185348,766.095498
3672.315372,-9548.656652,0.000000,0.000000
3672.315702,-9622.677246,0.000000,-1915.238745
3672.316031,-8956.491898,-814.226536,-2451.505594
3672.316361,-8956.491898,222.061783,-459.657299
3672.316691,-9548.656652,592.164754,1302.362347
3672.317021,-9696.697840,296.082377,2298.286494
3672.317351,-9252.574275,296.082377,842.705048
3672.317681,-9400.615463,740.205942,-1149.143247
3672.318010,-10955.047942,74.020594,-2145.067394
3672.318340,-11547.212695,0.000000,-306.438199
3672.318670,-11769.274478,222.061783,1838.629195
3672.319000,-10214.842000,-74.020594,1838.629195
3672.319330,-9474.636058,-592.164754,459.657299
3672.319660,-9104.533087,-962.267725,-1685.410096
3672.319990,-8956.491898,-1332.370696,-383.047749
3672.320319,-9104.533087,-592.164754,1685.410096
3672.320649,-8660.409521,0.000000,2911.162892
3672.320979,-8216.285956,0.000000,2604.724693
3672.321309,-8660.409521,444.123565,306.438199
3672.321639,-9622.677246,444.123565,-1072.533697
3672.321969,-11547.212695,444.123565,-1455.581446
3672.322299,-11991.336260,444.123565,153.219100
3672.322628,-11177.109724,592.164754,995.924147
3672.322958,-9548.656652,-518.144159,766.095498
3672.323288,-9474.636058,-888.247130,-919.314598
3672.323618,-8956.491898,-962.267725,-1762.019645
3672.323948,-8216.285956,-1406.391290,-153.219100
3672.324278,-8068.244768,0.000000,1762.019645
3672.324608,-8364.327145,518.144159,3064.381992
3672.324937,-9400.615463,1184.329507,2451.505594
3672.325267,-10214.842000,1332.370696,229.828649
3672.325597,-11843.295072,740.205942,-995.924147
3672.325927,-12065.356855,74.020594,306.438199
3672.326257,-12361.439231,370.102971,2451.505594
3672.326587,-10436.903782,-222.061783,1838.629195
3672.326917,-9326.594869,-888.247130,153.219100
3672.327246,-9030.512492,-666.185348,-1455.581446
3672.327576,-8586.388927,-1110.308913,-1149.143247
3672.327906,-8882.471304,0.000000,1685.410096
3672.328236,-9474.636058,666.185348,3753.867940
3672.328566,-8808.450710,1036.288319,3217.601092
3672.328896,-8956.491898,814.226536,919.314598
3672.329226,-10436.903782,740.205942,-612.876398
3672.329555,-11843.295072,296.082377,-766.095498
3672.329885,-12287.418637,518.144159,919.314598
3672.330215,-11473.192101,592.164754,1991.848295
3672.330545,-9918.759623,444.123565,1225.752797
3672.330875,-9844.739029,-148.041188,-1302.362347
3672.331205,-9104.533087,-444.123565,-2528.115143
3672.331534,-8586.388927,-518.144159,-1838.629195
3672.331864,-8290.306550,444.123565,842.705048
3672.332194,-7994.224174,1258.350101,2145.067394
3672.332524,-8512.368333,1036.288319,1455.581446
3672.332854,-9844.739029,1332.370696,-1072.533697
3672.333184,-10955.047942,814.226536,-3064.381992
3672.333514,-12213.398043,296.082377,-2451.505594
3672.333843,-11843.295072,74.020594,612.876398
3672.334173,-10881.027347,0.000000,2451.505594
3672.334503,-9326.594869,-592.164754,1225.752797
3672.334833,-8808.450710,-370.102971,-1762.019645
3672.335163,-8808.450710,-962.267725,-2757.943793
3672.335493,-8586.388927,-666.185348,-1225.752797
3672.335823,-9030.512492,518.144159,995.924147
3672.336152,-8364.327145,666.185348,2145.067394
3672.336482,-8142.265362,518.144159,612.876398
3672.336812,-9326.594869,444.123565,-1608.800546
3672.337142,-10881.027347,0.000000,-2298.286494
3672.337472,-12287.418637,-296.082377,-536.266849
3672.337802,-11991.336260,148.041188,1378.971896
3672.338132,-10436.903782,-518.144159,1378.971896
3672.338461,-9918.759623,-1110.308913,-306.438199
3672.338791,-9326.594869,-2072.576638,-1685.410096
3672.339121,-8142.265362,-1702.473667,-1762.019645
3672.339451,-7476.080014,-962.267725,229.828649
3672.339781,-7624.121203,74.020594,2298.286494
3672.340111,-7550.100608,370.102971,2068.457845
3672.340441,-8956.491898,888.247130,689.485948
3672.340770,-10288.862594,1036.288319,-1225.752797
3672.341100,-11991.336260,222.061783,-689.485948
3672.341430,-13545.768739,148.041188,1532.190996
3672.341760,-12287.418637,-74.020594,2451.505594
3672.342090,-10510.924376,-666.185348,1378.971896
3672.342420,-9252.574275,-1036.288319,-1378.971896
3672.342749,-8438.347739,-1258.350101,-2451.505594
3672.343079,-7846.182985,-1036.288319,-766.095498
3672.343409,-8364.327145,148.041188,1532.190996
3672.343739,-7846.182985,740.205942,2834.553343
3672.344069,-7846.182985,814.226536,2298.286494
3672.344399,-9474.636058,1036.288319,0.000000
3672.344729,-11177.109724,444.123565,-919.314598
3672.345058,-12953.603985,370.102971,842.705048
3672.345388,-13027.624579,0.000000,3217.601092
3672.345718,-11991.336260,-296.082377,3677.258390
3672.346048,-10807.006753,-1110.308913,1455.581446
3672.346378,-9770.718434,-1110.308913,-766.095498
3672.346708,-8586.388927,-1110.308913,-383.047749
3672.347038,-7994.224174,-740.205942,1378.971896
3672.347367,-7920.203579,296.082377,3140.991542
3672.347697,-7402.059420,666.185348,3064.381992
3672.348027,-7994.224174,1110.308913,1149.143247
3672.348357,-9400.615463,1554.432478,-1149.143247
3672.348687,-11473.192101,888.247130,-1532.190996
3672.349017,-12953.603985,1554.432478,459.657299
3672.349347,-12361.439231,888.247130,1762.019645
3672.349676,-11177.109724,148.041188,995.924147
3672.350006,-10658.965565,-592.164754,-689.485948
3672.350336,-10214.842000,-666.185348,-1991.848295
3672.350666,-8586.388927,-1258.350101,-766.095498
3672.350996,-7920.203579,0.000000,1532.190996
3672.351326,-7624.121203,740.205942,2757.943793
3672.351656,-7105.977043,814.226536,1302.362347
3672.351985,-8290.306550,1258.350101,-1302.362347
3672.352315,-9770.718434,1480.411884,-2604.724693
3672.352645,-12213.398043,1480.411884,-1838.629195
3672.352975,-12953.603985,1480.411884,-459.657299
3672.353305,-12139.377449,666.185348,0.000000
3672.353635,-11029.068536,74.020594,-842.705048
3672.353964,-10066.800811,-666.185348,-2834.553343
3672.354294,-8956.491898,-1332.370696,-2681.334243
3672.354624,-8290.306550,-370.102971,-306.438199
3672.354954,-7846.182985,0.000000,1762.019645
3672.355284,-7254.018232,1110.308913,2451.505594
3672.355614,-7920.203579,962.267725,919.314598
3672.355944,-9104.533087,1406.391290,-1532.190996
3672.356273,-11399.171507,1184.329507,-1915.238745
3672.356603,-13249.686362,666.185348,0.000000
3672.356933,-12953.603985,592.164754,1608.800546
3672.357263,-11029.068536,-740.205942,1455.581446
3672.357593,-9918.759623,-1332.370696,-383.047749
3672.357923,-9104.533087,-2368.659014,-1532.190996
3672.358253,-8068.244768,-2220.617826,-1225.752797
3672.358582,-7550.100608,-888.247130,689.485948
3672.358912,-6735.874072,296.082377,2451.505594
3672.359242,-6883.915261,518.144159,2451.505594
3672.359572,-7994.224174,1110.308913,0.000000
3672.359902,-10066.800811,1332.370696,-1302.362347
3672.360232,-11991.336260,1036.288319,-689.485948
3672.360562,-12953.603985,370.102971,689.485948
3672.360891,-12213.398043,74.020594,1685.410096
3672.361221,-11547.212695,-888.247130,1072.533697
3672.361551,-10658.965565,-962.267725,-1149.143247
3672.361881,-9252.574275,-2442.679609,-2145.067394
3672.362211,-7698.141797,-1850.514855,-612.876398
3672.362541,-7254.018232,-962.267725,1532.190996
3672.362871,-6439.791695,0.000000,3140.991542
3672.363200,-6809.894666,1184.329507,2374.896044
3672.363530,-8512.368333,1406.391290,306.438199
3672.363860,-11399.171507,1258.350101,-1072.533697
3672.364190,-13545.768739,814.226536,0.000000
3672.364520,-14211.954086,666.185348,1302.362347
3672.364850,-12657.521608,0.000000,1991.848295
3672.365180,-11621.233289,-1258.350101,766.095498
3672.365509,-9844.739029,-1628.453072,-1378.971896
3672.365839,-8216.285956,-2146.597232,-536.266849
3672.366169,-7846.182985,-1184.329507,842.705048
3672.366499,-7772.162391,0.000000,2451.505594
3672.366829,-7550.100608,888.247130,3064.381992
3672.367159,-7402.059420,1036.288319,1532.190996
3672.367488,-9474.636058,1776.494261,0.000000
3672.367818,-11695.253884,962.267725,-306.438199
3672.368148,-13397.727550,666.185348,919.314598
3672.368478,-12435.459826,148.041188,2374.896044
3672.368808,-11325.150913,-814.226536,2145.067394
3672.369138,-11325.150913,-666.185348,-153.219100
3672.369468,-10140.821405,-1628.453072,-2068.457845
3672.369797,-8438.347739,-1554.432478,-1838.629195
3672.370127,-7031.956449,-666.185348,-306.438199
3672.370457,-6365.771101,518.144159,1149.143247
3672.370787,-6143.709319,740.205942,919.314598
3672.371117,-7179.997637,1406.391290,-1225.752797
3672.371447,-9474.636058,1480.411884,-2757.943793
3672.371777,-11991.336260,1036.288319,-1838.629195
3672.372106,-13915.871710,814.226536,229.828649
3672.372436,-12953.603985,-222.061783,1608.800546
3672.372766,-11843.295072,-1480.411884,1302.362347
3672.373096,-10140.821405,-1480.411884,-612.876398
3672.373426,-8808.450710,-2516.700203,-1685.410096
3672.373756,-7772.162391,-1628.453072,-689.485948
3672.374086,-7105.977043,-740.205942,1149.143247
3672.374415,-6587.832884,666.185348,1991.848295
3672.374745,-7031.956449,1184.329507,229.828649
3672.375075,-8660.409521,1924.535449,-2145.067394
3672.375405,-10140.821405,1480.411884,-2681.334243
3672.375735,-11991.336260,1332.370696,-1455.581446
3672.376065,-12879.583391,592.164754,153.219100
3672.376395,-12657.521608,-74.020594,919.314598
3672.376724,-12213.398043,-1184.329507,306.438199
3672.377054,-10881.027347,-1998.556043,-383.047749
3672.377384,-8734.430116,-2516.700203,0.000000
3672.377714,-7328.038826,-1554.432478,689.485948
3672.378044,-6365.771101,-296.082377,2145.067394
3672.378374,-5847.626942,814.226536,2834.553343
3672.378703,-7402.059420,2072.576638,995.924147
3672.379033,-9622.677246,2368.659014,-1225.752797
3672.379363,-11843.295072,1776.494261,-842.705048
3672.379693,-13915.871710,1850.514855,459.657299
3672.380023,-13101.645173,888.247130,1455.581446
3672.380353,-12657.521608,0.000000,919.314598
3672.380683,-10955.047942,-814.226536,-1072.533697
3672.381012,-9178.553681,-2072.576638,-2145.067394
3672.381342,-8068.244768,-1258.350101,0.000000
3672.381672,-6883.915261,-740.205942,1762.019645
3672.382002,-6661.853478,740.205942,3524.039291
3672.382332,-6883.915261,666.185348,2604.724693
3672.382662,-7698.141797,1332.370696,689.485948
3672.382992,-10066.800811,1480.411884,459.657299
3672.383321,-12953.603985,1628.453072,766.095498
3672.383651,-14137.933492,1332.370696,2298.286494
3672.383981,-12657.521608,370.102971,2145.067394
3672.384311,-11399.171507,-444.123565,1378.971896
3672.384641,-11103.089130,-518.144159,-1608.800546
3672.384971,-10066.800811,-1332.370696,-842.705048
3672.385301,-8290.306550,-592.164754,76.609550
3672.385630,-7254.018232,0.000000,1608.800546
3672.385960,-6291.750507,592.164754,2221.676944
3672.386290,-7105.977043,814.226536,1532.190996
3672.386620,-8290.306550,1702.473667,-383.047749
3672.386950,-9696.697840,1480.411884,-1302.362347
3672.387280,-12657.521608,1776.494261,0.000000
3672.387610,-13471.748144,1406.391290,1685.410096
3672.387939,-13619.789333,592.164754,2068.457845
3672.388269,-12435.459826,-444.123565,0.000000
3672.388599,-11251.130318,-1110.308913,-2298.286494
3672.388929,-8956.491898,-1554.432478,-1378.971896
3672.389258,-7846.182985,-1036.288319,0.000000
3672.389588,-6735.874072,-222.061783,689.485948
3672.389918,-5551.544565,592.164754,612.876398
3672.390248,-7031.956449,1406.391290,-1378.971896
3672.390578,-8734.430116,1924.535449,-2987.772442
3672.390907,-10881.027347,1332.370696,-2068.457845
3672.391237,-12805.562797,1406.391290,-689.485948
3672.391567,-12731.542202,518.144159,689.485948
3672.391897,-12879.583391,-888.247130,383.047749
3672.392226,-12139.377449,-1480.411884,-689.485948
3672.392556,-10510.924376,-2516.700203,-842.705048
3672.392886,-8512.368333,-2368.659014,229.828649
3672.393216,-7994.224174,-1406.391290,995.924147
3672.393545,-6809.894666,-666.185348,2068.457845
3672.393875,-5773.606348,0.000000,689.485948
3672.394205,-7105.977043,1184.329507,-842.705048
3672.394535,-9326.594869,1332.370696,-1378.971896
3672.394864,-12139.377449,1258.350101,-383.047749
3672.395194,-13249.686362,888.247130,689.485948
3672.395524,-13693.809927,-296.082377,612.876398
3672.395854,-12953.603985,-1480.411884,229.828649
3672.396183,-10807.006753,-2738.761985,-766.095498
3672.396513,-9104.533087,-3034.844362,0.000000
3672.396843,-7920.203579,-2368.659014,1378.971896
3672.397173,-6957.935855,-888.247130,2757.943793
3672.397502,-5699.585753,0.000000,1991.848295
3672.397832,-6587.832884,962.267725,383.047749
3672.398162,-8512.368333,1332.370696,-689.485948
3672.398492,-10881.027347,1480.411884,536.266849
3672.398821,-13027.624579,1110.308913,1302.362347
3672.399151,-13027.624579,148.041188,1532.190996
3672.399481,-12287.418637,-740.205942,536.266849
3672.399811,-11843.295072,-1332.370696,-1378.971896
3672.400140,-10807.006753,-1628.453072,-1838.629195
3672.400470,-8660.409521,-1184.329507,-76.609550
3672.400800,-7920.203579,-370.102971,1302.362347
3672.401130,-7179.997637,0.000000,1991.848295
3672.401459,-6291.750507,74.020594,1302.362347
3672.401789,-7328.038826,1184.329507,-612.876398
3672.402119,-8956.491898,962.267725,-919.314598
3672.402449,-11029.068536,1036.288319,766.095498
3672.402778,-12287.418637,1184.329507,2757.943793
3672.403108,-12657.521608,1110.308913,2221.676944
3672.403438,-13323.706956,222.061783,689.485948
3672.403768,-12805.562797,0.000000,-612.876398
3672.404097,-11103.089130,-1110.308913,-612.876398
3672.404427,-9178.553681,-962.267725,306.438199
3672.404757,-7550.100608,-148.041188,1455.581446
3672.405087,-5995.668130,0.000000,2068.457845
3672.405417,-6143.709319,740.205942,1072.533697
3672.405746,-7550.100608,1406.391290,-536.266849
3672.406076,-9178.553681,1332.370696,-383.047749
3672.406406,-11695.253884,1998.556043,995.924147
3672.406736,-12657.521608,2220.617826,1991.848295
3672.407065,-13545.768739,1480.411884,1685.410096
3672.407395,-12953.603985,518.144159,-536.266849
3672.407725,-11547.212695,-666.185348,-1915.238745
3672.408055,-10362.883188,-962.267725,-1302.362347
3672.408384,-8438.347739,-740.205942,1149.143247
3672.408714,-6735.874072,-370.102971,1225.752797
3672.409044,-5255.462188,148.041188,1302.362347
3672.409374,-6069.688724,740.205942,-536.266849
3672.409703,-7846.182985,1332.370696,-1991.848295
3672.410033,-9992.780217,1776.494261,-1532.190996
3672.410363,-11991.336260,2294.638420,459.657299
3672.410693,-12509.480420,1702.473667,1225.752797
3672.411022,-13323.706956,518.144159,229.828649
3672.411352,-12805.562797,-74.020594,-1302.362347
3672.411682,-10881.027347,-1924.535449,-1685.410096
3672.412012,-9770.718434,-1480.411884,0.000000
3672.412341,-8586.388927,-1258.350101,1838.629195
3672.412671,-6365.771101,-370.102971,3064.381992
3672.413001,-5699.585753,0.000000,612.876398
3672.413331,-6291.750507,888.247130,-1225.752797
3672.413660,-8364.327145,1332.370696,-1532.190996
3672.413990,-11473.192101,1924.535449,-229.828649
3672.414320,-12805.562797,2220.617826,1225.752797
3672.414650,-13619.789333,814.226536,1072.533697
3672.414979,-13471.748144,-666.185348,-842.705048
3672.415309,-11991.336260,-2146.597232,-2068.457845
3672.415639,-10436.903782,-2886.803174,-842.705048
3672.415969,-8660.409521,-2516.700203,1685.410096
3672.416298,-6587.832884,-1776.494261,3064.381992
3672.416628,-4663.297435,-962.267725,2451.505594
3672.416958,-5773.606348,222.061783,995.924147
3672.417288,-8216.285956,1036.288319,-612.876398
3672.417617,-10510.924376,1258.350101,-306.438199
3672.417947,-12065.356855,1406.391290,995.924147
3672.418277,-12435.459826,1110.308913,1302.362347
3672.418607,-12879.583391,0.000000,229.828649
3672.418937,-12213.398043,-1258.350101,-1608.800546
3672.419266,-10881.027347,-1924.535449,-2451.505594
3672.419596,-9992.780217,-1924.535449,-689.485948
3672.419926,-8956.491898,-1110.308913,1149.143247
3672.420256,-7254.018232,-1110.308913,2451.505594
3672.420585,-5699.585753,-666.185348,2068.457845
3672.420915,-6365.771101,148.041188,0.000000
3672.421245,-8142.265362,740.205942,153.219100
3672.421575,-10362.883188,518.144159,995.924147
3672.421904,-11843.295072,1480.411884,2604.724693
3672.422234,-13323.706956,1036.288319,2221.676944
3672.422564,-13619.789333,74.020594,306.438199
3672.422894,-13471.748144,-592.164754,-1378.971896
3672.423223,-11695.253884,-2072.576638,-842.705048
3672.423553,-10140.821405,-1480.411884,1072.533697
3672.423883,-8142.265362,-1332.370696,2374.896044
3672.424213,-5625.565159,-666.185348,2221.676944
3672.424542,-5329.482782,148.041188,612.876398
3672.424872,-7031.956449,740.205942,-1072.533697
3672.425202,-9178.553681,1480.411884,-383.047749
3672.425532,-11251.130318,2220.617826,536.266849
3672.425861,-11991.336260,2072.576638,1302.362347
3672.426191,-12879.583391,1036.288319,383.047749
3672.426521,-13249.686362,370.102971,-1225.752797
3672.426851,-12065.356855,-1702.473667,-1608.800546
3672.427180,-10362.883188,-1924.535449,-919.314598
3672.427510,-8586.388927,-1332.370696,612.876398
3672.427840,-7031.956449,-1184.329507,1762.019645
3672.428170,-5699.585753,-444.123565,1378.971896
3672.428499,-5625.565159,370.102971,-306.438199
3672.428829,-7105.977043,1110.308913,-1532.190996
3672.429159,-9548.656652,1628.453072,-536.266849
3672.429489,-12065.356855,2294.638420,995.924147
3672.429818,-13027.624579,1924.535449,689.485948
3672.430148,-12953.603985,444.123565,-1149.143247
3672.430478,-12953.603985,-518.144159,-3217.601092
3672.430808,-11547.212695,-2146.597232,-2834.553343
3672.431137,-9400.615463,-1998.556043,0.000000
3672.431467,-7920.203579,-1258.350101,2298.286494
3672.431797,-6661.853478,-370.102971,2298.286494
3672.432127,-5921.647536,0.000000,229.828649
3672.432456,-7105.977043,1184.329507,-1608.800546
3672.432786,-9030.512492,1628.453072,-1378.971896
3672.433116,-11769.274478,2220.617826,689.485948
3672.433446,-12509.480420,2146.597232,1838.629195
3672.433776,-12805.562797,888.247130,689.485948
3672.434105,-12731.542202,74.020594,-1532.190996
3672.434435,-11843.295072,-1406.391290,-2451.505594
3672.434765,-10658.965565,-2368.659014,-229.828649
3672.435095,-9252.574275,-1628.453072,2374.896044
3672.435424,-7328.038826,-1036.288319,3370.820191
3672.435754,-5847.626942,-518.144159,2451.505594
3672.436084,-6365.771101,518.144159,-153.219100
3672.436414,-7698.141797,1036.288319,-1762.019645
3672.436743,-9622.677246,1406.391290,0.000000
3672.437073,-11695.253884,2072.576638,2374.896044
3672.437403,-11695.253884,1850.514855,2604.724693
3672.437733,-11991.336260,296.082377,842.705048
3672.438062,-12361.439231,-222.061783,-1225.752797
3672.438392,-11843.295072,-1480.411884,-1991.848295
3672.438722,-11103.089130,-1480.411884,229.828649
3672.439052,-9030.512492,-1110.308913,2068.457845
3672.439381,-6365.771101,-1184.329507,3217.601092
3672.439711,-4959.379811,-296.082377,2374.896044
3672.440041,-6439.791695,814.226536,0.000000
3672.440371,-8216.285956,1480.411884,-689.485948
3672.440700,-10658.965565,1776.494261,306.438199
3672.441030,-11769.274478,2516.700203,1455.581446
3672.441360,-12435.459826,1628.453072,1455.581446
3672.441690,-13471.748144,518.144159,-153.219100
3672.442019,-12879.583391,-592.164754,-1838.629195
3672.442349,-11769.274478,-1850.514855,-612.876398
3672.442679,-10214.842000,-814.226536,689.485948
3672.443009,-8216.285956,-814.226536,1762.019645
3672.443338,-6069.688724,-222.061783,1838.629195
3672.443668,-5921.647536,814.226536,153.219100
3672.443998,-7994.224174,1702.473667,-689.485948
3672.444328,-9844.739029,1776.494261,0.000000
3672.444657,-11843.295072,2072.576638,383.047749
3672.444987,-11991.336260,1850.514855,995.924147
3672.445317,-11843.295072,740.205942,383.047749
3672.445647,-12879.583391,148.041188,-1608.800546
3672.445976,-11917.315666,-1628.453072,-1838.629195
3672.446306,-10362.883188,-1702.473667,-306.438199
3672.446636,-8512.368333,-962.267725,1149.143247
3672.446966,-7105.977043,-666.185348,1608.800546
3672.447295,-6957.935855,0.000000,383.047749
3672.447625,-7402.059420,518.144159,-1838.629195
3672.447955,-8068.244768,592.164754,-2374.896044
3672.448285,-9178.553681,1036.288319,-995.924147
3672.448615,-10881.027347,1554.432478,919.314598
3672.448944,-11029.068536,814.226536,612.876398
3672.449274,-11695.253884,-518.144159,-1378.971896
3672.449604,-11547.212695,-592.164754,-2834.553343
3672.449934,-11325.150913,-1998.556043,-2221.676944
3672.450263,-9770.718434,-1850.514855,842.705048
3672.450593,-8734.430116,-1406.391290,3217.601092
3672.450923,-6661.853478,-1184.329507,2604.724693
3672.451253,-6809.894666,-814.226536,153.219100
3672.451582,-7920.203579,0.000000,-2451.505594
3672.451912,-9252.574275,74.020594,-1532.190996
3672.452242,-10510.924376,1036.288319,919.314598
3672.452572,-10584.944971,1036.288319,2145.067394
3672.452901,-11103.089130,222.061783,766.095498
3672.453231,-11769.274478,-222.061783,-2221.676944
3672.453561,-11695.253884,-1332.370696,-2757.943793
3672.453891,-11621.233289,-1554.432478,-842.705048
3672.454220,-10732.986159,-962.267725,2604.724693
3672.454550,-9104.533087,-1110.308913,3370.820191
3672.454880,-6735.874072,-1110.308913,2298.286494
3672.455210,-6439.791695,0.000000,-919.314598
3672.455539,-7772.162391,0.000000,-1532.190996
3672.455869,-9548.656652,666.185348,0.000000
3672.456199,-10658.965565,1702.473667,2451.505594
3672.456529,-11177.109724,1702.473667,2834.553343
3672.456858,-12065.356855,1258.350101,766.095498
3672.457188,-12657.521608,148.041188,-1838.629195
3672.457518,-12139.377449,-962.267725,-2298.286494
3672.457848,-10510.924376,-1036.288319,-229.828649
3672.458177,-8438.347739,-592.164754,2145.067394
3672.458507,-6587.832884,-1036.288319,2757.943793
3672.458837,-6143.709319,0.000000,1532.190996
3672.459167,-7476.080014,666.185348,-459.657299
3672.459496,-9400.615463,666.185348,-995.924147
3672.459826,-10881.027347,1184.329507,995.924147
3672.460156,-11695.253884,1998.556043,3217.601092
3672.460486,-11621.233289,1406.391290,2834.553343
3672.460815,-11621.233289,592.164754,153.219100
3672.461145,-11473.192101,0.000000,-1608.800546
3672.461475,-11547.212695,-814.226536,-383.047749
3672.461805,-11029.068536,-222.061783,1838.629195
3672.462135,-9622.677246,0.000000,2911.162892
3672.462464,-6883.915261,0.000000,1838.629195
3672.462794,-6957.935855,370.102971,-306.438199
3672.463124,-8142.265362,1036.288319,-1991.848295
3672.463454,-9474.636058,814.226536,-995.924147
3672.463783,-10807.006753,1998.556043,153.219100
3672.464113,-10658.965565,1628.453072,919.314598
3672.464443,-11473.192101,666.185348,-383.047749
3672.464773,-11325.150913,74.020594,-1991.848295
3672.465102,-11547.212695,-222.061783,-2145.067394
3672.465432,-11029.068536,-1036.288319,0.000000
3672.465762,-9548.656652,-666.185348,1378.971896
3672.466092,-7994.224174,-888.247130,1762.019645
3672.466421,-6957.935855,-592.164754,766.095498
3672.466751,-7254.018232,148.041188,-1762.019645
3672.467081,-8586.388927,296.082377,-2528.115143
3672.467411,-9474.636058,444.123565,-612.876398
3672.467740,-10584.944971,1110.308913,919.314598
3672.468070,-10658.965565,1036.288319,612.876398
3672.468400,-11103.089130,-296.082377,-1072.533697
3672.468730,-11029.068536,-814.226536,-2987.772442
3672.469059,-10436.903782,-1628.453072,-2221.676944
3672.469389,-10140.821405,-1110.308913,-229.828649
3672.469719,-9622.677246,-740.205942,2451.505594
3672.470049,-7698.141797,-1036.288319,2374.896044
3672.470378,-7254.018232,-370.102971,0.000000
3672.470708,-8808.450710,814.226536,-2451.505594
3672.471038,-9548.656652,296.082377,-1608.800546
3672.471368,-10807.006753,888.247130,842.705048
3672.471697,-10955.047942,888.247130,1838.629195
3672.472027,-11029.068536,0.000000,995.924147
3672.472357,-10881.027347,0.000000,-842.705048
3672.472687,-10881.027347,-962.267725,-1455.581446
3672.473016,-10658.965565,-1036.288319,306.438199
3672.473346,-10807.006753,-666.185348,2374.896044
3672.473676,-9548.656652,-74.020594,3217.601092
3672.474006,-7698.141797,-592.164754,1991.848295
3672.474335,-7624.121203,74.020594,-306.438199
3672.474665,-8882.471304,370.102971,-1225.752797
3672.474995,-9770.718434,518.144159,536.266849
3672.475325,-10288.862594,1184.329507,1532.190996
3672.475654,-10732.986159,1036.288319,1685.410096
3672.475984,-11103.089130,370.102971,306.438199
3672.476314,-11103.089130,74.020594,-1378.971896
3672.476644,-10362.883188,-592.164754,-1302.362347
3672.476974,-10066.800811,-592.164754,459.657299
3672.477303,-9770.718434,0.000000,2451.505594
3672.477633,-8364.327145,-444.123565,2681.334243
3672.477963,-7402.059420,0.000000,1149.143247
3672.478293,-7994.224174,296.082377,-1225.752797
3672.478622,-9474.636058,518.144159,-229.828649
3672.478952,-10807.006753,1110.308913,1302.362347
3672.479282,-11103.089130,1406.391290,2298.286494
3672.479612,-10658.965565,962.267725,1302.362347
3672.479941,-11621.233289,370.102971,-76.609550
3672.480271,-11103.089130,0.000000,-1225.752797
3672.480601,-10288.862594,-740.205942,0.000000
3672.480931,-9918.759623,0.000000,2068.457845
3672.481260,-9548.656652,222.061783,2451.505594
3672.481590,-8660.409521,296.082377,1532.190996
3672.481920,-8142.265362,740.205942,-1072.533697
3672.482250,-8956.491898,592.164754,-2374.896044
3672.482579,-10066.800811,592.164754,-536.266849
3672.482909,-10881.027347,1110.308913,1532.190996
3672.483239,-9844.739029,1258.350101,1302.362347
3672.483569,-9400.615463,666.185348,-842.705048
3672.483898,-10436.903782,518.144159,-2681.334243
3672.484228,-10658.965565,-296.082377,-2528.115143
3672.484558,-10658.965565,-148.041188,-459.657299
3672.484888,-9992.780217,0.000000,1685.410096
3672.485217,-9104.533087,-74.020594,2068.457845
3672.485547,-7846.182985,-296.082377,383.047749
3672.485877,-7698.141797,370.102971,-2298.286494
3672.486207,-8364.327145,0.000000,-3064.381992
3672.486536,-9252.574275,296.082377,-306.438199
3672.486866,-10807.006753,1406.391290,1225.752797
3672.487196,-10510.924376,740.205942,1302.362347
3672.487526,-10955.047942,148.041188,-536.266849
3672.487856,-10732.986159,-518.144159,-2451.505594
3672.488186,-10214.842000,-1776.494261,-1072.533697
3672.488516,-10140.821405,-1258.350101,1149.143247
3672.488845,-8808.450710,-1036.288319,3370.820191
3672.489175,-7624.121203,-888.247130,3140.991542
3672.489505,-8290.306550,592.164754,536.266849
3672.489835,-10214.842000,296.082377,-1532.190996
3672.490164,-11547.212695,296.082377,-1532.190996
3672.490494,-11547.212695,74.020594,1225.752797
3672.490824,-11103.089130,518.144159,2298.286494
3672.491154,-9622.677246,-370.102971,1225.752797
3672.491484,-9178.553681,-962.267725,-1072.533697
3672.491813,-9104.533087,-1036.288319,-1608.800546
3672.492143,-9030.512492,-962.267725,-459.657299
3672.492473,-10658.965565,222.061783,2298.286494
3672.492803,-9992.780217,0.000000,3140.991542
3672.493132,-8660.409521,0.000000,2221.676944
3672.493462,-8734.430116,222.061783,842.705048
3672.493792,-9474.636058,74.020594,-1225.752797
3672.494122,-10658.965565,0.000000,0.000000
3672.494451,-10436.903782,148.041188,1455.581446
3672.494781,-9326.594869,222.061783,1455.581446
3672.495111,-9178.553681,0.000000,0.000000
3672.495441,-9770.718434,0.000000,-1991.848295
3672.495771,-10066.800811,-592.164754,-766.095498
3672.496100,-10140.821405,-222.061783,1072.533697
3672.496430,-10436.903782,296.082377,2834.553343
3672.496760,-8882.471304,370.102971,2911.162892
3672.497090,-8808.450710,0.000000,1149.143247
3672.497419,-9474.636058,370.102971,-1225.752797
3672.497749,-10362.883188,0.000000,-1532.190996
3672.498079,-11103.089130,592.164754,383.047749
3672.498409,-10732.986159,518.144159,1838.629195
3672.498738,-9992.780217,222.061783,2145.067394
3672.499068,-9992.780217,74.020594,153.219100
3672.499398,-9474.636058,296.082377,-1685.410096
3672.499728,-9178.553681,-444.123565,-383.047749
3672.500058,-10436.903782,444.123565,1225.752797
3672.500387,-10066.800811,444.123565,2298.286494
3672.500717,-8882.471304,740.205942,1455.581446
3672.501047,-8956.491898,444.123565,-459.657299
3672.501377,-9770.718434,296.082377,-1762.019645
3672.501706,-10436.903782,-296.082377,-306.438199
3672.502036,-10881.027347,518.144159,995.924147
3672.502366,-9992.780217,888.247130,1149.143247
3672.502696,-9178.553681,0.000000,0.000000
3672.503025,-9770.718434,444.123565,-2145.067394
3672.503355,-9770.718434,-444.123565,-2451.505594
3672.503685,-9770.718434,74.020594,-842.705048
3672.504015,-9696.697840,666.185348,536.266849
3672.504345,-9474.636058,444.123565,1149.143247
3672.504674,-8734.430116,148.041188,0.000000
3672.505004,-9548.656652,518.144159,-1685.410096
3672.505334,-10140.821405,0.000000,-1838.629195
3672.505664,-10658.965565,0.000000,-153.219100
3672.505993,-10214.842000,518.144159,1455.581446
3672.506323,-9770.718434,-222.061783,1225.752797
3672.506653,-9622.677246,0.000000,-459.657299
3672.506983,-9474.636058,-370.102971,-2834.553343
3672.507312,-9474.636058,-666.185348,-2221.676944
3672.507642,-9918.759623,-370.102971,229.828649
3672.507972,-9696.697840,148.041188,2604.724693
3672.508302,-8364.327145,-296.082377,2451.505594
3672.508632,-8882.471304,148.041188,153.219100
3672.508961,-9770.718434,0.000000,-1685.410096
3672.509291,-10807.006753,0.000000,-306.438199
3672.509621,-11399.171507,74.020594,1838.629195
3672.509951,-10955.047942,74.020594,2834.553343
3672.510280,-10140.821405,-370.102971,1225.752797
3672.510610,-9918.759623,-518.144159,-919.314598
3672.510940,-9104.533087,-962.267725,-1838.629195
3672.511270,-8808.450710,-962.267725,-459.657299
3672.511599,-9474.636058,148.041188,1915.238745
3672.511929,-9400.615463,592.164754,3217.601092
3672.512259,-8364.327145,148.041188,1838.629195
3672.512589,-9252.574275,370.102971,-612.876398
3672.512919,-10436.903782,0.000000,-1532.190996
3672.513248,-11177.109724,-444.123565,0.000000
3672.513578,-11103.089130,444.123565,2451.505594
3672.513908,-9622.677246,-148.041188,2528.115143
3672.514238,-8956.491898,-592.164754,1072.533697
3672.514567,-9178.553681,-370.102971,-689.485948
3672.514897,-9252.574275,-444.123565,-766.095498
3672.515227,-9622.677246,0.000000,1072.533697
3672.515557,-9770.718434,814.226536,2451.505594
3672.515886,-9474.636058,222.061783,2145.067394
3672.516216,-8808.450710,222.061783,306.438199
3672.516546,-9622.677246,518.144159,-1072.533697
3672.516876,-10066.800811,-370.102971,-536.266849
3672.517205,-11251.130318,518.144159,1762.019645
3672.517535,-10732.986159,888.247130,2451.505594
3672.517865,-10214.842000,148.041188,1685.410096
3672.518195,-9918.759623,222.061783,-612.876398
3672.518525,-9474.636058,0.000000,-1991.848295
3672.518854,-9770.718434,-296.082377,0.000000
3672.519184,-9770.718434,1184.329507,2221.676944
3672.519514,-9252.574275,814.226536,2145.067394
3672.519844,-8290.306550,740.205942,919.314598
3672.520173,-9252.574275,1258.350101,-1685.410096
3672.520503,-10807.006753,814.226536,-2374.896044
3672.520833,-11547.212695,370.102971,-612.876398
3672.521163,-11695.253884,888.247130,1838.629195
3672.521492,-10214.842000,518.144159,2068.457845
3672.521822,-9474.636058,-74.020594,76.609550
3672.522152,-9326.594869,-444.123565,-1915.238745
3672.522482,-9178.553681,-814.226536,-2374.896044
3672.522812,-9474.636058,-222.061783,-459.657299
3672.523141,-9622.677246,518.144159,1685.410096
3672.523471,-8660.409521,592.164754,1838.629195
3672.523801,-8586.388927,370.102971,0.000000
3672.524131,-9918.759623,592.164754,-2604.724693
3672.524460,-11251.130318,-444.123565,-2757.943793
3672.524790,-11251.130318,-148.041188,-76.609550
3672.525120,-10066.800811,0.000000,1532.190996
3672.525450,-9030.512492,-370.102971,1302.362347
3672.525779,-8660.409521,-1258.350101,-842.705048
3672.526109,-8660.409521,-740.205942,-2757.943793
3672.526439,-8734.430116,-962.267725,-2221.676944
3672.526769,-9918.759623,-74.020594,459.657299
3672.527099,-10362.883188,222.061783,2145.067394
3672.527428,-8882.471304,-370.102971,2068.457845
3672.527758,-8660.409521,-222.061783,-306.438199
3672.528088,-10066.800811,0.000000,-1838.629195
3672.528418,-11177.109724,-518.144159,-1302.362347
3672.528747,-11399.171507,0.000000,459.657299
3672.529077,-9992.780217,296.082377,2068.457845
3672.529407,-10066.800811,-444.123565,1378.971896
3672.529737,-10214.842000,-444.123565,-766.095498
3672.530066,-9326.594869,-1110.308913,-1685.410096
3672.530396,-8734.430116,-666.185348,-459.657299
3672.530726,-9326.594869,0.000000,1302.362347
3672.531056,-9030.512492,74.020594,2604.724693
3672.531386,-8512.368333,0.000000,1915.238745
3672.531715,-9474.636058,444.123565,-229.828649
3672.532045,-10881.027347,370.102971,-766.095498
3672.532375,-12213.398043,222.061783,995.924147
3672.532705,-11473.192101,666.185348,2528.115143
3672.533034,-10288.862594,148.041188,2451.505594
3672.533364,-9622.677246,-296.082377,153.219100
3672.533694,-9178.553681,-444.123565,-1762.019645
3672.534024,-9104.533087,-1036.288319,-919.314598
3672.534353,-9474.636058,-148.041188,995.924147
3672.534683,-9474.636058,296.082377,2374.896044
3672.535013,-8216.285956,0.000000,2681.334243
3672.535343,-8586.388927,370.102971,612.876398
3672.535673,-9548.656652,518.144159,-536.266849
3672.536002,-11325.150913,74.020594,919.314598
3672.536332,-11621.233289,592.164754,2911.162892
3672.536662,-11251.130318,888.247130,3677.258390
3672.536992,-10732.986159,666.185348,1608.800546
3672.537321,-10510.924376,518.144159,-689.485948
3672.537651,-9918.759623,0.000000,-2068.457845
3672.537981,-9030.512492,0.000000,-1072.533697
3672.538311,-9326.594869,814.226536,536.266849
3672.538640,-9030.512492,1258.350101,1838.629195
3672.538970,-7698.141797,740.205942,1608.800546
3672.539300,-8142.265362,1110.308913,-1838.629195
3672.539630,-10288.862594,740.205942,-2068.457845
3672.539960,-12065.356855,962.267725,0.000000
3672.540289,-12213.398043,1258.350101,1915.238745
3672.540619,-10955.047942,444.123565,1991.848295
3672.540949,-9844.739029,0.000000,0.000000
3672.541279,-9622.677246,-222.061783,-2145.067394
3672.541608,-9178.553681,-962.267725,-2987.772442
3672.541938,-8364.327145,-222.061783,-612.876398
3672.542268,-8216.285956,370.102971,995.924147
3672.542598,-7846.182985,370.102971,1072.533697
3672.542927,-8068.244768,592.164754,-1302.362347
3672.543257,-9104.533087,592.164754,-3217.601092
3672.543587,-10955.047942,222.061783,-2451.505594
3672.543917,-12435.459826,444.123565,766.095498
3672.544247,-11621.233289,74.020594,2221.676944
3672.544576,-10140.821405,-592.164754,1378.971896
3672.544906,-9474.636058,-666.185348,-766.095498
3672.545236,-9326.594869,-1184.329507,-2604.724693
3672.545566,-9030.512492,-1480.411884,-1225.752797
3672.545895,-9104.533087,-444.123565,919.314598
3672.546225,-8364.327145,74.020594,2145.067394
3672.546555,-7624.121203,148.041188,995.924147
3672.546885,-8734.430116,296.082377,-842.705048
3672.547214,-10658.965565,222.061783,-2068.457845
3672.547544,-11399.171507,-222.061783,-766.095498
3672.547874,-12139.377449,740.205942,1149.143247
3672.548204,-11177.109724,0.000000,1915.238745
3672.548534,-10732.986159,-814.226536,536.266849
3672.548863,-10066.800811,-962.267725,-919.314598
3672.549193,-9474.636058,-1258.350101,-1532.190996
3672.549523,-8882.471304,-1332.370696,306.438199
3672.549853,-8956.491898,-370.102971,2145.067394
3672.550182,-7846.182985,-370.102971,3064.381992
3672.550512,-7698.141797,-296.082377,1762.019645
3672.550842,-9252.574275,296.082377,0.000000
3672.551172,-11029.068536,-222.061783,-612.876398
3672.551501,-12139.377449,-222.061783,1378.971896
3672.551831,-11991.336260,296.082377,3140.991542
3672.552161,-11399.171507,-370.102971,2987.772442
3672.552491,-10584.944971,-592.164754,536.266849
3672.552821,-9770.718434,-444.123565,-1302.362347
3672.553150,-9030.512492,-1036.288319,-1302.362347
3672.553480,-8734.430116,0.000000,766.095498
3672.553810,-8734.430116,592.164754,2451.505594
3672.554140,-7846.182985,222.061783,2298.286494
3672.554469,-8142.265362,296.082377,153.219100
3672.554799,-9622.677246,592.164754,-1072.533697
3672.555129,-11103.089130,296.082377,-306.438199
3672.555459,-12213.398043,666.185348,1838.629195
3672.555788,-11547.212695,1036.288319,2604.724693
3672.556118,-11251.130318,444.123565,2068.457845
3672.556448,-10807.006753,814.226536,-536.266849
3672.556778,-10362.883188,-518.144159,-1685.410096
3672.557108,-9474.636058,-444.123565,-383.047749
3672.557437,-8956.491898,370.102971,1072.533697
3672.557767,-7920.203579,814.226536,1378.971896
3672.558097,-7031.956449,814.226536,612.876398
3672.558427,-8142.265362,1110.308913,-1455.581446
3672.558756,-10066.800811,1480.411884,-2221.676944
3672.559086,-11843.295072,1110.308913,-306.438199
3672.559416,-12657.521608,1702.473667,1225.752797
3672.559746,-11547.212695,962.267725,1608.800546
3672.560075,-10288.862594,222.061783,-153.219100
3672.560405,-10066.800811,0.000000,-2298.286494
3672.560735,-9178.553681,-222.061783,-2451.505594
3672.561065,-8660.409521,-296.082377,0.000000
3672.561395,-8438.347739,888.247130,1378.971896
3672.561724,-7624.121203,518.144159,1149.143247
3672.562054,-7402.059420,740.205942,-919.314598
3672.562384,-8512.368333,1036.288319,-2911.162892
3672.562714,-9844.739029,518.144159,-1915.238745
3672.563043,-11917.315666,888.247130,995.924147
3672.563373,-11695.253884,888.247130,2145.067394
3672.563703,-11547.212695,222.061783,1302.362347
3672.564033,-10955.047942,-296.082377,-842.705048
3672.564362,-9770.718434,-1110.308913,-2604.724693
3672.564692,-8734.430116,-1332.370696,-1608.800546
3672.565022,-7698.141797,-518.144159,842.705048
3672.565352,-7846.182985,222.061783,2528.115143
3672.565681,-7105.977043,74.020594,2145.067394
3672.566011,-8660.409521,888.247130,-153.219100
3672.566341,-10436.903782,1258.350101,-1608.800546
3672.566671,-11621.233289,518.144159,-919.314598
3672.567001,-12361.439231,592.164754,1225.752797
3672.567330,-11843.295072,148.041188,1685.410096
3672.567660,-11103.089130,-888.247130,1302.362347
3672.567990,-10510.924376,-962.267725,-995.924147
3672.568320,-9474.636058,-1628.453072,-1532.190996
3672.568649,-8734.430116,-1184.329507,306.438199
3672.568979,-8216.285956,0.000000,1685.410096
3672.569309,-7328.038826,0.000000,2604.724693
3672.569639,-7179.997637,370.102971,766.095498
3672.569968,-8734.430116,740.205942,-766.095498
3672.570298,-10510.924376,444.123565,-383.047749
