#time,accel_x,accel_y,accel_z
3861.862982,-10140.821405,74.020594,229.828649
3861.863312,-9844.739029,0.000000,383.047749
3861.863641,-9844.739029,0.000000,383.047749
3861.863971,-9992.780217,74.020594,459.657299
3861.864301,-9844.739029,148.041188,459.657299
3861.864631,-9548.656652,0.000000,306.438199
3861.864960,-9844.739029,148.041188,0.000000
3861.865290,-9622.677246,0.000000,0.000000
3861.865620,-9622.677246,222.061783,0.000000
3861.865950,-9844.739029,0.000000,229.828649
3861.866279,-9770.718434,0.000000,0.000000
3861.866609,-9918.759623,74.020594,76.609550
3861.866939,-9474.636058,0.000000,612.876398
3861.867268,-9622.677246,-74.020594,383.047749
3861.867598,-9622.677246,0.000000,995.924147
3861.867928,-9918.759623,74.020594,766.095498
3861.868258,-9918.759623,-222.061783,612.876398
3861.868587,-9992.780217,0.000000,229.828649
3861.868917,-9696.697840,74.020594,-306.438199
3861.869247,-9474.636058,0.000000,-612.876398
3861.869577,-9844.739029,0.000000,-842.705048
3861.869906,-10140.821405,0.000000,-919.314598
3861.870236,-9844.739029,-148.041188,-153.219100
3861.870566,-9622.677246,-444.123565,153.219100
3861.870895,-9844.739029,-370.102971,0.000000
3861.871225,-9178.553681,-888.247130,-689.485948
3861.871555,-9548.656652,-814.226536,-995.924147
3861.871885,-9326.594869,-592.164754,-536.266849
3861.872214,-9696.697840,-518.144159,0.000000
3861.872544,-9992.780217,-222.061783,459.657299
3861.872874,-10288.862594,-592.164754,536.266849
3861.873204,-10510.924376,-222.061783,0.000000
3861.873533,-10214.842000,-518.144159,-842.705048
3861.873863,-10140.821405,-518.144159,-1762.019645
3861.874193,-9548.656652,-1036.288319,-1915.238745
3861.874522,-9178.553681,-1036.288319,-1991.848295
3861.874852,-9030.512492,-1110.308913,-1455.581446
3861.875182,-9030.512492,-1184.329507,-766.095498
3861.875512,-9104.533087,-888.247130,-229.828649
3861.875841,-9548.656652,-1110.308913,-229.828649
3861.876171,-9918.759623,-962.267725,-536.266849
3861.876501,-10436.903782,-666.185348,-536.266849
3861.876831,-10288.862594,-444.123565,-1762.019645
3861.877160,-10436.903782,-1036.288319,-1532.190996
3861.877490,-10510.924376,-1036.288319,-1302.362347
3861.877820,-10288.862594,-1258.350101,-1455.581446
3861.878149,-10140.821405,-962.267725,-2604.724693
3861.878479,-9770.718434,-1924.535449,-2451.505594
3861.878809,-9770.718434,-2146.597232,-2604.724693
3861.879139,-9474.636058,-1998.556043,-2451.505594
3861.879468,-8660.409521,-1998.556043,-2451.505594
3861.879798,-8512.368333,-1924.535449,-1991.848295
3861.880128,-8660.409521,-1628.453072,-919.314598
3861.880458,-9622.677246,-1406.391290,-536.266849
3861.880787,-10584.944971,-1184.329507,-229.828649
3861.881117,-11029.068536,-888.247130,0.000000
3861.881447,-12065.356855,-1406.391290,-995.924147
3861.881776,-12139.377449,-1850.514855,-2298.286494
3861.882106,-11621.233289,-2664.741391,-3524.039291
3861.882436,-9548.656652,-3182.885551,-4903.011187
3861.882766,-7698.141797,-3701.029710,-4826.401637
3861.883095,-6883.915261,-3552.988522,-2757.943793
3861.883425,-7624.121203,-2516.700203,-1225.752797
3861.883755,-8734.430116,-1702.473667,-919.314598
3861.884085,-10066.800811,-1184.329507,-2757.943793
3861.884414,-11029.068536,-1480.411884,-4443.353888
3861.884744,-11473.192101,-2442.679609,-4979.620737
3861.885074,-11695.253884,-3849.070898,-3677.258390
3861.885403,-10584.944971,-4663.297435,-1991.848295
3861.885733,-8808.450710,-5551.544565,-1838.629195
3861.886063,-7328.038826,-5181.441594,-1915.238745
3861.886393,-7550.100608,-4737.318029,-2451.505594
3861.886722,-8808.450710,-3034.844362,-2145.067394
3861.887052,-10066.800811,-2368.659014,-1455.581446
3861.887382,-10955.047942,-1332.370696,-1378.971896
3861.887712,-11251.130318,-1184.329507,-1915.238745
3861.888041,-11399.171507,-2146.597232,-3600.648841
3861.888371,-10732.986159,-3775.050304,-5056.230287
3861.888701,-9622.677246,-4737.318029,-4596.572988
3861.889030,-9326.594869,-5033.400406,-3447.429741
3861.889360,-8586.388927,-5107.421000,-1532.190996
3861.889690,-7624.121203,-4885.359217,229.828649
3861.890020,-7698.141797,-3627.009116,1225.752797
3861.890349,-9474.636058,-1924.535449,1455.581446
3861.890679,-12435.459826,-1480.411884,-383.047749
3861.891009,-12509.480420,-1406.391290,-2221.676944
3861.891339,-11029.068536,-2516.700203,-2757.943793
3861.891668,-9622.677246,-3108.864956,-2681.334243
3861.891998,-9474.636058,-4367.215058,-1225.752797
3861.892328,-9030.512492,-3552.988522,-2221.676944
3861.892657,-7031.956449,-4145.153275,-2451.505594
3861.892987,-8512.368333,-3627.009116,-1225.752797
3861.893317,-10807.006753,-2146.597232,-689.485948
3861.893647,-9918.759623,-1332.370696,-459.657299
3861.893976,-11399.171507,-1406.391290,612.876398
3861.894306,-12065.356855,-1036.288319,153.219100
3861.894636,-11769.274478,-1776.494261,-1455.581446
3861.894966,-9548.656652,-3108.864956,-1838.629195
3861.895295,-9770.718434,-2220.617826,-919.314598
3861.895625,-10288.862594,-2220.617826,-2221.676944
3861.895955,-10362.883188,-2072.576638,-2528.115143
3861.896284,-9474.636058,-2294.638420,-2757.943793
3861.896614,-9326.594869,-1850.514855,-1532.190996
3861.896944,-9622.677246,-1702.473667,76.609550
3861.897274,-9918.759623,-1332.370696,536.266849
3861.897603,-9030.512492,-666.185348,-1685.410096
3861.897933,-8808.450710,-814.226536,-3600.648841
3861.898263,-9178.553681,-1110.308913,-3140.991542
3861.898593,-10288.862594,-1332.370696,-1072.533697
3861.898922,-10584.944971,-666.185348,76.609550
3861.899252,-11103.089130,-814.226536,0.000000
3861.899582,-9918.759623,-1036.288319,-2681.334243
3861.899912,-10436.903782,-1036.288319,-3907.087040
3861.900241,-9844.739029,-1776.494261,-4366.744339
3861.900571,-9400.615463,-1628.453072,-2451.505594
3861.900901,-9622.677246,-1110.308913,-1378.971896
3861.901230,-9252.574275,-888.247130,-2298.286494
3861.901560,-7698.141797,-1184.329507,-3294.210641
3861.901890,-7179.997637,-1258.350101,-4366.744339
3861.902220,-8142.265362,-666.185348,-2911.162892
3861.902549,-10807.006753,-444.123565,-766.095498
3861.902879,-11621.233289,148.041188,0.000000
3861.903209,-11029.068536,-148.041188,-1149.143247
3861.903539,-9992.780217,-1184.329507,-2604.724693
3861.903868,-10436.903782,-1184.329507,-3140.991542
3861.904198,-11547.212695,-1480.411884,-3600.648841
3861.904528,-10436.903782,-1702.473667,-3217.601092
3861.904857,-8364.327145,-1406.391290,-2068.457845
3861.905187,-7328.038826,-1850.514855,-689.485948
3861.905517,-8586.388927,-1184.329507,-536.266849
3861.905847,-10807.006753,-666.185348,-1915.238745
3861.906176,-9918.759623,-888.247130,-2911.162892
3861.906506,-9104.533087,-1702.473667,-2604.724693
3861.906836,-8956.491898,-2072.576638,689.485948
3861.907166,-11325.150913,-2072.576638,536.266849
3861.907495,-11843.295072,-1998.556043,-536.266849
3861.907825,-10510.924376,-2812.782580,-1685.410096
3861.908155,-9252.574275,-2516.700203,-1455.581446
3861.908484,-9992.780217,-2294.638420,-459.657299
3861.908814,-10732.986159,-2294.638420,229.828649
3861.909144,-9400.615463,-1850.514855,-995.924147
3861.909474,-8438.347739,-2368.659014,-2221.676944
3861.909803,-9770.718434,-1628.453072,-3370.820191
3861.910133,-11103.089130,-2072.576638,-3600.648841
3861.910463,-10288.862594,-2886.803174,-2834.553343
3861.910793,-8586.388927,-3256.906145,-1532.190996
3861.911122,-9252.574275,-2960.823768,-612.876398
3861.911452,-10807.006753,-3256.906145,-919.314598
3861.911782,-11029.068536,-4071.132681,-1302.362347
3861.912111,-9548.656652,-4145.153275,-1685.410096
3861.912441,-8734.430116,-3627.009116,-2374.896044
3861.912771,-9474.636058,-3849.070898,-1762.019645
3861.913101,-9918.759623,-2960.823768,-842.705048
3861.913430,-9918.759623,-2738.761985,-1762.019645
3861.913760,-9548.656652,-3034.844362,-3753.867940
3861.914090,-8882.471304,-3182.885551,-5745.716235
3861.914420,-8956.491898,-3330.926739,-5056.230287
3861.914749,-10362.883188,-3182.885551,-2757.943793
3861.915079,-10732.986159,-3256.906145,-766.095498
3861.915409,-10214.842000,-3034.844362,-919.314598
3861.915738,-8956.491898,-4219.173869,-2911.162892
3861.916068,-9474.636058,-3997.112087,-2221.676944
3861.916398,-10066.800811,-2812.782580,-383.047749
3861.916728,-11103.089130,-2368.659014,-383.047749
3861.917057,-10140.821405,-2590.720797,-2681.334243
3861.917387,-8808.450710,-2590.720797,-3600.648841
3861.917717,-9770.718434,-1554.432478,-2757.943793
3861.918047,-11103.089130,-2294.638420,-1608.800546
3861.918376,-11029.068536,-2368.659014,-1915.238745
3861.918706,-9548.656652,-2516.700203,-2068.457845
3861.919036,-9104.533087,-2368.659014,-2451.505594
3861.919366,-9178.553681,-2590.720797,-2068.457845
3861.919695,-9622.677246,-2368.659014,-383.047749
3861.920025,-9474.636058,-2220.617826,0.000000
3861.920355,-9178.553681,-2146.597232,-306.438199
3861.920685,-9622.677246,-1924.535449,-306.438199
3861.921014,-9918.759623,-1998.556043,-1608.800546
3861.921344,-10066.800811,-962.267725,-1072.533697
3861.921674,-10732.986159,-1110.308913,-459.657299
3861.922004,-10658.965565,-1332.370696,-1072.533697
3861.922333,-9696.697840,-1332.370696,-1838.629195
3861.922663,-9474.636058,-1702.473667,-2374.896044
3861.922993,-10214.842000,-1554.432478,-2451.505594
3861.923323,-10214.842000,-1776.494261,-2911.162892
3861.923652,-9548.656652,-1924.535449,-3064.381992
3861.923982,-9030.512492,-2146.597232,-2145.067394
3861.924312,-8142.265362,-1406.391290,-1378.971896
3861.924642,-9326.594869,-1184.329507,-1225.752797
3861.924971,-10066.800811,-1480.411884,-1991.848295
3861.925301,-9992.780217,-2072.576638,-842.705048
3861.925631,-9622.677246,-1406.391290,-995.924147
3861.925961,-9474.636058,-1332.370696,-919.314598
3861.926290,-9474.636058,-1332.370696,-919.314598
3861.926620,-9770.718434,-1036.288319,-1838.629195
3861.926950,-10807.006753,-888.247130,-2987.772442
3861.927280,-10584.944971,-1554.432478,-3600.648841
3861.927609,-9326.594869,-1184.329507,-4213.525239
3861.927939,-9178.553681,-1184.329507,-2451.505594
3861.928269,-9104.533087,-1480.411884,-919.314598
3861.928599,-8068.244768,-592.164754,-1762.019645
3861.928929,-9770.718434,-444.123565,-2528.115143
3861.929258,-10658.965565,0.000000,-3907.087040
3861.929588,-11103.089130,-444.123565,-2987.772442
3861.929918,-11251.130318,-814.226536,-1915.238745
3861.930248,-10584.944971,-1924.535449,-1455.581446
3861.930577,-9992.780217,-148.041188,459.657299
3861.930907,-10955.047942,-1776.494261,-1225.752797
3861.931237,-10066.800811,-1628.453072,-3830.477490
3861.931567,-9400.615463,-2368.659014,-3524.039291
3861.931896,-9400.615463,-1184.329507,-1685.410096
3861.932226,-10881.027347,-1184.329507,0.000000
3861.932556,-11251.130318,-1628.453072,-919.314598
3861.932886,-9030.512492,-1998.556043,-1915.238745
3861.933215,-9178.553681,-2812.782580,-2451.505594
3861.933545,-9474.636058,-2590.720797,-1915.238745
3861.933875,-9770.718434,-1850.514855,-1378.971896
3861.934205,-9622.677246,-2886.803174,0.000000
3861.934534,-7698.141797,-2516.700203,0.000000
3861.934864,-8882.471304,-2886.803174,-842.705048
3861.935194,-10288.862594,-2368.659014,-1915.238745
3861.935524,-10658.965565,-2812.782580,-2834.553343
3861.935853,-8068.244768,-2960.823768,-1685.410096
3861.936183,-7031.956449,-2960.823768,0.000000
3861.936513,-9770.718434,-1776.494261,2068.457845
3861.936843,-10362.883188,-1184.329507,995.924147
3861.937172,-10584.944971,-1702.473667,-1532.190996
3861.937502,-10807.006753,-888.247130,-2528.115143
3861.937832,-11177.109724,-2368.659014,-2681.334243
3861.938162,-11177.109724,-1776.494261,-1915.238745
3861.938491,-8512.368333,-2516.700203,-612.876398
3861.938821,-7846.182985,-2146.597232,-689.485948
3861.939151,-8808.450710,-1258.350101,-1378.971896
3861.939481,-11103.089130,-1554.432478,-2528.115143
3861.939810,-11103.089130,-740.205942,-2221.676944
3861.940140,-9770.718434,-888.247130,-995.924147
3861.940470,-9696.697840,-370.102971,612.876398
3861.940800,-10955.047942,-1110.308913,1608.800546
3861.941129,-11621.233289,-592.164754,919.314598
3861.941459,-10288.862594,-1628.453072,-76.609550
3861.941789,-9030.512492,-1628.453072,-919.314598
3861.942119,-8660.409521,-1554.432478,76.609550
3861.942449,-11103.089130,-296.082377,1455.581446
3861.942778,-10584.944971,-740.205942,2374.896044
3861.943108,-9548.656652,-1332.370696,1225.752797
3861.943438,-8068.244768,-518.144159,-306.438199
3861.943768,-8142.265362,-296.082377,-1072.533697
3861.944097,-10362.883188,592.164754,536.266849
3861.944427,-9844.739029,962.267725,1838.629195
3861.944757,-9474.636058,518.144159,612.876398
3861.945087,-9400.615463,-592.164754,-995.924147
3861.945416,-10362.883188,-370.102971,-1455.581446
3861.945746,-10955.047942,-592.164754,0.000000
3861.946076,-10362.883188,-296.082377,0.000000
3861.946406,-8142.265362,148.041188,-919.314598
3861.946735,-7031.956449,-370.102971,-1072.533697
3861.947065,-8216.285956,666.185348,-153.219100
3861.947395,-10658.965565,222.061783,1302.362347
3861.947725,-11177.109724,1184.329507,1991.848295
3861.948054,-9178.553681,370.102971,1149.143247
3861.948384,-9474.636058,148.041188,0.000000
3861.948714,-10584.944971,-296.082377,842.705048
3861.949044,-11029.068536,0.000000,1225.752797
3861.949373,-9622.677246,-148.041188,1532.190996
3861.949703,-8290.306550,-222.061783,1072.533697
3861.950033,-8364.327145,740.205942,2757.943793
3861.950363,-9696.697840,1036.288319,3140.991542
3861.950692,-10732.986159,2590.720797,1378.971896
3861.951022,-11251.130318,1924.535449,0.000000
3861.951352,-10584.944971,2590.720797,-1608.800546
3861.951682,-11103.089130,2368.659014,0.000000
3861.952011,-12213.398043,3182.885551,919.314598
3861.952341,-11621.233289,2812.782580,612.876398
3861.952671,-10288.862594,2072.576638,-1378.971896
3861.953001,-8734.430116,1184.329507,-2834.553343
3861.953330,-8438.347739,1332.370696,-1378.971896
3861.953660,-9844.739029,1184.329507,919.314598
3861.953990,-10436.903782,814.226536,2681.334243
3861.954320,-10140.821405,814.226536,2757.943793
3861.954649,-9252.574275,370.102971,1455.581446
3861.954979,-9326.594869,666.185348,383.047749
3861.955309,-10362.883188,-148.041188,0.000000
3861.955639,-9992.780217,296.082377,-612.876398
3861.955968,-8068.244768,-296.082377,-383.047749
3861.956298,-7772.162391,0.000000,-153.219100
3861.956628,-7698.141797,-1184.329507,76.609550
3861.956958,-9104.533087,148.041188,612.876398
3861.957288,-8660.409521,-148.041188,-612.876398
3861.957617,-9696.697840,148.041188,-689.485948
3861.957947,-10362.883188,148.041188,0.000000
3861.958277,-10807.006753,74.020594,1149.143247
3861.958607,-10732.986159,1184.329507,1378.971896
3861.958936,-9548.656652,296.082377,-612.876398
3861.959266,-9622.677246,444.123565,-2145.067394
3861.959596,-9474.636058,0.000000,-1149.143247
3861.959926,-10362.883188,592.164754,0.000000
3861.960255,-10510.924376,370.102971,-383.047749
3861.960585,-10214.842000,370.102971,-1302.362347
3861.960915,-10658.965565,518.144159,-1072.533697
3861.961245,-11103.089130,0.000000,-1455.581446
3861.961574,-11103.089130,-518.144159,-995.924147
3861.961904,-10362.883188,-1184.329507,-766.095498
3861.962234,-9548.656652,-740.205942,612.876398
3861.962564,-8734.430116,-1332.370696,1762.019645
3861.962893,-8660.409521,-1628.453072,2604.724693
3861.963223,-9326.594869,-1110.308913,2681.334243
3861.963553,-9030.512492,-1184.329507,919.314598
3861.963883,-9474.636058,-1258.350101,536.266849
3861.964212,-9770.718434,-888.247130,1991.848295
3861.964542,-10955.047942,-1184.329507,2987.772442
3861.964872,-9992.780217,-592.164754,1991.848295
3861.965202,-9030.512492,-1184.329507,383.047749
3861.965531,-9548.656652,-296.082377,-766.095498
3861.965861,-9770.718434,-666.185348,-1685.410096
3861.966191,-9030.512492,444.123565,-1225.752797
3861.966521,-7624.121203,-148.041188,-995.924147
3861.966850,-8734.430116,370.102971,-612.876398
3861.967180,-9400.615463,0.000000,229.828649
3861.967510,-10955.047942,-370.102971,536.266849
3861.967840,-10658.965565,296.082377,536.266849
3861.968169,-10066.800811,-962.267725,-1072.533697
3861.968499,-10066.800811,-666.185348,689.485948
3861.968829,-9252.574275,-592.164754,1991.848295
3861.969159,-10140.821405,-444.123565,3064.381992
3861.969488,-9918.759623,-1554.432478,2145.067394
3861.969818,-9696.697840,-962.267725,1225.752797
3861.970148,-8660.409521,0.000000,842.705048
3861.970478,-9326.594869,296.082377,612.876398
3861.970808,-10436.903782,-370.102971,766.095498
3861.971137,-8660.409521,-296.082377,995.924147
3861.971467,-9326.594869,444.123565,1149.143247
3861.971797,-9844.739029,518.144159,1225.752797
3861.972127,-11547.212695,888.247130,995.924147
3861.972456,-11103.089130,888.247130,0.000000
3861.972786,-10066.800811,444.123565,-383.047749
3861.973116,-10362.883188,888.247130,229.828649
3861.973446,-10732.986159,1184.329507,1072.533697
3861.973775,-10955.047942,1110.308913,1302.362347
3861.974105,-9622.677246,962.267725,306.438199
3861.974435,-8808.450710,962.267725,-1378.971896
3861.974765,-10066.800811,1406.391290,-2145.067394
3861.975094,-10066.800811,1184.329507,-1608.800546
3861.975424,-9326.594869,740.205942,-919.314598
3861.975754,-9178.553681,518.144159,-1149.143247
3861.976084,-9400.615463,370.102971,-766.095498
3861.976413,-10288.862594,444.123565,-306.438199
3861.976743,-10214.842000,148.041188,-1302.362347
3861.977073,-7994.224174,-666.185348,-689.485948
3861.977403,-7846.182985,296.082377,689.485948
3861.977732,-9178.553681,148.041188,1915.238745
3861.978062,-10436.903782,74.020594,1991.848295
3861.978392,-10214.842000,518.144159,1455.581446
3861.978722,-9474.636058,1110.308913,229.828649
3861.979051,-10732.986159,666.185348,-1225.752797
3861.979381,-10214.842000,962.267725,-842.705048
3861.979711,-9548.656652,296.082377,-153.219100
3861.980041,-8438.347739,296.082377,76.609550
3861.980370,-8512.368333,518.144159,0.000000
3861.980700,-10066.800811,666.185348,153.219100
3861.981030,-10658.965565,1110.308913,383.047749
3861.981360,-10955.047942,888.247130,995.924147
3861.981689,-10214.842000,518.144159,0.000000
3861.982019,-10881.027347,444.123565,76.609550
3861.982349,-10955.047942,74.020594,-383.047749
3861.982679,-10658.965565,592.164754,-229.828649
3861.983008,-9474.636058,1036.288319,153.219100
3861.983338,-9474.636058,74.020594,689.485948
3861.983668,-9548.656652,-666.185348,0.000000
3861.983998,-9400.615463,0.000000,766.095498
3861.984328,-9696.697840,0.000000,1302.362347
3861.984657,-9622.677246,-592.164754,306.438199
3861.984987,-8660.409521,-1110.308913,383.047749
3861.985317,-9104.533087,-814.226536,1838.629195
3861.985647,-10066.800811,-370.102971,2374.896044
3861.985976,-9918.759623,-814.226536,1378.971896
3861.986306,-9622.677246,-888.247130,1302.362347
3861.986636,-9622.677246,-444.123565,459.657299
3861.986966,-11103.089130,-370.102971,536.266849
3861.987295,-10214.842000,-222.061783,306.438199
3861.987625,-10066.800811,-148.041188,383.047749
3861.987955,-8290.306550,0.000000,536.266849
3861.988285,-9474.636058,148.041188,536.266849
3861.988614,-10584.944971,222.061783,-689.485948
3861.988944,-10214.842000,-444.123565,-153.219100
3861.989274,-10732.986159,666.185348,-1378.971896
3861.989604,-10732.986159,-370.102971,-1378.971896
3861.989933,-11103.089130,-370.102971,-306.438199
3861.990263,-10658.965565,-1036.288319,842.705048
3861.990593,-9992.780217,-444.123565,995.924147
3861.990923,-9252.574275,-740.205942,766.095498
3861.991252,-9030.512492,-740.205942,-459.657299
3861.991582,-8438.347739,-962.267725,459.657299
3861.991912,-9696.697840,-518.144159,1991.848295
3861.992242,-10436.903782,0.000000,1685.410096
3861.992571,-10807.006753,-1110.308913,612.876398
3861.992901,-9400.615463,-296.082377,229.828649
3861.993231,-9178.553681,-1184.329507,383.047749
3861.993561,-10510.924376,370.102971,766.095498
3861.993890,-10140.821405,-962.267725,306.438199
3861.994220,-9326.594869,-296.082377,-306.438199
3861.994550,-7031.956449,-148.041188,76.609550
3861.994880,-9030.512492,666.185348,842.705048
3861.995209,-10658.965565,814.226536,76.609550
3861.995539,-11029.068536,814.226536,-1455.581446
3861.995869,-9252.574275,296.082377,-1991.848295
3861.996199,-9844.739029,-74.020594,-1149.143247
3861.996528,-10362.883188,-148.041188,0.000000
3861.996858,-10214.842000,-518.144159,919.314598
3861.997188,-9474.636058,296.082377,-153.219100
3861.997518,-8216.285956,-888.247130,-1608.800546
3861.997848,-9030.512492,-296.082377,-1915.238745
3861.998177,-10362.883188,0.000000,76.609550
3861.998507,-9992.780217,-74.020594,306.438199
3861.998837,-9326.594869,-370.102971,1072.533697
3861.999167,-8364.327145,74.020594,1455.581446
3861.999496,-9770.718434,-592.164754,1455.581446
3861.999826,-10658.965565,0.000000,229.828649
3862.000156,-10362.883188,-222.061783,-306.438199
3862.000486,-9548.656652,-296.082377,-306.438199
3862.000815,-8364.327145,370.102971,-306.438199
3862.001145,-9474.636058,-148.041188,766.095498
3862.001475,-10955.047942,814.226536,1302.362347
3862.001805,-10066.800811,666.185348,153.219100
3862.002134,-9474.636058,740.205942,-2221.676944
3862.002464,-9400.615463,814.226536,-1455.581446
3862.002794,-11029.068536,1332.370696,229.828649
3862.003124,-11103.089130,1480.411884,1149.143247
3862.003453,-10362.883188,1258.350101,-459.657299
3862.003783,-9918.759623,1332.370696,-1762.019645
3862.004113,-10140.821405,296.082377,-1532.190996
3862.004443,-10288.862594,814.226536,-1225.752797
3862.004772,-10510.924376,148.041188,383.047749
3862.005102,-9400.615463,148.041188,1378.971896
3862.005432,-9474.636058,-444.123565,1149.143247
3862.005762,-8438.347739,-444.123565,1378.971896
3862.006091,-9030.512492,-444.123565,1455.581446
3862.006421,-8142.265362,-148.041188,612.876398
3862.006751,-8438.347739,-592.164754,1072.533697
3862.007081,-9474.636058,0.000000,1302.362347
3862.007410,-9696.697840,0.000000,2145.067394
3862.007740,-10658.965565,518.144159,1072.533697
3862.008070,-11029.068536,74.020594,229.828649
3862.008400,-10140.821405,-148.041188,-1378.971896
3862.008729,-9252.574275,-74.020594,0.000000
3862.009059,-9326.594869,0.000000,1915.238745
3862.009389,-9474.636058,592.164754,2451.505594
3862.009719,-10066.800811,1110.308913,1225.752797
3862.010048,-9104.533087,518.144159,-153.219100
3862.010378,-10362.883188,888.247130,-766.095498
3862.010708,-11843.295072,1776.494261,-995.924147
3862.011038,-12361.439231,0.000000,-1685.410096
3862.011368,-10140.821405,0.000000,-1532.190996
3862.011697,-8142.265362,-444.123565,-536.266849
3862.012027,-8956.491898,-740.205942,612.876398
3862.012357,-9548.656652,-740.205942,1838.629195
3862.012687,-9770.718434,0.000000,1685.410096
3862.013016,-9326.594869,74.020594,842.705048
3862.013346,-9252.574275,-74.020594,689.485948
3862.013676,-9696.697840,222.061783,2221.676944
3862.014006,-11177.109724,0.000000,2757.943793
3862.014335,-10881.027347,0.000000,2068.457845
3862.014665,-9918.759623,-592.164754,306.438199
3862.014995,-8512.368333,444.123565,-229.828649
3862.015325,-9030.512492,370.102971,-459.657299
3862.015654,-10362.883188,1258.350101,-76.609550
3862.015984,-10436.903782,1406.391290,-536.266849
3862.016314,-9622.677246,74.020594,-1149.143247
3862.016644,-8660.409521,740.205942,-229.828649
3862.016973,-10658.965565,1184.329507,612.876398
3862.017303,-11029.068536,666.185348,-459.657299
3862.017633,-10288.862594,222.061783,-1302.362347
3862.017963,-8438.347739,0.000000,-842.705048
3862.018292,-10214.842000,222.061783,-229.828649
3862.018622,-11103.089130,-148.041188,536.266849
3862.018952,-10214.842000,-740.205942,153.219100
3862.019282,-7624.121203,-1110.308913,229.828649
3862.019611,-8512.368333,-1036.288319,612.876398
3862.019941,-9770.718434,-518.144159,919.314598
3862.020271,-10140.821405,-814.226536,689.485948
3862.020600,-8956.491898,-888.247130,0.000000
3862.020930,-8364.327145,-1184.329507,459.657299
3862.021260,-9918.759623,0.000000,1302.362347
3862.021589,-9696.697840,-592.164754,1225.752797
3862.021919,-10214.842000,-518.144159,0.000000
3862.022249,-8808.450710,74.020594,-1225.752797
3862.022578,-10140.821405,0.000000,-1762.019645
3862.022908,-10510.924376,0.000000,76.609550
3862.023238,-10288.862594,370.102971,2068.457845
3862.023567,-10214.842000,1332.370696,0.000000
3862.023897,-10140.821405,370.102971,-2145.067394
3862.024227,-9918.759623,666.185348,-2834.553343
3862.024556,-10584.944971,518.144159,-1608.800546
3862.024886,-11399.171507,1036.288319,-153.219100
3862.025216,-9918.759623,148.041188,536.266849
3862.025545,-9326.594869,0.000000,-536.266849
3862.025875,-8882.471304,-222.061783,-919.314598
3862.026205,-10362.883188,-518.144159,459.657299
3862.026534,-10140.821405,-740.205942,612.876398
3862.026864,-9622.677246,-888.247130,612.876398
3862.027194,-8512.368333,-814.226536,995.924147
3862.027523,-9030.512492,-1184.329507,2528.115143
3862.027853,-9474.636058,-296.082377,2987.772442
3862.028183,-9770.718434,-666.185348,1532.190996
3862.028512,-9178.553681,-222.061783,-995.924147
3862.028842,-9474.636058,148.041188,229.828649
3862.029172,-10066.800811,74.020594,1915.238745
3862.029501,-9548.656652,-444.123565,1762.019645
3862.029831,-9474.636058,296.082377,1072.533697
3862.030161,-9178.553681,0.000000,-459.657299
3862.030490,-10066.800811,0.000000,-1455.581446
3862.030820,-10288.862594,1110.308913,-842.705048
3862.031150,-10807.006753,0.000000,-306.438199
3862.031479,-10066.800811,666.185348,76.609550
3862.031809,-9770.718434,444.123565,76.609550
3862.032139,-10288.862594,222.061783,-995.924147
3862.032468,-10584.944971,-296.082377,-612.876398
3862.032798,-9104.533087,0.000000,-919.314598
3862.033128,-8290.306550,-518.144159,-383.047749
3862.033457,-8438.347739,444.123565,-1225.752797
3862.033787,-9178.553681,-296.082377,229.828649
3862.034116,-9622.677246,0.000000,1378.971896
3862.034446,-10066.800811,0.000000,1455.581446
3862.034776,-10140.821405,0.000000,1378.971896
3862.035105,-10436.903782,-740.205942,842.705048
3862.035435,-10066.800811,-296.082377,1072.533697
3862.035765,-9178.553681,-444.123565,1838.629195
3862.036094,-9030.512492,-296.082377,995.924147
3862.036424,-9326.594869,0.000000,306.438199
3862.036754,-10658.965565,222.061783,459.657299
3862.037083,-9252.574275,592.164754,689.485948
3862.037413,-8882.471304,296.082377,0.000000
3862.037743,-9474.636058,1702.473667,0.000000
3862.038072,-10881.027347,814.226536,-689.485948
3862.038402,-11399.171507,1184.329507,-842.705048
3862.038732,-9844.739029,814.226536,-612.876398
3862.039061,-10955.047942,370.102971,-306.438199
3862.039391,-9622.677246,74.020594,-919.314598
3862.039721,-9548.656652,-592.164754,-306.438199
3862.040050,-9104.533087,518.144159,-383.047749
3862.040380,-8660.409521,0.000000,-76.609550
3862.040710,-9326.594869,222.061783,995.924147
3862.041039,-10288.862594,-888.247130,1991.848295
3862.041369,-10066.800811,592.164754,2145.067394
3862.041699,-9474.636058,-370.102971,1072.533697
3862.042028,-10658.965565,222.061783,0.000000
3862.042358,-10732.986159,-1110.308913,76.609550
3862.042688,-9918.759623,-888.247130,1072.533697
3862.043017,-8512.368333,-740.205942,1762.019645
3862.043347,-8660.409521,0.000000,919.314598
3862.043677,-9178.553681,-296.082377,1072.533697
3862.044006,-8660.409521,0.000000,-306.438199
3862.044336,-9326.594869,0.000000,-612.876398
3862.044666,-10066.800811,1110.308913,459.657299
3862.044995,-10362.883188,1110.308913,76.609550
3862.045325,-10288.862594,148.041188,0.000000
3862.045655,-10066.800811,0.000000,229.828649
3862.045984,-10362.883188,0.000000,383.047749
3862.046314,-11695.253884,-296.082377,-612.876398
3862.046644,-10362.883188,-370.102971,-842.705048
3862.046973,-8068.244768,-740.205942,-306.438199
3862.047303,-8364.327145,0.000000,1378.971896
3862.047632,-10881.027347,370.102971,1762.019645
3862.047962,-11251.130318,222.061783,383.047749
3862.048292,-9770.718434,592.164754,-1149.143247
3862.048621,-9178.553681,296.082377,-1455.581446
3862.048951,-10214.842000,0.000000,1378.971896
3862.049281,-10881.027347,592.164754,2604.724693
3862.049610,-10140.821405,-296.082377,1762.019645
3862.049940,-9030.512492,-296.082377,-153.219100
3862.050270,-9178.553681,-444.123565,-842.705048
3862.050599,-10584.944971,-518.144159,383.047749
3862.050929,-9474.636058,148.041188,1378.971896
3862.051259,-8586.388927,74.020594,1685.410096
3862.051588,-8660.409521,518.144159,612.876398
3862.051918,-9474.636058,740.205942,229.828649
3862.052248,-10732.986159,1036.288319,-153.219100
3862.052577,-10214.842000,222.061783,-919.314598
3862.052907,-9252.574275,518.144159,-1225.752797
3862.053237,-9474.636058,444.123565,459.657299
3862.053566,-10436.903782,518.144159,1378.971896
3862.053896,-10807.006753,-222.061783,766.095498
3862.054226,-9326.594869,0.000000,-153.219100
3862.054555,-8290.306550,0.000000,-612.876398
3862.054885,-8956.491898,0.000000,-842.705048
3862.055215,-9104.533087,370.102971,1225.752797
3862.055544,-10436.903782,518.144159,2834.553343
3862.055874,-9918.759623,1036.288319,1455.581446
3862.056204,-9918.759623,74.020594,-612.876398
3862.056533,-9696.697840,518.144159,-383.047749
3862.056863,-10658.965565,-370.102971,1149.143247
3862.057193,-10214.842000,592.164754,2528.115143
3862.057522,-9400.615463,-74.020594,1762.019645
3862.057852,-9178.553681,1332.370696,766.095498
3862.058182,-10066.800811,888.247130,306.438199
3862.058511,-10658.965565,1332.370696,-153.219100
3862.058841,-10881.027347,1628.453072,-459.657299
3862.059171,-10955.047942,888.247130,-1378.971896
3862.059500,-10214.842000,444.123565,-689.485948
3862.059830,-9178.553681,296.082377,-536.266849
3862.060160,-9178.553681,444.123565,153.219100
3862.060489,-9918.759623,0.000000,-612.876398
3862.060819,-10140.821405,962.267725,-1149.143247
3862.061148,-10214.842000,666.185348,-1149.143247
3862.061478,-10288.862594,444.123565,-612.876398
3862.061808,-10881.027347,0.000000,459.657299
3862.062137,-9918.759623,-740.205942,1149.143247
3862.062467,-9104.533087,-1184.329507,153.219100
3862.062797,-7846.182985,-1184.329507,-612.876398
3862.063126,-8364.327145,-1110.308913,0.000000
3862.063456,-9992.780217,-740.205942,1455.581446
3862.063786,-9548.656652,-1110.308913,1455.581446
3862.064115,-9030.512492,74.020594,842.705048
3862.064445,-9178.553681,-222.061783,-153.219100
3862.064775,-10066.800811,-296.082377,153.219100
3862.065104,-10510.924376,-222.061783,0.000000
3862.065434,-10066.800811,-518.144159,-995.924147
3862.065764,-9400.615463,-814.226536,-1608.800546
3862.066093,-9400.615463,-814.226536,0.000000
3862.066423,-8068.244768,-148.041188,536.266849
3862.066753,-9844.739029,-518.144159,-306.438199
3862.067082,-10436.903782,0.000000,-995.924147
3862.067412,-10732.986159,-814.226536,-842.705048
3862.067742,-9918.759623,370.102971,-766.095498
3862.068071,-9992.780217,-740.205942,383.047749
3862.068401,-10436.903782,-296.082377,766.095498
3862.068731,-9030.512492,-518.144159,1685.410096
3862.069060,-9104.533087,-1036.288319,1225.752797
3862.069390,-9918.759623,518.144159,1455.581446
3862.069720,-11917.315666,592.164754,612.876398
3862.070049,-11843.295072,0.000000,0.000000
3862.070379,-9696.697840,-666.185348,0.000000
3862.070709,-7994.224174,0.000000,842.705048
3862.071038,-9844.739029,-740.205942,766.095498
3862.071368,-10807.006753,74.020594,842.705048
3862.071698,-8660.409521,-518.144159,459.657299
3862.072027,-7698.141797,444.123565,-229.828649
3862.072357,-9252.574275,74.020594,536.266849
3862.072687,-10881.027347,814.226536,1455.581446
3862.073016,-9992.780217,296.082377,1225.752797
3862.073346,-10140.821405,444.123565,153.219100
3862.073676,-9770.718434,0.000000,-306.438199
3862.074005,-10436.903782,0.000000,-76.609550
3862.074335,-10066.800811,0.000000,689.485948
3862.074664,-9548.656652,148.041188,1378.971896
3862.074994,-9178.553681,814.226536,383.047749
3862.075324,-9622.677246,-370.102971,-306.438199
3862.075653,-9178.553681,592.164754,0.000000
3862.075983,-9326.594869,-296.082377,0.000000
3862.076313,-10214.842000,1184.329507,76.609550
3862.076642,-10140.821405,888.247130,612.876398
3862.076972,-10732.986159,592.164754,-306.438199
3862.077302,-9474.636058,222.061783,0.000000
3862.077631,-9548.656652,0.000000,536.266849
3862.077961,-11103.089130,740.205942,919.314598
3862.078291,-10436.903782,74.020594,1532.190996
3862.078620,-8660.409521,296.082377,995.924147
3862.078950,-8142.265362,296.082377,612.876398
3862.079280,-9770.718434,1258.350101,0.000000
3862.079609,-10881.027347,0.000000,0.000000
3862.079939,-10140.821405,1998.556043,919.314598
3862.080269,-9770.718434,814.226536,229.828649
3862.080598,-9696.697840,1110.308913,0.000000
3862.080928,-9622.677246,518.144159,-612.876398
3862.081258,-10881.027347,1554.432478,-612.876398
3862.081587,-10658.965565,1258.350101,-536.266849
3862.081917,-11103.089130,444.123565,-689.485948
3862.082247,-9696.697840,-74.020594,-1072.533697
3862.082576,-9104.533087,-666.185348,-766.095498
3862.082906,-9326.594869,148.041188,-383.047749
3862.083236,-9548.656652,-740.205942,-459.657299
3862.083565,-8068.244768,370.102971,-76.609550
3862.083895,-8364.327145,-592.164754,689.485948
3862.084225,-9474.636058,814.226536,1302.362347
3862.084554,-11029.068536,-222.061783,2068.457845
3862.084884,-12435.459826,518.144159,1991.848295
3862.085214,-10584.944971,-962.267725,1302.362347
3862.085543,-9104.533087,-1110.308913,-306.438199
3862.085873,-8586.388927,-1036.288319,-689.485948
3862.086203,-10140.821405,-1480.411884,306.438199
3862.086532,-9400.615463,-370.102971,766.095498
3862.086862,-8438.347739,0.000000,-842.705048
3862.087192,-9252.574275,370.102971,-1762.019645
3862.087521,-10362.883188,0.000000,-2987.772442
3862.087851,-10510.924376,0.000000,-1991.848295
3862.088180,-9918.759623,-1406.391290,-766.095498
3862.088510,-9178.553681,-370.102971,919.314598
3862.088840,-9400.615463,-1258.350101,1762.019645
3862.089169,-9696.697840,-1406.391290,1149.143247
3862.089499,-9918.759623,-814.226536,536.266849
3862.089829,-10807.006753,-592.164754,229.828649
3862.090158,-10658.965565,-1406.391290,-689.485948
3862.090488,-10658.965565,-1628.453072,306.438199
3862.090818,-9400.615463,-1554.432478,1685.410096
3862.091147,-9178.553681,-1480.411884,1225.752797
3862.091477,-7846.182985,-1332.370696,-229.828649
3862.091807,-7772.162391,-1776.494261,-995.924147
3862.092136,-8882.471304,74.020594,-919.314598
3862.092466,-10436.903782,-148.041188,0.000000
3862.092796,-11473.192101,296.082377,919.314598
3862.093125,-10510.924376,0.000000,766.095498
3862.093455,-10214.842000,0.000000,229.828649
3862.093785,-10658.965565,-592.164754,766.095498
3862.094114,-11325.150913,-148.041188,459.657299
3862.094444,-9474.636058,-296.082377,306.438199
3862.094774,-8734.430116,-370.102971,0.000000
3862.095103,-8660.409521,1184.329507,1072.533697
3862.095433,-10955.047942,592.164754,842.705048
3862.095763,-10362.883188,740.205942,-306.438199
3862.096092,-10140.821405,222.061783,-1455.581446
3862.096422,-9178.553681,74.020594,-1838.629195
3862.096752,-9178.553681,-518.144159,-383.047749
3862.097081,-9844.739029,0.000000,1685.410096
3862.097411,-8882.471304,148.041188,2298.286494
3862.097741,-8290.306550,148.041188,1072.533697
3862.098070,-8660.409521,222.061783,1455.581446
3862.098400,-10066.800811,518.144159,919.314598
3862.098730,-11843.295072,1036.288319,1915.238745
3862.099059,-11621.233289,1036.288319,2757.943793
3862.099389,-8734.430116,296.082377,1838.629195
3862.099719,-7698.141797,740.205942,1378.971896
3862.100048,-9252.574275,1406.391290,689.485948
3862.100378,-10881.027347,2072.576638,-1072.533697
3862.100708,-9844.739029,1776.494261,-2834.553343
3862.101037,-9770.718434,1258.350101,-2681.334243
3862.101367,-9548.656652,1776.494261,76.609550
3862.101696,-10955.047942,1702.473667,1608.800546
3862.102026,-10955.047942,1776.494261,1149.143247
3862.102356,-9252.574275,888.247130,229.828649
3862.102685,-9400.615463,888.247130,-995.924147
3862.103015,-10288.862594,666.185348,-842.705048
3862.103345,-11843.295072,962.267725,995.924147
3862.103674,-9474.636058,518.144159,1838.629195
3862.104004,-7994.224174,74.020594,383.047749
3862.104334,-8364.327145,888.247130,76.609550
3862.104663,-10658.965565,296.082377,153.219100
3862.104993,-10658.965565,740.205942,-766.095498
3862.105323,-9992.780217,-74.020594,-1225.752797
3862.105652,-9252.574275,148.041188,459.657299
3862.105982,-8882.471304,-666.185348,2681.334243
3862.106312,-9770.718434,74.020594,2451.505594
3862.106641,-9104.533087,-444.123565,1072.533697
3862.106971,-8956.491898,-222.061783,-612.876398
3862.107301,-9696.697840,296.082377,-306.438199
3862.107630,-11251.130318,0.000000,1915.238745
3862.107960,-10362.883188,740.205942,2451.505594
3862.108290,-9844.739029,518.144159,689.485948
3862.108619,-9548.656652,962.267725,-1838.629195
3862.108949,-10732.986159,0.000000,-2911.162892
3862.109279,-10436.903782,592.164754,-1915.238745
3862.109608,-9622.677246,-666.185348,459.657299
3862.109938,-9252.574275,518.144159,383.047749
3862.110268,-8956.491898,0.000000,-459.657299
3862.110597,-9918.759623,148.041188,-689.485948
3862.110927,-10584.944971,0.000000,-383.047749
3862.111257,-10214.842000,-592.164754,-842.705048
3862.111586,-9548.656652,-962.267725,1225.752797
3862.111916,-10658.965565,-1776.494261,612.876398
3862.112246,-10066.800811,-518.144159,612.876398
3862.112575,-8734.430116,-888.247130,76.609550
3862.112905,-9326.594869,-888.247130,-842.705048
3862.113235,-9474.636058,-1258.350101,-842.705048
3862.113564,-9918.759623,0.000000,1149.143247
3862.113894,-9918.759623,-1480.411884,2757.943793
3862.114224,-8364.327145,-444.123565,1838.629195
3862.114553,-7550.100608,-1406.391290,459.657299
3862.114883,-9918.759623,0.000000,-1302.362347
3862.115212,-11695.253884,-1110.308913,-1225.752797
3862.115542,-10658.965565,-370.102971,919.314598
3862.115872,-8734.430116,-296.082377,1149.143247
3862.116201,-10066.800811,444.123565,1225.752797
3862.116531,-9770.718434,-222.061783,0.000000
3862.116861,-10362.883188,0.000000,-1838.629195
3862.117190,-9474.636058,814.226536,-1225.752797
3862.117520,-10584.944971,0.000000,-995.924147
3862.117850,-9548.656652,740.205942,-766.095498
3862.118179,-10288.862594,-666.185348,0.000000
3862.118509,-9918.759623,-296.082377,-229.828649
3862.118839,-10214.842000,74.020594,0.000000
3862.119169,-11251.130318,-222.061783,-459.657299
3862.119498,-10214.842000,-1554.432478,0.000000
3862.119828,-8512.368333,-814.226536,1072.533697
3862.120158,-8586.388927,-148.041188,2374.896044
3862.120488,-9252.574275,-666.185348,1455.581446
3862.120818,-8882.471304,-814.226536,76.609550
3862.121148,-9474.636058,-1554.432478,459.657299
3862.121478,-9474.636058,-222.061783,1225.752797
3862.121808,-10066.800811,-296.082377,1685.410096
3862.122138,-10140.821405,666.185348,1455.581446
3862.122467,-9474.636058,-444.123565,0.000000
3862.122797,-9252.574275,370.102971,-1838.629195
3862.123127,-9696.697840,0.000000,-1762.019645
3862.123457,-11325.150913,1110.308913,-1225.752797
3862.123787,-11103.089130,-222.061783,-536.266849
3862.124117,-8364.327145,518.144159,0.000000
3862.124447,-8364.327145,0.000000,-306.438199
3862.124777,-10288.862594,518.144159,-1685.410096
3862.125106,-9104.533087,-296.082377,-1072.533697
3862.125436,-9474.636058,-74.020594,153.219100
3862.125766,-9696.697840,592.164754,1302.362347
3862.126096,-11399.171507,0.000000,2451.505594
3862.126426,-10732.986159,0.000000,1455.581446
3862.126756,-9252.574275,-888.247130,459.657299
3862.127086,-9622.677246,-370.102971,0.000000
3862.127416,-9548.656652,-518.144159,383.047749
3862.127745,-10066.800811,-148.041188,1532.190996
3862.128075,-8882.471304,-814.226536,2604.724693
3862.128405,-8068.244768,518.144159,2451.505594
3862.128735,-9918.759623,814.226536,1762.019645
3862.129065,-11769.274478,1110.308913,842.705048
3862.129395,-10955.047942,1110.308913,1149.143247
3862.129725,-10658.965565,1332.370696,1072.533697
3862.130055,-11103.089130,1480.411884,229.828649
3862.130384,-10807.006753,1184.329507,-383.047749
3862.130714,-9696.697840,1036.288319,-766.095498
3862.131044,-9918.759623,666.185348,0.000000
3862.131374,-9474.636058,740.205942,0.000000
3862.131704,-8808.450710,222.061783,229.828649
3862.132034,-9474.636058,1332.370696,1762.019645
3862.132364,-10658.965565,1258.350101,1149.143247
3862.132694,-10807.006753,1184.329507,-1302.362347
3862.133024,-9622.677246,518.144159,-1685.410096
3862.133353,-10288.862594,148.041188,0.000000
3862.133683,-10732.986159,0.000000,1838.629195
3862.134013,-10510.924376,-296.082377,2145.067394
3862.134343,-8068.244768,-444.123565,1378.971896
3862.134673,-7698.141797,-740.205942,0.000000
3862.135003,-7772.162391,74.020594,-306.438199
3862.135333,-9770.718434,592.164754,153.219100
3862.135663,-10658.965565,1184.329507,229.828649
3862.135992,-9474.636058,444.123565,0.000000
3862.136322,-9622.677246,1628.453072,-76.609550
3862.136652,-10955.047942,1332.370696,-689.485948
3862.136982,-11769.274478,1036.288319,-2681.334243
3862.137312,-9844.739029,222.061783,-2757.943793
3862.137642,-9474.636058,148.041188,-766.095498
3862.137972,-9918.759623,444.123565,919.314598
3862.138302,-9770.718434,-666.185348,459.657299
3862.138631,-8956.491898,0.000000,0.000000
3862.138961,-8956.491898,-592.164754,-1072.533697
3862.139291,-9548.656652,222.061783,-1072.533697
3862.139621,-10436.903782,-962.267725,-842.705048
3862.139951,-9770.718434,-518.144159,1072.533697
3862.140281,-9400.615463,-1184.329507,1149.143247
3862.140611,-9252.574275,-814.226536,612.876398
3862.140941,-10066.800811,-1332.370696,0.000000
3862.141270,-10066.800811,-814.226536,-689.485948
3862.141600,-8660.409521,-1406.391290,766.095498
3862.141930,-9400.615463,-518.144159,1762.019645
3862.142260,-9696.697840,0.000000,2298.286494
3862.142590,-10584.944971,-592.164754,995.924147
3862.142920,-9474.636058,148.041188,-1455.581446
3862.143250,-8956.491898,-1332.370696,-1915.238745
3862.143580,-8808.450710,518.144159,-1225.752797
3862.143909,-10510.924376,-1258.350101,76.609550
3862.144239,-11325.150913,-518.144159,1455.581446
3862.144569,-10436.903782,-370.102971,1915.238745
3862.144899,-10362.883188,148.041188,76.609550
3862.145229,-10362.883188,-814.226536,-1072.533697
3862.145559,-9844.739029,-518.144159,229.828649
3862.145889,-9474.636058,-222.061783,1991.848295
3862.146219,-10066.800811,-222.061783,2451.505594
3862.146549,-10362.883188,222.061783,612.876398
3862.146878,-11695.253884,-592.164754,-1302.362347
3862.147208,-9548.656652,-888.247130,-1762.019645
3862.147538,-9326.594869,-1184.329507,-306.438199
3862.147868,-9770.718434,-148.041188,766.095498
3862.148198,-9178.553681,-1258.350101,306.438199
3862.148528,-9178.553681,-444.123565,459.657299
3862.148858,-8808.450710,-666.185348,153.219100
3862.149188,-9992.780217,-666.185348,306.438199
3862.149517,-9770.718434,-592.164754,1302.362347
3862.149847,-9474.636058,-296.082377,2911.162892
3862.150177,-9030.512492,666.185348,2604.724693
3862.150507,-9844.739029,518.144159,1225.752797
3862.150837,-10658.965565,1036.288319,-383.047749
3862.151167,-11103.089130,666.185348,-995.924147
3862.151497,-10584.944971,1776.494261,-612.876398
3862.151827,-10214.842000,370.102971,-459.657299
3862.152156,-9030.512492,518.144159,-306.438199
3862.152486,-8512.368333,518.144159,0.000000
3862.152816,-8660.409521,1110.308913,0.000000
3862.153146,-9474.636058,1110.308913,-766.095498
3862.153476,-10658.965565,1998.556043,-1685.410096
3862.153806,-10066.800811,592.164754,-1378.971896
3862.154136,-10066.800811,1554.432478,0.000000
3862.154466,-10288.862594,962.267725,995.924147
3862.154795,-10732.986159,518.144159,2221.676944
3862.155125,-10436.903782,666.185348,1685.410096
3862.155455,-9474.636058,740.205942,1072.533697
3862.155785,-8956.491898,222.061783,153.219100
3862.156115,-8956.491898,-444.123565,766.095498
3862.156445,-9030.512492,1406.391290,2221.676944
3862.156775,-9474.636058,370.102971,2068.457845
3862.157105,-10214.842000,1184.329507,-306.438199
3862.157434,-9696.697840,444.123565,-1149.143247
3862.157764,-9326.594869,1036.288319,-1685.410096
3862.158094,-9178.553681,444.123565,-1072.533697
3862.158424,-9548.656652,1258.350101,76.609550
3862.158754,-9104.533087,888.247130,766.095498
3862.159084,-9992.780217,1332.370696,0.000000
3862.159414,-9548.656652,1258.350101,-919.314598
3862.159744,-11843.295072,740.205942,-383.047749
3862.160074,-11473.192101,222.061783,-612.876398
3862.160403,-10288.862594,-518.144159,0.000000
3862.160733,-8956.491898,296.082377,0.000000
3862.161063,-8660.409521,-592.164754,-153.219100
3862.161393,-9252.574275,-592.164754,-536.266849
3862.161723,-9104.533087,0.000000,-919.314598
3862.162053,-10881.027347,518.144159,-995.924147
3862.162383,-10436.903782,-296.082377,0.000000
3862.162713,-9474.636058,-296.082377,153.219100
3862.163042,-8586.388927,-592.164754,1455.581446
3862.163372,-9622.677246,-814.226536,1608.800546
3862.163702,-10214.842000,-444.123565,995.924147
3862.164032,-10584.944971,-666.185348,1072.533697
3862.164362,-9400.615463,-222.061783,153.219100
3862.164692,-9696.697840,-296.082377,-306.438199
3862.165022,-10362.883188,740.205942,0.000000
3862.165352,-11399.171507,0.000000,459.657299
3862.165681,-10658.965565,370.102971,-229.828649
3862.166011,-9326.594869,0.000000,-1915.238745
3862.166341,-9178.553681,-962.267725,-2221.676944
3862.166671,-9400.615463,-1110.308913,-306.438199
3862.167001,-10066.800811,-592.164754,1149.143247
3862.167331,-10066.800811,-444.123565,919.314598
3862.167661,-11251.130318,-888.247130,153.219100
3862.167991,-10807.006753,-1480.411884,229.828649
3862.168320,-9770.718434,-2072.576638,919.314598
3862.168650,-8956.491898,-1406.391290,2068.457845
3862.168980,-9104.533087,-2368.659014,2221.676944
3862.169310,-8364.327145,-1850.514855,1838.629195
3862.169640,-8808.450710,-1924.535449,1225.752797
3862.169970,-9918.759623,-592.164754,689.485948
3862.170300,-10066.800811,-1332.370696,229.828649
3862.170630,-10066.800811,-518.144159,536.266849
3862.170960,-7846.182985,-1036.288319,1072.533697
3862.171289,-8882.471304,-296.082377,1378.971896
3862.171619,-8660.409521,-444.123565,229.828649
3862.171949,-9844.739029,-296.082377,76.609550
3862.172279,-10732.986159,592.164754,153.219100
3862.172609,-10807.006753,444.123565,229.828649
3862.172939,-9992.780217,370.102971,842.705048
3862.173269,-9400.615463,1110.308913,612.876398
3862.173599,-10436.903782,1406.391290,-919.314598
3862.173928,-10510.924376,296.082377,-1838.629195
3862.174258,-8882.471304,1110.308913,-3294.210641
3862.174588,-9622.677246,74.020594,-1608.800546
3862.174918,-10214.842000,592.164754,-842.705048
3862.175248,-9548.656652,148.041188,842.705048
3862.175578,-9474.636058,444.123565,536.266849
3862.175908,-9474.636058,444.123565,-229.828649
3862.176238,-10436.903782,0.000000,-842.705048
3862.176567,-10362.883188,222.061783,229.828649
3862.176897,-10066.800811,148.041188,459.657299
3862.177227,-9622.677246,370.102971,2221.676944
3862.177557,-9696.697840,-592.164754,1991.848295
3862.177887,-9918.759623,296.082377,1225.752797
3862.178217,-9252.574275,-592.164754,612.876398
3862.178547,-9252.574275,370.102971,-383.047749
3862.178877,-8882.471304,888.247130,-689.485948
3862.179206,-9326.594869,962.267725,-612.876398
3862.179536,-9622.677246,666.185348,229.828649
3862.179866,-10658.965565,888.247130,0.000000
3862.180196,-11621.233289,1332.370696,-1608.800546
3862.180526,-10955.047942,740.205942,-2681.334243
3862.180856,-9030.512492,74.020594,-1608.800546
3862.181186,-9474.636058,-592.164754,842.705048
3862.181516,-9104.533087,74.020594,1915.238745
3862.181845,-9104.533087,-296.082377,1302.362347
3862.182175,-8882.471304,888.247130,-612.876398
3862.182505,-9844.739029,-148.041188,-1685.410096
3862.182835,-10510.924376,222.061783,-612.876398
3862.183165,-10658.965565,-222.061783,842.705048
3862.183495,-10584.944971,148.041188,1149.143247
3862.183825,-8956.491898,-1480.411884,1149.143247
3862.184155,-8512.368333,-888.247130,1072.533697
3862.184485,-7846.182985,-814.226536,766.095498
3862.184814,-9178.553681,-222.061783,-459.657299
3862.185144,-9548.656652,148.041188,383.047749
3862.185474,-10436.903782,370.102971,1072.533697
3862.185804,-10066.800811,74.020594,2221.676944
3862.186134,-9622.677246,-444.123565,1991.848295
3862.186464,-9992.780217,740.205942,1149.143247
3862.186794,-10362.883188,74.020594,76.609550
3862.187124,-10288.862594,1036.288319,-306.438199
3862.187453,-10584.944971,0.000000,-306.438199
3862.187783,-10658.965565,666.185348,0.000000
3862.188113,-9548.656652,0.000000,1149.143247
3862.188443,-9474.636058,666.185348,1838.629195
3862.188773,-9770.718434,740.205942,842.705048
3862.189103,-11473.192101,814.226536,0.000000
3862.189433,-11325.150913,148.041188,-919.314598
3862.189763,-9918.759623,-444.123565,-1225.752797
3862.190092,-7698.141797,-444.123565,229.828649
3862.190422,-9326.594869,-296.082377,2221.676944
3862.190752,-10658.965565,740.205942,2298.286494
3862.191082,-9178.553681,-592.164754,0.000000
3862.191412,-8290.306550,222.061783,-1149.143247
3862.191742,-9104.533087,222.061783,-766.095498
3862.192072,-11029.068536,962.267725,1838.629195
3862.192402,-11103.089130,370.102971,2145.067394
3862.192731,-9770.718434,666.185348,612.876398
3862.193061,-8734.430116,0.000000,-1072.533697
3862.193391,-9918.759623,-444.123565,-2145.067394
3862.193721,-10214.842000,-444.123565,-1302.362347
3862.194051,-9252.574275,148.041188,383.047749
3862.194381,-7179.997637,0.000000,1378.971896
3862.194711,-8734.430116,666.185348,1302.362347
3862.195041,-10214.842000,1406.391290,-459.657299
3862.195371,-11917.315666,-296.082377,-1072.533697
3862.195700,-11177.109724,592.164754,-612.876398
3862.196030,-10066.800811,-518.144159,229.828649
3862.196360,-10732.986159,962.267725,919.314598
3862.196690,-9992.780217,-296.082377,153.219100
3862.197020,-9844.739029,-370.102971,-1608.800546
3862.197350,-9326.594869,222.061783,-2374.896044
3862.197680,-9844.739029,-518.144159,-2757.943793
3862.198010,-9326.594869,-1184.329507,-1762.019645
3862.198339,-7254.018232,-1776.494261,0.000000
3862.198669,-7105.977043,-666.185348,2604.724693
3862.198999,-9326.594869,-814.226536,2757.943793
3862.199329,-11621.233289,0.000000,383.047749
3862.199659,-11177.109724,-1702.473667,-1149.143247
3862.199989,-9400.615463,-888.247130,0.000000
3862.200319,-8956.491898,-1110.308913,1608.800546
3862.200649,-11325.150913,0.000000,2757.943793
3862.200978,-11917.315666,-740.205942,1838.629195
3862.201308,-9474.636058,-592.164754,-919.314598
3862.201638,-6809.894666,-222.061783,-3907.087040
3862.201968,-8734.430116,0.000000,-3753.867940
3862.202298,-10881.027347,0.000000,-1685.410096
3862.202628,-10807.006753,0.000000,842.705048
3862.202958,-9400.615463,148.041188,842.705048
3862.203288,-9178.553681,-222.061783,-383.047749
3862.203617,-10510.924376,148.041188,-536.266849
3862.203947,-11621.233289,-444.123565,-383.047749
3862.204277,-10214.842000,-444.123565,459.657299
3862.204607,-9918.759623,-888.247130,2145.067394
3862.204937,-9622.677246,-740.205942,2451.505594
3862.205267,-9770.718434,-962.267725,2221.676944
3862.205597,-8586.388927,-148.041188,1378.971896
3862.205927,-8216.285956,-814.226536,766.095498
3862.206256,-9326.594869,-1036.288319,0.000000
3862.206586,-8882.471304,444.123565,1225.752797
3862.206916,-10288.862594,1184.329507,1532.190996
3862.207246,-9326.594869,592.164754,306.438199
3862.207576,-9844.739029,0.000000,0.000000
3862.207906,-10288.862594,1110.308913,0.000000
3862.208236,-11029.068536,-518.144159,306.438199
3862.208566,-10288.862594,962.267725,459.657299
3862.208896,-8512.368333,1036.288319,1838.629195
3862.209225,-9400.615463,1998.556043,2221.676944
3862.209555,-10732.986159,1628.453072,1225.752797
3862.209885,-11843.295072,2664.741391,0.000000
3862.210215,-11325.150913,1998.556043,-1762.019645
3862.210545,-9326.594869,592.164754,-2145.067394
3862.210875,-8734.430116,370.102971,229.828649
3862.211205,-10140.821405,148.041188,2987.772442
3862.211535,-9474.636058,888.247130,3983.696590
3862.211864,-9622.677246,962.267725,2451.505594
3862.212194,-9918.759623,1406.391290,-536.266849
3862.212524,-10066.800811,888.247130,-1225.752797
3862.212854,-10584.944971,1628.453072,76.609550
3862.213184,-9918.759623,74.020594,2451.505594
3862.213514,-9474.636058,1110.308913,2451.505594
3862.213844,-9474.636058,740.205942,536.266849
3862.214174,-9252.574275,444.123565,-1378.971896
3862.214503,-7994.224174,296.082377,-1915.238745
3862.214833,-9326.594869,1184.329507,-842.705048
3862.215163,-10658.965565,1628.453072,229.828649
3862.215493,-11177.109724,1332.370696,766.095498
3862.215823,-9992.780217,1036.288319,76.609550
3862.216153,-9474.636058,666.185348,0.000000
3862.216483,-10658.965565,1184.329507,-1072.533697
3862.216813,-11399.171507,0.000000,-1225.752797
3862.217142,-9770.718434,0.000000,-1532.190996
3862.217472,-8734.430116,-666.185348,-76.609550
3862.217802,-8586.388927,222.061783,536.266849
3862.218132,-9474.636058,0.000000,536.266849
3862.218462,-10732.986159,74.020594,-919.314598
3862.218792,-8512.368333,-1036.288319,-2528.115143
3862.219122,-7994.224174,-1184.329507,-1608.800546
3862.219452,-8660.409521,-962.267725,306.438199
3862.219781,-10066.800811,-1554.432478,1149.143247
3862.220111,-9548.656652,-1036.288319,1455.581446
3862.220441,-8734.430116,-1258.350101,306.438199
3862.220771,-10288.862594,-666.185348,-1225.752797
3862.221101,-11251.130318,-222.061783,-1838.629195
3862.221431,-10066.800811,-740.205942,0.000000
3862.221761,-9104.533087,-962.267725,1608.800546
3862.222091,-8956.491898,-74.020594,1378.971896
3862.222420,-9844.739029,444.123565,919.314598
3862.222750,-11251.130318,-222.061783,-1991.848295
3862.223080,-10066.800811,-518.144159,-3830.477490
3862.223410,-9400.615463,-148.041188,-2221.676944
3862.223740,-10881.027347,592.164754,-536.266849
3862.224070,-11769.274478,-666.185348,1455.581446
3862.224400,-9622.677246,-740.205942,1072.533697
3862.224730,-8290.306550,-1554.432478,-1149.143247
3862.225059,-8956.491898,-740.205942,-1532.190996
3862.225389,-10658.965565,-1850.514855,76.609550
3862.225719,-9770.718434,-1184.329507,3217.601092
3862.226049,-8364.327145,-1628.453072,4290.134789
3862.226379,-9252.574275,-444.123565,3447.429741
3862.226709,-11325.150913,-1110.308913,1378.971896
3862.227039,-10807.006753,-814.226536,-306.438199
3862.227368,-9400.615463,-1036.288319,612.876398
3862.227698,-9474.636058,-370.102971,1838.629195
3862.228028,-9030.512492,-222.061783,1302.362347
3862.228358,-9548.656652,0.000000,1072.533697
3862.228688,-9400.615463,0.000000,-459.657299
3862.229018,-9770.718434,-296.082377,-689.485948
3862.229348,-9474.636058,814.226536,-306.438199
3862.229678,-9844.739029,296.082377,919.314598
3862.230007,-9548.656652,1110.308913,1915.238745
3862.230337,-9622.677246,222.061783,2221.676944
3862.230667,-10510.924376,888.247130,995.924147
3862.230997,-11103.089130,518.144159,-306.438199
3862.231327,-11103.089130,1332.370696,-459.657299
3862.231657,-10362.883188,370.102971,0.000000
3862.231987,-9918.759623,296.082377,-612.876398
3862.232317,-8586.388927,0.000000,-536.266849
3862.232646,-8512.368333,296.082377,-842.705048
3862.232976,-8956.491898,222.061783,-612.876398
3862.233306,-9622.677246,74.020594,-536.266849
3862.233636,-8438.347739,592.164754,-536.266849
3862.233966,-8512.368333,296.082377,766.095498
3862.234296,-9696.697840,1110.308913,2451.505594
3862.234626,-10955.047942,1258.350101,2757.943793
3862.234955,-11103.089130,1332.370696,1608.800546
3862.235285,-10584.944971,592.164754,-306.438199
3862.235615,-10214.842000,518.144159,-383.047749
3862.235945,-9326.594869,370.102971,-306.438199
3862.236275,-8660.409521,888.247130,-689.485948
3862.236605,-8068.244768,1036.288319,-383.047749
3862.236935,-9104.533087,1628.453072,-1608.800546
3862.237265,-9622.677246,1332.370696,-1838.629195
3862.237594,-10288.862594,1628.453072,-1915.238745
3862.237924,-10066.800811,1406.391290,-1991.848295
3862.238254,-11177.109724,740.205942,-1378.971896
3862.238584,-10584.944971,1036.288319,229.828649
3862.238914,-9400.615463,0.000000,766.095498
3862.239244,-9918.759623,148.041188,76.609550
3862.239574,-10214.842000,74.020594,-459.657299
3862.239904,-10807.006753,-370.102971,0.000000
3862.240233,-8956.491898,-148.041188,459.657299
3862.240563,-8438.347739,-370.102971,1532.190996
3862.240893,-9844.739029,148.041188,2681.334243
3862.241223,-9030.512492,-296.082377,383.047749
3862.241553,-9030.512492,0.000000,-536.266849
3862.241883,-10140.821405,814.226536,-1532.190996
3862.242213,-10955.047942,370.102971,-842.705048
3862.242543,-10881.027347,74.020594,612.876398
3862.242872,-9770.718434,-814.226536,689.485948
3862.243202,-9770.718434,-1258.350101,536.266849
3862.243532,-9400.615463,-1258.350101,689.485948
3862.243862,-9326.594869,-444.123565,1225.752797
3862.244192,-9474.636058,-370.102971,0.000000
3862.244522,-9326.594869,0.000000,-459.657299
3862.244852,-10288.862594,444.123565,0.000000
3862.245181,-11029.068536,0.000000,995.924147
3862.245511,-11843.295072,222.061783,995.924147
3862.245841,-11251.130318,-1332.370696,-153.219100
3862.246171,-9548.656652,-2072.576638,-919.314598
3862.246501,-8512.368333,-1924.535449,0.000000
3862.246831,-8882.471304,-1850.514855,1072.533697
3862.247161,-8882.471304,-1702.473667,1455.581446
3862.247491,-8364.327145,-740.205942,1455.581446
3862.247820,-8660.409521,-740.205942,612.876398
3862.248150,-11473.192101,-740.205942,536.266849
3862.248480,-11103.089130,-518.144159,1149.143247
3862.248810,-10066.800811,-1332.370696,919.314598
3862.249140,-8660.409521,-518.144159,536.266849
3862.249470,-8364.327145,-814.226536,766.095498
3862.249800,-10140.821405,-888.247130,1685.410096
3862.250130,-9696.697840,148.041188,2604.724693
3862.250459,-10214.842000,74.020594,1302.362347
3862.250789,-9474.636058,1036.288319,-689.485948
3862.251119,-9696.697840,962.267725,-766.095498
3862.251449,-10881.027347,814.226536,0.000000
3862.251779,-10955.047942,814.226536,0.000000
3862.252109,-10214.842000,1110.308913,-689.485948
3862.252439,-9844.739029,444.123565,-995.924147
3862.252769,-9548.656652,666.185348,-995.924147
3862.253098,-9474.636058,0.000000,0.000000
3862.253428,-9696.697840,74.020594,1915.238745
3862.253758,-8956.491898,148.041188,1838.629195
3862.254088,-10288.862594,518.144159,2068.457845
3862.254418,-10658.965565,1036.288319,2145.067394
3862.254748,-10955.047942,888.247130,995.924147
3862.255078,-9326.594869,1332.370696,0.000000
3862.255407,-9252.574275,222.061783,-459.657299
3862.255737,-9918.759623,592.164754,-229.828649
3862.256067,-9696.697840,740.205942,995.924147
3862.256397,-9252.574275,296.082377,689.485948
3862.256727,-7994.224174,444.123565,-383.047749
3862.257057,-7031.956449,592.164754,-383.047749
3862.257387,-9400.615463,1332.370696,1149.143247
3862.257717,-11621.233289,2368.659014,1532.190996
3862.258046,-11325.150913,1554.432478,153.219100
3862.258376,-9992.780217,1184.329507,-1378.971896
3862.258706,-9844.739029,370.102971,-919.314598
3862.259036,-10362.883188,370.102971,-306.438199
3862.259366,-9992.780217,444.123565,0.000000
3862.259696,-8956.491898,74.020594,-1072.533697
3862.260026,-7994.224174,296.082377,-1072.533697
3862.260356,-8364.327145,0.000000,-766.095498
3862.260685,-9770.718434,0.000000,0.000000
3862.261015,-10214.842000,74.020594,1532.190996
3862.261345,-9326.594869,518.144159,919.314598
3862.261675,-8586.388927,0.000000,-459.657299
3862.262005,-9770.718434,0.000000,-1149.143247
3862.262335,-10881.027347,0.000000,-306.438199
3862.262665,-11177.109724,0.000000,1149.143247
3862.262994,-10214.842000,148.041188,995.924147
3862.263324,-9918.759623,-666.185348,306.438199
3862.263654,-8660.409521,-962.267725,0.000000
3862.263984,-8956.491898,-814.226536,76.609550
3862.264314,-9104.533087,-222.061783,0.000000
3862.264644,-8586.388927,-666.185348,-383.047749
3862.264974,-9252.574275,592.164754,-229.828649
3862.265304,-10436.903782,666.185348,842.705048
3862.265633,-11251.130318,666.185348,842.705048
3862.265963,-11399.171507,740.205942,76.609550
3862.266293,-12361.439231,-148.041188,-76.609550
3862.266623,-11399.171507,-74.020594,0.000000
3862.266953,-9104.533087,-962.267725,612.876398
3862.267283,-8438.347739,-1110.308913,153.219100
3862.267613,-9548.656652,-666.185348,536.266849
3862.267943,-9844.739029,-370.102971,153.219100
3862.268272,-8586.388927,-740.205942,-76.609550
3862.268602,-8808.450710,-296.082377,229.828649
3862.268932,-9844.739029,-518.144159,1302.362347
3862.269262,-9992.780217,-148.041188,1762.019645
3862.269592,-9622.677246,-1036.288319,2451.505594
3862.269922,-10066.800811,-444.123565,2374.896044
3862.270252,-10436.903782,-444.123565,1608.800546
3862.270582,-10510.924376,0.000000,919.314598
3862.270911,-9474.636058,-370.102971,0.000000
3862.271241,-9696.697840,-148.041188,842.705048
3862.271571,-10066.800811,592.164754,1072.533697
3862.271901,-9918.759623,-148.041188,612.876398
3862.272231,-8808.450710,296.082377,-229.828649
3862.272561,-8364.327145,666.185348,-689.485948
3862.272891,-9178.553681,666.185348,-612.876398
3862.273220,-10066.800811,74.020594,459.657299
3862.273550,-10510.924376,444.123565,842.705048
3862.273880,-10288.862594,-296.082377,536.266849
3862.274210,-10140.821405,148.041188,0.000000
3862.274540,-9992.780217,0.000000,-536.266849
3862.274870,-10658.965565,0.000000,229.828649
3862.275200,-9622.677246,148.041188,766.095498
3862.275530,-10362.883188,-148.041188,0.000000
3862.275859,-8882.471304,0.000000,-919.314598
3862.276189,-7994.224174,148.041188,-459.657299
3862.276519,-7772.162391,962.267725,-689.485948
3862.276849,-9548.656652,-222.061783,-612.876398
3862.277179,-9770.718434,222.061783,229.828649
3862.277509,-9400.615463,-370.102971,1378.971896
3862.277839,-11325.150913,518.144159,612.876398
3862.278169,-10066.800811,-592.164754,383.047749
3862.278498,-10214.842000,148.041188,842.705048
3862.278828,-9918.759623,-296.082377,536.266849
3862.279158,-9844.739029,148.041188,1072.533697
3862.279488,-9252.574275,444.123565,689.485948
3862.279818,-9252.574275,814.226536,-306.438199
3862.280148,-9548.656652,1110.308913,-842.705048
3862.280478,-9548.656652,518.144159,-229.828649
3862.280807,-9696.697840,1036.288319,-1225.752797
3862.281137,-10436.903782,444.123565,-1072.533697
3862.281467,-10510.924376,518.144159,-2068.457845
3862.281797,-10140.821405,-444.123565,-995.924147
3862.282127,-10140.821405,-222.061783,-306.438199
3862.282457,-10288.862594,-592.164754,842.705048
3862.282787,-10066.800811,0.000000,1149.143247
3862.283117,-9400.615463,148.041188,1991.848295
3862.283446,-9770.718434,-370.102971,1762.019645
3862.283776,-9178.553681,-148.041188,2528.115143
3862.284106,-9178.553681,0.000000,2604.724693
3862.284436,-11547.212695,0.000000,1302.362347
3862.284766,-10288.862594,-518.144159,-1072.533697
3862.285096,-7550.100608,0.000000,-1838.629195
3862.285426,-9030.512492,-370.102971,-229.828649
3862.285756,-9474.636058,444.123565,1072.533697
3862.286085,-10436.903782,888.247130,2221.676944
3862.286415,-10807.006753,1480.411884,0.000000
3862.286745,-10510.924376,814.226536,-2068.457845
3862.287075,-10881.027347,1110.308913,-612.876398
3862.287405,-10066.800811,814.226536,919.314598
3862.287735,-10732.986159,962.267725,995.924147
3862.288065,-9548.656652,222.061783,536.266849
3862.288395,-9178.553681,370.102971,-612.876398
3862.288724,-9622.677246,888.247130,-766.095498
3862.289054,-10732.986159,148.041188,-536.266849
3862.289384,-10510.924376,148.041188,-766.095498
3862.289714,-9696.697840,0.000000,-229.828649
3862.290044,-8216.285956,-518.144159,306.438199
3862.290374,-8956.491898,-592.164754,2221.676944
3862.290704,-9918.759623,-222.061783,1532.190996
3862.291033,-9770.718434,0.000000,766.095498
3862.291363,-9030.512492,148.041188,0.000000
3862.291693,-9622.677246,0.000000,1072.533697
3862.292023,-11103.089130,740.205942,1762.019645
3862.292353,-9844.739029,-222.061783,1072.533697
3862.292683,-9252.574275,444.123565,-76.609550
3862.293013,-8882.471304,-296.082377,-536.266849
3862.293343,-9992.780217,0.000000,689.485948
3862.293672,-9770.718434,740.205942,1149.143247
3862.294002,-9992.780217,740.205942,306.438199
3862.294332,-9770.718434,0.000000,-1378.971896
3862.294662,-9474.636058,74.020594,-995.924147
3862.294992,-10584.944971,148.041188,383.047749
3862.295322,-10066.800811,-518.144159,1149.143247
3862.295652,-9548.656652,0.000000,383.047749
3862.295982,-9696.697840,-148.041188,306.438199
3862.296311,-10955.047942,-666.185348,306.438199
3862.296641,-10362.883188,-814.226536,1072.533697
3862.296971,-9326.594869,-1110.308913,383.047749
3862.297301,-8216.285956,-1406.391290,-153.219100
3862.297631,-8364.327145,-1776.494261,-229.828649
3862.297961,-8808.450710,-1184.329507,153.219100
3862.298291,-9696.697840,-888.247130,842.705048
3862.298621,-9474.636058,-296.082377,1149.143247
3862.298950,-9548.656652,-222.061783,1225.752797
3862.299280,-9400.615463,-296.082377,-459.657299
3862.299610,-9844.739029,296.082377,842.705048
3862.299940,-11695.253884,1036.288319,919.314598
3862.300270,-11473.192101,296.082377,153.219100
3862.300600,-10066.800811,0.000000,-1915.238745
3862.300930,-9474.636058,-148.041188,-1455.581446
3862.301259,-9992.780217,74.020594,76.609550
3862.301589,-9548.656652,0.000000,306.438199
3862.301919,-9326.594869,0.000000,-306.438199
3862.302249,-7772.162391,0.000000,-1149.143247
3862.302579,-10140.821405,370.102971,-229.828649
3862.302909,-12361.439231,740.205942,842.705048
3862.303239,-12435.459826,222.061783,995.924147
3862.303569,-10214.842000,222.061783,0.000000
3862.303898,-9326.594869,-1184.329507,-229.828649
3862.304228,-10807.006753,-814.226536,0.000000
3862.304558,-9178.553681,-814.226536,612.876398
3862.304888,-7328.038826,-1110.308913,306.438199
3862.305218,-7105.977043,296.082377,766.095498
3862.305548,-10362.883188,518.144159,306.438199
3862.305878,-10584.944971,444.123565,306.438199
3862.306208,-9992.780217,444.123565,689.485948
3862.306537,-9326.594869,0.000000,0.000000
3862.306867,-9992.780217,-222.061783,459.657299
3862.307197,-10732.986159,444.123565,1378.971896
3862.307527,-9696.697840,370.102971,612.876398
3862.307857,-8882.471304,1258.350101,-995.924147
3862.308187,-9696.697840,592.164754,-1072.533697
3862.308517,-10807.006753,1036.288319,-842.705048
3862.308846,-9918.759623,1110.308913,459.657299
3862.309176,-9326.594869,1184.329507,842.705048
3862.309506,-9178.553681,74.020594,1915.238745
3862.309836,-9326.594869,444.123565,766.095498
3862.310166,-8586.388927,74.020594,0.000000
3862.310496,-9992.780217,0.000000,0.000000
3862.310826,-10288.862594,814.226536,766.095498
3862.311156,-10807.006753,-296.082377,1915.238745
3862.311485,-10436.903782,296.082377,1762.019645
3862.311815,-9770.718434,222.061783,1762.019645
3862.312145,-9770.718434,-74.020594,842.705048
3862.312475,-9104.533087,-148.041188,306.438199
3862.312805,-8882.471304,296.082377,-612.876398
3862.313135,-8882.471304,74.020594,-459.657299
3862.313465,-9548.656652,740.205942,306.438199
3862.313795,-8734.430116,222.061783,1378.971896
3862.314124,-9400.615463,1628.453072,459.657299
3862.314454,-10584.944971,1702.473667,-766.095498
3862.314784,-12213.398043,1036.288319,-536.266849
3862.315114,-10436.903782,814.226536,0.000000
3862.315444,-9696.697840,740.205942,76.609550
3862.315774,-10732.986159,592.164754,842.705048
3862.316104,-11177.109724,222.061783,1225.752797
3862.316434,-11103.089130,370.102971,612.876398
3862.316763,-9548.656652,-222.061783,-842.705048
3862.317093,-9844.739029,0.000000,-1149.143247
3862.317423,-10732.986159,0.000000,-383.047749
3862.317753,-9104.533087,-1332.370696,153.219100
3862.318083,-7402.059420,-1184.329507,153.219100
3862.318413,-8734.430116,-962.267725,0.000000
3862.318743,-11103.089130,-962.267725,689.485948
3862.319072,-10140.821405,-1628.453072,842.705048
3862.319402,-8438.347739,-1036.288319,689.485948
3862.319732,-8956.491898,-962.267725,1302.362347
3862.320062,-10214.842000,-222.061783,1532.190996
3862.320392,-10214.842000,-666.185348,1608.800546
3862.320722,-9178.553681,-444.123565,-306.438199
3862.321052,-8882.471304,-1036.288319,-995.924147
3862.321381,-9992.780217,74.020594,-766.095498
3862.321711,-10584.944971,-962.267725,-153.219100
3862.322041,-9104.533087,0.000000,-842.705048
3862.322371,-7550.100608,0.000000,-1608.800546
3862.322701,-9178.553681,148.041188,-1991.848295
3862.323031,-10584.944971,1110.308913,-383.047749
3862.323361,-10881.027347,814.226536,766.095498
3862.323690,-10436.903782,740.205942,76.609550
3862.324020,-10732.986159,222.061783,-153.219100
3862.324350,-10584.944971,0.000000,76.609550
3862.324680,-10288.862594,-814.226536,536.266849
3862.325010,-9696.697840,-592.164754,842.705048
3862.325340,-9548.656652,-1332.370696,1302.362347
3862.325669,-8882.471304,222.061783,1302.362347
3862.325999,-8142.265362,0.000000,842.705048
3862.326329,-9770.718434,444.123565,0.000000
3862.326659,-10584.944971,814.226536,0.000000
3862.326989,-11325.150913,370.102971,306.438199
3862.327319,-9474.636058,444.123565,612.876398
3862.327649,-9252.574275,370.102971,1608.800546
3862.327978,-9696.697840,370.102971,1838.629195
3862.328308,-9992.780217,0.000000,766.095498
3862.328638,-9474.636058,1184.329507,-306.438199
3862.328968,-10288.862594,962.267725,76.609550
3862.329298,-11399.171507,1628.453072,306.438199
3862.329628,-11473.192101,1332.370696,919.314598
3862.329957,-9696.697840,1110.308913,153.219100
3862.330287,-9400.615463,814.226536,-612.876398
3862.330617,-10140.821405,962.267725,-1149.143247
3862.330947,-10955.047942,370.102971,-612.876398
3862.331277,-9400.615463,0.000000,-536.266849
3862.331607,-7698.141797,148.041188,76.609550
3862.331937,-9252.574275,0.000000,1072.533697
3862.332266,-11177.109724,148.041188,689.485948
3862.332596,-10066.800811,-814.226536,153.219100
3862.332926,-8808.450710,-666.185348,0.000000
3862.333256,-8512.368333,-888.247130,766.095498
3862.333586,-9696.697840,-444.123565,1685.410096
3862.333916,-9992.780217,-962.267725,1915.238745
3862.334245,-8808.450710,-518.144159,766.095498
3862.334575,-8512.368333,0.000000,0.000000
3862.334905,-9770.718434,0.000000,-459.657299
3862.335235,-10584.944971,-148.041188,-689.485948
3862.335565,-9326.594869,-148.041188,229.828649
3862.335895,-7920.203579,148.041188,306.438199
3862.336225,-9770.718434,962.267725,-229.828649
3862.336554,-11473.192101,1332.370696,-1608.800546
3862.336884,-10807.006753,888.247130,-1991.848295
3862.337214,-10288.862594,1628.453072,0.000000
3862.337544,-11843.295072,296.082377,766.095498
3862.337874,-11769.274478,518.144159,76.609550
3862.338204,-9030.512492,-814.226536,-842.705048
3862.338534,-7920.203579,-222.061783,-1838.629195
3862.338863,-8808.450710,-370.102971,153.219100
3862.339193,-9622.677246,0.000000,1302.362347
3862.339523,-9696.697840,-148.041188,1838.629195
3862.339853,-9474.636058,518.144159,1072.533697
3862.340183,-9400.615463,-74.020594,689.485948
3862.340513,-11325.150913,148.041188,229.828649
3862.340842,-11695.253884,148.041188,153.219100
3862.341172,-10362.883188,-666.185348,766.095498
3862.341502,-8438.347739,-370.102971,3064.381992
3862.341832,-8808.450710,-222.061783,2987.772442
3862.342162,-9178.553681,0.000000,1532.190996
3862.342492,-9696.697840,-296.082377,-383.047749
3862.342822,-9474.636058,148.041188,0.000000
3862.343151,-9622.677246,148.041188,1072.533697
3862.343481,-10955.047942,1036.288319,1455.581446
3862.343811,-10807.006753,666.185348,1378.971896
3862.344141,-10658.965565,1184.329507,-153.219100
3862.344471,-9030.512492,222.061783,-1762.019645
3862.344801,-9622.677246,74.020594,-1149.143247
3862.345130,-11029.068536,666.185348,-306.438199
3862.345460,-10362.883188,-370.102971,689.485948
3862.345790,-9104.533087,-444.123565,689.485948
3862.346120,-8586.388927,-444.123565,612.876398
3862.346450,-9326.594869,-518.144159,-306.438199
3862.346780,-10732.986159,-814.226536,-612.876398
3862.347110,-9770.718434,0.000000,153.219100
3862.347439,-8956.491898,-888.247130,766.095498
3862.347769,-9548.656652,0.000000,842.705048
3862.348099,-10066.800811,-592.164754,1072.533697
3862.348429,-10362.883188,296.082377,612.876398
3862.348759,-9474.636058,-1184.329507,-1149.143247
3862.349089,-9770.718434,-370.102971,-995.924147
3862.349418,-9622.677246,-1184.329507,-306.438199
3862.349748,-8364.327145,-592.164754,612.876398
3862.350078,-8216.285956,-518.144159,612.876398
3862.350408,-9696.697840,0.000000,0.000000
3862.350738,-10066.800811,962.267725,76.609550
3862.351068,-10584.944971,962.267725,-383.047749
3862.351398,-10214.842000,1184.329507,-766.095498
3862.351727,-10732.986159,814.226536,-229.828649
3862.352057,-11695.253884,1258.350101,459.657299
3862.352387,-10510.924376,74.020594,76.609550
3862.352717,-9696.697840,592.164754,-612.876398
3862.353047,-9474.636058,1036.288319,-842.705048
3862.353377,-10881.027347,148.041188,-1072.533697
3862.353706,-9844.739029,296.082377,-995.924147
3862.354036,-9178.553681,-666.185348,536.266849
3862.354366,-9474.636058,296.082377,2528.115143
3862.354696,-9474.636058,0.000000,1685.410096
3862.355026,-8956.491898,-74.020594,-229.828649
3862.355356,-9030.512492,-888.247130,-612.876398
3862.355686,-9770.718434,-296.082377,1225.752797
3862.356015,-11029.068536,-888.247130,2221.676944
3862.356345,-10214.842000,-518.144159,1762.019645
3862.356675,-7920.203579,-592.164754,1378.971896
3862.357005,-7772.162391,222.061783,229.828649
3862.357335,-9030.512492,0.000000,612.876398
3862.357665,-10955.047942,222.061783,1072.533697
3862.357994,-11029.068536,1110.308913,383.047749
3862.358324,-9696.697840,370.102971,-1225.752797
3862.358654,-9178.553681,1036.288319,-995.924147
3862.358984,-9770.718434,222.061783,153.219100
3862.359314,-10658.965565,518.144159,0.000000
3862.359644,-10732.986159,-222.061783,-919.314598
3862.359974,-9252.574275,592.164754,-1838.629195
3862.360303,-8808.450710,148.041188,0.000000
3862.360633,-8882.471304,962.267725,1072.533697
3862.360963,-9770.718434,370.102971,1608.800546
3862.361293,-10510.924376,1036.288319,919.314598
3862.361623,-10807.006753,222.061783,-689.485948
3862.361953,-10658.965565,370.102971,-1149.143247
3862.362282,-9548.656652,-518.144159,306.438199
3862.362612,-9400.615463,-222.061783,1532.190996
3862.362942,-9104.533087,-296.082377,2145.067394
3862.363272,-9178.553681,74.020594,1455.581446
3862.363602,-8956.491898,222.061783,536.266849
3862.363932,-8882.471304,0.000000,-612.876398
3862.364262,-9844.739029,1110.308913,-229.828649
3862.364591,-11399.171507,666.185348,0.000000
3862.364921,-11473.192101,814.226536,919.314598
3862.365251,-11103.089130,0.000000,842.705048
3862.365581,-10288.862594,-370.102971,-536.266849
3862.365911,-9770.718434,-222.061783,-919.314598
3862.366241,-9252.574275,370.102971,-1302.362347
3862.366570,-8808.450710,148.041188,-842.705048
3862.366900,-9400.615463,148.041188,306.438199
3862.367230,-11103.089130,518.144159,842.705048
3862.367560,-10214.842000,-370.102971,-306.438199
3862.367890,-9326.594869,-740.205942,-459.657299
3862.368220,-9918.759623,-740.205942,0.000000
3862.368550,-10955.047942,-1036.288319,1455.581446
3862.368879,-9326.594869,-1480.411884,1225.752797
3862.369209,-8290.306550,-1036.288319,229.828649
3862.369539,-8216.285956,-518.144159,229.828649
3862.369869,-9622.677246,-962.267725,689.485948
3862.370199,-10584.944971,-888.247130,919.314598
3862.370529,-9622.677246,-740.205942,1685.410096
3862.370858,-8586.388927,-444.123565,995.924147
3862.371188,-7994.224174,-592.164754,-229.828649
3862.371518,-8882.471304,-518.144159,76.609550
3862.371848,-9622.677246,0.000000,306.438199
3862.372178,-10510.924376,296.082377,-766.095498
3862.372508,-10510.924376,444.123565,-1378.971896
3862.372838,-10362.883188,814.226536,-1378.971896
3862.373167,-10288.862594,296.082377,306.438199
3862.373497,-10066.800811,740.205942,1378.971896
3862.373827,-9696.697840,444.123565,1455.581446
3862.374157,-9844.739029,1036.288319,536.266849
3862.374487,-10584.944971,518.144159,383.047749
3862.374817,-11399.171507,1110.308913,536.266849
3862.375146,-10140.821405,-148.041188,-383.047749
3862.375476,-9326.594869,-222.061783,-1149.143247
3862.375806,-8808.450710,74.020594,0.000000
3862.376136,-8660.409521,0.000000,76.609550
3862.376466,-9622.677246,518.144159,1225.752797
3862.376796,-9770.718434,444.123565,1915.238745
3862.377126,-9770.718434,518.144159,3294.210641
3862.377455,-8660.409521,740.205942,2451.505594
3862.377785,-9770.718434,1036.288319,2068.457845
3862.378115,-9770.718434,0.000000,1685.410096
3862.378445,-9992.780217,296.082377,1991.848295
3862.378775,-10584.944971,1184.329507,2604.724693
3862.379105,-10362.883188,444.123565,3753.867940
3862.379434,-10140.821405,1776.494261,3294.210641
3862.379764,-8956.491898,2146.597232,1149.143247
3862.380094,-9770.718434,3034.844362,-383.047749
3862.380424,-10288.862594,2886.803174,-842.705048
3862.380754,-11177.109724,2664.741391,-306.438199
3862.381084,-9918.759623,2590.720797,0.000000
3862.381414,-9770.718434,1924.535449,1762.019645
3862.381743,-9474.636058,1924.535449,2528.115143
3862.382073,-9030.512492,666.185348,2451.505594
3862.382403,-7476.080014,1480.411884,2374.896044
3862.382733,-8438.347739,1332.370696,2604.724693
3862.383063,-10436.903782,2886.803174,3370.820191
3862.383393,-10288.862594,2294.638420,3447.429741
3862.383722,-10362.883188,2294.638420,3217.601092
3862.384052,-9770.718434,3108.864956,2834.553343
3862.384382,-11029.068536,2294.638420,2298.286494
3862.384712,-10955.047942,2590.720797,1915.238745
3862.385042,-8586.388927,1036.288319,1991.848295
3862.385372,-7105.977043,2146.597232,2451.505594
3862.385702,-8068.244768,2812.782580,2987.772442
3862.386031,-10140.821405,3404.947333,2374.896044
3862.386361,-9844.739029,4663.297435,1225.752797
3862.386691,-10214.842000,4737.318029,536.266849
3862.387021,-11547.212695,4737.318029,1072.533697
3862.387351,-11991.336260,4219.173869,2757.943793
3862.387681,-12287.418637,3182.885551,4596.572988
3862.388010,-10436.903782,2812.782580,4749.792088
3862.388340,-8956.491898,1332.370696,3217.601092
3862.388670,-8068.244768,1998.556043,1915.238745
3862.389000,-8142.265362,888.247130,1225.752797
3862.389330,-8586.388927,2368.659014,1762.019645
3862.389660,-8956.491898,3330.926739,2145.067394
3862.389990,-9252.574275,2738.761985,2604.724693
3862.390319,-10288.862594,3701.029710,3064.381992
3862.390649,-10288.862594,3330.926739,2681.334243
3862.390979,-11325.150913,3627.009116,3370.820191
3862.391309,-12287.418637,2886.803174,2757.943793
3862.391639,-11103.089130,2072.576638,3447.429741
3862.391969,-10807.006753,1998.556043,3600.648841
3862.392298,-9770.718434,2072.576638,1149.143247
3862.392628,-8956.491898,1258.350101,689.485948
3862.392958,-9622.677246,2294.638420,76.609550
3862.393288,-7105.977043,2072.576638,306.438199
3862.393618,-6883.915261,2072.576638,2451.505594
3862.393948,-7772.162391,3701.029710,3753.867940
3862.394278,-9918.759623,2442.679609,4443.353888
3862.394607,-11251.130318,2442.679609,3217.601092
3862.394937,-10288.862594,2664.741391,1685.410096
3862.395267,-11251.130318,1110.308913,1991.848295
3862.395597,-11473.192101,1998.556043,2604.724693
3862.395927,-10066.800811,1406.391290,2145.067394
3862.396257,-9030.512492,814.226536,2145.067394
3862.396587,-7550.100608,2516.700203,1685.410096
3862.396916,-8734.430116,2516.700203,1455.581446
3862.397246,-9104.533087,2590.720797,2298.286494
3862.397576,-8808.450710,3404.947333,1225.752797
3862.397906,-8290.306550,2368.659014,2451.505594
3862.398236,-10732.986159,2590.720797,2987.772442
3862.398566,-13175.665768,3108.864956,2451.505594
3862.398895,-11547.212695,296.082377,1915.238745
3862.399225,-10066.800811,1850.514855,1302.362347
3862.399555,-10658.965565,2294.638420,1608.800546
3862.399885,-10881.027347,888.247130,3294.210641
3862.400215,-10362.883188,2664.741391,2757.943793
3862.400545,-8290.306550,1998.556043,2451.505594
3862.400875,-8142.265362,1850.514855,1915.238745
3862.401204,-9030.512492,1776.494261,2068.457845
3862.401534,-9400.615463,1628.453072,3370.820191
3862.401864,-8882.471304,1184.329507,3064.381992
3862.402194,-9252.574275,2072.576638,2068.457845
3862.402524,-10362.883188,888.247130,1455.581446
3862.402854,-11991.336260,1924.535449,1915.238745
3862.403183,-11547.212695,1998.556043,2374.896044
3862.403513,-9918.759623,1480.411884,3447.429741
3862.403843,-9252.574275,2294.638420,2757.943793
3862.404173,-9104.533087,1850.514855,1685.410096
3862.404503,-8142.265362,1850.514855,1532.190996
3862.404833,-8882.471304,1184.329507,1302.362347
3862.405163,-8956.491898,1850.514855,2298.286494
3862.405492,-8290.306550,1258.350101,2298.286494
3862.405822,-9178.553681,1258.350101,1378.971896
3862.406152,-8734.430116,1776.494261,2298.286494
3862.406482,-9178.553681,1702.473667,1838.629195
3862.406812,-10066.800811,2146.597232,1378.971896
3862.407142,-10214.842000,2368.659014,1915.238745
3862.407471,-11251.130318,3404.947333,3294.210641
3862.407801,-10362.883188,2664.741391,3907.087040
3862.408131,-9030.512492,3108.864956,2451.505594
3862.408461,-9252.574275,2738.761985,2451.505594
3862.408791,-10066.800811,3627.009116,1915.238745
3862.409121,-11029.068536,3404.947333,2987.772442
3862.409451,-10140.821405,3627.009116,1608.800546
3862.409780,-10288.862594,3478.967927,1915.238745
3862.410110,-10955.047942,3849.070898,2757.943793
3862.410440,-11843.295072,2886.803174,2221.676944
3862.410770,-9918.759623,2664.741391,1838.629195
3862.411100,-8586.388927,2072.576638,2528.115143
3862.411430,-8438.347739,1998.556043,3600.648841
3862.411759,-9918.759623,2368.659014,4903.011187
3862.412089,-10807.006753,2738.761985,4749.792088
3862.412419,-9252.574275,2072.576638,3447.429741
3862.412749,-8956.491898,2590.720797,2221.676944
3862.413079,-10066.800811,2664.741391,1685.410096
3862.413409,-11325.150913,2368.659014,2145.067394
3862.413739,-10140.821405,3627.009116,2374.896044
3862.414068,-9326.594869,2146.597232,1302.362347
3862.414398,-9474.636058,2812.782580,1302.362347
3862.414728,-9400.615463,2294.638420,612.876398
3862.415058,-9474.636058,2664.741391,459.657299
3862.415388,-7994.224174,1480.411884,1072.533697
3862.415718,-8216.285956,1554.432478,1991.848295
3862.416047,-8512.368333,1554.432478,3677.258390
3862.416377,-9474.636058,1184.329507,3830.477490
3862.416707,-9770.718434,2072.576638,2834.553343
3862.417037,-9548.656652,1554.432478,2298.286494
3862.417367,-9918.759623,2220.617826,2221.676944
3862.417697,-9696.697840,2368.659014,2528.115143
3862.418027,-10362.883188,2812.782580,3140.991542
3862.418356,-11695.253884,3404.947333,2604.724693
3862.418686,-10140.821405,2812.782580,306.438199
3862.419016,-9252.574275,2146.597232,-306.438199
3862.419346,-9770.718434,2812.782580,383.047749
3862.419676,-10214.842000,2146.597232,1915.238745
3862.420006,-9844.739029,1776.494261,2911.162892
3862.420335,-8586.388927,2368.659014,1378.971896
3862.420665,-7772.162391,1776.494261,1225.752797
3862.420995,-10732.986159,2220.617826,2987.772442
3862.421325,-11473.192101,2886.803174,3753.867940
3862.421655,-10658.965565,2294.638420,4903.011187
3862.421985,-11103.089130,2738.761985,4826.401637
3862.422315,-11029.068536,2886.803174,3907.087040
3862.422644,-11547.212695,1406.391290,3753.867940
3862.422974,-10807.006753,2590.720797,1762.019645
3862.423304,-9918.759623,1110.308913,612.876398
3862.423634,-8438.347739,1554.432478,2145.067394
3862.423964,-7920.203579,2146.597232,3140.991542
3862.424294,-8290.306550,2220.617826,3294.210641
3862.424624,-8364.327145,2294.638420,1608.800546
3862.424953,-9548.656652,2516.700203,-306.438199
3862.425283,-10140.821405,1406.391290,689.485948
3862.425613,-10436.903782,1554.432478,2987.772442
3862.425943,-9622.677246,1110.308913,5209.449386
3862.426273,-8586.388927,666.185348,6588.421283
3862.426603,-8808.450710,1924.535449,4903.011187
3862.426933,-10140.821405,2072.576638,2451.505594
3862.427263,-10658.965565,2516.700203,536.266849
3862.427592,-10881.027347,2516.700203,612.876398
3862.427922,-9474.636058,2812.782580,2374.896044
3862.428252,-9030.512492,2220.617826,2451.505594
3862.428582,-9252.574275,2072.576638,1225.752797
3862.428912,-8660.409521,1110.308913,1149.143247
3862.429242,-8660.409521,1998.556043,766.095498
3862.429572,-8882.471304,2294.638420,306.438199
3862.429902,-9992.780217,2220.617826,1455.581446
3862.430231,-11325.150913,2886.803174,2987.772442
3862.430561,-11103.089130,2294.638420,3753.867940
3862.430891,-10807.006753,2368.659014,3064.381992
3862.431221,-10955.047942,1924.535449,1685.410096
3862.431551,-11029.068536,1554.432478,1915.238745
3862.431881,-9770.718434,2146.597232,2681.334243
3862.432211,-8512.368333,2072.576638,3064.381992
3862.432541,-8142.265362,2516.700203,2528.115143
3862.432870,-9030.512492,2294.638420,1685.410096
3862.433200,-9992.780217,2960.823768,2298.286494
3862.433530,-11103.089130,3330.926739,2221.676944
3862.433860,-11843.295072,2886.803174,842.705048
3862.434190,-11695.253884,2146.597232,-459.657299
3862.434520,-10807.006753,1332.370696,-306.438199
3862.434850,-9400.615463,666.185348,612.876398
3862.435179,-7920.203579,-370.102971,1838.629195
3862.435509,-6513.812290,740.205942,3524.039291
3862.435839,-6513.812290,888.247130,3983.696590
3862.436169,-7846.182985,1776.494261,3370.820191
3862.436499,-9104.533087,2812.782580,2298.286494
3862.436829,-10807.006753,2886.803174,1762.019645
3862.437159,-11769.274478,3478.967927,2757.943793
3862.437489,-12287.418637,2368.659014,2987.772442
3862.437818,-11325.150913,2294.638420,2757.943793
3862.438148,-9770.718434,1850.514855,1762.019645
3862.438478,-9326.594869,1036.288319,536.266849
3862.438808,-8586.388927,1554.432478,842.705048
3862.439138,-8142.265362,2294.638420,2528.115143
3862.439468,-8364.327145,2368.659014,3753.867940
3862.439798,-8882.471304,2886.803174,3294.210641
3862.440128,-9844.739029,2960.823768,2221.676944
3862.440457,-10807.006753,2368.659014,1455.581446
3862.440787,-11547.212695,1702.473667,1532.190996
3862.441117,-11103.089130,1406.391290,2604.724693
3862.441447,-10214.842000,1332.370696,3830.477490
3862.441777,-10362.883188,1036.288319,3907.087040
3862.442107,-9104.533087,1628.453072,3294.210641
3862.442437,-9104.533087,1998.556043,2298.286494
3862.442766,-9622.677246,2368.659014,2451.505594
3862.443096,-9770.718434,2368.659014,2298.286494
3862.443426,-10362.883188,2960.823768,2604.724693
3862.443756,-10807.006753,2886.803174,2451.505594
3862.444086,-10955.047942,2146.597232,1455.581446
3862.444416,-10288.862594,1776.494261,536.266849
3862.444746,-9770.718434,1184.329507,0.000000
3862.445076,-10658.965565,666.185348,689.485948
3862.445405,-9844.739029,444.123565,2374.896044
3862.445735,-9400.615463,296.082377,3524.039291
3862.446065,-9252.574275,592.164754,3370.820191
3862.446395,-9252.574275,370.102971,3064.381992
3862.446725,-9400.615463,444.123565,1685.410096
3862.447055,-9474.636058,444.123565,1838.629195
3862.447385,-9770.718434,518.144159,1762.019645
3862.447715,-10066.800811,814.226536,1838.629195
3862.448044,-9770.718434,740.205942,995.924147
3862.448374,-9622.677246,740.205942,842.705048
3862.448704,-10362.883188,814.226536,459.657299
3862.449034,-9992.780217,814.226536,842.705048
3862.449364,-9770.718434,666.185348,1608.800546
3862.449694,-9030.512492,518.144159,1685.410096
3862.450024,-9030.512492,740.205942,1302.362347
3862.450353,-9474.636058,666.185348,1149.143247
3862.450683,-9844.739029,518.144159,1225.752797
3862.451013,-9918.759623,370.102971,1302.362347
3862.451343,-8956.491898,222.061783,2068.457845
3862.451673,-9252.574275,888.247130,2987.772442
3862.452003,-9770.718434,1332.370696,3753.867940
3862.452333,-9474.636058,1628.453072,3753.867940
3862.452663,-10362.883188,1924.535449,3294.210641
3862.452992,-10955.047942,2294.638420,2681.334243
3862.453322,-11325.150913,2590.720797,2145.067394
3862.453652,-11177.109724,2516.700203,1762.019645
3862.453982,-10362.883188,2368.659014,1762.019645
3862.454312,-9474.636058,2368.659014,1838.629195
3862.454642,-9252.574275,2072.576638,2451.505594
3862.454972,-8512.368333,2294.638420,3600.648841
3862.455302,-8734.430116,2960.823768,4290.134789
3862.455631,-9474.636058,3478.967927,4213.525239
3862.455961,-10807.006753,3478.967927,4213.525239
3862.456291,-11177.109724,3404.947333,3983.696590
3862.456621,-11399.171507,3330.926739,3524.039291
3862.456951,-10807.006753,3330.926739,3677.258390
3862.457281,-10140.821405,3182.885551,4060.306139
3862.457611,-9178.553681,2812.782580,3983.696590
3862.457940,-8660.409521,3330.926739,3140.991542
3862.458270,-8734.430116,3627.009116,2528.115143
3862.458600,-8734.430116,4071.132681,2757.943793
3862.458930,-9400.615463,4441.235652,3294.210641
3862.459260,-9844.739029,4737.318029,3677.258390
3862.459590,-10288.862594,4737.318029,4060.306139
3862.459920,-10214.842000,4737.318029,3524.039291
3862.460250,-10436.903782,5033.400406,3140.991542
3862.460579,-10807.006753,4811.338623,2681.334243
3862.460909,-10955.047942,4589.276840,1915.238745
3862.461239,-9992.780217,4515.256246,2145.067394
3862.461569,-9104.533087,4071.132681,3217.601092
3862.461899,-9104.533087,3849.070898,3677.258390
3862.462229,-9696.697840,4219.173869,3064.381992
3862.462559,-9178.553681,3775.050304,2145.067394
3862.462889,-7846.182985,3552.988522,1685.410096
3862.463218,-8142.265362,4367.215058,2374.896044
3862.463548,-9696.697840,4663.297435,2834.553343
3862.463878,-10881.027347,4737.318029,2757.943793
3862.464208,-11251.130318,4737.318029,306.438199
3862.464538,-10658.965565,3997.112087,0.000000
3862.464868,-10881.027347,4145.153275,-612.876398
3862.465198,-10807.006753,3552.988522,766.095498
3862.465527,-9622.677246,3182.885551,2145.067394
3862.465857,-8512.368333,2960.823768,1838.629195
3862.466187,-8068.244768,2294.638420,1302.362347
3862.466517,-8956.491898,2146.597232,1225.752797
3862.466847,-9474.636058,2368.659014,1072.533697
3862.467177,-9252.574275,2590.720797,1915.238745
3862.467507,-8956.491898,2886.803174,2604.724693
3862.467837,-9770.718434,2664.741391,2987.772442
3862.468166,-10584.944971,3034.844362,2451.505594
3862.468496,-11621.233289,2886.803174,689.485948
3862.468826,-11325.150913,2294.638420,0.000000
3862.469156,-9992.780217,1332.370696,1225.752797
3862.469486,-9474.636058,1480.411884,2221.676944
3862.469816,-9400.615463,1184.329507,2987.772442
3862.470146,-8364.327145,1184.329507,3217.601092
3862.470476,-8364.327145,740.205942,1532.190996
3862.470805,-9030.512492,1850.514855,842.705048
3862.471135,-10214.842000,740.205942,1532.190996
3862.471465,-11325.150913,1036.288319,2681.334243
3862.471795,-11843.295072,962.267725,3217.601092
3862.472125,-10955.047942,222.061783,2757.943793
3862.472455,-10214.842000,-1036.288319,2068.457845
3862.472785,-10214.842000,-296.082377,1991.848295
3862.473115,-9770.718434,-1406.391290,2528.115143
3862.473444,-9474.636058,-740.205942,2451.505594
3862.473774,-8216.285956,-740.205942,2068.457845
3862.474104,-8512.368333,-740.205942,2221.676944
3862.474434,-9474.636058,148.041188,1072.533697
3862.474764,-10807.006753,0.000000,612.876398
3862.475094,-11251.130318,-518.144159,536.266849
3862.475424,-10214.842000,-740.205942,459.657299
3862.475753,-9474.636058,-1332.370696,2145.067394
3862.476083,-9104.533087,-1258.350101,2834.553343
3862.476413,-8882.471304,-1036.288319,3140.991542
3862.476743,-8882.471304,-814.226536,2681.334243
3862.477073,-8586.388927,-370.102971,2068.457845
3862.477403,-8956.491898,222.061783,3600.648841
3862.477733,-10066.800811,962.267725,5132.839837
3862.478063,-11843.295072,1554.432478,4519.963438
3862.478392,-10955.047942,1554.432478,2298.286494
3862.478722,-10288.862594,1110.308913,229.828649
3862.479052,-10288.862594,1702.473667,76.609550
3862.479382,-10214.842000,1332.370696,2068.457845
3862.479712,-9770.718434,1924.535449,3217.601092
3862.480042,-9030.512492,1702.473667,2911.162892
3862.480372,-7698.141797,1776.494261,2145.067394
3862.480702,-9030.512492,2294.638420,2145.067394
3862.481031,-9992.780217,2368.659014,2757.943793
3862.481361,-9474.636058,2294.638420,3830.477490
3862.481691,-9104.533087,2886.803174,4749.792088
3862.482021,-9326.594869,2886.803174,5056.230287
3862.482351,-10955.047942,3108.864956,5515.887586
3862.482681,-11177.109724,4219.173869,4519.963438
3862.483011,-10288.862594,4145.153275,2911.162892
3862.483340,-10288.862594,4885.359217,1762.019645
3862.483670,-10288.862594,4367.215058,1838.629195
3862.484000,-10584.944971,4663.297435,3140.991542
3862.484330,-9548.656652,4219.173869,2834.553343
3862.484660,-7772.162391,4441.235652,2145.067394
3862.484990,-8216.285956,4663.297435,2221.676944
3862.485320,-9104.533087,5181.441594,2145.067394
3862.485650,-10140.821405,5551.544565,2298.286494
3862.485979,-10140.821405,5551.544565,2604.724693
3862.486309,-10807.006753,5255.462188,2604.724693
3862.486639,-11621.233289,4663.297435,2604.724693
3862.486969,-11325.150913,4737.318029,2681.334243
3862.487299,-10362.883188,4145.153275,1455.581446
3862.487629,-9696.697840,3404.947333,766.095498
3862.487959,-8808.450710,2738.761985,-229.828649
3862.488289,-8586.388927,3034.844362,459.657299
3862.488618,-8364.327145,3404.947333,1762.019645
3862.488948,-8068.244768,3552.988522,1838.629195
3862.489278,-7994.224174,3478.967927,919.314598
3862.489608,-8808.450710,4071.132681,919.314598
3862.489938,-9104.533087,4145.153275,306.438199
3862.490268,-9474.636058,4515.256246,689.485948
3862.490598,-10658.965565,4293.194464,2451.505594
3862.490927,-11399.171507,3849.070898,2911.162892
3862.491257,-11473.192101,3849.070898,2911.162892
3862.491587,-11473.192101,4145.153275,2068.457845
3862.491917,-10658.965565,3182.885551,612.876398
3862.492247,-9770.718434,3108.864956,0.000000
3862.492577,-8438.347739,2738.761985,383.047749
3862.492907,-7254.018232,2664.741391,1378.971896
3862.493237,-7846.182985,3404.947333,2451.505594
3862.493566,-9548.656652,3404.947333,1915.238745
3862.493896,-10807.006753,2664.741391,1225.752797
3862.494226,-10510.924376,2294.638420,1762.019645
3862.494556,-11177.109724,1628.453072,3983.696590
3862.494886,-11917.315666,1406.391290,5592.497135
3862.495216,-10955.047942,592.164754,6205.373534
3862.495546,-10214.842000,666.185348,4749.792088
3862.495876,-9622.677246,888.247130,2834.553343
3862.496205,-9992.780217,592.164754,1072.533697
3862.496535,-10362.883188,296.082377,1072.533697
3862.496865,-9770.718434,370.102971,1302.362347
3862.497195,-8956.491898,-222.061783,1762.019645
3862.497525,-9548.656652,-592.164754,2298.286494
3862.497855,-9104.533087,-518.144159,1762.019645
3862.498185,-9104.533087,-1628.453072,1455.581446
3862.498514,-10066.800811,-1258.350101,1685.410096
3862.498844,-9326.594869,-962.267725,3753.867940
3862.499174,-9104.533087,-1258.350101,5822.325785
3862.499504,-9326.594869,-592.164754,5515.887586
3862.499834,-9992.780217,-888.247130,5439.278036
3862.500164,-11325.150913,-444.123565,4060.306139
3862.500494,-10362.883188,148.041188,2451.505594
3862.500824,-9104.533087,-518.144159,2681.334243
3862.501153,-8734.430116,592.164754,3983.696590
3862.501483,-8586.388927,1406.391290,3677.258390
3862.501813,-9548.656652,1480.411884,2451.505594
3862.502143,-10436.903782,2516.700203,306.438199
3862.502473,-10510.924376,1628.453072,229.828649
3862.502803,-11473.192101,1924.535449,2374.896044
3862.503133,-11177.109724,1998.556043,2068.457845
3862.503463,-9918.759623,222.061783,3217.601092
3862.503792,-9030.512492,296.082377,4290.134789
3862.504122,-8808.450710,370.102971,4290.134789
3862.504452,-10732.986159,888.247130,3524.039291
3862.504782,-10510.924376,740.205942,0.000000
3862.505112,-10584.944971,1110.308913,-1225.752797
3862.505442,-10584.944971,1554.432478,-689.485948
3862.505772,-10436.903782,1258.350101,-689.485948
3862.506101,-9844.739029,888.247130,-689.485948
3862.506431,-8290.306550,1480.411884,-1225.752797
3862.506761,-7994.224174,1998.556043,-919.314598
3862.507091,-8438.347739,1628.453072,459.657299
3862.507421,-9326.594869,1850.514855,536.266849
3862.507751,-9918.759623,2072.576638,0.000000
3862.508081,-9030.512492,1036.288319,-306.438199
3862.508411,-9252.574275,888.247130,383.047749
3862.508740,-10140.821405,814.226536,2298.286494
3862.509070,-8660.409521,1332.370696,4979.620737
3862.509400,-7550.100608,1924.535449,4060.306139
3862.509730,-8512.368333,3330.926739,2528.115143
3862.510060,-10658.965565,4367.215058,1378.971896
3862.510390,-12287.418637,4885.359217,0.000000
3862.510720,-11621.233289,4293.194464,383.047749
3862.511050,-11695.253884,4145.153275,1302.362347
3862.511379,-10362.883188,3923.091493,1225.752797
3862.511709,-9992.780217,4367.215058,0.000000
3862.512039,-9844.739029,3552.988522,-2604.724693
3862.512369,-9326.594869,2886.803174,-3524.039291
3862.512699,-9844.739029,2516.700203,-2068.457845
3862.513029,-10807.006753,2516.700203,76.609550
3862.513359,-11177.109724,1776.494261,1302.362347
3862.513688,-9844.739029,1776.494261,2374.896044
3862.514018,-8438.347739,518.144159,306.438199
3862.514348,-7772.162391,0.000000,-153.219100
3862.514678,-9030.512492,444.123565,383.047749
3862.515008,-10288.862594,370.102971,2374.896044
3862.515338,-9548.656652,0.000000,2604.724693
3862.515668,-8734.430116,0.000000,2068.457845
3862.515998,-8586.388927,-296.082377,689.485948
3862.516327,-9400.615463,222.061783,306.438199
3862.516657,-9548.656652,444.123565,229.828649
3862.516987,-9104.533087,592.164754,536.266849
3862.517317,-8438.347739,740.205942,2068.457845
3862.517647,-9474.636058,888.247130,3064.381992
3862.517977,-10955.047942,1480.411884,2987.772442
3862.518307,-11547.212695,1480.411884,306.438199
3862.518637,-10732.986159,2368.659014,-2987.772442
3862.518966,-11843.295072,1776.494261,-3447.429741
3862.519296,-12879.583391,2368.659014,-1455.581446
3862.519626,-11917.315666,740.205942,306.438199
3862.519956,-9770.718434,-148.041188,842.705048
3862.520286,-9030.512492,-962.267725,1072.533697
3862.520616,-9474.636058,-1554.432478,1685.410096
3862.520946,-9918.759623,-2072.576638,1915.238745
3862.521276,-9178.553681,-1998.556043,1378.971896
3862.521605,-8808.450710,-2664.741391,1378.971896
3862.521935,-8956.491898,-2960.823768,1608.800546
3862.522265,-8734.430116,-2886.803174,1838.629195
3862.522594,-9104.533087,-2812.782580,2451.505594
3862.522924,-9178.553681,-1628.453072,2451.505594
3862.523254,-9104.533087,-2072.576638,1915.238745
3862.523584,-9474.636058,-518.144159,2528.115143
3862.523913,-10510.924376,-296.082377,1915.238745
3862.524243,-10732.986159,962.267725,995.924147
3862.524573,-10732.986159,-370.102971,-612.876398
3862.524903,-10214.842000,0.000000,-1608.800546
3862.525232,-9918.759623,0.000000,-1302.362347
3862.525562,-11547.212695,444.123565,-1838.629195
3862.525892,-11843.295072,444.123565,-2911.162892
3862.526222,-9400.615463,-444.123565,-4519.963438
3862.526551,-8660.409521,148.041188,-3983.696590
3862.526881,-10436.903782,-592.164754,-2374.896044
3862.527211,-11251.130318,-1184.329507,0.000000
3862.527541,-9918.759623,-2146.597232,1225.752797
3862.527870,-7476.080014,-3034.844362,-995.924147
3862.528200,-7105.977043,-4293.194464,-2221.676944
3862.528530,-8586.388927,-2738.761985,-383.047749
3862.528860,-8734.430116,-3478.967927,2374.896044
3862.529189,-8068.244768,-1702.473667,3370.820191
3862.529519,-8808.450710,-962.267725,1762.019645
3862.529849,-9696.697840,-518.144159,689.485948
3862.530179,-9992.780217,-296.082377,0.000000
3862.530508,-9474.636058,-370.102971,0.000000
3862.530838,-10066.800811,-592.164754,689.485948
3862.531168,-10807.006753,-444.123565,995.924147
3862.531498,-10510.924376,518.144159,2145.067394
3862.531827,-10732.986159,814.226536,1072.533697
3862.532157,-10362.883188,1036.288319,-1608.800546
3862.532487,-10362.883188,1702.473667,-2911.162892
3862.532817,-9622.677246,3330.926739,-2681.334243
3862.533146,-10807.006753,3330.926739,-2221.676944
3862.533476,-12805.562797,2886.803174,-1838.629195
3862.533806,-11917.315666,1110.308913,-1149.143247
3862.534136,-10658.965565,-370.102971,-689.485948
3862.534465,-10066.800811,-370.102971,76.609550
3862.534795,-10807.006753,-1110.308913,153.219100
3862.535125,-9178.553681,-1258.350101,1225.752797
3862.535455,-7105.977043,-1480.411884,766.095498
3862.535784,-7105.977043,-1628.453072,-842.705048
3862.536114,-8364.327145,-1184.329507,383.047749
3862.536444,-8956.491898,-814.226536,1762.019645
3862.536774,-8068.244768,-1110.308913,2757.943793
3862.537103,-7772.162391,0.000000,2834.553343
3862.537433,-9252.574275,-148.041188,2681.334243
3862.537763,-10584.944971,-370.102971,1915.238745
3862.538093,-9844.739029,0.000000,842.705048
3862.538422,-8808.450710,74.020594,1455.581446
3862.538752,-9696.697840,444.123565,2221.676944
3862.539082,-10881.027347,1110.308913,2757.943793
3862.539412,-10510.924376,962.267725,2451.505594
3862.539741,-10214.842000,1406.391290,1149.143247
3862.540071,-10510.924376,2812.782580,-1302.362347
3862.540401,-11103.089130,3330.926739,-2681.334243
3862.540731,-11991.336260,3775.050304,-4213.525239
3862.541060,-12065.356855,3478.967927,-4213.525239
3862.541390,-10288.862594,2368.659014,-2757.943793
3862.541720,-11029.068536,1480.411884,-1302.362347
3862.542050,-11103.089130,592.164754,-306.438199
3862.542379,-8808.450710,-1036.288319,76.609550
3862.542709,-8586.388927,296.082377,766.095498
3862.543039,-9474.636058,-518.144159,1455.581446
3862.543369,-9474.636058,-444.123565,1225.752797
3862.543698,-8512.368333,-1110.308913,1225.752797
3862.544028,-7772.162391,-2220.617826,2298.286494
3862.544358,-7179.997637,-1332.370696,3140.991542
3862.544688,-9178.553681,-888.247130,4290.134789
3862.545017,-10510.924376,-1258.350101,3677.258390
3862.545347,-9770.718434,-1406.391290,2911.162892
3862.545677,-7476.080014,-370.102971,1532.190996
3862.546007,-8142.265362,888.247130,919.314598
3862.546336,-10584.944971,1628.453072,229.828649
3862.546666,-10658.965565,1406.391290,689.485948
3862.546996,-11843.295072,2294.638420,383.047749
3862.547326,-12361.439231,2368.659014,-2604.724693
3862.547655,-12065.356855,1702.473667,-5286.058936
3862.547985,-10881.027347,1554.432478,-5209.449386
3862.548315,-10140.821405,592.164754,-3600.648841
3862.548645,-10362.883188,814.226536,-1838.629195
3862.548974,-10955.047942,-148.041188,-306.438199
3862.549304,-10362.883188,0.000000,-536.266849
3862.549634,-8660.409521,-888.247130,-536.266849
3862.549964,-8512.368333,-962.267725,-842.705048
3862.550293,-10510.924376,-1628.453072,995.924147
3862.550623,-9770.718434,-2146.597232,919.314598
3862.550953,-7550.100608,-3478.967927,1455.581446
3862.551283,-7105.977043,-3108.864956,3524.039291
3862.551612,-8364.327145,-3108.864956,4519.963438
3862.551942,-9400.615463,-2072.576638,2987.772442
3862.552272,-8142.265362,-1184.329507,1225.752797
3862.552602,-8290.306550,-1184.329507,842.705048
3862.552931,-9252.574275,0.000000,153.219100
3862.553261,-9474.636058,740.205942,1532.190996
3862.553591,-11547.212695,1184.329507,2221.676944
3862.553921,-11473.192101,1184.329507,229.828649
3862.554250,-11547.212695,1850.514855,-2298.286494
3862.554580,-12139.377449,1480.411884,-3753.867940
3862.554910,-12213.398043,1924.535449,-3830.477490
3862.555240,-10362.883188,888.247130,-1838.629195
3862.555569,-10436.903782,1184.329507,76.609550
3862.555899,-10807.006753,444.123565,0.000000
3862.556229,-9844.739029,-444.123565,-766.095498
3862.556559,-8882.471304,-1036.288319,-1455.581446
3862.556888,-9474.636058,-1258.350101,-383.047749
3862.557218,-9474.636058,-1850.514855,1072.533697
3862.557548,-10066.800811,-2516.700203,1149.143247
3862.557878,-6809.894666,-3034.844362,1685.410096
3862.558207,-6661.853478,-2664.741391,2451.505594
3862.558537,-8808.450710,-1776.494261,3677.258390
3862.558867,-10955.047942,-666.185348,4213.525239
3862.559197,-10658.965565,-148.041188,3677.258390
3862.559526,-8882.471304,222.061783,2911.162892
3862.559856,-9178.553681,0.000000,1915.238745
3862.560186,-9474.636058,0.000000,1991.848295
3862.560516,-9992.780217,518.144159,1838.629195
3862.560845,-10288.862594,1554.432478,1532.190996
3862.561175,-10881.027347,2442.679609,-536.266849
3862.561505,-11251.130318,3034.844362,-3217.601092
3862.561835,-11843.295072,3775.050304,-3217.601092
3862.562164,-13619.789333,4515.256246,-3907.087040
3862.562494,-13101.645173,3034.844362,-3753.867940
3862.562824,-10214.842000,1332.370696,-2451.505594
3862.563154,-8290.306550,74.020594,-383.047749
3862.563483,-8216.285956,-296.082377,1149.143247
3862.563813,-8808.450710,-740.205942,76.609550
3862.564143,-9104.533087,-1184.329507,-2145.067394
3862.564473,-8586.388927,-1850.514855,-3064.381992
3862.564802,-6809.894666,-2812.782580,-306.438199
3862.565132,-7254.018232,-2294.638420,4443.353888
3862.565462,-7698.141797,-1850.514855,6588.421283
3862.565792,-7328.038826,-444.123565,5209.449386
3862.566121,-9548.656652,222.061783,2834.553343
3862.566451,-11621.233289,1850.514855,0.000000
3862.566781,-12509.480420,518.144159,-1838.629195
3862.567111,-10510.924376,444.123565,-3064.381992
3862.567440,-8290.306550,296.082377,-306.438199
3862.567770,-9104.533087,1332.370696,1762.019645
3862.568100,-9252.574275,1628.453072,1608.800546
3862.568430,-10288.862594,1480.411884,-1838.629195
3862.568759,-10140.821405,2664.741391,-4443.353888
3862.569089,-12583.501014,3849.070898,-5362.668486
3862.569419,-13619.789333,3330.926739,-3140.991542
3862.569749,-13027.624579,2220.617826,229.828649
3862.570078,-11991.336260,1258.350101,1915.238745
3862.570408,-10510.924376,0.000000,229.828649
3862.570738,-9474.636058,-666.185348,-2451.505594
3862.571068,-8882.471304,-962.267725,-2681.334243
3862.571397,-8956.491898,-1036.288319,-76.609550
3862.571727,-8290.306550,-2294.638420,2757.943793
3862.572057,-7476.080014,-2812.782580,3217.601092
3862.572387,-6291.750507,-2738.761985,3983.696590
3862.572716,-6809.894666,-2590.720797,3294.210641
3862.573046,-7624.121203,-2146.597232,3370.820191
3862.573376,-9326.594869,-1258.350101,3217.601092
3862.573706,-10214.842000,-814.226536,2911.162892
3862.574035,-9918.759623,-222.061783,3140.991542
3862.574365,-10288.862594,0.000000,3217.601092
3862.574695,-12213.398043,888.247130,3217.601092
3862.575025,-11843.295072,74.020594,536.266849
3862.575354,-9252.574275,592.164754,-1915.238745
3862.575684,-9844.739029,1850.514855,-3294.210641
3862.576014,-11103.089130,2368.659014,-3447.429741
3862.576344,-12361.439231,3034.844362,-3140.991542
3862.576673,-11325.150913,2812.782580,-4366.744339
3862.577003,-10436.903782,1184.329507,-4136.915689
3862.577333,-10140.821405,444.123565,-2451.505594
3862.577663,-11029.068536,-296.082377,0.000000
3862.577992,-11843.295072,-444.123565,689.485948
3862.578322,-9474.636058,-2146.597232,0.000000
3862.578652,-7846.182985,-2442.679609,-612.876398
3862.578982,-7624.121203,-3256.906145,383.047749
3862.579311,-8142.265362,-2442.679609,2604.724693
3862.579641,-9178.553681,-2442.679609,4136.915689
3862.579971,-7920.203579,-2146.597232,3370.820191
3862.580301,-6735.874072,-1776.494261,1915.238745
3862.580630,-7698.141797,-444.123565,2068.457845
3862.580960,-10955.047942,74.020594,1915.238745
3862.581290,-11029.068536,148.041188,689.485948
3862.581620,-8068.244768,-296.082377,919.314598
3862.581949,-9844.739029,592.164754,1072.533697
3862.582279,-11917.315666,1776.494261,1378.971896
3862.582609,-12583.501014,1776.494261,919.314598
3862.582938,-11325.150913,2664.741391,-2374.896044
3862.583268,-9474.636058,3627.009116,-4290.134789
3862.583598,-11843.295072,4145.153275,-4749.792088
3862.583928,-13175.665768,1554.432478,-3217.601092
3862.584257,-11029.068536,1036.288319,-1302.362347
3862.584587,-7328.038826,-962.267725,842.705048
3862.584917,-8586.388927,-1036.288319,612.876398
3862.585247,-10066.800811,-888.247130,1378.971896
3862.585576,-9030.512492,-2072.576638,766.095498
3862.585906,-6069.688724,-3478.967927,-459.657299
3862.586236,-6069.688724,-2590.720797,2298.286494
3862.586566,-10066.800811,-1628.453072,4749.792088
3862.586895,-10955.047942,-1628.453072,5898.935335
3862.587225,-8734.430116,-1110.308913,3983.696590
3862.587555,-7994.224174,-370.102971,1838.629195
3862.587885,-10214.842000,888.247130,0.000000
3862.588214,-10436.903782,370.102971,-919.314598
3862.588544,-9178.553681,1110.308913,-766.095498
3862.588874,-8808.450710,1480.411884,612.876398
3862.589204,-10436.903782,1998.556043,766.095498
3862.589533,-10214.842000,2146.597232,-766.095498
3862.589863,-12065.356855,3404.947333,-1991.848295
3862.590193,-13915.871710,4441.235652,-3600.648841
3862.590523,-13397.727550,4441.235652,-4903.011187
3862.590852,-10955.047942,2442.679609,-5669.106685
3862.591182,-9992.780217,666.185348,-3983.696590
3862.591512,-9252.574275,0.000000,612.876398
3862.591842,-9548.656652,148.041188,3370.820191
3862.592171,-11325.150913,-518.144159,1455.581446
3862.592501,-8734.430116,-962.267725,-1991.848295
3862.592831,-5995.668130,-3182.885551,-3447.429741
3862.593161,-4959.379811,-3034.844362,0.000000
3862.593490,-7994.224174,-1628.453072,4826.401637
3862.593820,-10140.821405,-1554.432478,6205.373534
3862.594150,-8956.491898,-1332.370696,3907.087040
3862.594480,-7846.182985,-666.185348,2145.067394
3862.594809,-9252.574275,-296.082377,153.219100
3862.595139,-11843.295072,370.102971,-1225.752797
3862.595469,-10658.965565,-444.123565,229.828649
3862.595799,-9030.512492,74.020594,3447.429741
3862.596128,-9030.512492,1406.391290,4136.915689
3862.596458,-11325.150913,2294.638420,1378.971896
3862.596788,-12065.356855,1628.453072,-2451.505594
3862.597118,-10362.883188,3330.926739,-4596.572988
3862.597447,-11325.150913,2960.823768,-5056.230287
3862.597777,-12731.542202,2960.823768,-3140.991542
3862.598107,-12657.521608,1406.391290,-383.047749
3862.598437,-10436.903782,-962.267725,766.095498
3862.598766,-8364.327145,-444.123565,0.000000
3862.599096,-10955.047942,-1924.535449,-689.485948
3862.599426,-10881.027347,-1702.473667,-1225.752797
3862.599756,-8364.327145,-3108.864956,-766.095498
3862.600085,-5921.647536,-4293.194464,2145.067394
3862.600415,-6883.915261,-3997.112087,5592.497135
3862.600745,-7846.182985,-3627.009116,6358.592633
3862.601075,-8290.306550,-2220.617826,4519.963438
3862.601404,-7920.203579,-1850.514855,1225.752797
3862.601734,-8734.430116,-1406.391290,536.266849
3862.602064,-11029.068536,-444.123565,1225.752797
3862.602394,-11547.212695,74.020594,3064.381992
3862.602723,-10214.842000,518.144159,3830.477490
3862.603053,-9918.759623,1110.308913,1072.533697
3862.603383,-9326.594869,1184.329507,-2911.162892
3862.603713,-10066.800811,518.144159,-4979.620737
3862.604042,-11695.253884,2960.823768,-2987.772442
3862.604372,-12805.562797,4145.153275,-1225.752797
3862.604702,-12583.501014,4441.235652,-1685.410096
3862.605032,-10510.924376,2812.782580,-4443.353888
3862.605361,-10436.903782,666.185348,-3907.087040
3862.605691,-9474.636058,518.144159,-1149.143247
3862.606021,-10881.027347,-1110.308913,1225.752797
3862.606351,-11399.171507,-592.164754,536.266849
3862.606680,-9178.553681,-814.226536,0.000000
3862.607010,-8142.265362,-2590.720797,-1455.581446
3862.607340,-6143.709319,-3256.906145,-459.657299
3862.607670,-6809.894666,-2442.679609,2374.896044
3862.607999,-8364.327145,-2220.617826,3907.087040
3862.608329,-7624.121203,-1258.350101,4136.915689
3862.608659,-7846.182985,-1036.288319,3830.477490
3862.608989,-8216.285956,148.041188,2145.067394
3862.609318,-11325.150913,592.164754,229.828649
3862.609648,-11843.295072,0.000000,383.047749
3862.609978,-10807.006753,370.102971,1685.410096
3862.610308,-8882.471304,1480.411884,1685.410096
3862.610637,-10066.800811,1332.370696,536.266849
3862.610967,-10436.903782,2368.659014,-689.485948
3862.611297,-11251.130318,3997.112087,-1455.581446
3862.611627,-12287.418637,4663.297435,-4519.963438
3862.611956,-12287.418637,3923.091493,-5975.544884
3862.612286,-10955.047942,2664.741391,-4519.963438
3862.612616,-9696.697840,1258.350101,-689.485948
3862.612946,-8956.491898,296.082377,766.095498
3862.613275,-9622.677246,-518.144159,1302.362347
3862.613605,-9918.759623,0.000000,76.609550
3862.613935,-9770.718434,-1184.329507,-383.047749
3862.614265,-9844.739029,-1258.350101,-459.657299
3862.614594,-10066.800811,-2220.617826,842.705048
3862.614924,-9178.553681,-2368.659014,3524.039291
3862.615254,-6957.935855,-2886.803174,4366.744339
3862.615584,-5033.400406,-2590.720797,3294.210641
3862.615913,-6809.894666,-1036.288319,1455.581446
3862.616243,-8808.450710,0.000000,612.876398
3862.616573,-9844.739029,0.000000,612.876398
3862.616903,-10288.862594,-148.041188,1608.800546
3862.617232,-10510.924376,740.205942,2834.553343
3862.617562,-11547.212695,518.144159,2757.943793
3862.617892,-10807.006753,2590.720797,1072.533697
3862.618222,-11325.150913,2590.720797,-1378.971896
3862.618551,-13619.789333,2960.823768,-3907.087040
3862.618881,-13027.624579,3552.988522,-4903.011187
3862.619211,-11547.212695,2886.803174,-5209.449386
3862.619541,-10066.800811,1332.370696,-3217.601092
3862.619870,-8216.285956,0.000000,-689.485948
3862.620200,-8364.327145,-1480.411884,1378.971896
3862.620530,-10362.883188,-1036.288319,842.705048
3862.620860,-10658.965565,-1850.514855,-689.485948
3862.621189,-9178.553681,-3034.844362,-766.095498
3862.621519,-6661.853478,-3775.050304,1455.581446
3862.621849,-6439.791695,-3849.070898,6205.373534
3862.622179,-9326.594869,-2664.741391,7431.126331
3862.622508,-10732.986159,-1702.473667,5362.668486
3862.622838,-9474.636058,-1850.514855,1455.581446
3862.623168,-9400.615463,-962.267725,-1378.971896
3862.623498,-10140.821405,592.164754,153.219100
3862.623827,-11177.109724,0.000000,2451.505594
3862.624157,-9104.533087,518.144159,1149.143247
3862.624487,-6735.874072,592.164754,-1685.410096
3862.624817,-9104.533087,1628.453072,-3064.381992
3862.625146,-11621.233289,1850.514855,-3907.087040
3862.625476,-12065.356855,2368.659014,-1378.971896
3862.625806,-12805.562797,4071.132681,689.485948
3862.626136,-14359.995275,4589.276840,0.000000
3862.626466,-12731.542202,2294.638420,-3370.820191
3862.626796,-10140.821405,296.082377,-4903.011187
3862.627125,-8438.347739,-592.164754,-2298.286494
3862.627455,-10658.965565,-370.102971,1302.362347
3862.627785,-11695.253884,-888.247130,2451.505594
3862.628115,-9030.512492,-2220.617826,612.876398
3862.628445,-3627.009116,-3997.112087,-1685.410096
3862.628775,-2960.823768,-3404.947333,0.000000
3862.629104,-8660.409521,-1406.391290,2987.772442
3862.629434,-9696.697840,-1110.308913,4366.744339
3862.629764,-8216.285956,-444.123565,3983.696590
3862.630094,-9030.512492,74.020594,3447.429741
3862.630424,-10881.027347,148.041188,2451.505594
3862.630753,-12879.583391,-592.164754,0.000000
3862.631083,-10362.883188,0.000000,76.609550
3862.631413,-7698.141797,518.144159,1915.238745
3862.631743,-8808.450710,1332.370696,1762.019645
3862.632073,-8660.409521,1480.411884,383.047749
3862.632403,-9696.697840,3775.050304,-536.266849
3862.632732,-12435.459826,5033.400406,-2221.676944
3862.633062,-15840.407159,4959.379811,-4903.011187
3862.633392,-13989.892304,4219.173869,-4903.011187
3862.633722,-10288.862594,1924.535449,-3907.087040
3862.634052,-8734.430116,-222.061783,-536.266849
3862.634381,-9326.594869,-1258.350101,2911.162892
3862.634711,-11843.295072,-592.164754,2987.772442
3862.635041,-11917.315666,-1702.473667,-689.485948
3862.635371,-7698.141797,-4367.215058,-4826.401637
3862.635701,-3552.988522,-3849.070898,-229.828649
3862.636031,-6809.894666,-1850.514855,5745.716235
3862.636360,-9252.574275,-1406.391290,7507.735880
3862.636690,-9104.533087,-1110.308913,5209.449386
3862.637020,-8364.327145,0.000000,2145.067394
3862.637350,-10436.903782,222.061783,-612.876398
3862.637680,-11251.130318,592.164754,-2374.896044
3862.638010,-12213.398043,0.000000,-153.219100
3862.638339,-10436.903782,0.000000,3294.210641
3862.638669,-7846.182985,296.082377,2911.162892
3862.638999,-8142.265362,444.123565,229.828649
3862.639329,-10436.903782,2146.597232,-2145.067394
3862.639659,-12139.377449,4737.318029,-3294.210641
3862.639988,-13989.892304,4811.338623,-4903.011187
3862.640318,-13397.727550,3256.906145,-5975.544884
3862.640648,-9918.759623,1776.494261,-3677.258390
3862.640978,-7624.121203,-666.185348,-383.047749
3862.641308,-8586.388927,-1258.350101,1838.629195
3862.641638,-12361.439231,-666.185348,383.047749
3862.641967,-11177.109724,-1628.453072,-2145.067394
3862.642297,-7105.977043,-4515.256246,-4519.963438
3862.642627,-3404.947333,-3923.091493,1455.581446
3862.642957,-7476.080014,-3404.947333,6818.249932
3862.643287,-11029.068536,-2072.576638,7967.393179
3862.643616,-8068.244768,-2812.782580,4596.572988
3862.643946,-6587.832884,-1998.556043,536.266849
3862.644276,-7698.141797,-370.102971,995.924147
3862.644606,-11473.192101,-814.226536,1838.629195
3862.644936,-11843.295072,-962.267725,2681.334243
3862.645266,-9104.533087,-370.102971,4060.306139
3862.645595,-7994.224174,1406.391290,4903.011187
3862.645925,-9474.636058,2516.700203,1915.238745
3862.646255,-13027.624579,4663.297435,-1762.019645
3862.646585,-15766.386565,6883.915261,-5056.230287
3862.646915,-14137.933492,6513.812290,-5898.935335
3862.647245,-13767.830521,5403.503377,-4213.525239
3862.647574,-11769.274478,3182.885551,-2528.115143
3862.647904,-9252.574275,1036.288319,-1378.971896
3862.648234,-8364.327145,-1110.308913,-995.924147
3862.648564,-8956.491898,-1702.473667,536.266849
3862.648894,-11991.336260,-1036.288319,919.314598
3862.649223,-9400.615463,-3849.070898,0.000000
3862.649553,-4663.297435,-4663.297435,1838.629195
3862.649883,-3404.947333,-4737.318029,5515.887586
3862.650213,-6661.853478,-3701.029710,8197.221829
3862.650543,-10140.821405,-2368.659014,8273.831378
3862.650873,-10436.903782,-666.185348,5362.668486
3862.651202,-8438.347739,1110.308913,-995.924147
3862.651532,-9252.574275,1258.350101,-4290.134789
3862.651862,-10955.047942,740.205942,-4519.963438
3862.652192,-10955.047942,1036.288319,1072.533697
3862.652522,-10510.924376,3108.864956,3370.820191
3862.652851,-10066.800811,4441.235652,0.000000
3862.653181,-10584.944971,4959.379811,-5515.887586
3862.653511,-12139.377449,4811.338623,-7737.564530
3862.653841,-13545.768739,5551.544565,-5439.278036
3862.654171,-13027.624579,4441.235652,-1072.533697
3862.654501,-11843.295072,2220.617826,306.438199
3862.654830,-7772.162391,-296.082377,229.828649
3862.655160,-7476.080014,-2220.617826,1838.629195
3862.655490,-12065.356855,-518.144159,2068.457845
3862.655820,-14359.995275,-2442.679609,-229.828649
3862.656150,-8216.285956,-3552.988522,-3600.648841
3862.656480,-2738.761985,-5329.482782,-919.314598
3862.656809,-4589.276840,-4071.132681,4903.011187
3862.657139,-8734.430116,-2442.679609,9652.803275
3862.657469,-10658.965565,-1036.288319,7507.735880
3862.657799,-9622.677246,-296.082377,-2298.286494
3862.658129,-9104.533087,0.000000,-6818.249932
3862.658458,-10584.944971,222.061783,-4749.792088
3862.658788,-11399.171507,-222.061783,153.219100
3862.659118,-7994.224174,444.123565,4673.182538
3862.659448,-10658.965565,1850.514855,3524.039291
3862.659778,-11621.233289,666.185348,-1915.238745
3862.660108,-10436.903782,2220.617826,-5515.887586
3862.660437,-10807.006753,3404.947333,-4903.011187
3862.660767,-13767.830521,4219.173869,-1149.143247
3862.661097,-14211.954086,2960.823768,919.314598
3862.661427,-9252.574275,518.144159,-306.438199
3862.661757,-6957.935855,-592.164754,-1532.190996
3862.662087,-8142.265362,-1554.432478,-1838.629195
3862.662416,-12361.439231,-1554.432478,-2451.505594
3862.662746,-12583.501014,-2886.803174,-2528.115143
3862.663076,-7772.162391,-5255.462188,-995.924147
3862.663406,-4737.318029,-4663.297435,2757.943793
3862.663736,-7402.059420,-3997.112087,5515.887586
3862.664065,-7476.080014,-4367.215058,3677.258390
3862.664395,-7105.977043,-3775.050304,612.876398
3862.664725,-8142.265362,-2146.597232,-229.828649
3862.665055,-10732.986159,-666.185348,1762.019645
3862.665385,-11769.274478,296.082377,2604.724693
3862.665715,-9622.677246,-1184.329507,2145.067394
3862.666044,-9400.615463,-370.102971,2528.115143
3862.666374,-12213.398043,0.000000,3524.039291
3862.666704,-12139.377449,592.164754,76.609550
3862.667034,-9770.718434,888.247130,-2068.457845
3862.667364,-9030.512492,2664.741391,-1991.848295
3862.667693,-12065.356855,4737.318029,689.485948
3862.668023,-14137.933492,3923.091493,1302.362347
3862.668353,-13027.624579,3330.926739,-153.219100
3862.668683,-9918.759623,1406.391290,-2145.067394
3862.669013,-8364.327145,0.000000,-3830.477490
3862.669343,-8586.388927,-1628.453072,-1762.019645
3862.669672,-10510.924376,-1480.411884,1685.410096
3862.670002,-9548.656652,-888.247130,3677.258390
3862.670332,-10214.842000,-1480.411884,2987.772442
3862.670662,-9992.780217,-2812.782580,-229.828649
3862.670992,-6069.688724,-2442.679609,-1378.971896
3862.671322,-6735.874072,-2294.638420,2374.896044
3862.671651,-8734.430116,-1850.514855,4213.525239
3862.671981,-8438.347739,-1332.370696,4826.401637
3862.672311,-7772.162391,-222.061783,2145.067394
3862.672641,-8142.265362,-740.205942,-1608.800546
3862.672971,-8882.471304,1110.308913,-1762.019645
