#time,accel_x,accel_y,accel_z
4158.340267,-9548.656652,148.041188,0.000000
4158.340597,-9400.615463,0.000000,-306.438199
4158.340928,-9918.759623,148.041188,153.219100
4158.341258,-9992.780217,0.000000,153.219100
4158.341588,-9770.718434,0.000000,153.219100
4158.341918,-9770.718434,444.123565,383.047749
4158.342248,-9918.759623,0.000000,459.657299
4158.342578,-9770.718434,0.000000,383.047749
4158.342909,-9918.759623,0.000000,306.438199
4158.343239,-9844.739029,0.000000,306.438199
4158.343569,-9992.780217,74.020594,229.828649
4158.343899,-9696.697840,0.000000,153.219100
4158.344229,-9548.656652,0.000000,0.000000
4158.344559,-9548.656652,-222.061783,0.000000
4158.344890,-9770.718434,0.000000,536.266849
4158.345220,-9474.636058,-370.102971,612.876398
4158.345550,-9548.656652,-148.041188,842.705048
4158.345880,-9622.677246,296.082377,919.314598
4158.346210,-9992.780217,0.000000,612.876398
4158.346540,-10362.883188,740.205942,689.485948
4158.346870,-10732.986159,444.123565,459.657299
4158.347201,-10288.862594,74.020594,1378.971896
4158.347531,-9696.697840,-222.061783,1762.019645
4158.347861,-9474.636058,-222.061783,2068.457845
4158.348191,-9622.677246,-592.164754,1915.238745
4158.348521,-9918.759623,-296.082377,919.314598
4158.348851,-9844.739029,0.000000,-229.828649
4158.349182,-9548.656652,-296.082377,-306.438199
4158.349512,-9548.656652,0.000000,153.219100
4158.349842,-9844.739029,-74.020594,1225.752797
4158.350172,-9992.780217,-74.020594,2145.067394
4158.350502,-9474.636058,-444.123565,2145.067394
4158.350832,-10214.842000,-296.082377,1838.629195
4158.351163,-10066.800811,-888.247130,1838.629195
4158.351493,-10362.883188,-1036.288319,1915.238745
4158.351823,-10066.800811,-1258.350101,2145.067394
4158.352153,-9918.759623,-1332.370696,2604.724693
4158.352483,-9918.759623,-1406.391290,3217.601092
4158.352813,-9992.780217,-1110.308913,2911.162892
4158.353143,-10066.800811,-1332.370696,2604.724693
4158.353474,-10214.842000,-962.267725,2451.505594
4158.353804,-10288.862594,-740.205942,1608.800546
4158.354134,-10214.842000,-1036.288319,1685.410096
4158.354464,-10140.821405,-1332.370696,1838.629195
4158.354794,-9918.759623,-2220.617826,2145.067394
4158.355124,-9844.739029,-2516.700203,2681.334243
4158.355455,-9548.656652,-3478.967927,2757.943793
4158.355785,-8734.430116,-3775.050304,2374.896044
4158.356115,-8068.244768,-3775.050304,2757.943793
4158.356445,-8290.306550,-3627.009116,3600.648841
4158.356775,-8808.450710,-3256.906145,4136.915689
4158.357105,-9474.636058,-3108.864956,4136.915689
4158.357436,-10288.862594,-2516.700203,3677.258390
4158.357766,-11103.089130,-3182.885551,3064.381992
4158.358096,-11177.109724,-2516.700203,2451.505594
4158.358426,-10658.965565,-2738.761985,1072.533697
4158.358756,-9918.759623,-3034.844362,612.876398
4158.359086,-9178.553681,-2960.823768,383.047749
4158.359417,-8586.388927,-2738.761985,1838.629195
4158.359747,-8808.450710,-3478.967927,2374.896044
4158.360077,-9178.553681,-3478.967927,2987.772442
4158.360407,-9844.739029,-4145.153275,3524.039291
4158.360737,-10140.821405,-4737.318029,3447.429741
4158.361067,-9844.739029,-4367.215058,3447.429741
4158.361397,-9474.636058,-4145.153275,4060.306139
4158.361728,-9992.780217,-3330.926739,4519.963438
4158.362058,-10436.903782,-3182.885551,4366.744339
4158.362388,-10658.965565,-2368.659014,2374.896044
4158.362718,-10584.944971,-2294.638420,1532.190996
4158.363048,-10436.903782,-2072.576638,1455.581446
4158.363378,-10140.821405,-2516.700203,1838.629195
4158.363709,-9844.739029,-2886.803174,1991.848295
4158.364039,-9474.636058,-3182.885551,1532.190996
4158.364369,-8808.450710,-3330.926739,919.314598
4158.364699,-9178.553681,-3034.844362,919.314598
4158.365029,-9326.594869,-2664.741391,1455.581446
4158.365359,-10510.924376,-2368.659014,3370.820191
4158.365690,-11325.150913,-1776.494261,4519.963438
4158.366020,-10436.903782,-1850.514855,3753.867940
4158.366350,-9400.615463,-1776.494261,2757.943793
4158.366680,-8808.450710,-2146.597232,1685.410096
4158.367010,-10066.800811,-1850.514855,2145.067394
4158.367340,-10510.924376,-1998.556043,2757.943793
4158.367670,-10214.842000,-1480.411884,3217.601092
4158.368001,-9474.636058,-1628.453072,2681.334243
4158.368331,-9474.636058,-1554.432478,1455.581446
4158.368661,-9548.656652,-1406.391290,536.266849
4158.368991,-9770.718434,-1480.411884,689.485948
4158.369321,-9548.656652,-666.185348,1072.533697
4158.369651,-9400.615463,-1110.308913,2451.505594
4158.369982,-9252.574275,-1480.411884,3524.039291
4158.370312,-10066.800811,-1258.350101,4060.306139
4158.370642,-9918.759623,-1036.288319,2834.553343
4158.370972,-10955.047942,-1480.411884,1991.848295
4158.371302,-10288.862594,-1184.329507,1991.848295
4158.371632,-9474.636058,-1036.288319,2451.505594
4158.371963,-8956.491898,-592.164754,2451.505594
4158.372293,-9400.615463,-370.102971,2604.724693
4158.372623,-10362.883188,-296.082377,1455.581446
4158.372953,-9918.759623,-518.144159,-229.828649
4158.373283,-8882.471304,-962.267725,-612.876398
4158.373613,-9178.553681,-518.144159,612.876398
4158.373943,-9622.677246,-1110.308913,1685.410096
4158.374274,-9474.636058,-1184.329507,2681.334243
4158.374604,-9474.636058,-1406.391290,2834.553343
4158.374934,-9918.759623,-1628.453072,2221.676944
4158.375264,-10214.842000,-1628.453072,2374.896044
4158.375594,-10436.903782,-1406.391290,1915.238745
4158.375924,-10066.800811,-1554.432478,2604.724693
4158.376255,-9770.718434,-1258.350101,3447.429741
4158.376585,-10214.842000,-1406.391290,3600.648841
4158.376915,-10288.862594,-1258.350101,2451.505594
4158.377245,-9474.636058,-1924.535449,1072.533697
4158.377575,-9548.656652,-1924.535449,1149.143247
4158.377905,-10066.800811,-1924.535449,2451.505594
4158.378236,-10214.842000,-2294.638420,2834.553343
4158.378566,-9696.697840,-2368.659014,2681.334243
4158.378896,-9178.553681,-2590.720797,2451.505594
4158.379226,-9104.533087,-2960.823768,2298.286494
4158.379556,-10066.800811,-2590.720797,2681.334243
4158.379886,-10140.821405,-2442.679609,3140.991542
4158.380216,-10436.903782,-2442.679609,4213.525239
4158.380547,-9992.780217,-3034.844362,3830.477490
4158.380877,-10214.842000,-2664.741391,3524.039291
4158.381207,-10955.047942,-2960.823768,3370.820191
4158.381537,-10288.862594,-2960.823768,2068.457845
4158.381867,-9548.656652,-2886.803174,1072.533697
4158.382197,-8290.306550,-3330.926739,1225.752797
4158.382528,-8956.491898,-3182.885551,1532.190996
4158.382858,-10140.821405,-2960.823768,3370.820191
4158.383188,-10362.883188,-3330.926739,2911.162892
4158.383518,-9622.677246,-3478.967927,2298.286494
4158.383848,-9326.594869,-3701.029710,2757.943793
4158.384178,-10140.821405,-3997.112087,3140.991542
4158.384509,-10732.986159,-3404.947333,3600.648841
4158.384839,-9918.759623,-3478.967927,3524.039291
4158.385169,-9622.677246,-3478.967927,3140.991542
4158.385499,-9844.739029,-2590.720797,2451.505594
4158.385829,-10732.986159,-2368.659014,1991.848295
4158.386159,-10955.047942,-2960.823768,2911.162892
4158.386489,-10140.821405,-2664.741391,2145.067394
4158.386820,-9548.656652,-3552.988522,2068.457845
4158.387150,-9104.533087,-2960.823768,2298.286494
4158.387480,-8882.471304,-2812.782580,2298.286494
4158.387810,-9030.512492,-2590.720797,1762.019645
4158.388140,-9326.594869,-2368.659014,1608.800546
4158.388470,-10140.821405,-1998.556043,2145.067394
4158.388801,-10584.944971,-1850.514855,2834.553343
4158.389131,-10066.800811,-2368.659014,3370.820191
4158.389461,-10436.903782,-2072.576638,2987.772442
4158.389791,-10140.821405,-2146.597232,2451.505594
4158.390121,-9474.636058,-2072.576638,1838.629195
4158.390451,-8882.471304,-2146.597232,1685.410096
4158.390782,-9696.697840,-1480.411884,2757.943793
4158.391112,-10658.965565,-1258.350101,3447.429741
4158.391442,-10362.883188,-1480.411884,2528.115143
4158.391772,-9474.636058,-1998.556043,1608.800546
4158.392102,-8956.491898,-1480.411884,1762.019645
4158.392432,-9696.697840,-888.247130,2374.896044
4158.392762,-9844.739029,-1110.308913,1915.238745
4158.393093,-9548.656652,-1184.329507,1762.019645
4158.393423,-8882.471304,-666.185348,1838.629195
4158.393753,-9992.780217,-1110.308913,2145.067394
4158.394083,-9770.718434,-1258.350101,2145.067394
4158.394413,-9252.574275,-1258.350101,2528.115143
4158.394743,-9696.697840,-962.267725,2068.457845
4158.395073,-9548.656652,-592.164754,2298.286494
4158.395402,-9696.697840,-740.205942,1685.410096
4158.395732,-10066.800811,-296.082377,1762.019645
4158.396062,-10066.800811,-296.082377,1072.533697
4158.396391,-10362.883188,-222.061783,459.657299
4158.396721,-9474.636058,-370.102971,76.609550
4158.397051,-9622.677246,-592.164754,1149.143247
4158.397380,-9548.656652,-740.205942,1532.190996
4158.397710,-10288.862594,-518.144159,1608.800546
4158.398040,-10140.821405,-740.205942,1225.752797
4158.398369,-9326.594869,-1184.329507,536.266849
4158.398699,-9474.636058,-296.082377,536.266849
4158.399029,-10362.883188,-444.123565,919.314598
4158.399358,-10288.862594,-740.205942,995.924147
4158.399688,-9474.636058,-222.061783,1608.800546
4158.400018,-9696.697840,-592.164754,1685.410096
4158.400347,-10214.842000,-296.082377,2221.676944
4158.400677,-10140.821405,-518.144159,1378.971896
4158.401007,-10066.800811,-814.226536,0.000000
4158.401336,-9178.553681,-740.205942,0.000000
4158.401666,-9252.574275,-1258.350101,766.095498
4158.401996,-9474.636058,-1036.288319,2221.676944
4158.402325,-9326.594869,-518.144159,1532.190996
4158.402655,-9400.615463,-296.082377,0.000000
4158.402985,-9844.739029,0.000000,229.828649
4158.403314,-10881.027347,-370.102971,306.438199
4158.403644,-11547.212695,-296.082377,1072.533697
4158.403974,-11325.150913,-444.123565,1455.581446
4158.404303,-10362.883188,-1036.288319,1149.143247
4158.404633,-8956.491898,-1406.391290,0.000000
4158.404963,-8142.265362,-666.185348,-306.438199
4158.405292,-8808.450710,-740.205942,-536.266849
4158.405622,-8882.471304,-370.102971,-995.924147
4158.405952,-8660.409521,74.020594,-459.657299
4158.406281,-8808.450710,-222.061783,0.000000
4158.406611,-10658.965565,0.000000,842.705048
4158.406941,-11177.109724,740.205942,766.095498
4158.407270,-10955.047942,-1258.350101,76.609550
4158.407600,-9770.718434,-666.185348,-612.876398
4158.407930,-9622.677246,-740.205942,1149.143247
4158.408259,-9696.697840,-592.164754,1762.019645
4158.408589,-8660.409521,0.000000,1532.190996
4158.408919,-8364.327145,740.205942,0.000000
4158.409248,-9992.780217,296.082377,-383.047749
4158.409578,-11029.068536,518.144159,-536.266849
4158.409908,-11251.130318,444.123565,383.047749
4158.410237,-10807.006753,-444.123565,-306.438199
4158.410567,-9474.636058,0.000000,689.485948
4158.410897,-9252.574275,-370.102971,1072.533697
4158.411226,-10140.821405,518.144159,0.000000
4158.411556,-9548.656652,444.123565,-766.095498
4158.411886,-9030.512492,74.020594,-689.485948
4158.412215,-9918.759623,-222.061783,383.047749
4158.412545,-10066.800811,1332.370696,1915.238745
4158.412875,-10658.965565,0.000000,2221.676944
4158.413204,-10066.800811,-370.102971,689.485948
4158.413534,-9326.594869,-444.123565,-383.047749
4158.413864,-9400.615463,-888.247130,-612.876398
4158.414194,-9844.739029,-1036.288319,0.000000
4158.414523,-9326.594869,0.000000,1455.581446
4158.414853,-8660.409521,-444.123565,2145.067394
4158.415183,-9770.718434,74.020594,383.047749
4158.415512,-10140.821405,370.102971,-153.219100
4158.415842,-10066.800811,0.000000,-1378.971896
4158.416172,-8882.471304,370.102971,-1149.143247
4158.416501,-8734.430116,370.102971,383.047749
4158.416831,-9548.656652,296.082377,612.876398
4158.417161,-10584.944971,370.102971,153.219100
4158.417490,-10362.883188,0.000000,-689.485948
4158.417820,-10658.965565,-592.164754,-995.924147
4158.418150,-9844.739029,0.000000,0.000000
4158.418479,-9696.697840,-666.185348,689.485948
4158.418809,-9104.533087,0.000000,1378.971896
4158.419139,-8586.388927,518.144159,1455.581446
4158.419468,-9474.636058,592.164754,-612.876398
4158.419798,-10807.006753,814.226536,-1685.410096
4158.420128,-11621.233289,518.144159,-842.705048
4158.420457,-10807.006753,370.102971,1149.143247
4158.420787,-10436.903782,592.164754,1225.752797
4158.421117,-10214.842000,592.164754,1149.143247
4158.421446,-10066.800811,-444.123565,0.000000
4158.421776,-9622.677246,444.123565,-459.657299
4158.422106,-9252.574275,148.041188,229.828649
4158.422435,-10584.944971,1110.308913,536.266849
4158.422765,-10436.903782,1184.329507,689.485948
4158.423095,-10066.800811,962.267725,1072.533697
4158.423424,-10436.903782,962.267725,229.828649
4158.423754,-10658.965565,814.226536,0.000000
4158.424084,-10362.883188,0.000000,-536.266849
4158.424413,-8586.388927,296.082377,-459.657299
4158.424743,-8882.471304,814.226536,76.609550
4158.425073,-10510.924376,666.185348,229.828649
4158.425402,-10066.800811,592.164754,-383.047749
4158.425732,-8956.491898,370.102971,-306.438199
4158.426062,-9030.512492,666.185348,-919.314598
4158.426391,-9326.594869,666.185348,-842.705048
4158.426721,-9326.594869,740.205942,0.000000
4158.427051,-10066.800811,518.144159,-229.828649
4158.427380,-9178.553681,222.061783,459.657299
4158.427710,-9622.677246,0.000000,689.485948
4158.428040,-10288.862594,370.102971,383.047749
4158.428369,-9326.594869,0.000000,306.438199
4158.428699,-8290.306550,-296.082377,-153.219100
4158.429029,-8660.409521,0.000000,0.000000
4158.429358,-9548.656652,0.000000,536.266849
4158.429688,-10362.883188,222.061783,842.705048
4158.430018,-9474.636058,148.041188,536.266849
4158.430347,-8660.409521,-444.123565,0.000000
4158.430677,-10140.821405,0.000000,-153.219100
4158.431007,-11103.089130,592.164754,383.047749
4158.431336,-11029.068536,-222.061783,919.314598
4158.431666,-10807.006753,222.061783,1149.143247
4158.431996,-9178.553681,-444.123565,1149.143247
4158.432325,-8808.450710,-740.205942,459.657299
4158.432655,-8956.491898,-518.144159,0.000000
4158.432985,-9474.636058,-222.061783,612.876398
4158.433314,-10288.862594,0.000000,766.095498
4158.433644,-11103.089130,148.041188,0.000000
4158.433974,-10510.924376,0.000000,-306.438199
4158.434303,-10066.800811,-222.061783,-995.924147
4158.434633,-8660.409521,-740.205942,-1072.533697
4158.434963,-8882.471304,-222.061783,-306.438199
4158.435292,-9548.656652,-444.123565,153.219100
4158.435622,-10066.800811,-370.102971,459.657299
4158.435952,-10955.047942,0.000000,383.047749
4158.436281,-9770.718434,-518.144159,-766.095498
4158.436611,-9030.512492,-296.082377,-536.266849
4158.436941,-9326.594869,-592.164754,76.609550
4158.437270,-9622.677246,-814.226536,689.485948
4158.437600,-9326.594869,0.000000,1378.971896
4158.437930,-9326.594869,-296.082377,612.876398
4158.438259,-10214.842000,666.185348,229.828649
4158.438589,-11325.150913,518.144159,536.266849
4158.438919,-10955.047942,0.000000,306.438199
4158.439248,-10214.842000,0.000000,306.438199
4158.439578,-9104.533087,222.061783,1072.533697
4158.439908,-9474.636058,-296.082377,536.266849
4158.440237,-9844.739029,148.041188,612.876398
4158.440567,-9474.636058,-222.061783,383.047749
4158.440897,-10436.903782,148.041188,383.047749
4158.441226,-10584.944971,222.061783,306.438199
4158.441556,-10881.027347,0.000000,229.828649
4158.441886,-9326.594869,74.020594,306.438199
4158.442215,-8882.471304,222.061783,306.438199
4158.442545,-10584.944971,222.061783,766.095498
4158.442875,-11103.089130,0.000000,229.828649
4158.443204,-9844.739029,0.000000,1149.143247
4158.443534,-9326.594869,-74.020594,689.485948
4158.443864,-9622.677246,0.000000,383.047749
4158.444194,-9992.780217,-370.102971,229.828649
4158.444523,-9548.656652,-666.185348,0.000000
4158.444853,-8512.368333,-592.164754,-1225.752797
4158.445183,-8512.368333,148.041188,-919.314598
4158.445512,-9178.553681,0.000000,-612.876398
4158.445842,-9030.512492,444.123565,0.000000
4158.446172,-9548.656652,74.020594,0.000000
4158.446501,-10140.821405,0.000000,-306.438199
4158.446831,-10362.883188,592.164754,153.219100
4158.447161,-10658.965565,-592.164754,459.657299
4158.447490,-9030.512492,0.000000,0.000000
4158.447820,-9104.533087,0.000000,766.095498
4158.448150,-9548.656652,370.102971,229.828649
4158.448479,-10140.821405,296.082377,-383.047749
4158.448809,-9844.739029,148.041188,0.000000
4158.449139,-9992.780217,444.123565,76.609550
4158.449468,-10732.986159,518.144159,153.219100
4158.449798,-10214.842000,148.041188,919.314598
4158.450128,-9844.739029,0.000000,0.000000
4158.450457,-9696.697840,370.102971,0.000000
4158.450787,-9992.780217,-296.082377,0.000000
4158.451117,-10362.883188,-222.061783,0.000000
4158.451446,-10066.800811,0.000000,1608.800546
4158.451776,-9918.759623,0.000000,1455.581446
4158.452106,-9844.739029,0.000000,766.095498
4158.452435,-9400.615463,74.020594,383.047749
4158.452765,-10214.842000,-148.041188,0.000000
4158.453095,-10288.862594,-74.020594,689.485948
4158.453424,-9696.697840,-74.020594,919.314598
4158.453754,-9400.615463,74.020594,536.266849
4158.454084,-8956.491898,-222.061783,0.000000
4158.454413,-9622.677246,-74.020594,0.000000
4158.454743,-9622.677246,0.000000,-459.657299
4158.455073,-9844.739029,-592.164754,153.219100
4158.455402,-9918.759623,-148.041188,306.438199
4158.455732,-9474.636058,0.000000,383.047749
4158.456062,-8512.368333,-666.185348,306.438199
4158.456391,-9178.553681,-148.041188,0.000000
4158.456721,-10436.903782,592.164754,459.657299
4158.457051,-11103.089130,222.061783,766.095498
4158.457380,-10955.047942,296.082377,536.266849
4158.457710,-9178.553681,148.041188,-459.657299
4158.458040,-9474.636058,296.082377,0.000000
4158.458369,-9992.780217,518.144159,-766.095498
4158.458699,-10362.883188,0.000000,459.657299
4158.459029,-9474.636058,-74.020594,0.000000
4158.459358,-9770.718434,148.041188,459.657299
4158.459688,-10214.842000,0.000000,995.924147
4158.460018,-10288.862594,-222.061783,229.828649
4158.460347,-9918.759623,-296.082377,536.266849
4158.460677,-9104.533087,-592.164754,842.705048
4158.461007,-9696.697840,0.000000,1455.581446
4158.461336,-10288.862594,0.000000,2451.505594
4158.461666,-10140.821405,222.061783,1225.752797
4158.461996,-10066.800811,0.000000,-536.266849
4158.462325,-9770.718434,148.041188,-1149.143247
4158.462655,-9696.697840,148.041188,-306.438199
4158.462985,-9918.759623,518.144159,306.438199
4158.463314,-8512.368333,0.000000,76.609550
4158.463644,-9104.533087,148.041188,-76.609550
4158.463974,-9548.656652,148.041188,-842.705048
4158.464303,-10436.903782,0.000000,-1072.533697
4158.464633,-10658.965565,518.144159,-842.705048
4158.464963,-9548.656652,-444.123565,0.000000
4158.465292,-8142.265362,0.000000,1072.533697
4158.465622,-8364.327145,0.000000,459.657299
4158.465952,-9400.615463,296.082377,689.485948
4158.466281,-10658.965565,148.041188,459.657299
4158.466611,-10658.965565,0.000000,459.657299
4158.466941,-9622.677246,148.041188,1302.362347
4158.467270,-9918.759623,0.000000,2374.896044
4158.467600,-9252.574275,0.000000,1072.533697
4158.467930,-9030.512492,148.041188,842.705048
4158.468259,-9474.636058,0.000000,-306.438199
4158.468589,-10214.842000,-222.061783,-842.705048
4158.468919,-10807.006753,740.205942,229.828649
4158.469248,-10658.965565,222.061783,229.828649
4158.469578,-9992.780217,518.144159,-306.438199
4158.469908,-9326.594869,-444.123565,0.000000
4158.470237,-10584.944971,444.123565,-306.438199
4158.470567,-9992.780217,74.020594,383.047749
4158.470897,-9696.697840,74.020594,383.047749
4158.471226,-9622.677246,0.000000,306.438199
4158.471556,-10066.800811,222.061783,995.924147
4158.471886,-11029.068536,148.041188,0.000000
4158.472215,-10436.903782,-592.164754,-689.485948
4158.472545,-9400.615463,-296.082377,-919.314598
4158.472875,-9104.533087,-592.164754,-766.095498
4158.473204,-9400.615463,0.000000,-459.657299
4158.473534,-9548.656652,0.000000,0.000000
4158.473864,-9252.574275,370.102971,-383.047749
4158.474193,-9844.739029,222.061783,153.219100
4158.474523,-10584.944971,0.000000,459.657299
4158.474853,-10288.862594,-518.144159,383.047749
4158.475183,-9622.677246,-370.102971,1225.752797
4158.475512,-9178.553681,-888.247130,1762.019645
4158.475842,-9770.718434,-814.226536,766.095498
4158.476172,-9326.594869,74.020594,306.438199
4158.476501,-9474.636058,-370.102971,689.485948
4158.476831,-9918.759623,444.123565,1149.143247
4158.477161,-11251.130318,370.102971,995.924147
4158.477490,-10807.006753,370.102971,-383.047749
4158.477820,-9104.533087,296.082377,0.000000
4158.478150,-9622.677246,814.226536,76.609550
4158.478479,-10584.944971,0.000000,-76.609550
4158.478809,-10066.800811,444.123565,0.000000
4158.479139,-8734.430116,0.000000,0.000000
4158.479468,-9548.656652,370.102971,229.828649
4158.479798,-9178.553681,0.000000,306.438199
4158.480128,-10140.821405,-222.061783,76.609550
4158.480457,-9326.594869,222.061783,383.047749
4158.480787,-9400.615463,-370.102971,0.000000
4158.481117,-9844.739029,518.144159,766.095498
4158.481446,-9474.636058,0.000000,766.095498
4158.481776,-8734.430116,370.102971,536.266849
4158.482106,-9252.574275,148.041188,-229.828649
4158.482435,-9918.759623,444.123565,-689.485948
4158.482765,-10732.986159,148.041188,-76.609550
4158.483095,-10288.862594,666.185348,229.828649
4158.483424,-9400.615463,-444.123565,-612.876398
4158.483754,-9326.594869,0.000000,-919.314598
4158.484084,-9104.533087,370.102971,-766.095498
4158.484413,-9252.574275,0.000000,-689.485948
4158.484743,-9326.594869,-444.123565,0.000000
4158.485073,-10140.821405,370.102971,0.000000
4158.485402,-10214.842000,666.185348,612.876398
4158.485732,-10881.027347,444.123565,153.219100
4158.486062,-10881.027347,222.061783,-689.485948
4158.486391,-9548.656652,0.000000,76.609550
4158.486721,-9918.759623,0.000000,536.266849
4158.487051,-9770.718434,-74.020594,689.485948
4158.487380,-9844.739029,0.000000,995.924147
4158.487710,-9548.656652,0.000000,612.876398
4158.488040,-8808.450710,0.000000,-306.438199
4158.488369,-9992.780217,370.102971,-842.705048
4158.488699,-11251.130318,222.061783,-689.485948
4158.489029,-9770.718434,0.000000,0.000000
4158.489358,-8808.450710,-444.123565,229.828649
4158.489688,-8586.388927,-296.082377,0.000000
4158.490018,-9326.594869,148.041188,153.219100
4158.490347,-9992.780217,666.185348,-229.828649
4158.490677,-9548.656652,-148.041188,-229.828649
4158.491007,-9844.739029,0.000000,76.609550
4158.491336,-10140.821405,74.020594,76.609550
4158.491666,-9474.636058,296.082377,0.000000
4158.491996,-9622.677246,222.061783,229.828649
4158.492325,-8808.450710,296.082377,0.000000
4158.492655,-9178.553681,666.185348,0.000000
4158.492985,-9770.718434,296.082377,0.000000
4158.493314,-9844.739029,814.226536,-306.438199
4158.493644,-10288.862594,370.102971,229.828649
4158.493974,-10436.903782,444.123565,612.876398
4158.494303,-9844.739029,-518.144159,766.095498
4158.494633,-8512.368333,148.041188,1685.410096
4158.494962,-9548.656652,0.000000,1685.410096
4158.495292,-10362.883188,740.205942,1532.190996
4158.495622,-10584.944971,148.041188,842.705048
4158.495951,-10510.924376,370.102971,-459.657299
4158.496281,-9992.780217,74.020594,383.047749
4158.496610,-10288.862594,0.000000,919.314598
4158.496940,-9770.718434,-592.164754,1225.752797
4158.497270,-9696.697840,0.000000,1378.971896
4158.497599,-9474.636058,-370.102971,995.924147
4158.497929,-9918.759623,-222.061783,-229.828649
4158.498258,-9326.594869,296.082377,-306.438199
4158.498588,-9992.780217,0.000000,76.609550
4158.498918,-9622.677246,962.267725,0.000000
4158.499247,-9696.697840,-148.041188,689.485948
4158.499577,-9918.759623,0.000000,153.219100
4158.499906,-9474.636058,-1110.308913,0.000000
4158.500236,-9178.553681,-148.041188,306.438199
4158.500566,-9474.636058,-518.144159,153.219100
4158.500895,-9474.636058,-222.061783,459.657299
4158.501225,-9252.574275,-370.102971,459.657299
4158.501554,-9992.780217,0.000000,-689.485948
4158.501884,-10066.800811,0.000000,-459.657299
4158.502214,-10436.903782,-814.226536,-1378.971896
4158.502543,-9030.512492,222.061783,-689.485948
4158.502873,-8216.285956,0.000000,459.657299
4158.503202,-9992.780217,0.000000,842.705048
4158.503532,-10658.965565,0.000000,229.828649
4158.503862,-10510.924376,-296.082377,0.000000
4158.504191,-9770.718434,-666.185348,-1149.143247
4158.504521,-9696.697840,592.164754,0.000000
4158.504850,-10881.027347,-518.144159,1532.190996
4158.505180,-10658.965565,0.000000,1378.971896
4158.505510,-9548.656652,-222.061783,1072.533697
4158.505839,-10140.821405,666.185348,459.657299
4158.506169,-10140.821405,148.041188,-1302.362347
4158.506498,-10510.924376,444.123565,-995.924147
4158.506828,-10066.800811,-222.061783,-459.657299
4158.507158,-9844.739029,74.020594,0.000000
4158.507487,-9918.759623,0.000000,-459.657299
4158.507817,-9696.697840,-222.061783,-689.485948
4158.508146,-9400.615463,518.144159,-383.047749
4158.508476,-9474.636058,148.041188,229.828649
4158.508806,-9918.759623,518.144159,0.000000
4158.509135,-9770.718434,296.082377,0.000000
4158.509465,-9104.533087,0.000000,153.219100
4158.509794,-9474.636058,74.020594,0.000000
4158.510124,-9770.718434,444.123565,-306.438199
4158.510454,-9474.636058,-222.061783,0.000000
4158.510783,-9178.553681,148.041188,-842.705048
4158.511113,-8512.368333,444.123565,0.000000
4158.511442,-9474.636058,0.000000,229.828649
4158.511772,-9992.780217,518.144159,536.266849
4158.512102,-9696.697840,74.020594,612.876398
4158.512431,-10658.965565,592.164754,76.609550
4158.512761,-10362.883188,444.123565,153.219100
4158.513090,-9918.759623,666.185348,229.828649
4158.513420,-8956.491898,370.102971,-689.485948
4158.513749,-9622.677246,888.247130,612.876398
4158.514079,-10584.944971,888.247130,1225.752797
4158.514409,-9992.780217,1184.329507,383.047749
4158.514738,-9474.636058,1036.288319,0.000000
4158.515068,-9622.677246,148.041188,-536.266849
4158.515397,-9918.759623,518.144159,0.000000
4158.515727,-10288.862594,0.000000,919.314598
4158.516057,-9770.718434,444.123565,383.047749
4158.516386,-10140.821405,-148.041188,1072.533697
4158.516716,-9770.718434,444.123565,153.219100
4158.517045,-9474.636058,0.000000,-76.609550
4158.517375,-10140.821405,814.226536,-383.047749
4158.517705,-10066.800811,814.226536,612.876398
4158.518034,-10140.821405,666.185348,76.609550
4158.518364,-9548.656652,814.226536,0.000000
4158.518693,-9548.656652,0.000000,-153.219100
4158.519023,-10066.800811,0.000000,-536.266849
4158.519353,-9474.636058,-222.061783,383.047749
4158.519682,-9474.636058,-222.061783,766.095498
4158.520012,-9770.718434,-296.082377,459.657299
4158.520341,-9400.615463,0.000000,0.000000
4158.520671,-9622.677246,0.000000,0.000000
4158.521001,-9696.697840,370.102971,306.438199
4158.521330,-9770.718434,74.020594,1072.533697
4158.521660,-10362.883188,444.123565,612.876398
4158.521989,-9770.718434,0.000000,229.828649
4158.522319,-9844.739029,-518.144159,306.438199
4158.522649,-9992.780217,-444.123565,459.657299
4158.522978,-9474.636058,0.000000,689.485948
4158.523308,-9474.636058,-814.226536,459.657299
4158.523637,-8956.491898,-592.164754,306.438199
4158.523967,-9252.574275,148.041188,306.438199
4158.524297,-10140.821405,296.082377,306.438199
4158.524626,-10584.944971,444.123565,-536.266849
4158.524956,-10214.842000,518.144159,-229.828649
4158.525285,-10658.965565,888.247130,-153.219100
4158.525615,-10066.800811,0.000000,-459.657299
4158.525945,-9770.718434,-592.164754,-459.657299
4158.526274,-9474.636058,-444.123565,0.000000
4158.526604,-9474.636058,-518.144159,459.657299
4158.526933,-9178.553681,-740.205942,0.000000
4158.527263,-10066.800811,-74.020594,0.000000
4158.527593,-9844.739029,370.102971,459.657299
4158.527922,-9992.780217,-296.082377,383.047749
4158.528252,-9400.615463,0.000000,153.219100
4158.528581,-9548.656652,148.041188,766.095498
4158.528911,-9622.677246,0.000000,612.876398
4158.529241,-9474.636058,-592.164754,842.705048
4158.529570,-9622.677246,-518.144159,306.438199
4158.529900,-9548.656652,-518.144159,0.000000
4158.530229,-9770.718434,0.000000,153.219100
4158.530559,-9400.615463,-962.267725,229.828649
4158.530889,-8882.471304,0.000000,919.314598
4158.531218,-9770.718434,444.123565,919.314598
4158.531548,-10807.006753,74.020594,306.438199
4158.531877,-10362.883188,370.102971,0.000000
4158.532207,-9770.718434,0.000000,0.000000
4158.532537,-9918.759623,370.102971,612.876398
4158.532866,-9770.718434,666.185348,766.095498
4158.533196,-9474.636058,222.061783,919.314598
4158.533525,-10066.800811,74.020594,383.047749
4158.533855,-9844.739029,296.082377,0.000000
4158.534185,-10214.842000,0.000000,612.876398
4158.534514,-9992.780217,74.020594,766.095498
4158.534844,-9252.574275,0.000000,766.095498
4158.535173,-9696.697840,-444.123565,612.876398
4158.535503,-9770.718434,-592.164754,229.828649
4158.535833,-9252.574275,-148.041188,459.657299
4158.536162,-9178.553681,0.000000,76.609550
4158.536492,-9918.759623,148.041188,-229.828649
4158.536821,-10214.842000,296.082377,1072.533697
4158.537151,-10955.047942,-444.123565,1302.362347
4158.537481,-10140.821405,222.061783,766.095498
4158.537810,-9474.636058,-592.164754,842.705048
4158.538140,-9326.594869,-370.102971,76.609550
4158.538469,-7994.224174,-444.123565,0.000000
4158.538799,-8660.409521,0.000000,536.266849
4158.539129,-9696.697840,0.000000,306.438199
4158.539458,-10881.027347,222.061783,306.438199
4158.539788,-10584.944971,222.061783,383.047749
4158.540117,-9770.718434,296.082377,-306.438199
4158.540447,-9326.594869,0.000000,383.047749
4158.540777,-10436.903782,0.000000,842.705048
4158.541106,-10362.883188,0.000000,459.657299
4158.541436,-9696.697840,148.041188,306.438199
4158.541765,-9844.739029,518.144159,-153.219100
4158.542095,-9770.718434,222.061783,-229.828649
4158.542425,-10066.800811,666.185348,-383.047749
4158.542754,-9696.697840,74.020594,-1225.752797
4158.543084,-9548.656652,0.000000,-919.314598
4158.543413,-9548.656652,-370.102971,76.609550
4158.543743,-9844.739029,222.061783,689.485948
4158.544073,-9548.656652,592.164754,1072.533697
4158.544402,-9770.718434,444.123565,-459.657299
4158.544732,-10807.006753,148.041188,-229.828649
4158.545061,-10510.924376,592.164754,459.657299
4158.545391,-10140.821405,518.144159,0.000000
4158.545721,-9474.636058,0.000000,-842.705048
4158.546050,-8586.388927,370.102971,-995.924147
4158.546380,-9252.574275,222.061783,-995.924147
4158.546709,-9992.780217,518.144159,-919.314598
4158.547039,-10436.903782,0.000000,383.047749
4158.547369,-10140.821405,666.185348,76.609550
4158.547698,-9030.512492,0.000000,0.000000
4158.548028,-9548.656652,-444.123565,-229.828649
4158.548357,-9548.656652,-296.082377,0.000000
4158.548687,-9844.739029,-370.102971,1378.971896
4158.549017,-9326.594869,-370.102971,1149.143247
4158.549346,-9030.512492,0.000000,766.095498
4158.549676,-9770.718434,74.020594,919.314598
4158.550005,-10584.944971,0.000000,919.314598
4158.550335,-10066.800811,0.000000,919.314598
4158.550665,-9474.636058,-296.082377,153.219100
4158.550994,-9400.615463,74.020594,306.438199
4158.551324,-8956.491898,-222.061783,536.266849
4158.551653,-9696.697840,148.041188,919.314598
4158.551983,-9696.697840,296.082377,0.000000
4158.552313,-9992.780217,444.123565,-229.828649
4158.552642,-9918.759623,-444.123565,0.000000
4158.552972,-10288.862594,222.061783,0.000000
4158.553301,-9992.780217,-148.041188,842.705048
4158.553631,-10288.862594,-222.061783,689.485948
4158.553961,-9548.656652,0.000000,536.266849
4158.554290,-9474.636058,0.000000,153.219100
4158.554620,-9770.718434,74.020594,612.876398
4158.554949,-10214.842000,0.000000,306.438199
4158.555279,-9918.759623,-296.082377,-383.047749
4158.555609,-9326.594869,-666.185348,-612.876398
4158.555938,-9992.780217,148.041188,689.485948
4158.556268,-10288.862594,-222.061783,1072.533697
4158.556597,-9400.615463,-888.247130,612.876398
4158.556927,-8734.430116,-814.226536,766.095498
4158.557257,-9400.615463,-888.247130,306.438199
4158.557586,-10214.842000,370.102971,-229.828649
4158.557916,-10584.944971,74.020594,536.266849
4158.558245,-9992.780217,222.061783,1072.533697
4158.558575,-10066.800811,148.041188,536.266849
4158.558905,-10510.924376,148.041188,383.047749
4158.559234,-10362.883188,-666.185348,-995.924147
4158.559564,-9474.636058,0.000000,-1225.752797
4158.559893,-8586.388927,740.205942,0.000000
4158.560223,-10288.862594,148.041188,306.438199
4158.560553,-10066.800811,-296.082377,306.438199
4158.560882,-9326.594869,74.020594,536.266849
4158.561212,-9918.759623,-222.061783,689.485948
4158.561541,-10658.965565,-148.041188,306.438199
4158.561871,-9326.594869,-1184.329507,76.609550
4158.562201,-8586.388927,-666.185348,306.438199
4158.562530,-9030.512492,592.164754,1455.581446
4158.562860,-10881.027347,370.102971,1532.190996
4158.563189,-11769.274478,814.226536,153.219100
4158.563519,-10881.027347,148.041188,-612.876398
4158.563849,-10066.800811,296.082377,-306.438199
4158.564178,-9104.533087,0.000000,-459.657299
4158.564508,-8956.491898,0.000000,-919.314598
4158.564837,-7920.203579,-592.164754,0.000000
4158.565167,-8512.368333,222.061783,229.828649
4158.565496,-10510.924376,296.082377,0.000000
4158.565826,-11029.068536,444.123565,-229.828649
4158.566156,-10140.821405,296.082377,-306.438199
4158.566485,-9548.656652,-222.061783,-459.657299
4158.566815,-8882.471304,0.000000,919.314598
4158.567144,-9474.636058,148.041188,995.924147
4158.567474,-9770.718434,370.102971,766.095498
4158.567804,-9474.636058,222.061783,-383.047749
4158.568133,-10066.800811,1110.308913,-689.485948
4158.568463,-10214.842000,888.247130,-766.095498
4158.568792,-10807.006753,370.102971,0.000000
4158.569122,-9918.759623,592.164754,229.828649
4158.569452,-9400.615463,296.082377,0.000000
4158.569781,-9326.594869,888.247130,-919.314598
4158.570111,-9326.594869,592.164754,-1378.971896
4158.570440,-10436.903782,1184.329507,-612.876398
4158.570770,-11251.130318,962.267725,0.000000
4158.571100,-9918.759623,222.061783,919.314598
4158.571429,-10140.821405,666.185348,1608.800546
4158.571759,-10214.842000,222.061783,842.705048
4158.572088,-9992.780217,-222.061783,-306.438199
4158.572418,-9252.574275,-666.185348,-229.828649
4158.572748,-8956.491898,-962.267725,-383.047749
4158.573077,-9030.512492,-148.041188,766.095498
4158.573407,-9030.512492,-74.020594,1762.019645
4158.573736,-10066.800811,0.000000,995.924147
4158.574066,-9844.739029,0.000000,612.876398
4158.574396,-9474.636058,0.000000,229.828649
4158.574725,-9696.697840,0.000000,842.705048
4158.575055,-10288.862594,370.102971,1302.362347
4158.575384,-9844.739029,222.061783,229.828649
4158.575714,-9474.636058,-444.123565,-1072.533697
4158.576044,-9104.533087,0.000000,-995.924147
4158.576373,-10140.821405,-518.144159,0.000000
4158.576703,-10362.883188,-518.144159,842.705048
4158.577032,-9770.718434,-296.082377,1225.752797
4158.577362,-9548.656652,0.000000,1072.533697
4158.577692,-9400.615463,-370.102971,459.657299
4158.578021,-10140.821405,148.041188,919.314598
4158.578351,-10362.883188,-370.102971,1072.533697
4158.578680,-10584.944971,148.041188,842.705048
4158.579010,-9548.656652,0.000000,919.314598
4158.579340,-10140.821405,-296.082377,383.047749
4158.579669,-10066.800811,-148.041188,-383.047749
4158.579999,-9770.718434,-444.123565,-383.047749
4158.580328,-9844.739029,0.000000,0.000000
4158.580658,-9696.697840,-222.061783,0.000000
4158.580988,-9326.594869,74.020594,1991.848295
4158.581317,-9622.677246,-222.061783,766.095498
4158.581647,-10288.862594,74.020594,536.266849
4158.581976,-10510.924376,-592.164754,919.314598
4158.582306,-11325.150913,-74.020594,919.314598
4158.582636,-9696.697840,74.020594,995.924147
4158.582965,-9622.677246,-296.082377,153.219100
4158.583295,-9474.636058,0.000000,-306.438199
4158.583624,-9030.512492,0.000000,-536.266849
4158.583954,-10140.821405,222.061783,-536.266849
4158.584284,-10066.800811,0.000000,153.219100
4158.584613,-9992.780217,-444.123565,306.438199
4158.584943,-9548.656652,-888.247130,-153.219100
4158.585272,-9252.574275,-666.185348,76.609550
4158.585602,-9104.533087,-1332.370696,306.438199
4158.585932,-8586.388927,-1184.329507,766.095498
4158.586261,-8364.327145,-1184.329507,766.095498
4158.586591,-8586.388927,-592.164754,1378.971896
4158.586920,-9770.718434,148.041188,1302.362347
4158.587250,-9844.739029,-296.082377,1225.752797
4158.587580,-10436.903782,74.020594,612.876398
4158.587909,-9696.697840,222.061783,-383.047749
4158.588239,-9400.615463,74.020594,-536.266849
4158.588568,-8586.388927,-74.020594,-229.828649
4158.588898,-9326.594869,296.082377,0.000000
4158.589228,-9918.759623,666.185348,229.828649
4158.589557,-9696.697840,1184.329507,-995.924147
4158.589887,-10140.821405,666.185348,-1915.238745
4158.590216,-10732.986159,370.102971,-1532.190996
4158.590546,-11029.068536,0.000000,-383.047749
4158.590876,-10584.944971,370.102971,919.314598
4158.591205,-9474.636058,-296.082377,1225.752797
4158.591535,-8734.430116,222.061783,612.876398
4158.591864,-8660.409521,148.041188,76.609550
4158.592194,-10140.821405,740.205942,-76.609550
4158.592524,-11917.315666,740.205942,153.219100
4158.592853,-11029.068536,296.082377,919.314598
4158.593183,-9992.780217,0.000000,1149.143247
4158.593512,-9252.574275,74.020594,919.314598
4158.593842,-8216.285956,-444.123565,229.828649
4158.594172,-9326.594869,-74.020594,-919.314598
4158.594501,-8882.471304,370.102971,-1225.752797
4158.594831,-9770.718434,1184.329507,-689.485948
4158.595160,-10214.842000,1406.391290,0.000000
4158.595490,-10436.903782,1110.308913,0.000000
4158.595820,-9918.759623,888.247130,0.000000
4158.596149,-9474.636058,740.205942,76.609550
4158.596479,-9992.780217,0.000000,383.047749
4158.596809,-10140.821405,444.123565,995.924147
4158.597138,-9770.718434,666.185348,1225.752797
4158.597468,-9548.656652,1480.411884,1225.752797
4158.597798,-9844.739029,1332.370696,0.000000
4158.598127,-10066.800811,1332.370696,0.000000
4158.598457,-9918.759623,814.226536,-306.438199
4158.598787,-9474.636058,1406.391290,-842.705048
4158.599117,-9474.636058,1184.329507,-1302.362347
4158.599446,-9918.759623,592.164754,-995.924147
4158.599776,-10066.800811,1110.308913,-842.705048
4158.600106,-9104.533087,370.102971,-306.438199
4158.600435,-8808.450710,296.082377,-612.876398
4158.600765,-9252.574275,518.144159,153.219100
4158.601095,-10288.862594,666.185348,153.219100
4158.601424,-10140.821405,592.164754,612.876398
4158.601754,-9918.759623,74.020594,229.828649
4158.602084,-9992.780217,74.020594,766.095498
4158.602413,-9696.697840,0.000000,383.047749
4158.602743,-8660.409521,-296.082377,459.657299
4158.603073,-8438.347739,0.000000,0.000000
4158.603402,-10214.842000,296.082377,-383.047749
4158.603732,-10362.883188,74.020594,0.000000
4158.604062,-9770.718434,-296.082377,-383.047749
4158.604392,-9178.553681,74.020594,306.438199
4158.604721,-9770.718434,-148.041188,842.705048
4158.605051,-11177.109724,74.020594,306.438199
4158.605381,-9696.697840,-666.185348,-536.266849
4158.605710,-9252.574275,-814.226536,-76.609550
4158.606040,-9474.636058,-296.082377,1149.143247
4158.606370,-10362.883188,0.000000,1762.019645
4158.606699,-10658.965565,-370.102971,1455.581446
4158.607029,-9918.759623,-740.205942,689.485948
4158.607359,-9400.615463,-962.267725,229.828649
4158.607688,-9622.677246,-814.226536,536.266849
4158.608018,-9770.718434,-518.144159,612.876398
4158.608348,-9770.718434,-592.164754,1532.190996
4158.608677,-9696.697840,-888.247130,842.705048
4158.609007,-9844.739029,-518.144159,612.876398
4158.609337,-10214.842000,-296.082377,153.219100
4158.609667,-9844.739029,-1332.370696,-306.438199
4158.609996,-9030.512492,-1332.370696,-306.438199
4158.610326,-8660.409521,-1406.391290,459.657299
4158.610656,-9474.636058,-1554.432478,459.657299
4158.610985,-9252.574275,-1554.432478,689.485948
4158.611315,-9326.594869,-1110.308913,1072.533697
4158.611645,-10436.903782,-666.185348,919.314598
4158.611974,-10362.883188,-740.205942,842.705048
4158.612304,-10362.883188,-962.267725,1149.143247
4158.612634,-10066.800811,-444.123565,1072.533697
4158.612963,-11103.089130,-518.144159,842.705048
4158.613293,-10362.883188,-888.247130,459.657299
4158.613623,-9326.594869,-1036.288319,536.266849
4158.613952,-8882.471304,0.000000,766.095498
4158.614282,-9252.574275,-592.164754,766.095498
4158.614612,-9548.656652,222.061783,459.657299
4158.614942,-9770.718434,-296.082377,306.438199
4158.615271,-10881.027347,0.000000,612.876398
4158.615601,-9622.677246,-296.082377,919.314598
4158.615931,-9474.636058,-518.144159,459.657299
4158.616260,-9474.636058,74.020594,-229.828649
4158.616590,-9252.574275,370.102971,-459.657299
4158.616920,-10510.924376,296.082377,0.000000
4158.617249,-9992.780217,888.247130,0.000000
4158.617579,-9548.656652,740.205942,-229.828649
4158.617909,-9622.677246,962.267725,-1072.533697
4158.618238,-9548.656652,592.164754,-612.876398
4158.618568,-9918.759623,0.000000,0.000000
4158.618898,-9030.512492,222.061783,229.828649
4158.619227,-9474.636058,666.185348,153.219100
4158.619557,-10214.842000,0.000000,0.000000
4158.619887,-10955.047942,370.102971,0.000000
4158.620217,-9992.780217,888.247130,995.924147
4158.620546,-9696.697840,888.247130,1302.362347
4158.620876,-9474.636058,1554.432478,689.485948
4158.621206,-9474.636058,1036.288319,0.000000
4158.621535,-10066.800811,888.247130,-766.095498
4158.621865,-9918.759623,888.247130,-842.705048
4158.622195,-9770.718434,148.041188,-842.705048
4158.622524,-9326.594869,444.123565,-383.047749
4158.622854,-9104.533087,0.000000,76.609550
4158.623184,-8660.409521,444.123565,153.219100
4158.623513,-8364.327145,666.185348,76.609550
4158.623843,-8882.471304,1110.308913,153.219100
4158.624173,-9844.739029,1110.308913,229.828649
4158.624502,-11473.192101,1998.556043,1225.752797
4158.624832,-10584.944971,1332.370696,842.705048
4158.625162,-10140.821405,1480.411884,306.438199
4158.625492,-9844.739029,592.164754,-1608.800546
4158.625821,-9178.553681,814.226536,-1685.410096
4158.626151,-9474.636058,1036.288319,-995.924147
4158.626481,-9474.636058,444.123565,-689.485948
4158.626810,-9104.533087,1406.391290,-383.047749
4158.627140,-9400.615463,1258.350101,-919.314598
4158.627470,-10510.924376,1480.411884,-1915.238745
4158.627799,-11843.295072,962.267725,-536.266849
4158.628129,-11177.109724,666.185348,0.000000
4158.628459,-9400.615463,0.000000,383.047749
4158.628788,-8734.430116,740.205942,383.047749
4158.629118,-9474.636058,444.123565,-689.485948
4158.629448,-10436.903782,740.205942,-1225.752797
4158.629777,-11473.192101,518.144159,-536.266849
4158.630107,-11177.109724,370.102971,-306.438199
4158.630437,-9474.636058,-296.082377,689.485948
4158.630767,-8808.450710,-1036.288319,995.924147
4158.631096,-8956.491898,-1184.329507,919.314598
4158.631426,-9252.574275,-1554.432478,459.657299
4158.631756,-9474.636058,-1036.288319,229.828649
4158.632085,-9178.553681,-666.185348,0.000000
4158.632415,-9918.759623,-296.082377,1685.410096
4158.632745,-10066.800811,-222.061783,2298.286494
4158.633074,-11251.130318,-296.082377,1762.019645
4158.633404,-9992.780217,-370.102971,689.485948
4158.633734,-9992.780217,-1258.350101,536.266849
4158.634063,-8586.388927,-518.144159,-153.219100
4158.634393,-8956.491898,-888.247130,76.609550
4158.634723,-9918.759623,-444.123565,229.828649
4158.635052,-8956.491898,-666.185348,153.219100
4158.635382,-9770.718434,-740.205942,0.000000
4158.635712,-9622.677246,-518.144159,0.000000
4158.636042,-9770.718434,-814.226536,383.047749
4158.636371,-10214.842000,-444.123565,995.924147
4158.636701,-9030.512492,-74.020594,995.924147
4158.637031,-9844.739029,74.020594,995.924147
4158.637360,-10881.027347,0.000000,153.219100
4158.637690,-11251.130318,0.000000,153.219100
4158.638020,-9918.759623,-1110.308913,0.000000
4158.638349,-8734.430116,-518.144159,-459.657299
4158.638679,-8882.471304,-592.164754,306.438199
4158.639009,-8808.450710,-740.205942,689.485948
4158.639338,-9474.636058,-148.041188,0.000000
4158.639668,-9622.677246,-148.041188,-459.657299
4158.639998,-11399.171507,-370.102971,229.828649
4158.640327,-11325.150913,370.102971,1838.629195
4158.640657,-10807.006753,-370.102971,1685.410096
4158.640987,-9770.718434,-296.082377,1072.533697
4158.641317,-9326.594869,-592.164754,306.438199
4158.641646,-9992.780217,-518.144159,459.657299
4158.641976,-9992.780217,-370.102971,536.266849
4158.642306,-10140.821405,-518.144159,1455.581446
4158.642635,-9844.739029,-444.123565,1915.238745
4158.642965,-9400.615463,-518.144159,995.924147
4158.643295,-9326.594869,-444.123565,383.047749
4158.643624,-9474.636058,-962.267725,0.000000
4158.643954,-9252.574275,0.000000,-459.657299
4158.644284,-9400.615463,-74.020594,459.657299
4158.644613,-10066.800811,370.102971,383.047749
4158.644943,-9474.636058,148.041188,0.000000
4158.645273,-9548.656652,666.185348,-766.095498
4158.645602,-9770.718434,0.000000,-1532.190996
4158.645932,-9400.615463,148.041188,-1149.143247
4158.646262,-9104.533087,592.164754,153.219100
4158.646592,-8512.368333,962.267725,-612.876398
4158.646921,-9178.553681,962.267725,-536.266849
4158.647251,-9252.574275,1406.391290,-1225.752797
4158.647581,-10436.903782,962.267725,-1991.848295
4158.647910,-11177.109724,1332.370696,-1302.362347
4158.648240,-10732.986159,814.226536,-536.266849
4158.648570,-11103.089130,814.226536,919.314598
4158.648899,-10066.800811,740.205942,536.266849
4158.649229,-10140.821405,296.082377,0.000000
4158.649559,-9474.636058,-296.082377,-1302.362347
4158.649888,-9104.533087,296.082377,-153.219100
4158.650218,-10140.821405,962.267725,995.924147
4158.650548,-10140.821405,814.226536,2145.067394
4158.650877,-10436.903782,592.164754,1915.238745
4158.651207,-10510.924376,0.000000,459.657299
4158.651537,-9770.718434,518.144159,459.657299
4158.651867,-9918.759623,-74.020594,153.219100
4158.652196,-9400.615463,0.000000,536.266849
4158.652526,-8660.409521,222.061783,1302.362347
4158.652856,-9104.533087,444.123565,1608.800546
4158.653185,-9622.677246,592.164754,689.485948
4158.653515,-10214.842000,296.082377,76.609550
4158.653845,-10510.924376,444.123565,0.000000
4158.654174,-9992.780217,74.020594,76.609550
4158.654504,-9548.656652,222.061783,76.609550
4158.654834,-8512.368333,0.000000,76.609550
4158.655163,-9326.594869,444.123565,-383.047749
4158.655493,-10288.862594,888.247130,-919.314598
4158.655823,-9918.759623,592.164754,-2451.505594
4158.656152,-9770.718434,1184.329507,-1378.971896
4158.656482,-10214.842000,888.247130,-995.924147
4158.656812,-10066.800811,592.164754,0.000000
4158.657141,-9548.656652,-518.144159,459.657299
4158.657471,-9474.636058,-592.164754,0.000000
4158.657801,-9400.615463,-592.164754,-229.828649
4158.658131,-9696.697840,-1036.288319,-766.095498
4158.658460,-9252.574275,-1184.329507,459.657299
4158.658790,-8734.430116,-962.267725,1685.410096
4158.659120,-9622.677246,-518.144159,1072.533697
4158.659449,-10510.924376,0.000000,229.828649
4158.659779,-10881.027347,148.041188,766.095498
4158.660109,-11103.089130,0.000000,383.047749
4158.660438,-10658.965565,370.102971,229.828649
4158.660768,-9918.759623,-222.061783,0.000000
4158.661098,-9696.697840,-740.205942,229.828649
4158.661427,-9548.656652,-148.041188,383.047749
4158.661757,-9326.594869,-296.082377,-383.047749
4158.662087,-9548.656652,-814.226536,-842.705048
4158.662416,-9474.636058,-592.164754,-229.828649
4158.662746,-9696.697840,-962.267725,1685.410096
4158.663076,-10510.924376,0.000000,2298.286494
4158.663406,-10362.883188,-592.164754,1838.629195
4158.663735,-9474.636058,-518.144159,689.485948
4158.664065,-9400.615463,-370.102971,0.000000
4158.664395,-10362.883188,0.000000,383.047749
4158.664724,-10807.006753,0.000000,1455.581446
4158.665054,-10066.800811,-370.102971,766.095498
4158.665384,-8216.285956,-222.061783,229.828649
4158.665713,-8512.368333,-814.226536,-536.266849
4158.666043,-9400.615463,-222.061783,-383.047749
4158.666373,-9622.677246,-370.102971,1225.752797
4158.666702,-9252.574275,74.020594,229.828649
4158.667032,-9400.615463,0.000000,-306.438199
4158.667362,-10214.842000,0.000000,-766.095498
4158.667691,-10214.842000,74.020594,0.000000
4158.668021,-10140.821405,222.061783,459.657299
4158.668351,-10066.800811,148.041188,76.609550
4158.668681,-9326.594869,296.082377,689.485948
4158.669010,-9844.739029,1036.288319,612.876398
4158.669340,-10510.924376,1036.288319,0.000000
4158.669670,-10955.047942,740.205942,-995.924147
4158.669999,-9918.759623,740.205942,-1072.533697
4158.670329,-9548.656652,814.226536,-536.266849
4158.670659,-9844.739029,370.102971,459.657299
4158.670988,-9770.718434,0.000000,842.705048
4158.671318,-10288.862594,-74.020594,383.047749
4158.671648,-9400.615463,296.082377,-383.047749
4158.671977,-9400.615463,-592.164754,-306.438199
4158.672307,-9696.697840,370.102971,995.924147
4158.672637,-9400.615463,444.123565,1455.581446
4158.672966,-9918.759623,0.000000,1149.143247
4158.673296,-9992.780217,370.102971,536.266849
4158.673626,-10658.965565,0.000000,383.047749
4158.673956,-10066.800811,-296.082377,-306.438199
4158.674285,-8290.306550,444.123565,-612.876398
4158.674615,-8068.244768,0.000000,-459.657299
4158.674945,-9252.574275,518.144159,-383.047749
4158.675274,-9770.718434,222.061783,153.219100
4158.675604,-10140.821405,0.000000,306.438199
4158.675934,-9918.759623,0.000000,-612.876398
4158.676263,-9548.656652,0.000000,-689.485948
4158.676593,-9992.780217,-444.123565,153.219100
4158.676923,-9474.636058,222.061783,1532.190996
4158.677252,-9918.759623,444.123565,1455.581446
4158.677582,-10140.821405,296.082377,383.047749
4158.677912,-10510.924376,444.123565,-919.314598
4158.678241,-10732.986159,296.082377,-842.705048
4158.678571,-10214.842000,0.000000,76.609550
4158.678901,-10214.842000,222.061783,995.924147
4158.679231,-9474.636058,0.000000,1225.752797
4158.679560,-9178.553681,-518.144159,995.924147
4158.679890,-9104.533087,0.000000,459.657299
4158.680220,-10584.944971,0.000000,383.047749
4158.680549,-10881.027347,444.123565,306.438199
4158.680879,-10288.862594,222.061783,306.438199
4158.681209,-9992.780217,0.000000,1072.533697
4158.681538,-10066.800811,-148.041188,1225.752797
4158.681868,-9844.739029,0.000000,1225.752797
4158.682198,-10066.800811,-518.144159,536.266849
4158.682527,-9030.512492,0.000000,76.609550
4158.682857,-9030.512492,0.000000,0.000000
4158.683187,-9474.636058,0.000000,-76.609550
4158.683516,-9326.594869,370.102971,0.000000
4158.683846,-10288.862594,592.164754,995.924147
4158.684176,-10436.903782,296.082377,-459.657299
4158.684506,-9474.636058,0.000000,-459.657299
4158.684835,-9178.553681,0.000000,0.000000
4158.685165,-9622.677246,370.102971,0.000000
4158.685495,-9622.677246,0.000000,306.438199
4158.685824,-9622.677246,-148.041188,0.000000
4158.686154,-9844.739029,-74.020594,-76.609550
4158.686484,-9622.677246,0.000000,612.876398
4158.686813,-9622.677246,0.000000,0.000000
4158.687143,-10140.821405,0.000000,76.609550
4158.687473,-10140.821405,296.082377,-153.219100
4158.687802,-9992.780217,-444.123565,306.438199
4158.688132,-10510.924376,0.000000,612.876398
4158.688462,-9548.656652,-592.164754,0.000000
4158.688791,-8882.471304,-370.102971,-229.828649
4158.689121,-9030.512492,222.061783,0.000000
4158.689451,-10362.883188,370.102971,0.000000
4158.689781,-11103.089130,148.041188,76.609550
4158.690110,-10510.924376,0.000000,153.219100
4158.690440,-9992.780217,74.020594,-306.438199
4158.690770,-9474.636058,-370.102971,0.000000
4158.691099,-9252.574275,-74.020594,76.609550
4158.691429,-9474.636058,-666.185348,536.266849
4158.691759,-10362.883188,148.041188,229.828649
4158.692088,-9844.739029,0.000000,-306.438199
4158.692418,-9844.739029,0.000000,0.000000
4158.692748,-9252.574275,0.000000,-76.609550
4158.693077,-9770.718434,0.000000,153.219100
4158.693407,-9844.739029,296.082377,0.000000
4158.693737,-9104.533087,444.123565,612.876398
4158.694066,-8956.491898,222.061783,153.219100
4158.694396,-9696.697840,0.000000,76.609550
4158.694726,-10066.800811,74.020594,76.609550
4158.695055,-10140.821405,-148.041188,-76.609550
4158.695385,-9622.677246,-370.102971,153.219100
4158.695715,-9696.697840,0.000000,1225.752797
4158.696044,-9178.553681,222.061783,1378.971896
4158.696374,-9844.739029,592.164754,1302.362347
4158.696704,-9918.759623,518.144159,536.266849
4158.697033,-10288.862594,740.205942,76.609550
4158.697363,-10214.842000,444.123565,-536.266849
4158.697692,-10140.821405,592.164754,306.438199
4158.698022,-9770.718434,0.000000,383.047749
4158.698352,-9548.656652,888.247130,306.438199
4158.698681,-9622.677246,518.144159,-229.828649
4158.699011,-10214.842000,518.144159,-689.485948
4158.699341,-10288.862594,0.000000,229.828649
4158.699670,-11029.068536,592.164754,995.924147
4158.700000,-9992.780217,74.020594,689.485948
4158.700329,-10066.800811,148.041188,842.705048
4158.700659,-10288.862594,0.000000,229.828649
4158.700989,-9992.780217,-148.041188,0.000000
4158.701318,-9252.574275,0.000000,-153.219100
4158.701648,-9104.533087,0.000000,0.000000
4158.701978,-10066.800811,74.020594,842.705048
4158.702307,-9844.739029,222.061783,1378.971896
4158.702637,-9918.759623,0.000000,229.828649
4158.702966,-9844.739029,-296.082377,-536.266849
4158.703296,-9030.512492,-592.164754,-459.657299
4158.703626,-8290.306550,-814.226536,459.657299
4158.703955,-7920.203579,-444.123565,-153.219100
4158.704285,-9252.574275,74.020594,153.219100
4158.704615,-10658.965565,370.102971,306.438199
4158.704944,-10510.924376,-444.123565,459.657299
4158.705274,-9918.759623,-74.020594,306.438199
4158.705603,-9400.615463,-296.082377,-306.438199
4158.705933,-9252.574275,-666.185348,153.219100
4158.706263,-9178.553681,-148.041188,383.047749
4158.706592,-8808.450710,74.020594,153.219100
4158.706922,-9548.656652,0.000000,0.000000
4158.707252,-10436.903782,222.061783,-689.485948
4158.707581,-9844.739029,74.020594,-153.219100
4158.707911,-10214.842000,370.102971,76.609550
4158.708240,-9474.636058,0.000000,-229.828649
4158.708570,-10658.965565,-296.082377,536.266849
4158.708900,-10807.006753,-296.082377,459.657299
4158.709229,-9474.636058,-222.061783,0.000000
4158.709559,-9326.594869,-296.082377,0.000000
4158.709889,-10214.842000,0.000000,0.000000
4158.710218,-10510.924376,0.000000,536.266849
4158.710548,-9474.636058,-222.061783,842.705048
4158.710877,-9918.759623,666.185348,383.047749
4158.711207,-10140.821405,0.000000,689.485948
4158.711537,-10510.924376,-962.267725,689.485948
4158.711866,-9622.677246,74.020594,612.876398
4158.712196,-9696.697840,148.041188,306.438199
4158.712526,-10066.800811,370.102971,612.876398
4158.712855,-9918.759623,-370.102971,459.657299
4158.713185,-9030.512492,0.000000,612.876398
4158.713514,-9252.574275,-296.082377,612.876398
4158.713844,-10288.862594,888.247130,153.219100
4158.714174,-11177.109724,148.041188,306.438199
4158.714503,-10362.883188,370.102971,-153.219100
4158.714833,-9178.553681,0.000000,0.000000
4158.715163,-9622.677246,-370.102971,0.000000
4158.715492,-10140.821405,-148.041188,842.705048
4158.715822,-9474.636058,0.000000,842.705048
4158.716151,-9178.553681,74.020594,766.095498
4158.716481,-9326.594869,666.185348,536.266849
4158.716811,-9918.759623,814.226536,459.657299
4158.717140,-10584.944971,296.082377,-459.657299
4158.717470,-10658.965565,1110.308913,-766.095498
4158.717800,-10436.903782,296.082377,0.000000
4158.718129,-9770.718434,296.082377,-536.266849
4158.718459,-8512.368333,0.000000,-306.438199
4158.718788,-8956.491898,518.144159,76.609550
4158.719118,-10066.800811,518.144159,0.000000
4158.719448,-10807.006753,444.123565,-153.219100
4158.719777,-10140.821405,74.020594,-229.828649
4158.720107,-9622.677246,148.041188,-306.438199
4158.720437,-9104.533087,370.102971,306.438199
4158.720766,-9844.739029,-296.082377,612.876398
4158.721096,-9696.697840,592.164754,1378.971896
4158.721426,-9178.553681,0.000000,689.485948
4158.721755,-9918.759623,370.102971,-459.657299
4158.722085,-10140.821405,0.000000,-459.657299
4158.722414,-10362.883188,148.041188,842.705048
4158.722744,-10214.842000,0.000000,766.095498
4158.723074,-9400.615463,-74.020594,-536.266849
4158.723403,-8882.471304,-370.102971,-383.047749
4158.723733,-9474.636058,0.000000,-459.657299
4158.724063,-9326.594869,-148.041188,76.609550
4158.724392,-9918.759623,0.000000,995.924147
4158.724722,-9918.759623,148.041188,1302.362347
4158.725051,-10214.842000,-74.020594,842.705048
4158.725381,-9844.739029,0.000000,153.219100
4158.725711,-9844.739029,-148.041188,-229.828649
4158.726040,-10436.903782,-740.205942,-842.705048
4158.726370,-9252.574275,-592.164754,-306.438199
4158.726700,-8660.409521,0.000000,0.000000
4158.727029,-8956.491898,-296.082377,536.266849
4158.727359,-9622.677246,518.144159,995.924147
4158.727688,-10362.883188,518.144159,612.876398
4158.728018,-11769.274478,518.144159,0.000000
4158.728348,-11399.171507,518.144159,-459.657299
4158.728677,-10510.924376,-518.144159,-536.266849
4158.729007,-9474.636058,-370.102971,-229.828649
4158.729337,-8808.450710,-1332.370696,0.000000
4158.729666,-8882.471304,-666.185348,919.314598
4158.729996,-9178.553681,-148.041188,229.828649
4158.730325,-9548.656652,592.164754,76.609550
4158.730655,-10066.800811,148.041188,229.828649
4158.730985,-10436.903782,666.185348,306.438199
4158.731314,-10362.883188,740.205942,536.266849
4158.731644,-10658.965565,148.041188,995.924147
4158.731974,-10807.006753,-74.020594,229.828649
4158.732303,-9474.636058,-592.164754,76.609550
4158.732633,-8438.347739,74.020594,-459.657299
4158.732962,-8882.471304,0.000000,-689.485948
4158.733292,-9548.656652,444.123565,383.047749
4158.733622,-10955.047942,740.205942,1302.362347
4158.733951,-10881.027347,444.123565,689.485948
4158.734281,-10436.903782,0.000000,689.485948
4158.734611,-9474.636058,296.082377,536.266849
4158.734940,-9252.574275,0.000000,383.047749
4158.735270,-9474.636058,0.000000,612.876398
4158.735599,-9474.636058,-222.061783,459.657299
4158.735929,-10510.924376,-148.041188,536.266849
4158.736259,-10362.883188,0.000000,1072.533697
4158.736588,-9622.677246,0.000000,612.876398
4158.736918,-9178.553681,0.000000,612.876398
4158.737248,-8364.327145,-592.164754,153.219100
4158.737577,-8808.450710,-296.082377,536.266849
4158.737907,-9844.739029,0.000000,153.219100
4158.738236,-10066.800811,222.061783,153.219100
4158.738566,-9770.718434,222.061783,306.438199
4158.738896,-10955.047942,888.247130,612.876398
4158.739225,-11177.109724,-370.102971,0.000000
4158.739555,-10066.800811,-296.082377,-383.047749
4158.739885,-8290.306550,-370.102971,0.000000
4158.740214,-9844.739029,-296.082377,842.705048
4158.740544,-9696.697840,-444.123565,1225.752797
4158.740873,-8956.491898,-1184.329507,76.609550
4158.741203,-9326.594869,74.020594,-459.657299
4158.741533,-10140.821405,-518.144159,0.000000
4158.741862,-10732.986159,-888.247130,306.438199
4158.742192,-9030.512492,-666.185348,459.657299
4158.742522,-8216.285956,-148.041188,689.485948
4158.742851,-9992.780217,-222.061783,842.705048
4158.743181,-10807.006753,296.082377,459.657299
4158.743510,-10584.944971,222.061783,-153.219100
4158.743840,-9326.594869,-296.082377,-612.876398
4158.744170,-10140.821405,296.082377,0.000000
4158.744499,-11103.089130,-444.123565,153.219100
4158.744829,-9548.656652,-444.123565,-306.438199
4158.745159,-9030.512492,-740.205942,-153.219100
4158.745488,-9400.615463,-370.102971,0.000000
4158.745818,-9622.677246,0.000000,0.000000
4158.746147,-9548.656652,222.061783,-306.438199
4158.746477,-9400.615463,148.041188,-459.657299
4158.746807,-10436.903782,740.205942,76.609550
4158.747136,-11029.068536,444.123565,459.657299
4158.747466,-10584.944971,222.061783,153.219100
4158.747796,-10066.800811,0.000000,-306.438199
4158.748125,-9474.636058,-74.020594,-153.219100
4158.748455,-9992.780217,-222.061783,306.438199
4158.748784,-9474.636058,74.020594,0.000000
4158.749114,-8734.430116,-148.041188,0.000000
4158.749444,-9548.656652,148.041188,459.657299
4158.749773,-10214.842000,296.082377,383.047749
4158.750103,-10214.842000,222.061783,766.095498
4158.750433,-9770.718434,444.123565,153.219100
4158.750762,-9400.615463,0.000000,0.000000
4158.751092,-9474.636058,74.020594,0.000000
4158.751421,-9326.594869,740.205942,0.000000
4158.751751,-9918.759623,740.205942,0.000000
4158.752081,-10732.986159,296.082377,306.438199
4158.752410,-10214.842000,444.123565,383.047749
4158.752740,-8956.491898,74.020594,306.438199
4158.753070,-9104.533087,740.205942,229.828649
4158.753399,-8882.471304,444.123565,0.000000
4158.753729,-9178.553681,-370.102971,0.000000
4158.754058,-9030.512492,518.144159,536.266849
4158.754388,-9844.739029,370.102971,612.876398
4158.754718,-11399.171507,666.185348,995.924147
4158.755047,-10584.944971,592.164754,536.266849
4158.755377,-9918.759623,592.164754,0.000000
4158.755707,-9400.615463,0.000000,-76.609550
4158.756036,-9474.636058,0.000000,612.876398
4158.756366,-9992.780217,0.000000,1455.581446
4158.756695,-9548.656652,0.000000,1302.362347
4158.757025,-8734.430116,0.000000,76.609550
4158.757355,-8660.409521,-370.102971,-459.657299
4158.757684,-10658.965565,740.205942,76.609550
4158.758014,-11029.068536,148.041188,459.657299
4158.758344,-9548.656652,74.020594,459.657299
4158.758673,-9178.553681,592.164754,76.609550
4158.759003,-9178.553681,0.000000,0.000000
4158.759333,-10584.944971,-148.041188,153.219100
4158.759662,-10732.986159,0.000000,153.219100
4158.759992,-9918.759623,-888.247130,-306.438199
4158.760321,-9030.512492,-888.247130,153.219100
4158.760651,-8660.409521,-518.144159,612.876398
4158.760981,-9326.594869,-592.164754,1455.581446
4158.761310,-9252.574275,-592.164754,1378.971896
4158.761640,-10066.800811,370.102971,995.924147
4158.761970,-10807.006753,0.000000,0.000000
4158.762299,-10807.006753,370.102971,-919.314598
4158.762629,-10362.883188,-296.082377,-612.876398
4158.762958,-9696.697840,-296.082377,-153.219100
4158.763288,-9474.636058,0.000000,76.609550
4158.763618,-10214.842000,-296.082377,459.657299
4158.763947,-9178.553681,-962.267725,76.609550
4158.764277,-8660.409521,-666.185348,-612.876398
4158.764607,-9474.636058,-148.041188,0.000000
4158.764936,-11399.171507,296.082377,842.705048
4158.765266,-11103.089130,370.102971,0.000000
4158.765595,-9548.656652,-222.061783,-459.657299
4158.765925,-9326.594869,74.020594,-919.314598
4158.766255,-9918.759623,74.020594,0.000000
4158.766584,-10288.862594,0.000000,153.219100
4158.766914,-10066.800811,0.000000,229.828649
4158.767244,-8734.430116,0.000000,536.266849
4158.767573,-9178.553681,-222.061783,612.876398
4158.767903,-10584.944971,666.185348,0.000000
4158.768232,-9844.739029,-444.123565,0.000000
4158.768562,-9770.718434,0.000000,0.000000
4158.768892,-8586.388927,370.102971,-383.047749
4158.769221,-9844.739029,740.205942,383.047749
4158.769551,-9844.739029,592.164754,0.000000
4158.769881,-9548.656652,148.041188,306.438199
4158.770210,-10658.965565,370.102971,689.485948
4158.770540,-10807.006753,370.102971,1838.629195
4158.770869,-9844.739029,370.102971,1225.752797
4158.771199,-8956.491898,0.000000,1302.362347
4158.771529,-8808.450710,518.144159,306.438199
4158.771858,-9844.739029,370.102971,383.047749
4158.772188,-10436.903782,518.144159,0.000000
4158.772518,-10140.821405,592.164754,-536.266849
4158.772847,-9918.759623,518.144159,-383.047749
4158.773177,-9918.759623,222.061783,76.609550
4158.773506,-9770.718434,666.185348,612.876398
4158.773836,-9104.533087,74.020594,612.876398
4158.774166,-9400.615463,222.061783,153.219100
4158.774495,-10140.821405,222.061783,229.828649
4158.774825,-10807.006753,814.226536,766.095498
4158.775155,-10066.800811,222.061783,76.609550
4158.775484,-10066.800811,74.020594,383.047749
4158.775814,-9474.636058,148.041188,229.828649
4158.776143,-8956.491898,0.000000,-689.485948
4158.776473,-9030.512492,0.000000,-306.438199
4158.776803,-9918.759623,0.000000,0.000000
4158.777132,-9918.759623,148.041188,76.609550
4158.777462,-9474.636058,74.020594,76.609550
4158.777792,-9474.636058,0.000000,-229.828649
4158.778121,-9696.697840,0.000000,0.000000
4158.778451,-9770.718434,-370.102971,459.657299
4158.778780,-9622.677246,-370.102971,383.047749
4158.779110,-9252.574275,148.041188,536.266849
4158.779440,-10214.842000,-370.102971,536.266849
4158.779769,-10881.027347,0.000000,0.000000
4158.780099,-10510.924376,-370.102971,-383.047749
4158.780429,-9622.677246,-666.185348,229.828649
4158.780758,-8586.388927,0.000000,536.266849
4158.781088,-9622.677246,222.061783,995.924147
4158.781417,-10362.883188,444.123565,76.609550
4158.781747,-10732.986159,296.082377,-459.657299
4158.782077,-10881.027347,0.000000,-766.095498
4158.782406,-11029.068536,-444.123565,229.828649
4158.782736,-10658.965565,-518.144159,1149.143247
4158.783066,-9178.553681,-888.247130,1378.971896
4158.783395,-8808.450710,-592.164754,1072.533697
4158.783725,-9104.533087,-1036.288319,919.314598
4158.784054,-10288.862594,-370.102971,536.266849
4158.784384,-10658.965565,370.102971,383.047749
4158.784714,-9178.553681,592.164754,766.095498
4158.785043,-8808.450710,518.144159,76.609550
4158.785373,-9696.697840,814.226536,153.219100
4158.785703,-10955.047942,518.144159,-383.047749
4158.786032,-10584.944971,222.061783,-919.314598
4158.786362,-9918.759623,0.000000,-689.485948
4158.786691,-9474.636058,-74.020594,0.000000
4158.787021,-10066.800811,74.020594,459.657299
4158.787351,-8882.471304,-444.123565,919.314598
4158.787680,-9178.553681,-74.020594,1072.533697
4158.788010,-9474.636058,518.144159,0.000000
4158.788340,-9992.780217,370.102971,229.828649
4158.788669,-9918.759623,740.205942,0.000000
4158.788999,-9178.553681,592.164754,459.657299
4158.789328,-11103.089130,962.267725,1225.752797
4158.789658,-10658.965565,74.020594,0.000000
4158.789988,-8808.450710,-592.164754,-1685.410096
4158.790317,-8290.306550,-666.185348,-1072.533697
4158.790647,-9474.636058,-370.102971,76.609550
4158.790977,-9918.759623,-222.061783,1149.143247
4158.791306,-9252.574275,0.000000,1455.581446
4158.791636,-9844.739029,370.102971,1302.362347
4158.791965,-10510.924376,592.164754,0.000000
4158.792295,-10807.006753,148.041188,0.000000
4158.792625,-10066.800811,148.041188,0.000000
4158.792954,-9696.697840,74.020594,1072.533697
4158.793284,-9474.636058,148.041188,1149.143247
4158.793614,-9400.615463,222.061783,153.219100
4158.793943,-9400.615463,74.020594,-995.924147
4158.794273,-9844.739029,0.000000,-1149.143247
4158.794602,-10658.965565,-296.082377,-536.266849
4158.794932,-9548.656652,-592.164754,689.485948
4158.795262,-8512.368333,0.000000,1302.362347
4158.795591,-8808.450710,0.000000,919.314598
4158.795921,-9844.739029,-1184.329507,153.219100
4158.796251,-10955.047942,0.000000,0.000000
4158.796580,-10288.862594,-370.102971,0.000000
4158.796910,-9622.677246,0.000000,229.828649
4158.797240,-9400.615463,0.000000,-306.438199
4158.797570,-9178.553681,444.123565,-383.047749
4158.797899,-9474.636058,-296.082377,-842.705048
4158.798229,-10436.903782,814.226536,-1072.533697
4158.798559,-11103.089130,-148.041188,-383.047749
4158.798889,-9918.759623,-222.061783,842.705048
4158.799218,-7476.080014,-444.123565,0.000000
4158.799548,-8512.368333,-592.164754,306.438199
4158.799878,-10510.924376,444.123565,383.047749
4158.800208,-11769.274478,148.041188,842.705048
4158.800538,-10955.047942,222.061783,689.485948
4158.800867,-10214.842000,666.185348,536.266849
4158.801197,-10214.842000,962.267725,842.705048
4158.801527,-10066.800811,518.144159,153.219100
4158.801857,-9844.739029,962.267725,-536.266849
4158.802186,-9992.780217,740.205942,-383.047749
4158.802516,-10140.821405,1036.288319,-459.657299
4158.802846,-9622.677246,666.185348,-306.438199
4158.803176,-8734.430116,296.082377,766.095498
4158.803506,-9622.677246,1036.288319,0.000000
4158.803835,-10214.842000,518.144159,-459.657299
4158.804165,-10362.883188,0.000000,0.000000
4158.804495,-9400.615463,518.144159,306.438199
4158.804825,-8882.471304,962.267725,229.828649
4158.805154,-9770.718434,518.144159,306.438199
4158.805484,-10140.821405,888.247130,229.828649
4158.805814,-9474.636058,814.226536,-459.657299
4158.806144,-10510.924376,962.267725,-612.876398
4158.806474,-10066.800811,740.205942,306.438199
4158.806803,-9918.759623,-740.205942,1149.143247
4158.807133,-9770.718434,296.082377,1149.143247
4158.807463,-9474.636058,74.020594,842.705048
4158.807793,-9622.677246,-370.102971,0.000000
4158.808123,-9178.553681,-370.102971,-76.609550
4158.808452,-8438.347739,-148.041188,0.000000
4158.808782,-9030.512492,148.041188,1302.362347
4158.809112,-10658.965565,740.205942,995.924147
4158.809442,-10584.944971,0.000000,766.095498
4158.809771,-10214.842000,148.041188,229.828649
4158.810101,-9474.636058,74.020594,-153.219100
4158.810431,-9400.615463,0.000000,153.219100
4158.810761,-10066.800811,-370.102971,612.876398
4158.811091,-9474.636058,-444.123565,306.438199
4158.811420,-9696.697840,-666.185348,383.047749
4158.811750,-9400.615463,-592.164754,842.705048
4158.812080,-9696.697840,148.041188,306.438199
4158.812410,-9992.780217,-370.102971,689.485948
4158.812739,-10362.883188,-814.226536,153.219100
4158.813069,-9770.718434,-1110.308913,306.438199
4158.813399,-9844.739029,-962.267725,612.876398
4158.813729,-10362.883188,-148.041188,612.876398
4158.814059,-9622.677246,-518.144159,766.095498
4158.814388,-9992.780217,-148.041188,612.876398
4158.814718,-9844.739029,296.082377,612.876398
4158.815048,-10510.924376,0.000000,306.438199
4158.815378,-10436.903782,-1702.473667,-76.609550
4158.815707,-9326.594869,-592.164754,306.438199
4158.816037,-9030.512492,-1850.514855,1378.971896
4158.816367,-9474.636058,-814.226536,842.705048
4158.816697,-8956.491898,-888.247130,153.219100
4158.817027,-9770.718434,-222.061783,-536.266849
4158.817356,-9918.759623,-370.102971,-383.047749
4158.817686,-9992.780217,222.061783,-306.438199
4158.818016,-10510.924376,0.000000,306.438199
4158.818346,-10732.986159,0.000000,612.876398
4158.818675,-9770.718434,-370.102971,1149.143247
4158.819005,-9252.574275,-370.102971,612.876398
4158.819335,-10140.821405,296.082377,0.000000
4158.819665,-9992.780217,0.000000,536.266849
4158.819995,-9400.615463,0.000000,229.828649
4158.820324,-9474.636058,222.061783,383.047749
4158.820654,-10066.800811,444.123565,612.876398
4158.820984,-10510.924376,444.123565,153.219100
4158.821314,-9400.615463,296.082377,-995.924147
4158.821643,-8882.471304,-222.061783,0.000000
4158.821973,-10436.903782,962.267725,0.000000
4158.822303,-11399.171507,814.226536,612.876398
4158.822633,-10140.821405,0.000000,766.095498
4158.822963,-8660.409521,74.020594,229.828649
4158.823292,-8364.327145,74.020594,306.438199
4158.823622,-10436.903782,518.144159,536.266849
4158.823952,-10288.862594,370.102971,306.438199
4158.824282,-9400.615463,518.144159,842.705048
4158.824611,-9030.512492,222.061783,1225.752797
4158.824941,-9400.615463,592.164754,459.657299
4158.825271,-10140.821405,296.082377,1072.533697
4158.825601,-9992.780217,74.020594,-383.047749
4158.825931,-9252.574275,-444.123565,-1149.143247
4158.826260,-9548.656652,222.061783,-153.219100
4158.826590,-8660.409521,296.082377,229.828649
4158.826920,-8586.388927,0.000000,689.485948
4158.827250,-9474.636058,370.102971,229.828649
4158.827579,-9474.636058,222.061783,0.000000
4158.827909,-10436.903782,0.000000,-383.047749
4158.828239,-10066.800811,148.041188,0.000000
4158.828569,-9992.780217,74.020594,689.485948
4158.828899,-9918.759623,-148.041188,1149.143247
4158.829228,-9844.739029,74.020594,153.219100
4158.829558,-9992.780217,-148.041188,-1072.533697
4158.829888,-9400.615463,0.000000,-995.924147
4158.830218,-9178.553681,0.000000,-612.876398
4158.830547,-10214.842000,0.000000,229.828649
4158.830877,-10066.800811,296.082377,536.266849
4158.831207,-9770.718434,222.061783,153.219100
4158.831537,-9770.718434,-444.123565,-306.438199
4158.831867,-10214.842000,-148.041188,-995.924147
4158.832196,-11103.089130,-296.082377,-612.876398
4158.832526,-10288.862594,0.000000,306.438199
4158.832856,-10288.862594,-518.144159,383.047749
4158.833186,-9474.636058,-222.061783,306.438199
4158.833515,-9252.574275,-518.144159,0.000000
4158.833845,-10510.924376,222.061783,229.828649
4158.834175,-10288.862594,-296.082377,536.266849
4158.834505,-10658.965565,-148.041188,383.047749
4158.834835,-10362.883188,-296.082377,229.828649
4158.835164,-9474.636058,-444.123565,0.000000
4158.835494,-9696.697840,-592.164754,0.000000
4158.835824,-8956.491898,-814.226536,-229.828649
4158.836154,-8956.491898,-370.102971,536.266849
4158.836483,-9844.739029,-222.061783,383.047749
4158.836813,-10066.800811,0.000000,766.095498
4158.837143,-10288.862594,0.000000,229.828649
4158.837473,-9400.615463,-296.082377,383.047749
4158.837803,-8882.471304,0.000000,306.438199
4158.838132,-9622.677246,-222.061783,459.657299
4158.838462,-9696.697840,148.041188,229.828649
4158.838792,-9844.739029,0.000000,0.000000
4158.839122,-9548.656652,-370.102971,0.000000
4158.839451,-9252.574275,0.000000,306.438199
4158.839781,-9622.677246,666.185348,766.095498
4158.840111,-9474.636058,-148.041188,1072.533697
4158.840441,-9622.677246,444.123565,383.047749
4158.840771,-9326.594869,444.123565,153.219100
4158.841100,-9844.739029,222.061783,919.314598
4158.841430,-10214.842000,814.226536,766.095498
4158.841760,-10436.903782,370.102971,689.485948
4158.842090,-9770.718434,74.020594,-383.047749
4158.842419,-8364.327145,370.102971,-766.095498
4158.842749,-8956.491898,222.061783,-229.828649
4158.843079,-10436.903782,148.041188,0.000000
4158.843409,-10140.821405,592.164754,689.485948
4158.843739,-9474.636058,148.041188,1072.533697
4158.844068,-9844.739029,592.164754,995.924147
4158.844398,-9548.656652,222.061783,766.095498
4158.844728,-9918.759623,296.082377,-229.828649
4158.845058,-9474.636058,444.123565,-612.876398
4158.845388,-9844.739029,888.247130,76.609550
4158.845717,-11029.068536,666.185348,0.000000
4158.846047,-10584.944971,222.061783,383.047749
4158.846377,-9104.533087,0.000000,995.924147
4158.846707,-9252.574275,74.020594,842.705048
4158.847036,-10732.986159,370.102971,-689.485948
4158.847366,-10584.944971,-370.102971,-689.485948
4158.847696,-9400.615463,-296.082377,-306.438199
4158.848026,-8660.409521,74.020594,306.438199
4158.848356,-10362.883188,0.000000,612.876398
4158.848685,-10584.944971,814.226536,689.485948
4158.849015,-9252.574275,-666.185348,0.000000
4158.849345,-9548.656652,-444.123565,-766.095498
4158.849675,-9992.780217,148.041188,-995.924147
4158.850004,-10066.800811,-296.082377,229.828649
4158.850334,-9696.697840,-74.020594,766.095498
4158.850664,-8956.491898,0.000000,612.876398
4158.850994,-9696.697840,-296.082377,229.828649
4158.851324,-9548.656652,0.000000,-383.047749
4158.851653,-10066.800811,0.000000,-1302.362347
4158.851983,-9474.636058,148.041188,-153.219100
4158.852313,-10066.800811,666.185348,919.314598
4158.852643,-10288.862594,0.000000,1455.581446
4158.852972,-9622.677246,0.000000,1072.533697
4158.853302,-9548.656652,222.061783,-306.438199
4158.853632,-10288.862594,-518.144159,-766.095498
4158.853962,-9622.677246,-518.144159,-919.314598
4158.854292,-9178.553681,-518.144159,459.657299
4158.854621,-9252.574275,-296.082377,919.314598
4158.854951,-10510.924376,518.144159,1685.410096
4158.855281,-10214.842000,296.082377,689.485948
4158.855611,-9178.553681,296.082377,0.000000
4158.855940,-9770.718434,666.185348,-153.219100
4158.856270,-10362.883188,888.247130,229.828649
4158.856600,-10955.047942,0.000000,919.314598
4158.856930,-9992.780217,148.041188,536.266849
4158.857260,-9178.553681,0.000000,229.828649
4158.857589,-9400.615463,222.061783,0.000000
4158.857919,-10214.842000,962.267725,-995.924147
4158.858249,-9770.718434,296.082377,-689.485948
4158.858579,-9326.594869,444.123565,612.876398
4158.858908,-9770.718434,740.205942,1378.971896
4158.859238,-10807.006753,592.164754,1378.971896
4158.859568,-9992.780217,370.102971,0.000000
4158.859898,-8808.450710,0.000000,-459.657299
4158.860228,-9104.533087,-444.123565,-766.095498
4158.860557,-9770.718434,370.102971,229.828649
4158.860887,-10214.842000,-296.082377,1072.533697
4158.861217,-9252.574275,-518.144159,1685.410096
4158.861547,-9400.615463,0.000000,1302.362347
4158.861876,-9400.615463,-518.144159,766.095498
4158.862206,-10584.944971,0.000000,919.314598
4158.862536,-10807.006753,-370.102971,842.705048
4158.862866,-9474.636058,-222.061783,1608.800546
4158.863196,-8660.409521,-444.123565,919.314598
4158.863525,-9104.533087,0.000000,383.047749
4158.863855,-10214.842000,0.000000,1149.143247
4158.864185,-10510.924376,0.000000,229.828649
4158.864515,-9474.636058,-148.041188,-919.314598
4158.864844,-9252.574275,-740.205942,-306.438199
4158.865174,-8364.327145,-148.041188,153.219100
4158.865504,-9400.615463,-518.144159,153.219100
4158.865834,-10732.986159,-444.123565,919.314598
4158.866164,-10584.944971,-370.102971,76.609550
4158.866493,-10436.903782,-148.041188,-76.609550
4158.866823,-9326.594869,-370.102971,-383.047749
4158.867153,-9696.697840,74.020594,919.314598
4158.867483,-9696.697840,148.041188,1072.533697
4158.867812,-10362.883188,-296.082377,0.000000
4158.868142,-10436.903782,148.041188,-689.485948
4158.868472,-9696.697840,-370.102971,76.609550
4158.868802,-9918.759623,518.144159,-536.266849
4158.869132,-9178.553681,-296.082377,-383.047749
4158.869461,-9548.656652,74.020594,383.047749
4158.869791,-9844.739029,-148.041188,229.828649
4158.870121,-9992.780217,296.082377,-153.219100
4158.870451,-10362.883188,-148.041188,-842.705048
4158.870780,-10140.821405,592.164754,-766.095498
4158.871110,-10140.821405,148.041188,153.219100
4158.871440,-10584.944971,444.123565,1072.533697
4158.871770,-9696.697840,0.000000,459.657299
4158.872100,-8956.491898,-518.144159,612.876398
4158.872429,-9548.656652,0.000000,383.047749
4158.872759,-9548.656652,148.041188,459.657299
4158.873089,-9992.780217,0.000000,919.314598
4158.873419,-9844.739029,0.000000,919.314598
4158.873748,-9622.677246,444.123565,153.219100
4158.874078,-9622.677246,370.102971,-229.828649
4158.874408,-8882.471304,370.102971,-1685.410096
4158.874738,-9178.553681,370.102971,-995.924147
4158.875068,-9474.636058,444.123565,-459.657299
4158.875397,-9770.718434,1036.288319,0.000000
4158.875727,-9918.759623,888.247130,76.609550
4158.876057,-9474.636058,148.041188,-229.828649
4158.876387,-9030.512492,74.020594,-689.485948
4158.876716,-9548.656652,592.164754,0.000000
4158.877046,-10658.965565,370.102971,536.266849
4158.877376,-9844.739029,296.082377,689.485948
4158.877706,-9326.594869,592.164754,1455.581446
4158.878036,-9252.574275,814.226536,0.000000
4158.878365,-9844.739029,444.123565,-612.876398
4158.878695,-9844.739029,444.123565,-995.924147
4158.879025,-9326.594869,222.061783,-612.876398
4158.879355,-9770.718434,666.185348,689.485948
4158.879684,-9696.697840,74.020594,1225.752797
4158.880014,-10066.800811,0.000000,306.438199
4158.880344,-8956.491898,-296.082377,-306.438199
4158.880674,-9474.636058,444.123565,153.219100
4158.881004,-10955.047942,148.041188,919.314598
4158.881333,-11177.109724,74.020594,1455.581446
4158.881663,-9474.636058,0.000000,1225.752797
4158.881993,-8882.471304,518.144159,1072.533697
4158.882323,-10510.924376,444.123565,0.000000
4158.882653,-10807.006753,222.061783,-995.924147
4158.882982,-9622.677246,222.061783,-766.095498
4158.883312,-9474.636058,518.144159,76.609550
4158.883642,-10214.842000,444.123565,689.485948
4158.883972,-10436.903782,222.061783,689.485948
4158.884301,-9992.780217,-370.102971,459.657299
4158.884631,-9178.553681,-296.082377,0.000000
4158.884961,-9474.636058,-666.185348,0.000000
4158.885291,-9992.780217,-518.144159,766.095498
4158.885621,-8734.430116,-370.102971,1149.143247
4158.885950,-8882.471304,-592.164754,1302.362347
4158.886280,-9622.677246,0.000000,536.266849
4158.886610,-10881.027347,0.000000,0.000000
4158.886940,-9770.718434,-148.041188,-459.657299
4158.887269,-9178.553681,-444.123565,-229.828649
4158.887599,-9178.553681,-740.205942,229.828649
4158.887929,-9992.780217,-666.185348,612.876398
4158.888259,-9400.615463,-296.082377,0.000000
4158.888589,-9252.574275,-814.226536,153.219100
4158.888918,-9474.636058,-370.102971,153.219100
4158.889248,-9844.739029,222.061783,306.438199
4158.889578,-10584.944971,-74.020594,0.000000
4158.889908,-10584.944971,148.041188,229.828649
4158.890237,-10066.800811,-222.061783,536.266849
4158.890567,-9548.656652,-740.205942,612.876398
4158.890897,-8734.430116,-518.144159,306.438199
4158.891227,-8956.491898,-74.020594,536.266849
4158.891557,-10066.800811,0.000000,919.314598
4158.891886,-10658.965565,518.144159,612.876398
4158.892216,-10510.924376,74.020594,153.219100
4158.892546,-9548.656652,0.000000,383.047749
4158.892876,-9400.615463,0.000000,-306.438199
4158.893205,-9474.636058,0.000000,0.000000
4158.893535,-9326.594869,0.000000,-459.657299
4158.893865,-9030.512492,-222.061783,-612.876398
4158.894195,-9474.636058,0.000000,229.828649
4158.894525,-9770.718434,-370.102971,383.047749
4158.894854,-9178.553681,0.000000,229.828649
4158.895184,-8882.471304,74.020594,383.047749
4158.895514,-9400.615463,296.082377,0.000000
4158.895844,-10732.986159,370.102971,0.000000
4158.896173,-10732.986159,-296.082377,76.609550
4158.896503,-9400.615463,74.020594,383.047749
4158.896833,-8142.265362,-296.082377,229.828649
4158.897163,-9326.594869,444.123565,612.876398
4158.897493,-9400.615463,592.164754,306.438199
4158.897822,-10066.800811,370.102971,-612.876398
4158.898152,-10066.800811,666.185348,-1225.752797
4158.898482,-10807.006753,148.041188,0.000000
4158.898812,-11029.068536,444.123565,1378.971896
4158.899140,-9696.697840,0.000000,919.314598
4158.899470,-8882.471304,666.185348,842.705048
4158.899800,-8956.491898,-222.061783,383.047749
4158.900129,-10658.965565,518.144159,153.219100
4158.900459,-10214.842000,74.020594,383.047749
4158.900789,-10066.800811,518.144159,689.485948
4158.901119,-10658.965565,1036.288319,1149.143247
4158.901448,-11029.068536,814.226536,1532.190996
4158.901778,-10510.924376,592.164754,842.705048
4158.902108,-9918.759623,444.123565,-536.266849
4158.902437,-9104.533087,370.102971,-1532.190996
4158.902767,-10140.821405,-148.041188,-689.485948
4158.903097,-9326.594869,444.123565,-306.438199
4158.903427,-9252.574275,-296.082377,459.657299
4158.903756,-9548.656652,592.164754,229.828649
4158.904086,-9918.759623,296.082377,153.219100
4158.904416,-10510.924376,0.000000,306.438199
4158.904745,-9918.759623,148.041188,-306.438199
4158.905075,-9252.574275,-148.041188,612.876398
4158.905405,-10584.944971,296.082377,1762.019645
4158.905734,-9918.759623,148.041188,612.876398
4158.906064,-9178.553681,0.000000,-536.266849
4158.906394,-8882.471304,148.041188,-1225.752797
4158.906724,-9918.759623,296.082377,-995.924147
4158.907053,-10362.883188,74.020594,-766.095498
4158.907383,-9844.739029,148.041188,-1225.752797
4158.907713,-9252.574275,0.000000,-689.485948
4158.908042,-8882.471304,814.226536,306.438199
4158.908372,-9400.615463,518.144159,689.485948
4158.908702,-9770.718434,0.000000,306.438199
4158.909032,-9918.759623,592.164754,612.876398
4158.909361,-10362.883188,666.185348,153.219100
4158.909691,-10732.986159,444.123565,-689.485948
4158.910021,-10732.986159,0.000000,-842.705048
4158.910350,-9030.512492,0.000000,-459.657299
4158.910680,-8586.388927,-518.144159,612.876398
4158.911010,-9474.636058,592.164754,306.438199
4158.911340,-9696.697840,-296.082377,536.266849
4158.911669,-9918.759623,296.082377,76.609550
4158.911999,-9992.780217,0.000000,76.609550
4158.912329,-9474.636058,444.123565,-383.047749
4158.912658,-10066.800811,148.041188,383.047749
4158.912988,-9844.739029,0.000000,0.000000
4158.913318,-9400.615463,0.000000,306.438199
4158.913647,-9844.739029,444.123565,153.219100
4158.913977,-10140.821405,74.020594,76.609550
4158.914307,-9992.780217,0.000000,919.314598
4158.914637,-9474.636058,-222.061783,1455.581446
4158.914966,-9548.656652,-296.082377,1608.800546
4158.915296,-10140.821405,-370.102971,995.924147
4158.915626,-9844.739029,-296.082377,0.000000
4158.915955,-9326.594869,-740.205942,0.000000
4158.916285,-9622.677246,0.000000,1149.143247
4158.916615,-9844.739029,370.102971,0.000000
4158.916945,-9844.739029,0.000000,-229.828649
4158.917274,-9548.656652,148.041188,-459.657299
4158.917604,-9770.718434,-296.082377,306.438199
4158.917934,-10436.903782,814.226536,919.314598
4158.918263,-10288.862594,-592.164754,229.828649
4158.918593,-9326.594869,-740.205942,-153.219100
4158.918923,-9326.594869,-444.123565,153.219100
4158.919252,-9844.739029,-740.205942,0.000000
4158.919582,-9844.739029,-444.123565,229.828649
4158.919912,-9548.656652,-666.185348,995.924147
4158.920242,-8808.450710,-74.020594,1608.800546
4158.920571,-9844.739029,-296.082377,1225.752797
4158.920901,-11103.089130,-74.020594,995.924147
4158.921231,-10732.986159,-740.205942,0.000000
4158.921560,-9696.697840,-592.164754,0.000000
4158.921890,-9474.636058,-74.020594,229.828649
4158.922220,-9548.656652,0.000000,0.000000
4158.922550,-10214.842000,-444.123565,-306.438199
4158.922879,-9918.759623,-666.185348,-306.438199
4158.923209,-10214.842000,0.000000,153.219100
4158.923539,-10436.903782,-296.082377,229.828649
4158.923868,-9252.574275,-222.061783,766.095498
4158.924198,-8956.491898,-592.164754,995.924147
4158.924528,-9548.656652,0.000000,919.314598
4158.924857,-10732.986159,-148.041188,306.438199
4158.925187,-11177.109724,0.000000,536.266849
4158.925517,-9770.718434,-296.082377,-153.219100
4158.925847,-8882.471304,222.061783,-766.095498
4158.926176,-9252.574275,74.020594,-306.438199
4158.926506,-9992.780217,222.061783,689.485948
4158.926836,-9252.574275,0.000000,459.657299
4158.927165,-9548.656652,222.061783,689.485948
4158.927495,-10362.883188,444.123565,0.000000
4158.927825,-10066.800811,888.247130,-995.924147
4158.928155,-9770.718434,148.041188,-1072.533697
4158.928484,-9252.574275,592.164754,-766.095498
4158.928814,-9548.656652,592.164754,459.657299
4158.929144,-10510.924376,296.082377,612.876398
4158.929473,-9104.533087,444.123565,0.000000
4158.929803,-8808.450710,666.185348,-153.219100
4158.930133,-10140.821405,592.164754,-919.314598
4158.930463,-10214.842000,444.123565,-306.438199
4158.930792,-9474.636058,518.144159,229.828649
4158.931122,-9252.574275,592.164754,689.485948
4158.931452,-9696.697840,888.247130,459.657299
4158.931781,-10584.944971,962.267725,383.047749
4158.932111,-10510.924376,1406.391290,-536.266849
4158.932441,-9770.718434,814.226536,-1378.971896
4158.932770,-9326.594869,592.164754,-995.924147
4158.933100,-10140.821405,888.247130,612.876398
4158.933430,-10362.883188,814.226536,1302.362347
4158.933760,-9770.718434,518.144159,153.219100
4158.934089,-9030.512492,518.144159,-612.876398
4158.934419,-9474.636058,74.020594,-306.438199
4158.934749,-9844.739029,74.020594,842.705048
4158.935078,-9770.718434,444.123565,1225.752797
4158.935408,-10066.800811,814.226536,1685.410096
4158.935738,-10214.842000,518.144159,1378.971896
4158.936068,-10436.903782,740.205942,153.219100
4158.936397,-10362.883188,370.102971,0.000000
4158.936727,-10288.862594,-148.041188,0.000000
4158.937057,-8956.491898,518.144159,0.000000
4158.937386,-9474.636058,-444.123565,-153.219100
4158.937716,-9474.636058,0.000000,-766.095498
4158.938046,-7994.224174,-592.164754,536.266849
4158.938375,-9548.656652,-592.164754,1532.190996
4158.938705,-9770.718434,-370.102971,766.095498
4158.939035,-9548.656652,-518.144159,383.047749
4158.939365,-10066.800811,-962.267725,1072.533697
4158.939694,-9622.677246,-962.267725,919.314598
4158.940024,-9992.780217,-592.164754,842.705048
4158.940354,-9252.574275,-592.164754,383.047749
4158.940683,-8882.471304,0.000000,306.438199
4158.941013,-9474.636058,0.000000,76.609550
4158.941343,-10955.047942,296.082377,0.000000
4158.941673,-10881.027347,0.000000,-766.095498
4158.942002,-10066.800811,-740.205942,-995.924147
4158.942332,-8882.471304,-740.205942,-766.095498
4158.942662,-8734.430116,-1258.350101,689.485948
4158.942991,-9844.739029,-592.164754,1455.581446
4158.943321,-9918.759623,-962.267725,766.095498
4158.943651,-9844.739029,-666.185348,1149.143247
4158.943981,-10362.883188,-148.041188,1302.362347
4158.944310,-11177.109724,0.000000,995.924147
4158.944640,-11029.068536,-666.185348,1608.800546
4158.944970,-10288.862594,-296.082377,1072.533697
4158.945299,-9326.594869,-370.102971,153.219100
4158.945629,-8882.471304,-592.164754,-383.047749
4158.945959,-8956.491898,0.000000,-536.266849
4158.946288,-9252.574275,-296.082377,0.000000
4158.946618,-9918.759623,-148.041188,383.047749
4158.946948,-9770.718434,-222.061783,-306.438199
4158.947278,-9474.636058,-296.082377,0.000000
4158.947607,-9770.718434,296.082377,383.047749
4158.947937,-9326.594869,148.041188,-76.609550
4158.948267,-9992.780217,0.000000,383.047749
4158.948596,-10510.924376,888.247130,306.438199
4158.948926,-10881.027347,444.123565,842.705048
4158.949256,-9548.656652,370.102971,689.485948
4158.949586,-9178.553681,740.205942,0.000000
4158.949915,-9252.574275,-222.061783,-1072.533697
4158.950245,-9992.780217,-444.123565,0.000000
4158.950575,-10140.821405,666.185348,229.828649
4158.950904,-10066.800811,0.000000,689.485948
4158.951234,-9030.512492,296.082377,842.705048
4158.951564,-9178.553681,814.226536,689.485948
4158.951893,-9992.780217,740.205942,459.657299
4158.952223,-10510.924376,666.185348,-689.485948
4158.952553,-10362.883188,222.061783,-1455.581446
4158.952883,-9400.615463,592.164754,-306.438199
4158.953212,-9252.574275,518.144159,766.095498
4158.953542,-9548.656652,740.205942,1532.190996
4158.953872,-9770.718434,370.102971,1838.629195
4158.954201,-10510.924376,666.185348,0.000000
4158.954531,-9548.656652,0.000000,-995.924147
4158.954861,-9622.677246,444.123565,0.000000
4158.955191,-9696.697840,1110.308913,612.876398
4158.955520,-9252.574275,518.144159,1455.581446
4158.955850,-9992.780217,296.082377,766.095498
4158.956180,-9844.739029,518.144159,-76.609550
4158.956509,-9844.739029,148.041188,-306.438199
4158.956839,-10732.986159,1036.288319,-153.219100
4158.957169,-10140.821405,296.082377,229.828649
4158.957498,-9474.636058,296.082377,1149.143247
4158.957828,-9696.697840,592.164754,1149.143247
4158.958158,-10510.924376,370.102971,306.438199
4158.958488,-10140.821405,-370.102971,-229.828649
4158.958817,-9178.553681,-296.082377,-306.438199
4158.959147,-9326.594869,-222.061783,76.609550
4158.959477,-10140.821405,0.000000,1608.800546
4158.959806,-9548.656652,0.000000,919.314598
4158.960136,-9030.512492,-148.041188,0.000000
4158.960466,-9400.615463,74.020594,-536.266849
4158.960796,-10288.862594,592.164754,-229.828649
4158.961125,-11399.171507,74.020594,0.000000
4158.961455,-10288.862594,518.144159,0.000000
4158.961785,-9104.533087,0.000000,-383.047749
4158.962114,-9770.718434,370.102971,-76.609550
4158.962444,-10214.842000,222.061783,-459.657299
4158.962774,-9622.677246,148.041188,-459.657299
4158.963104,-9400.615463,-296.082377,0.000000
4158.963433,-10362.883188,0.000000,-229.828649
4158.963763,-10881.027347,74.020594,76.609550
4158.964093,-10362.883188,-296.082377,842.705048
4158.964422,-9770.718434,-74.020594,612.876398
4158.964752,-9252.574275,0.000000,229.828649
4158.965082,-9770.718434,370.102971,153.219100
4158.965411,-10436.903782,-296.082377,-612.876398
4158.965741,-9548.656652,0.000000,383.047749
4158.966071,-9548.656652,0.000000,383.047749
4158.966401,-10436.903782,-222.061783,229.828649
4158.966730,-10066.800811,-740.205942,306.438199
4158.967060,-9548.656652,-592.164754,153.219100
4158.967390,-9178.553681,-518.144159,0.000000
4158.967719,-9770.718434,-444.123565,0.000000
4158.968049,-9030.512492,-222.061783,-459.657299
4158.968379,-8660.409521,0.000000,459.657299
4158.968709,-11251.130318,518.144159,842.705048
4158.969038,-10658.965565,-222.061783,689.485948
4158.969368,-9622.677246,-296.082377,459.657299
4158.969698,-8586.388927,-370.102971,153.219100
4158.970027,-8882.471304,-592.164754,-383.047749
4158.970357,-9474.636058,-666.185348,689.485948
4158.970687,-9844.739029,-296.082377,919.314598
4158.971016,-10066.800811,74.020594,536.266849
4158.971346,-10214.842000,0.000000,689.485948
4158.971676,-9400.615463,222.061783,76.609550
4158.972006,-9474.636058,148.041188,153.219100
4158.972335,-9918.759623,592.164754,0.000000
4158.972665,-10584.944971,74.020594,-306.438199
4158.972995,-10807.006753,148.041188,0.000000
4158.973324,-10214.842000,0.000000,306.438199
4158.973654,-9474.636058,74.020594,306.438199
4158.973984,-8808.450710,-518.144159,459.657299
4158.974314,-9474.636058,-370.102971,536.266849
4158.974643,-10140.821405,-592.164754,1378.971896
4158.974973,-9918.759623,-370.102971,2298.286494
4158.975303,-10066.800811,814.226536,1149.143247
4158.975632,-9918.759623,370.102971,383.047749
4158.975962,-9474.636058,148.041188,0.000000
4158.976292,-9844.739029,370.102971,-383.047749
4158.976622,-10510.924376,74.020594,383.047749
4158.976951,-10584.944971,-222.061783,383.047749
4158.977281,-9474.636058,0.000000,-76.609550
4158.977611,-7846.182985,-370.102971,-612.876398
4158.977940,-9400.615463,148.041188,-383.047749
4158.978270,-9992.780217,0.000000,-689.485948
4158.978600,-9918.759623,-296.082377,-612.876398
4158.978929,-9622.677246,148.041188,76.609550
4158.979259,-10288.862594,222.061783,1149.143247
4158.979589,-10510.924376,222.061783,1225.752797
4158.979919,-10214.842000,0.000000,0.000000
4158.980248,-9770.718434,444.123565,-383.047749
4158.980578,-9992.780217,0.000000,-76.609550
4158.980908,-10214.842000,370.102971,-536.266849
4158.981237,-9548.656652,0.000000,229.828649
4158.981567,-9696.697840,74.020594,689.485948
4158.981897,-9400.615463,0.000000,306.438199
4158.982227,-9548.656652,74.020594,-459.657299
4158.982556,-9696.697840,0.000000,-1072.533697
4158.982886,-9400.615463,370.102971,-536.266849
4158.983216,-10066.800811,148.041188,459.657299
4158.983545,-11029.068536,814.226536,612.876398
4158.983875,-9844.739029,74.020594,459.657299
4158.984205,-9326.594869,0.000000,689.485948
4158.984534,-9844.739029,370.102971,306.438199
4158.984864,-9696.697840,-296.082377,76.609550
4158.985194,-9474.636058,0.000000,153.219100
4158.985524,-9178.553681,222.061783,459.657299
4158.985853,-9918.759623,296.082377,842.705048
4158.986183,-10436.903782,296.082377,689.485948
4158.986513,-9474.636058,444.123565,-536.266849
4158.986842,-9844.739029,0.000000,0.000000
4158.987172,-9918.759623,74.020594,-306.438199
4158.987502,-9252.574275,0.000000,-306.438199
4158.987832,-8660.409521,740.205942,612.876398
4158.988161,-9326.594869,1110.308913,612.876398
4158.988491,-10658.965565,888.247130,229.828649
4158.988821,-11399.171507,148.041188,-229.828649
4158.989150,-11029.068536,1036.288319,0.000000
4158.989480,-9178.553681,-222.061783,766.095498
4158.989810,-9548.656652,-222.061783,1225.752797
4158.990139,-9178.553681,222.061783,383.047749
4158.990469,-9104.533087,74.020594,536.266849
4158.990799,-9030.512492,666.185348,-153.219100
4158.991129,-9992.780217,666.185348,-536.266849
4158.991458,-11399.171507,1258.350101,76.609550
4158.991788,-10436.903782,666.185348,0.000000
4158.992118,-9622.677246,370.102971,0.000000
4158.992447,-9474.636058,-222.061783,-459.657299
4158.992777,-10140.821405,-74.020594,-229.828649
4158.993107,-9474.636058,148.041188,306.438199
4158.993437,-8956.491898,0.000000,153.219100
4158.993766,-8956.491898,1036.288319,459.657299
4158.994096,-9696.697840,370.102971,689.485948
4158.994426,-11103.089130,1332.370696,0.000000
4158.994755,-11325.150913,370.102971,-1608.800546
4158.995085,-10881.027347,296.082377,-1455.581446
4158.995415,-9622.677246,0.000000,-459.657299
4158.995745,-9104.533087,222.061783,-612.876398
4158.996074,-7846.182985,-296.082377,-459.657299
4158.996404,-8216.285956,370.102971,-995.924147
4158.996734,-9474.636058,814.226536,-1378.971896
4158.997063,-10362.883188,370.102971,-1455.581446
4158.997393,-10807.006753,962.267725,-995.924147
4158.997723,-10066.800811,1184.329507,-153.219100
4158.998053,-9400.615463,518.144159,-459.657299
4158.998382,-9548.656652,888.247130,-459.657299
4158.998712,-10066.800811,666.185348,-612.876398
4158.999042,-10066.800811,888.247130,-229.828649
4158.999372,-9918.759623,888.247130,-1455.581446
4158.999702,-9992.780217,1036.288319,-1915.238745
4159.000032,-9400.615463,814.226536,-1685.410096
4159.000361,-8956.491898,1480.411884,-1378.971896
4159.000691,-9474.636058,1628.453072,-689.485948
4159.001021,-10288.862594,2072.576638,-842.705048
4159.001351,-10288.862594,2368.659014,-2298.286494
4159.001681,-9918.759623,2442.679609,-2834.553343
4159.002010,-9992.780217,2886.803174,-3064.381992
4159.002340,-10288.862594,2516.700203,-2145.067394
4159.002670,-10510.924376,1406.391290,-1838.629195
4159.003000,-9548.656652,1332.370696,-2221.676944
4159.003330,-8438.347739,1628.453072,-1762.019645
4159.003660,-9252.574275,888.247130,-1762.019645
4159.003989,-9548.656652,2072.576638,-1532.190996
4159.004319,-9104.533087,2664.741391,-1302.362347
4159.004649,-9400.615463,2664.741391,-995.924147
4159.004979,-10214.842000,3775.050304,-536.266849
4159.005309,-11991.336260,3552.988522,-1685.410096
4159.005639,-11547.212695,2590.720797,-3677.258390
4159.005968,-9622.677246,1998.556043,-4826.401637
4159.006298,-8142.265362,1998.556043,-3524.039291
4159.006628,-8142.265362,1850.514855,-766.095498
4159.006958,-8734.430116,2368.659014,229.828649
4159.007288,-8586.388927,2738.761985,-612.876398
4159.007618,-8808.450710,3404.947333,-2987.772442
4159.007947,-10288.862594,4219.173869,-3140.991542
4159.008277,-12139.377449,3701.029710,-3064.381992
4159.008607,-12583.501014,3182.885551,-1149.143247
4159.008937,-10955.047942,3108.864956,229.828649
4159.009267,-8956.491898,2442.679609,-1532.190996
4159.009596,-8290.306550,2220.617826,-3524.039291
4159.009926,-7994.224174,2294.638420,-4213.525239
4159.010256,-8142.265362,2294.638420,-3140.991542
4159.010586,-9030.512492,3182.885551,-2221.676944
4159.010916,-9844.739029,3108.864956,-919.314598
4159.011246,-10436.903782,2812.782580,-536.266849
4159.011575,-10955.047942,2812.782580,-1455.581446
4159.011905,-10510.924376,2368.659014,-2987.772442
4159.012235,-10140.821405,2368.659014,-3677.258390
4159.012565,-9326.594869,2516.700203,-2834.553343
4159.012895,-9400.615463,2220.617826,-1149.143247
4159.013225,-9844.739029,2442.679609,-383.047749
4159.013554,-9696.697840,3256.906145,-995.924147
4159.013884,-9918.759623,2146.597232,-2987.772442
4159.014214,-10140.821405,2516.700203,-3983.696590
4159.014544,-10362.883188,1998.556043,-2528.115143
4159.014874,-9252.574275,1628.453072,-1302.362347
4159.015203,-8290.306550,1702.473667,-1532.190996
4159.015533,-9474.636058,2072.576638,-2221.676944
4159.015863,-10214.842000,1924.535449,-2757.943793
4159.016193,-10881.027347,2072.576638,-2298.286494
4159.016523,-9770.718434,1850.514855,-2298.286494
4159.016853,-9992.780217,1628.453072,-1378.971896
4159.017182,-9696.697840,1924.535449,-306.438199
4159.017512,-9178.553681,370.102971,0.000000
4159.017842,-9696.697840,222.061783,-1991.848295
4159.018172,-9252.574275,1480.411884,-1762.019645
4159.018502,-9326.594869,1998.556043,-3830.477490
4159.018832,-10362.883188,1406.391290,-3140.991542
4159.019161,-7105.977043,1850.514855,-1532.190996
4159.019491,-7772.162391,1554.432478,-612.876398
4159.019821,-11177.109724,1776.494261,-1149.143247
4159.020151,-11843.295072,1998.556043,-1991.848295
4159.020481,-9992.780217,2664.741391,-1915.238745
4159.020811,-9844.739029,1776.494261,-1302.362347
4159.021140,-10658.965565,2442.679609,-842.705048
4159.021470,-10658.965565,2146.597232,-1608.800546
4159.021800,-10584.944971,1924.535449,-2221.676944
4159.022130,-9400.615463,1998.556043,-2528.115143
4159.022460,-9696.697840,1184.329507,-2757.943793
4159.022789,-9326.594869,1184.329507,-1838.629195
4159.023119,-8882.471304,592.164754,-1838.629195
4159.023449,-8956.491898,1184.329507,-1072.533697
4159.023779,-9326.594869,1406.391290,-536.266849
4159.024109,-10214.842000,1628.453072,-1302.362347
4159.024439,-9474.636058,1480.411884,-1455.581446
4159.024768,-10288.862594,1998.556043,-1685.410096
4159.025098,-10584.944971,2590.720797,-1149.143247
4159.025428,-10510.924376,2442.679609,-995.924147
4159.025758,-10066.800811,2368.659014,-2528.115143
4159.026088,-9474.636058,1776.494261,-3294.210641
4159.026418,-9844.739029,2072.576638,-3600.648841
4159.026747,-9400.615463,1480.411884,-2145.067394
4159.027077,-8586.388927,1776.494261,-2221.676944
4159.027407,-8512.368333,1998.556043,-1608.800546
4159.027737,-9844.739029,2220.617826,-1762.019645
4159.028067,-10214.842000,2220.617826,-2145.067394
4159.028397,-10214.842000,2368.659014,-1991.848295
4159.028726,-10658.965565,2590.720797,-1302.362347
4159.029056,-10881.027347,2368.659014,-612.876398
4159.029386,-9992.780217,2294.638420,-766.095498
4159.029716,-9400.615463,1702.473667,-1762.019645
4159.030046,-9474.636058,1628.453072,-2451.505594
4159.030375,-8734.430116,1776.494261,-2221.676944
4159.030705,-9178.553681,2072.576638,-1762.019645
4159.031035,-9918.759623,2738.761985,-842.705048
4159.031365,-9696.697840,2960.823768,-1532.190996
4159.031695,-10436.903782,2590.720797,-2068.457845
4159.032025,-10436.903782,3108.864956,-3217.601092
4159.032354,-10140.821405,3034.844362,-3447.429741
4159.032684,-9992.780217,2664.741391,-2987.772442
4159.033014,-9548.656652,2886.803174,-1685.410096
4159.033344,-9770.718434,2294.638420,-766.095498
4159.033674,-9474.636058,2220.617826,-1378.971896
4159.034004,-9030.512492,1998.556043,-2528.115143
4159.034333,-9252.574275,2146.597232,-2451.505594
4159.034663,-9918.759623,2368.659014,-1762.019645
4159.034993,-9918.759623,2738.761985,-2221.676944
4159.035323,-9326.594869,2442.679609,-2068.457845
4159.035653,-9622.677246,3108.864956,-1991.848295
4159.035982,-10658.965565,3330.926739,-3064.381992
4159.036312,-10510.924376,2664.741391,-3677.258390
4159.036642,-9548.656652,2368.659014,-3524.039291
4159.036972,-9548.656652,1998.556043,-1838.629195
4159.037302,-10288.862594,1998.556043,-459.657299
4159.037632,-9696.697840,1924.535449,-536.266849
4159.037961,-8660.409521,1924.535449,-2374.896044
4159.038291,-8808.450710,1924.535449,-2987.772442
4159.038621,-9252.574275,1924.535449,-3064.381992
4159.038951,-10288.862594,2368.659014,-1762.019645
4159.039281,-10807.006753,2220.617826,-766.095498
4159.039611,-10214.842000,2368.659014,-306.438199
4159.039940,-9622.677246,2146.597232,-1532.190996
4159.040270,-9844.739029,1998.556043,-2451.505594
4159.040600,-10214.842000,1776.494261,-2757.943793
4159.040930,-9696.697840,1628.453072,-1915.238745
4159.041260,-9104.533087,1406.391290,-1149.143247
4159.041590,-8660.409521,1332.370696,153.219100
4159.041919,-9178.553681,1628.453072,-766.095498
4159.042249,-9844.739029,1554.432478,-2374.896044
4159.042579,-10436.903782,1998.556043,-3370.820191
4159.042909,-9918.759623,1924.535449,-2757.943793
4159.043239,-9622.677246,2220.617826,-2374.896044
4159.043568,-9326.594869,2368.659014,-766.095498
4159.043898,-10140.821405,2072.576638,0.000000
4159.044228,-10066.800811,2146.597232,-1072.533697
4159.044558,-9696.697840,1776.494261,-2528.115143
4159.044888,-10066.800811,1184.329507,-2757.943793
4159.045218,-9918.759623,1332.370696,-1532.190996
4159.045547,-9326.594869,1184.329507,-1225.752797
4159.045877,-8216.285956,1628.453072,-2298.286494
4159.046207,-8586.388927,1554.432478,-2068.457845
4159.046537,-9622.677246,1776.494261,-2298.286494
4159.046867,-10881.027347,2590.720797,-2451.505594
4159.047197,-10807.006753,2590.720797,-2604.724693
4159.047526,-9992.780217,2294.638420,-2451.505594
4159.047856,-10066.800811,1924.535449,-2068.457845
4159.048186,-10362.883188,1776.494261,-1302.362347
4159.048516,-10066.800811,1776.494261,-1991.848295
4159.048846,-8512.368333,740.205942,-1838.629195
4159.049175,-8290.306550,888.247130,-1685.410096
4159.049505,-9474.636058,1258.350101,-1072.533697
4159.049835,-9622.677246,1332.370696,-383.047749
4159.050165,-9696.697840,1406.391290,-919.314598
4159.050495,-9992.780217,1480.411884,-1225.752797
4159.050825,-10066.800811,1628.453072,-1149.143247
4159.051154,-10214.842000,1628.453072,-459.657299
4159.051484,-10066.800811,1480.411884,229.828649
4159.051814,-9770.718434,1406.391290,-459.657299
4159.052144,-10140.821405,1332.370696,-766.095498
4159.052474,-9622.677246,1184.329507,-1455.581446
4159.052804,-9474.636058,1406.391290,-1838.629195
4159.053133,-9104.533087,1554.432478,-1915.238745
4159.053463,-8956.491898,1332.370696,-2451.505594
4159.053793,-8956.491898,1406.391290,-2834.553343
4159.054123,-8956.491898,1110.308913,-1915.238745
4159.054453,-9326.594869,1332.370696,-919.314598
4159.054783,-10288.862594,1554.432478,-919.314598
4159.055112,-9844.739029,1406.391290,-2374.896044
4159.055442,-9400.615463,1332.370696,-3294.210641
4159.055772,-8956.491898,1110.308913,-3064.381992
4159.056102,-9622.677246,1110.308913,-1532.190996
4159.056432,-9844.739029,1480.411884,-919.314598
4159.056761,-9252.574275,1332.370696,-1455.581446
4159.057091,-9104.533087,1628.453072,-2221.676944
4159.057421,-9104.533087,1998.556043,-2757.943793
4159.057751,-10436.903782,2220.617826,-3217.601092
4159.058081,-10362.883188,2368.659014,-3600.648841
4159.058411,-9622.677246,2738.761985,-3600.648841
4159.058740,-9474.636058,2886.803174,-2681.334243
4159.059070,-10658.965565,2886.803174,-1915.238745
4159.059400,-10658.965565,2516.700203,-1302.362347
4159.059730,-10214.842000,2812.782580,-2221.676944
4159.060060,-9918.759623,2960.823768,-2911.162892
4159.060390,-9992.780217,2738.761985,-1762.019645
4159.060719,-9844.739029,2812.782580,-2145.067394
4159.061049,-9622.677246,3108.864956,-2528.115143
4159.061379,-9400.615463,2738.761985,-2374.896044
4159.061709,-9474.636058,2886.803174,-1685.410096
4159.062039,-9992.780217,3404.947333,-1991.848295
4159.062368,-10732.986159,3330.926739,-1532.190996
4159.062698,-10140.821405,3775.050304,-1991.848295
4159.063028,-9474.636058,3478.967927,-2757.943793
4159.063358,-9844.739029,3330.926739,-2681.334243
4159.063688,-9844.739029,3330.926739,-1685.410096
4159.064018,-10362.883188,3478.967927,-1149.143247
4159.064347,-9844.739029,3923.091493,-3064.381992
4159.064677,-8512.368333,2886.803174,-3294.210641
4159.065007,-8734.430116,3330.926739,-3524.039291
4159.065337,-9400.615463,3552.988522,-2834.553343
4159.065667,-10066.800811,3923.091493,-2145.067394
4159.065997,-9548.656652,3775.050304,-1455.581446
4159.066326,-8882.471304,3182.885551,-1302.362347
4159.066656,-9474.636058,2442.679609,-766.095498
4159.066986,-10288.862594,2886.803174,-689.485948
4159.067316,-9770.718434,2516.700203,-1685.410096
4159.067646,-9252.574275,2368.659014,-2528.115143
4159.067976,-8808.450710,2590.720797,-2681.334243
4159.068305,-9252.574275,2738.761985,-2528.115143
4159.068635,-8956.491898,2960.823768,-3294.210641
4159.068965,-9326.594869,3108.864956,-2987.772442
4159.069295,-9770.718434,2590.720797,-2528.115143
4159.069625,-10066.800811,2812.782580,-1915.238745
4159.069954,-10732.986159,2442.679609,-459.657299
4159.070284,-10584.944971,1998.556043,-383.047749
4159.070614,-9548.656652,1554.432478,-1225.752797
4159.070944,-9030.512492,1036.288319,-1915.238745
4159.071274,-8882.471304,1110.308913,-1455.581446
4159.071604,-9400.615463,1258.350101,-612.876398
4159.071933,-9696.697840,1628.453072,-153.219100
4159.072263,-9770.718434,1628.453072,-459.657299
4159.072593,-10214.842000,1924.535449,-2298.286494
4159.072923,-10288.862594,1998.556043,-3217.601092
4159.073253,-10288.862594,1554.432478,-3140.991542
4159.073583,-10140.821405,1480.411884,-2068.457845
4159.073912,-9548.656652,222.061783,-1302.362347
4159.074242,-9252.574275,1036.288319,-1302.362347
4159.074572,-9252.574275,740.205942,-2145.067394
4159.074902,-9400.615463,518.144159,-2528.115143
4159.075232,-9844.739029,222.061783,-2068.457845
4159.075562,-9474.636058,296.082377,-459.657299
4159.075891,-9696.697840,0.000000,536.266849
4159.076221,-10362.883188,814.226536,919.314598
4159.076551,-10658.965565,1184.329507,76.609550
4159.076881,-10140.821405,740.205942,-1685.410096
4159.077211,-9992.780217,1628.453072,-2374.896044
4159.077540,-11103.089130,1924.535449,-1762.019645
4159.077870,-10584.944971,1554.432478,-1378.971896
4159.078200,-9918.759623,1702.473667,-2528.115143
4159.078530,-8068.244768,1406.391290,-4213.525239
4159.078860,-8512.368333,74.020594,-3600.648841
4159.079190,-9844.739029,740.205942,-2681.334243
4159.079519,-9844.739029,1480.411884,-1072.533697
4159.079849,-9400.615463,1776.494261,-766.095498
4159.080179,-8586.388927,1036.288319,-1532.190996
4159.080509,-9104.533087,1702.473667,-842.705048
4159.080839,-11769.274478,2812.782580,0.000000
4159.081169,-12509.480420,3108.864956,-995.924147
4159.081498,-10732.986159,2072.576638,-2145.067394
4159.081828,-8512.368333,1776.494261,-2451.505594
4159.082158,-8882.471304,2590.720797,-2834.553343
4159.082488,-9770.718434,1850.514855,-2681.334243
4159.082818,-8142.265362,2442.679609,-4903.011187
4159.083147,-7550.100608,2146.597232,-4749.792088
4159.083477,-8512.368333,2072.576638,-3294.210641
4159.083807,-9770.718434,2664.741391,-1302.362347
4159.084137,-10436.903782,3478.967927,-612.876398
4159.084467,-10140.821405,3256.906145,-1762.019645
4159.084797,-9474.636058,2664.741391,-2374.896044
4159.085126,-9844.739029,2812.782580,-2298.286494
4159.085456,-9992.780217,2886.803174,-1915.238745
4159.085786,-9474.636058,2960.823768,-1378.971896
4159.086116,-8956.491898,3404.947333,-2145.067394
4159.086446,-9992.780217,3034.844362,-2757.943793
4159.086776,-9770.718434,3256.906145,-2911.162892
4159.087105,-9030.512492,2886.803174,-2068.457845
4159.087435,-9326.594869,3182.885551,-2757.943793
4159.087765,-9030.512492,2960.823768,-2681.334243
4159.088095,-9474.636058,3404.947333,-2681.334243
4159.088425,-9844.739029,3627.009116,-2298.286494
4159.088755,-10658.965565,3404.947333,-2145.067394
4159.089084,-10214.842000,2812.782580,-1762.019645
4159.089414,-9770.718434,2590.720797,-1991.848295
4159.089744,-9696.697840,2664.741391,-766.095498
4159.090074,-9918.759623,2442.679609,-153.219100
4159.090404,-10066.800811,2442.679609,-536.266849
4159.090733,-9252.574275,2294.638420,-2068.457845
4159.091063,-9252.574275,2368.659014,-3064.381992
4159.091393,-9770.718434,3256.906145,-2374.896044
4159.091723,-11547.212695,3182.885551,-1225.752797
4159.092053,-10584.944971,3034.844362,-1455.581446
4159.092383,-8956.491898,2220.617826,-2451.505594
4159.092712,-8882.471304,2960.823768,-3217.601092
4159.093042,-10732.986159,2220.617826,-2451.505594
4159.093372,-11177.109724,2664.741391,-1225.752797
4159.093702,-8956.491898,1554.432478,-2221.676944
4159.094032,-8364.327145,1924.535449,-2911.162892
4159.094362,-9104.533087,1850.514855,-2834.553343
4159.094691,-10436.903782,1998.556043,-1838.629195
4159.095021,-9918.759623,1998.556043,-1608.800546
4159.095351,-9252.574275,1850.514855,-1915.238745
4159.095681,-9918.759623,1628.453072,-1149.143247
4159.096011,-11177.109724,1554.432478,-306.438199
4159.096340,-11547.212695,2072.576638,689.485948
4159.096670,-9548.656652,1480.411884,-76.609550
4159.097000,-8956.491898,1036.288319,-1225.752797
4159.097330,-9030.512492,888.247130,-2374.896044
4159.097660,-9622.677246,592.164754,-1838.629195
4159.097990,-9918.759623,740.205942,-1302.362347
4159.098319,-8882.471304,592.164754,-459.657299
4159.098649,-8660.409521,666.185348,-842.705048
4159.098979,-10066.800811,888.247130,0.000000
4159.099309,-10732.986159,740.205942,76.609550
4159.099639,-10362.883188,666.185348,76.609550
4159.099969,-10066.800811,740.205942,-612.876398
4159.100298,-10436.903782,518.144159,153.219100
4159.100628,-9918.759623,444.123565,459.657299
4159.100958,-9400.615463,0.000000,-306.438199
4159.101288,-8586.388927,0.000000,-1302.362347
4159.101617,-9548.656652,0.000000,-1149.143247
4159.101947,-9252.574275,0.000000,-612.876398
4159.102277,-8956.491898,222.061783,-306.438199
4159.102607,-8882.471304,444.123565,-76.609550
4159.102937,-9622.677246,0.000000,0.000000
4159.103266,-9992.780217,0.000000,-383.047749
4159.103596,-9696.697840,-518.144159,-229.828649
4159.103926,-9474.636058,0.000000,1149.143247
4159.104256,-10066.800811,222.061783,1685.410096
4159.104585,-9474.636058,0.000000,689.485948
4159.104915,-9844.739029,0.000000,153.219100
4159.105245,-9326.594869,0.000000,-306.438199
4159.105575,-9474.636058,-296.082377,-229.828649
4159.105905,-10066.800811,-74.020594,306.438199
4159.106234,-10362.883188,296.082377,459.657299
4159.106564,-9918.759623,-888.247130,306.438199
4159.106894,-9770.718434,740.205942,-919.314598
4159.107224,-10362.883188,148.041188,-689.485948
4159.107554,-9918.759623,0.000000,-689.485948
4159.107883,-9030.512492,222.061783,0.000000
4159.108213,-9622.677246,518.144159,1072.533697
4159.108543,-10214.842000,0.000000,919.314598
4159.108873,-11251.130318,0.000000,-383.047749
4159.109202,-10288.862594,-370.102971,-1762.019645
4159.109532,-9400.615463,-1258.350101,-1378.971896
4159.109862,-9622.677246,148.041188,-842.705048
4159.110192,-9104.533087,0.000000,536.266849
4159.110522,-8808.450710,592.164754,842.705048
4159.110851,-9104.533087,1184.329507,0.000000
4159.111181,-10140.821405,666.185348,-1302.362347
4159.111511,-12213.398043,962.267725,-612.876398
4159.111841,-11769.274478,666.185348,-612.876398
4159.112170,-10362.883188,-518.144159,229.828649
4159.112500,-9030.512492,-444.123565,459.657299
4159.112830,-7994.224174,-740.205942,0.000000
4159.113160,-8586.388927,-1184.329507,919.314598
4159.113490,-9030.512492,518.144159,995.924147
4159.113819,-9178.553681,888.247130,995.924147
4159.114149,-9326.594869,592.164754,766.095498
4159.114479,-10732.986159,1998.556043,383.047749
4159.114809,-11695.253884,1258.350101,-153.219100
4159.115138,-11695.253884,296.082377,-76.609550
4159.115468,-9178.553681,444.123565,-766.095498
4159.115798,-7476.080014,-444.123565,-842.705048
4159.116128,-7772.162391,74.020594,0.000000
4159.116458,-9104.533087,814.226536,383.047749
4159.116787,-9400.615463,1036.288319,689.485948
4159.117117,-10732.986159,888.247130,383.047749
4159.117447,-10732.986159,1110.308913,536.266849
4159.117777,-10214.842000,444.123565,1915.238745
4159.118106,-10955.047942,1332.370696,1532.190996
4159.118436,-9474.636058,222.061783,459.657299
4159.118766,-9252.574275,-296.082377,-153.219100
4159.119096,-9548.656652,370.102971,76.609550
4159.119426,-9696.697840,370.102971,766.095498
4159.119755,-10288.862594,296.082377,1302.362347
4159.120085,-9844.739029,666.185348,0.000000
4159.120415,-9104.533087,0.000000,0.000000
4159.120745,-9178.553681,0.000000,0.000000
4159.121075,-9474.636058,222.061783,-1378.971896
4159.121404,-9548.656652,0.000000,153.219100
4159.121734,-10362.883188,888.247130,689.485948
4159.122064,-10140.821405,444.123565,383.047749
4159.122394,-10214.842000,0.000000,0.000000
4159.122723,-10510.924376,0.000000,-153.219100
4159.123053,-9548.656652,-1110.308913,536.266849
4159.123383,-9474.636058,-962.267725,919.314598
4159.123713,-9178.553681,-962.267725,842.705048
4159.124043,-9030.512492,-666.185348,919.314598
4159.124372,-9474.636058,-1110.308913,536.266849
4159.124702,-10066.800811,-370.102971,-536.266849
4159.125032,-9770.718434,-518.144159,0.000000
4159.125362,-10066.800811,-370.102971,383.047749
4159.125691,-9548.656652,-370.102971,459.657299
4159.126021,-9696.697840,-1406.391290,306.438199
4159.126351,-9918.759623,-666.185348,-612.876398
4159.126681,-9770.718434,-740.205942,153.219100
4159.127011,-10510.924376,-740.205942,612.876398
4159.127340,-9030.512492,-1554.432478,229.828649
4159.127670,-9622.677246,-1036.288319,536.266849
4159.128000,-9918.759623,-1184.329507,1302.362347
4159.128330,-10066.800811,-666.185348,0.000000
4159.128659,-9770.718434,-666.185348,383.047749
4159.128989,-9474.636058,-296.082377,306.438199
4159.129319,-10214.842000,222.061783,306.438199
4159.129649,-11325.150913,-148.041188,766.095498
4159.129979,-10807.006753,-148.041188,-536.266849
4159.130308,-10140.821405,-888.247130,-612.876398
4159.130638,-9400.615463,-1258.350101,766.095498
4159.130968,-9400.615463,-592.164754,1455.581446
4159.131298,-8808.450710,-444.123565,612.876398
4159.131627,-8290.306550,-592.164754,612.876398
4159.131957,-10066.800811,0.000000,76.609550
4159.132287,-10732.986159,296.082377,229.828649
4159.132617,-10584.944971,592.164754,0.000000
4159.132947,-9474.636058,148.041188,-995.924147
4159.133276,-8808.450710,370.102971,-383.047749
4159.133606,-10807.006753,666.185348,153.219100
4159.133936,-10807.006753,74.020594,-919.314598
4159.134266,-8956.491898,-148.041188,-229.828649
4159.134596,-9178.553681,296.082377,383.047749
4159.134925,-8660.409521,0.000000,612.876398
4159.135255,-8512.368333,148.041188,766.095498
4159.135585,-8808.450710,666.185348,229.828649
4159.135915,-9844.739029,296.082377,229.828649
4159.136244,-11325.150913,1184.329507,459.657299
4159.136574,-10436.903782,1184.329507,0.000000
4159.136904,-9770.718434,814.226536,-383.047749
4159.137234,-9770.718434,1036.288319,612.876398
4159.137564,-9400.615463,222.061783,919.314598
4159.137893,-8956.491898,0.000000,842.705048
4159.138223,-8882.471304,814.226536,306.438199
4159.138553,-10066.800811,518.144159,0.000000
4159.138883,-10362.883188,666.185348,459.657299
4159.139212,-10214.842000,1258.350101,-76.609550
4159.139542,-8660.409521,296.082377,-306.438199
4159.139872,-9992.780217,666.185348,689.485948
4159.140202,-10732.986159,444.123565,612.876398
4159.140532,-9696.697840,518.144159,153.219100
4159.140861,-9696.697840,444.123565,1149.143247
4159.141191,-9770.718434,0.000000,0.000000
4159.141521,-9844.739029,888.247130,1532.190996
4159.141851,-11325.150913,74.020594,383.047749
4159.142180,-9326.594869,-222.061783,-2068.457845
4159.142510,-8216.285956,0.000000,-995.924147
4159.142840,-10066.800811,518.144159,229.828649
4159.143170,-10584.944971,444.123565,0.000000
4159.143500,-9918.759623,222.061783,153.219100
4159.143829,-9844.739029,592.164754,-612.876398
4159.144159,-8956.491898,74.020594,-1149.143247
4159.144489,-9844.739029,0.000000,-612.876398
4159.144819,-10214.842000,148.041188,-536.266849
4159.145148,-10881.027347,148.041188,0.000000
4159.145478,-10584.944971,222.061783,1762.019645
4159.145808,-9104.533087,-888.247130,-306.438199
4159.146138,-9326.594869,-296.082377,-383.047749
4159.146468,-9548.656652,296.082377,306.438199
4159.146797,-9992.780217,-148.041188,766.095498
4159.147127,-9326.594869,-296.082377,919.314598
4159.147457,-9474.636058,370.102971,689.485948
4159.147787,-11029.068536,518.144159,459.657299
4159.148117,-11103.089130,-222.061783,383.047749
4159.148446,-10658.965565,296.082377,-306.438199
4159.148776,-9918.759623,-148.041188,-689.485948
4159.149106,-9474.636058,-444.123565,536.266849
4159.149436,-9474.636058,-370.102971,1915.238745
4159.149765,-9474.636058,0.000000,2068.457845
4159.150095,-9844.739029,-148.041188,842.705048
4159.150425,-10288.862594,-370.102971,-306.438199
4159.150755,-9696.697840,148.041188,919.314598
4159.151085,-9474.636058,74.020594,1455.581446
4159.151414,-9474.636058,0.000000,1149.143247
4159.151744,-9474.636058,-370.102971,1225.752797
4159.152074,-10658.965565,148.041188,612.876398
4159.152404,-9696.697840,0.000000,0.000000
4159.152733,-9696.697840,0.000000,0.000000
4159.153063,-9992.780217,148.041188,0.000000
4159.153393,-9622.677246,148.041188,76.609550
4159.153723,-9400.615463,-222.061783,229.828649
4159.154053,-8956.491898,-296.082377,-229.828649
4159.154382,-9030.512492,0.000000,383.047749
4159.154712,-9844.739029,-370.102971,689.485948
4159.155042,-9030.512492,0.000000,842.705048
4159.155372,-8660.409521,-222.061783,612.876398
4159.155701,-10140.821405,296.082377,842.705048
4159.156031,-11843.295072,444.123565,842.705048
4159.156361,-10881.027347,-222.061783,0.000000
4159.156691,-9104.533087,-518.144159,-229.828649
4159.157021,-9252.574275,-296.082377,459.657299
4159.157350,-9844.739029,-444.123565,1838.629195
4159.157680,-9474.636058,-222.061783,842.705048
4159.158010,-7772.162391,0.000000,-536.266849
4159.158340,-8660.409521,222.061783,-612.876398
4159.158669,-11103.089130,888.247130,0.000000
4159.158999,-11695.253884,296.082377,153.219100
4159.159329,-11103.089130,222.061783,0.000000
4159.159659,-9474.636058,0.000000,-842.705048
4159.159989,-9696.697840,0.000000,383.047749
4159.160318,-11177.109724,74.020594,1302.362347
4159.160648,-10214.842000,148.041188,1532.190996
4159.160978,-8660.409521,0.000000,689.485948
4159.161308,-9622.677246,814.226536,153.219100
4159.161638,-11251.130318,370.102971,-919.314598
4159.161967,-9844.739029,-444.123565,-536.266849
4159.162297,-8808.450710,296.082377,-383.047749
4159.162627,-8734.430116,666.185348,-459.657299
4159.162957,-10510.924376,0.000000,0.000000
4159.163286,-10140.821405,222.061783,-306.438199
4159.163616,-9252.574275,0.000000,0.000000
4159.163946,-9918.759623,962.267725,-306.438199
4159.164276,-10807.006753,444.123565,-459.657299
4159.164606,-9474.636058,296.082377,536.266849
4159.164935,-8734.430116,666.185348,612.876398
4159.165265,-9474.636058,592.164754,0.000000
4159.165595,-10732.986159,-444.123565,1149.143247
4159.165925,-10214.842000,518.144159,536.266849
4159.166254,-8290.306550,0.000000,-76.609550
4159.166584,-9252.574275,-296.082377,383.047749
4159.166914,-10955.047942,740.205942,153.219100
