#time,accel_x,accel_y,accel_z
4015.886985,-9326.594869,-1628.453072,2757.943793
4015.887315,-10140.821405,-740.205942,3064.381992
4015.887645,-10658.965565,74.020594,2834.553343
4015.887975,-10510.924376,370.102971,2068.457845
4015.888305,-10214.842000,148.041188,1685.410096
4015.888635,-9548.656652,74.020594,1685.410096
4015.888965,-9548.656652,0.000000,1608.800546
4015.889296,-8734.430116,-148.041188,1149.143247
4015.889626,-8142.265362,-222.061783,1149.143247
4015.889956,-8734.430116,0.000000,1378.971896
4015.890286,-9992.780217,296.082377,1072.533697
4015.890616,-10436.903782,444.123565,536.266849
4015.890946,-10584.944971,148.041188,306.438199
4015.891276,-10807.006753,518.144159,1455.581446
4015.891607,-10807.006753,148.041188,2221.676944
4015.891937,-11029.068536,222.061783,2451.505594
4015.892267,-10436.903782,-296.082377,2221.676944
4015.892597,-10066.800811,-370.102971,2757.943793
4015.892927,-10140.821405,148.041188,3447.429741
4015.893257,-10362.883188,148.041188,3140.991542
4015.893587,-9696.697840,296.082377,2298.286494
4015.893918,-9622.677246,-148.041188,1532.190996
4015.894248,-10288.862594,-370.102971,1532.190996
4015.894578,-11177.109724,-370.102971,919.314598
4015.894908,-8734.430116,-666.185348,2145.067394
4015.895238,-10584.944971,-740.205942,766.095498
4015.895568,-9178.553681,-444.123565,1149.143247
4015.895898,-8438.347739,-1628.453072,1685.410096
4015.896229,-9696.697840,-2368.659014,1838.629195
4015.896559,-9696.697840,-2516.700203,3524.039291
4015.896889,-9326.594869,-3627.009116,4749.792088
4015.897219,-9400.615463,-4145.153275,5056.230287
4015.897549,-9104.533087,-3701.029710,4749.792088
4015.897879,-9844.739029,-4145.153275,3294.210641
4015.898209,-9992.780217,-3701.029710,3294.210641
4015.898540,-9622.677246,-3849.070898,2451.505594
4015.898870,-9474.636058,-2960.823768,2681.334243
4015.899200,-9326.594869,-2368.659014,2604.724693
4015.899530,-10732.986159,-3034.844362,2911.162892
4015.899860,-10881.027347,-3182.885551,2604.724693
4015.900190,-10140.821405,-4145.153275,1762.019645
4015.900520,-8882.471304,-4811.338623,1225.752797
4015.900851,-8808.450710,-5551.544565,1915.238745
4015.901181,-9400.615463,-5477.523971,3907.087040
4015.901511,-10066.800811,-5107.421000,4903.011187
4015.901841,-10214.842000,-4885.359217,4749.792088
4015.902171,-9992.780217,-4441.235652,3983.696590
4015.902501,-10288.862594,-4219.173869,1838.629195
4015.902831,-10732.986159,-4145.153275,1302.362347
4015.903162,-9992.780217,-4589.276840,2145.067394
4015.903492,-9844.739029,-3923.091493,4290.134789
4015.903822,-9992.780217,-4515.256246,4213.525239
4015.904152,-8734.430116,-4959.379811,1608.800546
4015.904482,-8882.471304,-4441.235652,-76.609550
4015.904812,-9400.615463,-3849.070898,153.219100
4015.905142,-10658.965565,-3627.009116,1225.752797
4015.905473,-10955.047942,-3256.906145,2987.772442
4015.905803,-10214.842000,-3034.844362,2834.553343
4015.906133,-9918.759623,-3108.864956,2911.162892
4015.906463,-9992.780217,-2960.823768,2528.115143
4015.906793,-10584.944971,-2590.720797,1762.019645
4015.907123,-10584.944971,-2442.679609,766.095498
4015.907453,-9474.636058,-2442.679609,612.876398
4015.907784,-8808.450710,-2072.576638,1302.362347
4015.908114,-9548.656652,-1998.556043,2374.896044
4015.908444,-9696.697840,-1554.432478,2298.286494
4015.908774,-9104.533087,-1554.432478,1072.533697
4015.909104,-9474.636058,-518.144159,383.047749
4015.909434,-9696.697840,-1110.308913,2604.724693
4015.909764,-10140.821405,-370.102971,2911.162892
4015.910093,-10732.986159,444.123565,2451.505594
4015.910423,-10807.006753,666.185348,-229.828649
4015.910753,-9770.718434,666.185348,-2604.724693
4015.911083,-9326.594869,666.185348,-3447.429741
4015.911413,-9104.533087,962.267725,-459.657299
4015.911743,-9252.574275,1332.370696,2068.457845
4015.912072,-8660.409521,2146.597232,1532.190996
4015.912402,-8734.430116,1628.453072,-612.876398
4015.912732,-9474.636058,2146.597232,-2604.724693
4015.913062,-9844.739029,1850.514855,-2528.115143
4015.913392,-10140.821405,2516.700203,-1149.143247
4015.913722,-9696.697840,1998.556043,536.266849
4015.914052,-9474.636058,2294.638420,1225.752797
4015.914381,-9622.677246,2368.659014,1225.752797
4015.914711,-9918.759623,2368.659014,612.876398
4015.915041,-9992.780217,2886.803174,-689.485948
4015.915371,-10140.821405,3330.926739,-1072.533697
4015.915701,-9770.718434,3775.050304,-1378.971896
4015.916031,-9622.677246,3775.050304,-919.314598
4015.916361,-9770.718434,3552.988522,-612.876398
4015.916690,-10288.862594,2812.782580,-1072.533697
4015.917020,-10288.862594,2590.720797,-1685.410096
4015.917350,-10214.842000,2146.597232,-1991.848295
4015.917680,-9178.553681,2368.659014,-1608.800546
4015.918010,-8660.409521,2072.576638,-536.266849
4015.918340,-8734.430116,2146.597232,-306.438199
4015.918670,-9400.615463,2442.679609,-459.657299
4015.918999,-10807.006753,2738.761985,-76.609550
4015.919329,-11399.171507,2590.720797,995.924147
4015.919659,-11177.109724,2220.617826,1302.362347
4015.919989,-10658.965565,1924.535449,689.485948
4015.920319,-10436.903782,1332.370696,-76.609550
4015.920649,-9992.780217,814.226536,-766.095498
4015.920978,-9178.553681,148.041188,-1455.581446
4015.921308,-8290.306550,-222.061783,-1302.362347
4015.921638,-7920.203579,-296.082377,-383.047749
4015.921968,-8216.285956,0.000000,306.438199
4015.922298,-9252.574275,0.000000,919.314598
4015.922628,-9992.780217,0.000000,842.705048
4015.922958,-10288.862594,-296.082377,459.657299
4015.923287,-10362.883188,-444.123565,1225.752797
4015.923617,-10436.903782,-1110.308913,1378.971896
4015.923947,-10362.883188,-1184.329507,1762.019645
4015.924277,-10214.842000,-1628.453072,1762.019645
4015.924607,-9622.677246,-1776.494261,1762.019645
4015.924937,-9474.636058,-1850.514855,842.705048
4015.925267,-8956.491898,-1924.535449,76.609550
4015.925596,-9104.533087,-1554.432478,-153.219100
4015.925926,-9400.615463,-1110.308913,0.000000
4015.926256,-9844.739029,-962.267725,536.266849
4015.926586,-9770.718434,-1628.453072,0.000000
4015.926916,-10436.903782,-1702.473667,766.095498
4015.927246,-11177.109724,-1850.514855,1149.143247
4015.927575,-11103.089130,-1924.535449,536.266849
4015.927905,-10288.862594,-2294.638420,1378.971896
4015.928235,-9474.636058,-2368.659014,1378.971896
4015.928565,-9252.574275,-2368.659014,1455.581446
4015.928895,-9400.615463,-1554.432478,1685.410096
4015.929225,-9992.780217,-1554.432478,1225.752797
4015.929555,-10140.821405,-1406.391290,1455.581446
4015.929884,-9844.739029,-1258.350101,995.924147
4015.930214,-10510.924376,-1480.411884,306.438199
4015.930544,-10362.883188,-1554.432478,0.000000
4015.930874,-10362.883188,-1850.514855,-229.828649
4015.931204,-9696.697840,-1406.391290,0.000000
4015.931534,-9326.594869,-1258.350101,612.876398
4015.931864,-8808.450710,-740.205942,306.438199
4015.932193,-9474.636058,-666.185348,1838.629195
4015.932523,-10140.821405,-444.123565,1838.629195
4015.932853,-9918.759623,-666.185348,842.705048
4015.933183,-9474.636058,74.020594,383.047749
4015.933513,-9178.553681,-296.082377,306.438199
4015.933843,-9622.677246,0.000000,306.438199
4015.934172,-9622.677246,0.000000,229.828649
4015.934502,-9548.656652,0.000000,229.828649
4015.934832,-9326.594869,370.102971,306.438199
4015.935162,-9474.636058,222.061783,0.000000
4015.935492,-9770.718434,888.247130,0.000000
4015.935822,-9622.677246,814.226536,-306.438199
4015.936152,-8734.430116,962.267725,-612.876398
4015.936481,-8882.471304,444.123565,-459.657299
4015.936811,-8956.491898,666.185348,-229.828649
4015.937141,-9844.739029,1110.308913,76.609550
4015.937471,-9474.636058,1628.453072,76.609550
4015.937801,-9992.780217,1628.453072,-536.266849
4015.938131,-10066.800811,1924.535449,-306.438199
4015.938461,-9918.759623,1628.453072,-383.047749
4015.938790,-9770.718434,2072.576638,-612.876398
4015.939120,-10214.842000,1850.514855,-689.485948
4015.939450,-9844.739029,1998.556043,-842.705048
4015.939780,-9474.636058,1924.535449,-229.828649
4015.940110,-9400.615463,1628.453072,-536.266849
4015.940440,-9474.636058,1702.473667,-1532.190996
4015.940769,-10140.821405,1850.514855,-1608.800546
4015.941099,-9992.780217,1776.494261,-1838.629195
4015.941429,-9474.636058,1554.432478,-766.095498
4015.941759,-9030.512492,1554.432478,229.828649
4015.942089,-9770.718434,1554.432478,612.876398
4015.942419,-10362.883188,1702.473667,919.314598
4015.942749,-10140.821405,1184.329507,0.000000
4015.943078,-10214.842000,1258.350101,-76.609550
4015.943408,-9770.718434,1110.308913,-612.876398
4015.943738,-9622.677246,814.226536,-153.219100
4015.944068,-9770.718434,740.205942,0.000000
4015.944398,-9622.677246,814.226536,-383.047749
4015.944728,-9992.780217,666.185348,-229.828649
4015.945058,-10140.821405,740.205942,-153.219100
4015.945387,-9918.759623,148.041188,-459.657299
4015.945717,-9770.718434,296.082377,153.219100
4015.946047,-9178.553681,0.000000,383.047749
4015.946377,-9252.574275,0.000000,766.095498
4015.946707,-9104.533087,-296.082377,153.219100
4015.947037,-9696.697840,-222.061783,306.438199
4015.947367,-9770.718434,74.020594,0.000000
4015.947696,-10214.842000,0.000000,842.705048
4015.948026,-10140.821405,-370.102971,842.705048
4015.948356,-9548.656652,-444.123565,842.705048
4015.948686,-9400.615463,-740.205942,383.047749
4015.949016,-9252.574275,-592.164754,0.000000
4015.949346,-9474.636058,-592.164754,-153.219100
4015.949675,-9844.739029,-518.144159,0.000000
4015.950005,-9992.780217,-444.123565,766.095498
4015.950335,-10362.883188,-296.082377,383.047749
4015.950665,-10214.842000,-518.144159,383.047749
4015.950995,-10066.800811,-962.267725,0.000000
4015.951325,-9992.780217,-962.267725,153.219100
4015.951655,-9770.718434,-592.164754,-383.047749
4015.951984,-9474.636058,-888.247130,536.266849
4015.952314,-9474.636058,-1184.329507,842.705048
4015.952644,-9992.780217,-740.205942,995.924147
4015.952974,-10288.862594,-518.144159,919.314598
4015.953304,-9918.759623,-592.164754,766.095498
4015.953634,-9548.656652,-1110.308913,689.485948
4015.953964,-9844.739029,-888.247130,689.485948
4015.954293,-10362.883188,-666.185348,383.047749
4015.954623,-9770.718434,-592.164754,766.095498
4015.954953,-9844.739029,-740.205942,919.314598
4015.955283,-9844.739029,-814.226536,536.266849
4015.955613,-9844.739029,-1036.288319,-153.219100
4015.955943,-9770.718434,-370.102971,-1072.533697
4015.956272,-9622.677246,-518.144159,-229.828649
4015.956602,-9178.553681,-592.164754,306.438199
4015.956932,-9104.533087,-592.164754,383.047749
4015.957262,-9178.553681,-1110.308913,995.924147
4015.957592,-9992.780217,-592.164754,1302.362347
4015.957922,-9844.739029,-666.185348,766.095498
4015.958252,-9770.718434,-592.164754,383.047749
4015.958581,-9474.636058,-740.205942,1072.533697
4015.958911,-9252.574275,-370.102971,766.095498
4015.959241,-9548.656652,-444.123565,919.314598
4015.959571,-9918.759623,-148.041188,153.219100
4015.959901,-9992.780217,0.000000,383.047749
4015.960231,-9474.636058,0.000000,76.609550
4015.960561,-10066.800811,0.000000,0.000000
4015.960890,-10066.800811,0.000000,76.609550
4015.961220,-9844.739029,0.000000,-383.047749
4015.961550,-8660.409521,-296.082377,-76.609550
4015.961880,-9178.553681,0.000000,229.828649
4015.962210,-9548.656652,0.000000,689.485948
4015.962540,-10214.842000,444.123565,842.705048
4015.962869,-9918.759623,370.102971,536.266849
4015.963199,-9622.677246,518.144159,0.000000
4015.963529,-10214.842000,370.102971,0.000000
4015.963859,-9770.718434,0.000000,76.609550
4015.964189,-9696.697840,444.123565,0.000000
4015.964519,-9622.677246,592.164754,0.000000
4015.964849,-9622.677246,666.185348,0.000000
4015.965178,-9770.718434,1110.308913,76.609550
4015.965508,-9548.656652,888.247130,-306.438199
4015.965838,-9696.697840,1036.288319,-612.876398
4015.966168,-10362.883188,1332.370696,-995.924147
4015.966498,-9770.718434,1036.288319,-995.924147
4015.966828,-9252.574275,666.185348,-689.485948
4015.967158,-9178.553681,666.185348,-919.314598
4015.967487,-9992.780217,814.226536,153.219100
4015.967817,-10140.821405,518.144159,229.828649
4015.968147,-10214.842000,592.164754,76.609550
4015.968477,-9622.677246,592.164754,153.219100
4015.968807,-9844.739029,888.247130,919.314598
4015.969137,-9992.780217,740.205942,536.266849
4015.969467,-10214.842000,518.144159,153.219100
4015.969796,-10066.800811,444.123565,153.219100
4015.970126,-9474.636058,518.144159,536.266849
4015.970456,-9326.594869,370.102971,0.000000
4015.970786,-9696.697840,370.102971,-689.485948
4015.971116,-9696.697840,592.164754,-689.485948
4015.971446,-9474.636058,814.226536,-1762.019645
4015.971775,-9400.615463,444.123565,-383.047749
4015.972105,-9474.636058,370.102971,153.219100
4015.972435,-9770.718434,148.041188,383.047749
4015.972765,-10362.883188,370.102971,766.095498
4015.973095,-10214.842000,-296.082377,536.266849
4015.973425,-9474.636058,-222.061783,229.828649
4015.973755,-8956.491898,-592.164754,-229.828649
4015.974084,-9252.574275,0.000000,306.438199
4015.974414,-9326.594869,0.000000,306.438199
4015.974744,-9622.677246,0.000000,306.438199
4015.975074,-10066.800811,-222.061783,612.876398
4015.975404,-9844.739029,-222.061783,1072.533697
4015.975734,-10066.800811,-296.082377,-229.828649
4015.976064,-10436.903782,-592.164754,-229.828649
4015.976393,-9770.718434,-444.123565,0.000000
4015.976723,-9252.574275,-148.041188,153.219100
4015.977053,-9252.574275,-666.185348,383.047749
4015.977383,-9548.656652,-666.185348,766.095498
4015.977713,-10288.862594,0.000000,842.705048
4015.978043,-10288.862594,-370.102971,612.876398
4015.978372,-10510.924376,-444.123565,536.266849
4015.978702,-10214.842000,-666.185348,842.705048
4015.979032,-9770.718434,-962.267725,536.266849
4015.979362,-10140.821405,-444.123565,536.266849
4015.979692,-9844.739029,-740.205942,306.438199
4015.980022,-9178.553681,-296.082377,1225.752797
4015.980352,-9030.512492,-370.102971,1455.581446
4015.980681,-9770.718434,-74.020594,1072.533697
4015.981011,-10362.883188,0.000000,459.657299
4015.981341,-9992.780217,0.000000,-459.657299
4015.981671,-9918.759623,0.000000,-689.485948
4015.982001,-9548.656652,-296.082377,0.000000
4015.982331,-9400.615463,-296.082377,229.828649
4015.982661,-9918.759623,-296.082377,689.485948
4015.982990,-10140.821405,296.082377,766.095498
4015.983320,-10362.883188,-444.123565,306.438199
4015.983650,-10288.862594,-74.020594,383.047749
4015.983980,-10066.800811,-370.102971,459.657299
4015.984310,-9474.636058,0.000000,919.314598
4015.984640,-9474.636058,-148.041188,76.609550
4015.984969,-9548.656652,0.000000,306.438199
4015.985299,-9474.636058,148.041188,459.657299
4015.985629,-9104.533087,370.102971,229.828649
4015.985959,-10214.842000,148.041188,0.000000
4015.986289,-10584.944971,444.123565,-306.438199
4015.986619,-9992.780217,148.041188,-229.828649
4015.986949,-9326.594869,148.041188,-459.657299
4015.987278,-9252.574275,74.020594,76.609550
4015.987608,-9474.636058,148.041188,919.314598
4015.987938,-9844.739029,370.102971,995.924147
4015.988268,-9696.697840,74.020594,919.314598
4015.988598,-9548.656652,444.123565,229.828649
4015.988928,-9844.739029,370.102971,306.438199
4015.989258,-10214.842000,444.123565,0.000000
4015.989587,-9474.636058,74.020594,-383.047749
4015.989917,-8956.491898,740.205942,153.219100
4015.990247,-9770.718434,592.164754,995.924147
4015.990577,-9474.636058,666.185348,1072.533697
4015.990907,-9770.718434,666.185348,459.657299
4015.991237,-10362.883188,962.267725,76.609550
4015.991567,-10140.821405,666.185348,-229.828649
4015.991896,-9992.780217,814.226536,-766.095498
4015.992226,-9252.574275,370.102971,-612.876398
4015.992556,-9252.574275,74.020594,0.000000
4015.992886,-9474.636058,666.185348,459.657299
4015.993216,-9844.739029,296.082377,306.438199
4015.993546,-9770.718434,222.061783,0.000000
4015.993875,-9770.718434,296.082377,0.000000
4015.994205,-9326.594869,444.123565,229.828649
4015.994535,-10214.842000,444.123565,0.000000
4015.994865,-9918.759623,444.123565,76.609550
4015.995195,-10140.821405,370.102971,459.657299
4015.995525,-9696.697840,370.102971,1762.019645
4015.995855,-9918.759623,0.000000,536.266849
4015.996184,-10214.842000,222.061783,-459.657299
4015.996514,-10214.842000,0.000000,-842.705048
4015.996844,-9400.615463,0.000000,-536.266849
4015.997174,-8882.471304,0.000000,-229.828649
4015.997504,-9030.512492,0.000000,306.438199
4015.997834,-9696.697840,0.000000,995.924147
4015.998164,-10288.862594,222.061783,842.705048
4015.998493,-10066.800811,222.061783,306.438199
4015.998823,-10436.903782,0.000000,306.438199
4015.999153,-9918.759623,-518.144159,536.266849
4015.999483,-9918.759623,-444.123565,536.266849
4015.999813,-9104.533087,-370.102971,306.438199
4016.000143,-9104.533087,-592.164754,306.438199
4016.000472,-9326.594869,-444.123565,689.485948
4016.000802,-9548.656652,-296.082377,689.485948
4016.001132,-10214.842000,0.000000,383.047749
4016.001462,-10510.924376,148.041188,0.000000
4016.001792,-10214.842000,0.000000,-842.705048
4016.002122,-9474.636058,-296.082377,-612.876398
4016.002452,-9622.677246,-222.061783,306.438199
4016.002781,-9844.739029,-518.144159,1302.362347
4016.003111,-10066.800811,0.000000,1072.533697
4016.003441,-9918.759623,-444.123565,689.485948
4016.003771,-9696.697840,-444.123565,612.876398
4016.004101,-9178.553681,-370.102971,306.438199
4016.004431,-9770.718434,0.000000,229.828649
4016.004761,-9696.697840,-296.082377,229.828649
4016.005090,-9104.533087,-444.123565,459.657299
4016.005420,-9252.574275,0.000000,1302.362347
4016.005750,-10066.800811,-148.041188,1149.143247
4016.006080,-10510.924376,0.000000,536.266849
4016.006410,-10362.883188,444.123565,-383.047749
4016.006740,-9696.697840,0.000000,-612.876398
4016.007069,-9252.574275,148.041188,0.000000
4016.007399,-8882.471304,0.000000,306.438199
4016.007729,-9400.615463,0.000000,766.095498
4016.008059,-9992.780217,0.000000,766.095498
4016.008389,-10066.800811,518.144159,612.876398
4016.008719,-9992.780217,296.082377,76.609550
4016.009049,-9548.656652,222.061783,76.609550
4016.009379,-9992.780217,148.041188,153.219100
4016.009709,-9844.739029,148.041188,383.047749
4016.010038,-9918.759623,0.000000,76.609550
4016.010368,-9622.677246,222.061783,459.657299
4016.010698,-9474.636058,148.041188,1225.752797
4016.011028,-10066.800811,296.082377,1072.533697
4016.011358,-9992.780217,518.144159,153.219100
4016.011688,-9918.759623,370.102971,-229.828649
4016.012018,-9992.780217,370.102971,-766.095498
4016.012348,-9622.677246,222.061783,-612.876398
4016.012678,-9474.636058,148.041188,536.266849
4016.013008,-9844.739029,74.020594,1225.752797
4016.013337,-10066.800811,296.082377,306.438199
4016.013667,-9770.718434,0.000000,76.609550
4016.013997,-9992.780217,444.123565,383.047749
4016.014327,-9548.656652,148.041188,-536.266849
4016.014657,-9696.697840,0.000000,-76.609550
4016.014987,-9918.759623,148.041188,0.000000
4016.015317,-9622.677246,148.041188,1072.533697
4016.015647,-9474.636058,296.082377,1302.362347
4016.015977,-9622.677246,74.020594,306.438199
4016.016307,-10288.862594,0.000000,-153.219100
4016.016636,-10584.944971,0.000000,-383.047749
4016.016966,-10140.821405,296.082377,-536.266849
4016.017296,-9326.594869,296.082377,0.000000
4016.017626,-8882.471304,74.020594,229.828649
4016.017956,-9252.574275,148.041188,612.876398
4016.018286,-10140.821405,74.020594,689.485948
4016.018616,-9844.739029,148.041188,0.000000
4016.018946,-9992.780217,222.061783,-306.438199
4016.019276,-9770.718434,0.000000,0.000000
4016.019605,-9918.759623,74.020594,0.000000
4016.019935,-9992.780217,0.000000,306.438199
4016.020265,-9548.656652,-222.061783,306.438199
4016.020595,-9474.636058,-74.020594,612.876398
4016.020925,-9400.615463,222.061783,842.705048
4016.021255,-9622.677246,0.000000,536.266849
4016.021585,-10214.842000,148.041188,0.000000
4016.021915,-10362.883188,222.061783,-229.828649
4016.022245,-9622.677246,0.000000,-536.266849
4016.022575,-9104.533087,0.000000,0.000000
4016.022904,-9030.512492,-370.102971,612.876398
4016.023234,-9844.739029,-148.041188,842.705048
4016.023564,-9548.656652,-222.061783,536.266849
4016.023894,-9474.636058,0.000000,459.657299
4016.024224,-9992.780217,148.041188,536.266849
4016.024554,-10288.862594,296.082377,0.000000
4016.024884,-10214.842000,74.020594,76.609550
4016.025214,-10066.800811,74.020594,76.609550
4016.025544,-9548.656652,0.000000,995.924147
4016.025874,-9548.656652,0.000000,766.095498
4016.026203,-9844.739029,-222.061783,306.438199
4016.026533,-9992.780217,0.000000,-383.047749
4016.026863,-9326.594869,74.020594,-842.705048
4016.027193,-9326.594869,0.000000,0.000000
4016.027523,-9252.574275,0.000000,306.438199
4016.027853,-9622.677246,0.000000,689.485948
4016.028183,-10140.821405,0.000000,1378.971896
4016.028513,-9992.780217,0.000000,153.219100
4016.028843,-9770.718434,0.000000,0.000000
4016.029173,-9918.759623,222.061783,76.609550
4016.029502,-9474.636058,148.041188,0.000000
4016.029832,-10214.842000,222.061783,-153.219100
4016.030162,-9622.677246,444.123565,0.000000
4016.030492,-9770.718434,222.061783,459.657299
4016.030822,-9696.697840,74.020594,995.924147
4016.031152,-9918.759623,0.000000,459.657299
4016.031482,-10140.821405,0.000000,0.000000
4016.031812,-10140.821405,0.000000,-689.485948
4016.032142,-9696.697840,-148.041188,-459.657299
4016.032471,-9696.697840,-444.123565,76.609550
4016.032801,-9474.636058,-148.041188,612.876398
4016.033131,-9992.780217,0.000000,1149.143247
4016.033461,-9992.780217,0.000000,612.876398
4016.033791,-9622.677246,-148.041188,459.657299
4016.034121,-9400.615463,0.000000,0.000000
4016.034451,-9622.677246,0.000000,153.219100
4016.034781,-9696.697840,0.000000,306.438199
4016.035111,-9844.739029,222.061783,153.219100
4016.035441,-9844.739029,0.000000,383.047749
4016.035770,-9622.677246,222.061783,76.609550
4016.036100,-9918.759623,74.020594,306.438199
4016.036430,-10288.862594,74.020594,-383.047749
4016.036760,-10881.027347,666.185348,0.000000
4016.037090,-10140.821405,148.041188,-306.438199
4016.037420,-9252.574275,0.000000,153.219100
4016.037750,-8956.491898,0.000000,612.876398
4016.038080,-9622.677246,74.020594,919.314598
4016.038410,-9918.759623,222.061783,919.314598
4016.038740,-9918.759623,0.000000,306.438199
4016.039069,-9696.697840,148.041188,383.047749
4016.039399,-9696.697840,0.000000,612.876398
4016.039729,-9918.759623,222.061783,153.219100
4016.040059,-9548.656652,0.000000,153.219100
4016.040389,-9548.656652,148.041188,229.828649
4016.040719,-9326.594869,222.061783,612.876398
4016.041049,-9992.780217,444.123565,842.705048
4016.041379,-10066.800811,296.082377,76.609550
4016.041709,-10584.944971,444.123565,-536.266849
4016.042039,-10140.821405,148.041188,-689.485948
4016.042368,-9696.697840,148.041188,153.219100
4016.042698,-9104.533087,-74.020594,76.609550
4016.043028,-9178.553681,-74.020594,842.705048
4016.043358,-9844.739029,0.000000,842.705048
4016.043688,-10362.883188,370.102971,689.485948
4016.044018,-10140.821405,0.000000,306.438199
4016.044348,-9992.780217,222.061783,0.000000
4016.044678,-10362.883188,74.020594,153.219100
4016.045008,-10288.862594,-74.020594,229.828649
4016.045337,-9992.780217,-296.082377,0.000000
4016.045667,-9696.697840,-148.041188,842.705048
4016.045997,-9696.697840,74.020594,919.314598
4016.046327,-9844.739029,222.061783,-229.828649
4016.046657,-10362.883188,444.123565,0.000000
4016.046987,-10140.821405,222.061783,-612.876398
4016.047317,-9548.656652,222.061783,-306.438199
4016.047647,-9252.574275,0.000000,76.609550
4016.047977,-9474.636058,74.020594,995.924147
4016.048307,-9918.759623,-74.020594,1532.190996
4016.048636,-10362.883188,0.000000,919.314598
4016.048966,-9622.677246,-518.144159,229.828649
4016.049296,-9326.594869,-296.082377,153.219100
4016.049626,-9400.615463,-296.082377,842.705048
4016.049956,-9696.697840,74.020594,612.876398
4016.050286,-9770.718434,0.000000,842.705048
4016.050616,-9474.636058,296.082377,842.705048
4016.050946,-9696.697840,370.102971,1072.533697
4016.051276,-10066.800811,444.123565,306.438199
4016.051606,-10658.965565,370.102971,-612.876398
4016.051935,-10288.862594,-148.041188,-1072.533697
4016.052265,-9474.636058,0.000000,-306.438199
4016.052595,-8660.409521,-222.061783,0.000000
4016.052925,-8660.409521,-518.144159,153.219100
4016.053255,-9178.553681,-74.020594,459.657299
4016.053585,-10214.842000,0.000000,459.657299
4016.053915,-10436.903782,0.000000,306.438199
4016.054245,-9992.780217,0.000000,536.266849
4016.054575,-9844.739029,-296.082377,1072.533697
4016.054904,-9770.718434,-296.082377,1225.752797
4016.055234,-9918.759623,-444.123565,766.095498
4016.055564,-9918.759623,-148.041188,612.876398
4016.055894,-9770.718434,74.020594,919.314598
4016.056224,-9770.718434,296.082377,612.876398
4016.056554,-9548.656652,0.000000,306.438199
4016.056884,-10288.862594,148.041188,-306.438199
4016.057214,-9992.780217,222.061783,-536.266849
4016.057544,-9178.553681,74.020594,-536.266849
4016.057874,-9104.533087,74.020594,0.000000
4016.058203,-9548.656652,0.000000,306.438199
4016.058533,-10140.821405,296.082377,995.924147
4016.058863,-10436.903782,148.041188,612.876398
4016.059193,-10288.862594,222.061783,459.657299
4016.059523,-9918.759623,-444.123565,766.095498
4016.059853,-10214.842000,74.020594,766.095498
4016.060183,-9844.739029,0.000000,919.314598
4016.060513,-9918.759623,0.000000,229.828649
4016.060843,-10066.800811,0.000000,766.095498
4016.061173,-9548.656652,0.000000,689.485948
4016.061502,-9474.636058,0.000000,-383.047749
4016.061832,-10214.842000,518.144159,-689.485948
4016.062162,-10066.800811,296.082377,-612.876398
4016.062492,-9548.656652,592.164754,229.828649
4016.062822,-9474.636058,370.102971,536.266849
4016.063152,-9326.594869,74.020594,306.438199
4016.063482,-10362.883188,148.041188,1072.533697
4016.063812,-10362.883188,0.000000,842.705048
4016.064142,-9548.656652,-444.123565,0.000000
4016.064472,-9030.512492,0.000000,229.828649
4016.064801,-9400.615463,0.000000,766.095498
4016.065131,-9548.656652,74.020594,689.485948
4016.065461,-9696.697840,148.041188,459.657299
4016.065791,-9474.636058,0.000000,0.000000
4016.066121,-9252.574275,296.082377,612.876398
4016.066451,-9548.656652,148.041188,0.000000
4016.066781,-10066.800811,592.164754,-229.828649
4016.067111,-10066.800811,518.144159,-1072.533697
4016.067441,-9918.759623,518.144159,-842.705048
4016.067770,-9696.697840,518.144159,0.000000
4016.068100,-9548.656652,296.082377,536.266849
4016.068430,-9696.697840,0.000000,766.095498
4016.068760,-10362.883188,296.082377,919.314598
4016.069090,-9918.759623,0.000000,306.438199
4016.069420,-9770.718434,0.000000,76.609550
4016.069750,-9770.718434,74.020594,612.876398
4016.070080,-10214.842000,148.041188,1072.533697
4016.070410,-9622.677246,0.000000,612.876398
4016.070740,-9918.759623,0.000000,0.000000
4016.071069,-10066.800811,74.020594,306.438199
4016.071399,-9770.718434,370.102971,459.657299
4016.071729,-9918.759623,0.000000,-229.828649
4016.072059,-9844.739029,222.061783,-536.266849
4016.072389,-9622.677246,148.041188,0.000000
4016.072719,-9326.594869,-148.041188,0.000000
4016.073049,-9622.677246,-148.041188,76.609550
4016.073379,-9696.697840,-296.082377,459.657299
4016.073709,-10214.842000,-148.041188,1149.143247
4016.074039,-9696.697840,0.000000,689.485948
4016.074368,-9400.615463,-296.082377,153.219100
4016.074698,-9030.512492,0.000000,383.047749
4016.075028,-9622.677246,-148.041188,229.828649
4016.075358,-10288.862594,148.041188,842.705048
4016.075688,-10732.986159,74.020594,536.266849
4016.076018,-10288.862594,0.000000,995.924147
4016.076348,-9844.739029,-148.041188,842.705048
4016.076678,-9918.759623,-222.061783,76.609550
4016.077008,-9548.656652,-370.102971,-842.705048
4016.077338,-9622.677246,0.000000,-1149.143247
4016.077667,-9030.512492,0.000000,-536.266849
4016.077997,-9548.656652,0.000000,459.657299
4016.078327,-9696.697840,0.000000,306.438199
4016.078657,-10584.944971,296.082377,612.876398
4016.078987,-10584.944971,296.082377,0.000000
4016.079317,-10214.842000,-222.061783,-383.047749
4016.079647,-9474.636058,-518.144159,0.000000
4016.079977,-9178.553681,-740.205942,612.876398
4016.080307,-9474.636058,0.000000,842.705048
4016.080636,-9696.697840,0.000000,766.095498
4016.080966,-9770.718434,222.061783,229.828649
4016.081296,-9844.739029,222.061783,153.219100
4016.081626,-9548.656652,296.082377,76.609550
4016.081956,-9992.780217,296.082377,-306.438199
4016.082286,-10214.842000,592.164754,-306.438199
4016.082616,-9400.615463,0.000000,-229.828649
4016.082946,-9030.512492,0.000000,0.000000
4016.083276,-8882.471304,74.020594,-306.438199
4016.083606,-9992.780217,74.020594,-76.609550
4016.083935,-10066.800811,444.123565,459.657299
4016.084265,-10066.800811,296.082377,229.828649
4016.084595,-9548.656652,296.082377,842.705048
4016.084925,-9474.636058,0.000000,919.314598
4016.085255,-9696.697840,148.041188,459.657299
4016.085585,-9844.739029,0.000000,459.657299
4016.085915,-9548.656652,0.000000,306.438199
4016.086245,-9770.718434,0.000000,1149.143247
4016.086575,-9992.780217,518.144159,842.705048
4016.086905,-10362.883188,148.041188,0.000000
4016.087234,-10436.903782,444.123565,-459.657299
4016.087564,-9918.759623,370.102971,-536.266849
4016.087894,-9252.574275,148.041188,-383.047749
4016.088224,-8956.491898,0.000000,459.657299
4016.088554,-9548.656652,0.000000,1072.533697
4016.088884,-10140.821405,0.000000,689.485948
4016.089214,-10288.862594,-296.082377,306.438199
4016.089544,-9918.759623,0.000000,383.047749
4016.089874,-9548.656652,-814.226536,536.266849
4016.090204,-9622.677246,-370.102971,766.095498
4016.090533,-9844.739029,-370.102971,766.095498
4016.090863,-9622.677246,0.000000,919.314598
4016.091193,-9992.780217,0.000000,842.705048
4016.091523,-9770.718434,148.041188,1072.533697
4016.091853,-9844.739029,74.020594,0.000000
4016.092183,-10362.883188,296.082377,-842.705048
4016.092513,-9770.718434,74.020594,-1302.362347
4016.092843,-9474.636058,0.000000,-536.266849
4016.093173,-9178.553681,0.000000,-153.219100
4016.093502,-9326.594869,-296.082377,0.000000
4016.093832,-10066.800811,296.082377,459.657299
4016.094162,-9844.739029,148.041188,76.609550
4016.094492,-9474.636058,0.000000,0.000000
4016.094822,-9696.697840,-296.082377,383.047749
4016.095152,-10140.821405,74.020594,229.828649
4016.095482,-10288.862594,0.000000,153.219100
4016.095812,-10214.842000,0.000000,229.828649
4016.096142,-10066.800811,0.000000,536.266849
4016.096472,-9844.739029,148.041188,612.876398
4016.096801,-9770.718434,0.000000,153.219100
4016.097131,-9770.718434,148.041188,-536.266849
4016.097461,-9992.780217,222.061783,-383.047749
4016.097791,-9844.739029,222.061783,-459.657299
4016.098121,-9548.656652,0.000000,306.438199
4016.098451,-9400.615463,-444.123565,459.657299
4016.098781,-9844.739029,-296.082377,995.924147
4016.099111,-9844.739029,0.000000,919.314598
4016.099441,-10066.800811,0.000000,612.876398
4016.099771,-9770.718434,148.041188,612.876398
4016.100100,-9474.636058,0.000000,459.657299
4016.100430,-9844.739029,148.041188,766.095498
4016.100760,-9992.780217,222.061783,842.705048
4016.101090,-9474.636058,148.041188,306.438199
4016.101420,-9474.636058,0.000000,842.705048
4016.101750,-9548.656652,0.000000,383.047749
4016.102080,-9696.697840,-148.041188,-153.219100
4016.102410,-10066.800811,222.061783,0.000000
4016.102740,-9252.574275,74.020594,-536.266849
4016.103070,-9178.553681,592.164754,-306.438199
4016.103399,-9400.615463,222.061783,-306.438199
4016.103729,-10066.800811,444.123565,536.266849
4016.104059,-10066.800811,370.102971,306.438199
4016.104389,-10140.821405,444.123565,383.047749
4016.104719,-9918.759623,296.082377,229.828649
4016.105049,-9252.574275,0.000000,0.000000
4016.105379,-9770.718434,148.041188,-76.609550
4016.105709,-9918.759623,74.020594,-536.266849
4016.106039,-9696.697840,0.000000,-76.609550
4016.106368,-9622.677246,296.082377,612.876398
4016.106698,-9474.636058,296.082377,1762.019645
4016.107028,-9992.780217,148.041188,842.705048
4016.107358,-10584.944971,444.123565,612.876398
4016.107688,-10288.862594,222.061783,0.000000
4016.108018,-9548.656652,0.000000,-306.438199
4016.108348,-9252.574275,-296.082377,0.000000
4016.108678,-9622.677246,74.020594,459.657299
4016.109008,-9844.739029,0.000000,842.705048
4016.109338,-9918.759623,296.082377,383.047749
4016.109667,-9992.780217,-296.082377,-229.828649
4016.109997,-9844.739029,222.061783,306.438199
4016.110327,-9696.697840,0.000000,0.000000
4016.110657,-9770.718434,0.000000,0.000000
4016.110987,-9622.677246,-222.061783,0.000000
4016.111317,-9252.574275,-296.082377,459.657299
4016.111647,-9548.656652,0.000000,1378.971896
4016.111977,-9696.697840,0.000000,459.657299
4016.112307,-10140.821405,0.000000,0.000000
4016.112637,-10288.862594,370.102971,-459.657299
4016.112967,-9696.697840,74.020594,-459.657299
4016.113297,-9030.512492,-370.102971,-229.828649
4016.113626,-9252.574275,0.000000,536.266849
4016.113956,-9770.718434,0.000000,689.485948
4016.114286,-9400.615463,296.082377,459.657299
4016.114616,-9474.636058,0.000000,-76.609550
4016.114946,-9696.697840,74.020594,229.828649
4016.115276,-9548.656652,0.000000,76.609550
4016.115606,-9992.780217,296.082377,0.000000
4016.115936,-9918.759623,222.061783,0.000000
4016.116266,-9770.718434,370.102971,76.609550
4016.116596,-10066.800811,222.061783,919.314598
4016.116926,-9918.759623,0.000000,612.876398
4016.117256,-10362.883188,74.020594,0.000000
4016.117586,-10140.821405,222.061783,306.438199
4016.117915,-9622.677246,148.041188,153.219100
4016.118245,-9400.615463,148.041188,0.000000
4016.118575,-9104.533087,0.000000,-229.828649
4016.118905,-9844.739029,370.102971,536.266849
4016.119235,-10288.862594,518.144159,1072.533697
4016.119565,-10140.821405,296.082377,842.705048
4016.119895,-9844.739029,0.000000,229.828649
4016.120225,-9400.615463,0.000000,76.609550
4016.120555,-9548.656652,0.000000,0.000000
4016.120885,-9622.677246,-74.020594,383.047749
4016.121215,-9400.615463,-370.102971,766.095498
4016.121545,-9178.553681,0.000000,1532.190996
4016.121875,-9474.636058,296.082377,1608.800546
4016.122204,-9844.739029,0.000000,612.876398
4016.122534,-10658.965565,444.123565,-536.266849
4016.122864,-10214.842000,148.041188,-766.095498
4016.123194,-9474.636058,-148.041188,-536.266849
4016.123524,-9030.512492,-518.144159,76.609550
4016.123854,-9252.574275,-592.164754,612.876398
4016.124184,-9992.780217,0.000000,1378.971896
4016.124514,-9844.739029,0.000000,842.705048
4016.124844,-9770.718434,-296.082377,76.609550
4016.125174,-9918.759623,-814.226536,76.609550
4016.125504,-9844.739029,-74.020594,536.266849
4016.125834,-9918.759623,-370.102971,919.314598
4016.126164,-9474.636058,-148.041188,153.219100
4016.126493,-9622.677246,-148.041188,0.000000
4016.126823,-9400.615463,0.000000,306.438199
4016.127153,-9844.739029,-296.082377,0.000000
4016.127483,-10807.006753,296.082377,0.000000
4016.127813,-10288.862594,74.020594,0.000000
4016.128143,-9548.656652,0.000000,-229.828649
4016.128473,-9178.553681,0.000000,0.000000
4016.128803,-9400.615463,-148.041188,383.047749
4016.129133,-9844.739029,0.000000,842.705048
4016.129463,-10214.842000,0.000000,459.657299
4016.129793,-9918.759623,0.000000,612.876398
4016.130123,-9548.656652,296.082377,612.876398
4016.130453,-9622.677246,0.000000,306.438199
4016.130782,-10066.800811,518.144159,-536.266849
4016.131112,-10066.800811,296.082377,-153.219100
4016.131442,-9918.759623,518.144159,306.438199
4016.131772,-9622.677246,370.102971,1072.533697
4016.132102,-9548.656652,444.123565,766.095498
4016.132432,-10066.800811,444.123565,153.219100
4016.132762,-10436.903782,74.020594,-306.438199
4016.133092,-9918.759623,74.020594,-536.266849
4016.133422,-9326.594869,-148.041188,-306.438199
4016.133752,-9030.512492,74.020594,76.609550
4016.134082,-9770.718434,0.000000,536.266849
4016.134412,-9844.739029,148.041188,612.876398
4016.134742,-9622.677246,222.061783,76.609550
4016.135071,-9696.697840,222.061783,536.266849
4016.135401,-9696.697840,74.020594,0.000000
4016.135731,-9696.697840,0.000000,0.000000
4016.136061,-9474.636058,0.000000,0.000000
4016.136391,-9474.636058,296.082377,76.609550
4016.136721,-9474.636058,222.061783,842.705048
4016.137051,-9622.677246,296.082377,842.705048
4016.137381,-10066.800811,0.000000,0.000000
4016.137711,-10288.862594,444.123565,-612.876398
4016.138041,-9918.759623,518.144159,-612.876398
4016.138371,-9474.636058,370.102971,0.000000
4016.138701,-9178.553681,-74.020594,0.000000
4016.139030,-9474.636058,0.000000,536.266849
4016.139360,-9844.739029,0.000000,1149.143247
4016.139690,-10140.821405,-222.061783,842.705048
4016.140020,-9770.718434,-296.082377,306.438199
4016.140350,-9548.656652,0.000000,459.657299
4016.140680,-9400.615463,0.000000,459.657299
4016.141010,-9918.759623,0.000000,306.438199
4016.141340,-9696.697840,0.000000,153.219100
4016.141670,-9400.615463,0.000000,766.095498
4016.142000,-9770.718434,74.020594,1149.143247
4016.142330,-9992.780217,0.000000,459.657299
4016.142660,-10584.944971,518.144159,-306.438199
4016.142990,-10214.842000,74.020594,-842.705048
4016.143319,-9548.656652,0.000000,-459.657299
4016.143649,-8956.491898,-518.144159,-153.219100
4016.143979,-9474.636058,-222.061783,612.876398
4016.144309,-9696.697840,-296.082377,1455.581446
4016.144639,-9770.718434,-370.102971,1072.533697
4016.144969,-9474.636058,-74.020594,1072.533697
4016.145299,-9770.718434,-370.102971,306.438199
4016.145629,-10066.800811,0.000000,153.219100
4016.145959,-10288.862594,0.000000,612.876398
4016.146289,-9844.739029,0.000000,842.705048
4016.146619,-9474.636058,0.000000,1072.533697
4016.146949,-9400.615463,0.000000,995.924147
4016.147279,-9918.759623,148.041188,459.657299
4016.147608,-10362.883188,444.123565,-689.485948
4016.147938,-10436.903782,148.041188,-766.095498
4016.148268,-9918.759623,296.082377,-842.705048
4016.148598,-9400.615463,0.000000,0.000000
4016.148928,-9104.533087,0.000000,383.047749
4016.149258,-9918.759623,74.020594,919.314598
4016.149588,-9844.739029,74.020594,229.828649
4016.149918,-9992.780217,-296.082377,-383.047749
4016.150248,-9770.718434,0.000000,153.219100
4016.150578,-10362.883188,74.020594,306.438199
4016.150908,-10140.821405,444.123565,0.000000
4016.151238,-10362.883188,-370.102971,612.876398
4016.151568,-9770.718434,-74.020594,306.438199
4016.151897,-9548.656652,-74.020594,1072.533697
4016.152227,-9326.594869,-592.164754,842.705048
4016.152557,-9770.718434,-444.123565,153.219100
4016.152887,-10066.800811,74.020594,-306.438199
4016.153217,-9474.636058,0.000000,-306.438199
4016.153547,-9474.636058,74.020594,-383.047749
4016.153877,-9400.615463,0.000000,-459.657299
4016.154207,-9696.697840,-148.041188,459.657299
4016.154537,-9622.677246,-148.041188,536.266849
4016.154867,-9548.656652,0.000000,76.609550
4016.155197,-9474.636058,0.000000,-306.438199
4016.155527,-9696.697840,-148.041188,0.000000
4016.155857,-10066.800811,444.123565,0.000000
4016.156186,-9770.718434,0.000000,0.000000
4016.156516,-9770.718434,148.041188,0.000000
4016.156846,-9696.697840,0.000000,1225.752797
4016.157176,-9770.718434,222.061783,1072.533697
4016.157506,-9770.718434,74.020594,612.876398
4016.157836,-9844.739029,148.041188,-306.438199
4016.158166,-9844.739029,148.041188,-153.219100
4016.158496,-9548.656652,74.020594,0.000000
4016.158826,-9474.636058,0.000000,229.828649
4016.159156,-9474.636058,148.041188,689.485948
4016.159486,-9770.718434,444.123565,1072.533697
4016.159816,-10362.883188,444.123565,306.438199
4016.160146,-10140.821405,148.041188,153.219100
4016.160475,-9992.780217,148.041188,306.438199
4016.160805,-9548.656652,296.082377,153.219100
4016.161135,-9918.759623,518.144159,153.219100
4016.161465,-9918.759623,518.144159,0.000000
4016.161795,-9474.636058,74.020594,229.828649
4016.162125,-9696.697840,370.102971,229.828649
4016.162455,-9844.739029,296.082377,229.828649
4016.162785,-10288.862594,296.082377,0.000000
4016.163115,-10510.924376,888.247130,-153.219100
4016.163445,-9844.739029,444.123565,-612.876398
4016.163775,-8956.491898,0.000000,153.219100
4016.164105,-9326.594869,74.020594,383.047749
4016.164435,-10066.800811,296.082377,1149.143247
4016.164764,-10584.944971,74.020594,842.705048
4016.165094,-9770.718434,-148.041188,383.047749
4016.165424,-9326.594869,-296.082377,76.609550
4016.165754,-9030.512492,-296.082377,306.438199
4016.166084,-9474.636058,-370.102971,459.657299
4016.166414,-9548.656652,-444.123565,919.314598
4016.166744,-9474.636058,0.000000,1302.362347
4016.167074,-9474.636058,0.000000,1762.019645
4016.167404,-9992.780217,0.000000,1532.190996
4016.167734,-10436.903782,222.061783,76.609550
4016.168064,-10214.842000,-222.061783,-766.095498
4016.168394,-9696.697840,0.000000,-1149.143247
4016.168723,-8808.450710,0.000000,-536.266849
4016.169053,-9104.533087,74.020594,0.000000
4016.169383,-9104.533087,370.102971,229.828649
4016.169713,-9844.739029,370.102971,306.438199
4016.170043,-9918.759623,0.000000,-306.438199
4016.170373,-10066.800811,222.061783,-536.266849
4016.170703,-9844.739029,-148.041188,-383.047749
4016.171033,-9770.718434,0.000000,459.657299
4016.171363,-9918.759623,0.000000,536.266849
4016.171693,-10066.800811,0.000000,919.314598
4016.172023,-10140.821405,148.041188,842.705048
4016.172353,-9918.759623,370.102971,689.485948
4016.172683,-10066.800811,74.020594,0.000000
4016.173012,-10214.842000,148.041188,-76.609550
4016.173342,-9696.697840,0.000000,-536.266849
4016.173672,-9326.594869,0.000000,-459.657299
4016.174002,-9326.594869,-148.041188,306.438199
4016.174332,-9548.656652,0.000000,459.657299
4016.174662,-10066.800811,0.000000,459.657299
4016.174992,-10288.862594,0.000000,536.266849
4016.175322,-9992.780217,0.000000,383.047749
4016.175652,-9918.759623,-296.082377,766.095498
4016.175982,-9992.780217,-148.041188,689.485948
4016.176312,-9622.677246,-296.082377,766.095498
4016.176642,-9474.636058,-148.041188,612.876398
4016.176972,-9474.636058,0.000000,919.314598
4016.177301,-9474.636058,-222.061783,1072.533697
4016.177631,-9548.656652,0.000000,229.828649
4016.177961,-9474.636058,74.020594,-536.266849
4016.178291,-9548.656652,74.020594,-995.924147
4016.178621,-9252.574275,222.061783,-842.705048
4016.178951,-9178.553681,222.061783,-383.047749
4016.179281,-9104.533087,444.123565,0.000000
4016.179611,-10066.800811,518.144159,153.219100
4016.179941,-10066.800811,740.205942,0.000000
4016.180271,-10066.800811,370.102971,-766.095498
4016.180601,-9918.759623,592.164754,-306.438199
4016.180931,-10066.800811,444.123565,0.000000
4016.181261,-10436.903782,296.082377,153.219100
4016.181590,-10288.862594,222.061783,459.657299
4016.181920,-9622.677246,74.020594,919.314598
4016.182250,-9326.594869,370.102971,1072.533697
4016.182580,-9770.718434,444.123565,76.609550
4016.182910,-10140.821405,444.123565,-153.219100
4016.183240,-10288.862594,518.144159,-536.266849
4016.183570,-9696.697840,444.123565,153.219100
4016.183900,-9696.697840,74.020594,153.219100
4016.184230,-9474.636058,74.020594,306.438199
4016.184560,-9548.656652,222.061783,306.438199
4016.184890,-9474.636058,74.020594,229.828649
4016.185220,-9400.615463,0.000000,-383.047749
4016.185550,-9474.636058,148.041188,0.000000
4016.185879,-9770.718434,0.000000,383.047749
4016.186209,-9622.677246,0.000000,229.828649
4016.186539,-9548.656652,0.000000,459.657299
4016.186869,-9548.656652,0.000000,919.314598
4016.187199,-9622.677246,0.000000,919.314598
4016.187529,-9622.677246,296.082377,919.314598
4016.187859,-9696.697840,0.000000,459.657299
4016.188189,-10140.821405,74.020594,0.000000
4016.188519,-9696.697840,222.061783,-383.047749
4016.188849,-9326.594869,0.000000,-459.657299
4016.189179,-9696.697840,74.020594,-76.609550
4016.189509,-9548.656652,-222.061783,229.828649
4016.189839,-9992.780217,0.000000,842.705048
4016.190168,-10066.800811,0.000000,306.438199
4016.190498,-9548.656652,-518.144159,0.000000
4016.190828,-9548.656652,-296.082377,0.000000
4016.191158,-9992.780217,0.000000,766.095498
4016.191488,-10362.883188,148.041188,1149.143247
4016.191818,-10066.800811,0.000000,842.705048
4016.192148,-10066.800811,-148.041188,689.485948
4016.192478,-9844.739029,0.000000,842.705048
4016.192808,-10140.821405,-296.082377,153.219100
4016.193138,-10362.883188,-74.020594,0.000000
4016.193468,-9992.780217,0.000000,-229.828649
4016.193798,-9474.636058,148.041188,-76.609550
4016.194128,-9104.533087,-296.082377,-76.609550
4016.194457,-9400.615463,74.020594,0.000000
4016.194787,-10140.821405,74.020594,383.047749
4016.195117,-10510.924376,370.102971,306.438199
4016.195447,-10362.883188,74.020594,0.000000
4016.195777,-9770.718434,0.000000,0.000000
4016.196107,-9548.656652,-222.061783,306.438199
4016.196437,-9622.677246,74.020594,76.609550
4016.196767,-9696.697840,-222.061783,766.095498
4016.197097,-9770.718434,-222.061783,842.705048
4016.197427,-9918.759623,0.000000,1302.362347
4016.197757,-9548.656652,-222.061783,536.266849
4016.198087,-9770.718434,0.000000,0.000000
4016.198416,-10214.842000,222.061783,-459.657299
4016.198746,-9770.718434,0.000000,0.000000
4016.199076,-9104.533087,0.000000,689.485948
4016.199406,-9326.594869,0.000000,612.876398
4016.199736,-9918.759623,-296.082377,536.266849
4016.200066,-10066.800811,-222.061783,306.438199
4016.200396,-9844.739029,-296.082377,0.000000
4016.200726,-9400.615463,-444.123565,229.828649
4016.201056,-9474.636058,-370.102971,536.266849
4016.201386,-9400.615463,-222.061783,612.876398
4016.201716,-9252.574275,0.000000,612.876398
4016.202046,-9400.615463,296.082377,536.266849
4016.202376,-9844.739029,0.000000,689.485948
4016.202705,-10362.883188,666.185348,76.609550
4016.203035,-10288.862594,148.041188,-459.657299
4016.203365,-10214.842000,666.185348,-383.047749
4016.203695,-10140.821405,444.123565,-536.266849
4016.204025,-9844.739029,74.020594,153.219100
4016.204355,-9326.594869,0.000000,153.219100
4016.204685,-9326.594869,0.000000,536.266849
4016.205015,-9622.677246,444.123565,229.828649
4016.205345,-9548.656652,296.082377,306.438199
4016.205675,-9474.636058,370.102971,0.000000
4016.206005,-9770.718434,0.000000,229.828649
4016.206335,-9474.636058,222.061783,383.047749
4016.206665,-9918.759623,148.041188,383.047749
4016.206994,-9918.759623,74.020594,766.095498
4016.207324,-9770.718434,370.102971,919.314598
4016.207654,-9622.677246,740.205942,612.876398
4016.207984,-9918.759623,296.082377,-383.047749
4016.208314,-10140.821405,814.226536,-536.266849
4016.208644,-9992.780217,888.247130,-689.485948
4016.208974,-9770.718434,666.185348,0.000000
4016.209304,-9696.697840,444.123565,-229.828649
4016.209634,-9918.759623,370.102971,-229.828649
4016.209964,-9844.739029,148.041188,153.219100
4016.210294,-9918.759623,222.061783,76.609550
4016.210624,-9696.697840,0.000000,-76.609550
4016.210954,-9622.677246,74.020594,459.657299
4016.211284,-9548.656652,370.102971,766.095498
4016.211614,-9918.759623,0.000000,919.314598
4016.211944,-9844.739029,0.000000,1532.190996
4016.212274,-10288.862594,0.000000,995.924147
4016.212603,-10066.800811,370.102971,1072.533697
4016.212933,-9992.780217,222.061783,536.266849
4016.213263,-9474.636058,0.000000,-306.438199
4016.213593,-9622.677246,0.000000,-536.266849
4016.213923,-8956.491898,0.000000,-766.095498
4016.214253,-8734.430116,0.000000,-766.095498
4016.214583,-9104.533087,0.000000,0.000000
4016.214913,-10214.842000,222.061783,229.828649
4016.215243,-10214.842000,74.020594,919.314598
4016.215573,-10140.821405,-370.102971,0.000000
4016.215903,-9548.656652,-222.061783,689.485948
4016.216233,-9326.594869,-518.144159,1072.533697
4016.216563,-9474.636058,-666.185348,1532.190996
4016.216893,-9696.697840,-444.123565,1685.410096
4016.217223,-9474.636058,0.000000,1225.752797
4016.217553,-9844.739029,148.041188,1072.533697
4016.217883,-9918.759623,222.061783,612.876398
4016.218213,-9992.780217,74.020594,-76.609550
4016.218543,-10066.800811,222.061783,-383.047749
4016.218873,-9696.697840,0.000000,-766.095498
4016.219202,-9178.553681,74.020594,-612.876398
4016.219532,-9030.512492,0.000000,0.000000
4016.219862,-9844.739029,0.000000,0.000000
4016.220192,-10140.821405,0.000000,76.609550
4016.220522,-9844.739029,-370.102971,0.000000
4016.220852,-9622.677246,-444.123565,612.876398
4016.221182,-9548.656652,-592.164754,1072.533697
4016.221512,-9770.718434,-518.144159,1455.581446
4016.221842,-9474.636058,-592.164754,1072.533697
4016.222172,-9770.718434,-444.123565,842.705048
4016.222502,-9918.759623,-296.082377,995.924147
4016.222832,-9918.759623,0.000000,1225.752797
4016.223162,-9770.718434,0.000000,919.314598
4016.223492,-10288.862594,0.000000,0.000000
4016.223822,-10288.862594,0.000000,-306.438199
4016.224152,-9844.739029,370.102971,-612.876398
4016.224482,-9400.615463,0.000000,-536.266849
4016.224812,-9622.677246,296.082377,76.609550
4016.225142,-9918.759623,74.020594,306.438199
4016.225472,-9992.780217,0.000000,229.828649
4016.225801,-9770.718434,0.000000,76.609550
4016.226131,-9252.574275,-592.164754,919.314598
4016.226461,-9400.615463,-444.123565,995.924147
4016.226791,-9992.780217,-296.082377,1149.143247
4016.227121,-9918.759623,0.000000,919.314598
4016.227451,-9918.759623,0.000000,1378.971896
4016.227781,-9844.739029,148.041188,1685.410096
4016.228111,-9548.656652,74.020594,459.657299
4016.228441,-9548.656652,0.000000,0.000000
4016.228771,-9696.697840,74.020594,-612.876398
4016.229101,-9548.656652,518.144159,-1302.362347
4016.229431,-9252.574275,444.123565,-459.657299
4016.229761,-9178.553681,370.102971,-306.438199
4016.230091,-9548.656652,444.123565,229.828649
4016.230421,-9844.739029,814.226536,0.000000
4016.230751,-9844.739029,370.102971,0.000000
4016.231081,-9474.636058,444.123565,-383.047749
4016.231411,-9696.697840,296.082377,153.219100
4016.231741,-10066.800811,962.267725,-536.266849
4016.232071,-10214.842000,0.000000,383.047749
4016.232401,-10214.842000,444.123565,306.438199
4016.232730,-9770.718434,74.020594,842.705048
4016.233060,-9696.697840,370.102971,612.876398
4016.233390,-9622.677246,296.082377,0.000000
4016.233720,-10214.842000,592.164754,-459.657299
4016.234050,-9918.759623,518.144159,-919.314598
4016.234380,-9770.718434,666.185348,-766.095498
4016.234710,-9474.636058,296.082377,-766.095498
4016.235040,-9622.677246,148.041188,76.609550
4016.235370,-9696.697840,296.082377,229.828649
4016.235700,-9622.677246,74.020594,76.609550
4016.236030,-9104.533087,0.000000,306.438199
4016.236360,-9548.656652,-296.082377,306.438199
4016.236690,-9622.677246,-370.102971,383.047749
4016.237020,-9992.780217,-222.061783,689.485948
4016.237350,-9918.759623,-296.082377,1072.533697
4016.237680,-9844.739029,-148.041188,1838.629195
4016.238010,-9696.697840,-296.082377,2068.457845
4016.238340,-9992.780217,-222.061783,1072.533697
4016.238670,-10362.883188,148.041188,153.219100
4016.239000,-10362.883188,74.020594,-153.219100
4016.239329,-9400.615463,74.020594,-842.705048
4016.239659,-8956.491898,0.000000,-995.924147
4016.239989,-8882.471304,0.000000,-459.657299
4016.240319,-9474.636058,148.041188,0.000000
4016.240649,-9844.739029,74.020594,153.219100
4016.240979,-9918.759623,0.000000,-459.657299
4016.241309,-9770.718434,0.000000,0.000000
4016.241639,-10066.800811,74.020594,766.095498
4016.241969,-10066.800811,0.000000,766.095498
4016.242299,-9844.739029,0.000000,919.314598
4016.242629,-9770.718434,-296.082377,536.266849
4016.242959,-9918.759623,0.000000,1302.362347
4016.243289,-10362.883188,222.061783,995.924147
4016.243619,-10807.006753,518.144159,0.000000
4016.243949,-10510.924376,296.082377,76.609550
4016.244279,-9474.636058,370.102971,0.000000
4016.244609,-9030.512492,0.000000,0.000000
4016.244939,-9030.512492,-74.020594,-229.828649
4016.245269,-10066.800811,148.041188,229.828649
4016.245599,-10066.800811,296.082377,536.266849
4016.245928,-9770.718434,0.000000,612.876398
4016.246258,-9696.697840,148.041188,383.047749
4016.246588,-9696.697840,0.000000,459.657299
4016.246918,-9918.759623,74.020594,0.000000
4016.247248,-10066.800811,0.000000,76.609550
4016.247578,-9770.718434,0.000000,689.485948
4016.247908,-9770.718434,222.061783,1378.971896
4016.248238,-9326.594869,0.000000,1608.800546
4016.248568,-9770.718434,-444.123565,1378.971896
4016.248898,-10214.842000,148.041188,459.657299
4016.249228,-9918.759623,-222.061783,-919.314598
4016.249558,-9252.574275,0.000000,-919.314598
4016.249888,-9178.553681,-74.020594,-536.266849
4016.250218,-9178.553681,-370.102971,-383.047749
4016.250548,-9770.718434,0.000000,842.705048
4016.250878,-9548.656652,-296.082377,229.828649
4016.251208,-9474.636058,148.041188,0.000000
4016.251538,-9474.636058,148.041188,0.000000
4016.251868,-10066.800811,-370.102971,0.000000
4016.252198,-9918.759623,-222.061783,153.219100
4016.252527,-9696.697840,-296.082377,612.876398
4016.252857,-9696.697840,-370.102971,1685.410096
4016.253187,-9696.697840,-592.164754,1225.752797
4016.253517,-10140.821405,-592.164754,842.705048
4016.253847,-10140.821405,-296.082377,-76.609550
4016.254177,-10288.862594,222.061783,-459.657299
4016.254507,-9474.636058,0.000000,-383.047749
4016.254837,-9400.615463,0.000000,-612.876398
4016.255167,-9622.677246,0.000000,-153.219100
4016.255497,-9918.759623,74.020594,306.438199
4016.255827,-10066.800811,-444.123565,0.000000
4016.256157,-9918.759623,-444.123565,-306.438199
4016.256487,-9696.697840,-370.102971,76.609550
4016.256817,-9696.697840,-518.144159,689.485948
4016.257147,-9770.718434,0.000000,229.828649
4016.257477,-9548.656652,0.000000,459.657299
4016.257807,-9696.697840,74.020594,1225.752797
4016.258137,-9770.718434,0.000000,1532.190996
4016.258467,-10066.800811,74.020594,766.095498
4016.258797,-10362.883188,370.102971,0.000000
4016.259127,-10214.842000,296.082377,-689.485948
4016.259456,-9918.759623,370.102971,-1072.533697
4016.259786,-9474.636058,0.000000,-919.314598
4016.260116,-9918.759623,814.226536,229.828649
4016.260446,-9770.718434,518.144159,306.438199
4016.260776,-9918.759623,296.082377,842.705048
4016.261106,-10140.821405,0.000000,76.609550
4016.261436,-9992.780217,370.102971,-229.828649
4016.261766,-9844.739029,74.020594,0.000000
4016.262096,-9548.656652,74.020594,0.000000
4016.262426,-9622.677246,370.102971,153.219100
4016.262756,-9918.759623,814.226536,612.876398
4016.263086,-9844.739029,444.123565,1072.533697
4016.263416,-9992.780217,370.102971,1072.533697
4016.263746,-10214.842000,296.082377,0.000000
4016.264076,-10436.903782,740.205942,-842.705048
4016.264406,-9474.636058,740.205942,-919.314598
4016.264736,-8660.409521,370.102971,-766.095498
4016.265066,-8660.409521,444.123565,-536.266849
4016.265396,-9548.656652,518.144159,0.000000
4016.265726,-10066.800811,666.185348,459.657299
4016.266055,-9918.759623,222.061783,76.609550
4016.266385,-9844.739029,370.102971,-383.047749
4016.266715,-9474.636058,148.041188,0.000000
4016.267045,-9474.636058,222.061783,0.000000
4016.267375,-9622.677246,74.020594,383.047749
4016.267705,-9178.553681,148.041188,536.266849
4016.268035,-9252.574275,0.000000,1149.143247
4016.268365,-9548.656652,148.041188,1072.533697
4016.268695,-9918.759623,148.041188,459.657299
4016.269025,-10510.924376,444.123565,153.219100
4016.269355,-10140.821405,444.123565,-612.876398
4016.269685,-9622.677246,296.082377,-1072.533697
4016.270015,-9400.615463,74.020594,-459.657299
4016.270345,-9474.636058,296.082377,229.828649
4016.270675,-10066.800811,370.102971,842.705048
4016.271005,-10436.903782,74.020594,229.828649
4016.271335,-10140.821405,0.000000,76.609550
4016.271665,-9844.739029,0.000000,76.609550
4016.271995,-10066.800811,-444.123565,0.000000
4016.272325,-9992.780217,-518.144159,229.828649
4016.272654,-9696.697840,-444.123565,306.438199
4016.272984,-9326.594869,-444.123565,1225.752797
4016.273314,-9696.697840,-296.082377,1532.190996
4016.273644,-9992.780217,-740.205942,919.314598
4016.273974,-10436.903782,-148.041188,229.828649
4016.274304,-10436.903782,0.000000,536.266849
4016.274634,-10066.800811,-222.061783,0.000000
4016.274964,-9474.636058,-666.185348,612.876398
4016.275294,-9400.615463,-740.205942,842.705048
4016.275624,-9548.656652,-518.144159,1149.143247
4016.275954,-9918.759623,-592.164754,306.438199
4016.276284,-10066.800811,-666.185348,229.828649
4016.276614,-9252.574275,-740.205942,76.609550
4016.276944,-9030.512492,-518.144159,0.000000
4016.277274,-9696.697840,-148.041188,536.266849
4016.277604,-9844.739029,-518.144159,0.000000
4016.277934,-9918.759623,0.000000,842.705048
4016.278264,-9696.697840,-222.061783,1532.190996
4016.278594,-9770.718434,-74.020594,1302.362347
4016.278924,-10510.924376,0.000000,383.047749
4016.279254,-10658.965565,222.061783,-306.438199
4016.279583,-10214.842000,222.061783,-919.314598
4016.279913,-9548.656652,592.164754,-153.219100
4016.280243,-9178.553681,148.041188,0.000000
4016.280573,-9770.718434,74.020594,766.095498
4016.280903,-9844.739029,370.102971,919.314598
4016.281233,-9918.759623,148.041188,-153.219100
4016.281563,-9992.780217,296.082377,-689.485948
4016.281893,-9696.697840,0.000000,-536.266849
4016.282223,-9548.656652,-296.082377,0.000000
4016.282553,-9474.636058,-222.061783,842.705048
4016.282883,-9104.533087,-296.082377,1608.800546
4016.283213,-9178.553681,0.000000,1838.629195
4016.283543,-9474.636058,370.102971,1378.971896
4016.283873,-10288.862594,518.144159,842.705048
4016.284203,-10510.924376,1184.329507,0.000000
4016.284533,-10288.862594,888.247130,-766.095498
4016.284863,-9548.656652,740.205942,-766.095498
4016.285193,-8956.491898,222.061783,-383.047749
4016.285523,-9030.512492,148.041188,0.000000
4016.285853,-9622.677246,370.102971,0.000000
4016.286182,-9770.718434,518.144159,-459.657299
4016.286512,-9548.656652,74.020594,-153.219100
4016.286842,-9474.636058,148.041188,0.000000
4016.287172,-9104.533087,296.082377,0.000000
4016.287502,-9622.677246,296.082377,0.000000
4016.287832,-9548.656652,296.082377,383.047749
4016.288162,-9548.656652,74.020594,995.924147
4016.288492,-9252.574275,592.164754,306.438199
4016.288822,-9696.697840,0.000000,919.314598
4016.289152,-10436.903782,592.164754,229.828649
4016.289482,-10362.883188,518.144159,-383.047749
4016.289812,-9992.780217,814.226536,-383.047749
4016.290142,-9326.594869,296.082377,-229.828649
4016.290472,-9474.636058,0.000000,0.000000
4016.290802,-9696.697840,296.082377,459.657299
4016.291132,-10288.862594,592.164754,459.657299
4016.291462,-9622.677246,0.000000,-306.438199
4016.291792,-9548.656652,74.020594,-229.828649
4016.292122,-9400.615463,222.061783,-383.047749
4016.292452,-9770.718434,222.061783,0.000000
4016.292781,-9992.780217,222.061783,-76.609550
4016.293111,-10066.800811,0.000000,612.876398
4016.293441,-9992.780217,0.000000,1225.752797
4016.293771,-9844.739029,0.000000,689.485948
4016.294101,-10288.862594,370.102971,153.219100
4016.294431,-10510.924376,222.061783,153.219100
4016.294761,-9918.759623,74.020594,-842.705048
4016.295091,-9326.594869,0.000000,-229.828649
4016.295421,-9030.512492,-370.102971,76.609550
4016.295751,-10066.800811,148.041188,919.314598
4016.296081,-10140.821405,0.000000,1072.533697
4016.296411,-10140.821405,-148.041188,536.266849
4016.296741,-9770.718434,-148.041188,229.828649
4016.297071,-9400.615463,-444.123565,229.828649
4016.297401,-9474.636058,-444.123565,153.219100
4016.297731,-9918.759623,-444.123565,689.485948
4016.298061,-9918.759623,-148.041188,1225.752797
4016.298391,-9252.574275,0.000000,2298.286494
4016.298721,-9622.677246,-148.041188,1378.971896
4016.299051,-9696.697840,-296.082377,306.438199
4016.299380,-10288.862594,222.061783,-536.266849
4016.299710,-9918.759623,0.000000,-536.266849
4016.300040,-9548.656652,0.000000,-76.609550
4016.300370,-9178.553681,-148.041188,0.000000
4016.300700,-9474.636058,-222.061783,536.266849
4016.301030,-9844.739029,-222.061783,306.438199
4016.301360,-9548.656652,-444.123565,0.000000
4016.301690,-9474.636058,-222.061783,-153.219100
4016.302020,-9400.615463,-518.144159,0.000000
4016.302350,-9696.697840,-296.082377,766.095498
4016.302680,-9548.656652,0.000000,919.314598
4016.303010,-10066.800811,-222.061783,689.485948
4016.303340,-9918.759623,0.000000,612.876398
4016.303670,-9622.677246,-370.102971,766.095498
4016.304000,-9770.718434,-148.041188,306.438199
4016.304330,-9770.718434,0.000000,-306.438199
4016.304660,-9548.656652,148.041188,-383.047749
4016.304990,-9252.574275,296.082377,-612.876398
4016.305320,-9474.636058,148.041188,0.000000
4016.305650,-9622.677246,74.020594,0.000000
4016.305980,-10066.800811,444.123565,0.000000
4016.306309,-10214.842000,148.041188,-306.438199
4016.306639,-9844.739029,0.000000,-459.657299
4016.306969,-9770.718434,370.102971,-229.828649
4016.307299,-9992.780217,148.041188,459.657299
4016.307629,-10140.821405,0.000000,536.266849
4016.307959,-10214.842000,0.000000,919.314598
4016.308289,-9918.759623,296.082377,229.828649
4016.308619,-10066.800811,0.000000,1378.971896
4016.308949,-9770.718434,0.000000,1149.143247
4016.309279,-9844.739029,0.000000,612.876398
4016.309609,-10288.862594,888.247130,-229.828649
4016.309939,-9770.718434,222.061783,-689.485948
4016.310269,-9696.697840,518.144159,-229.828649
4016.310599,-9622.677246,518.144159,0.000000
4016.310929,-10066.800811,296.082377,383.047749
4016.311259,-10066.800811,296.082377,383.047749
4016.311588,-9770.718434,148.041188,536.266849
4016.311918,-9770.718434,222.061783,153.219100
4016.312248,-9548.656652,518.144159,76.609550
4016.312578,-9622.677246,592.164754,0.000000
4016.312908,-9992.780217,0.000000,536.266849
4016.313237,-9918.759623,0.000000,612.876398
4016.313567,-9622.677246,148.041188,1532.190996
4016.313897,-9548.656652,444.123565,919.314598
4016.314227,-9548.656652,74.020594,0.000000
4016.314557,-9918.759623,296.082377,-229.828649
4016.314886,-9770.718434,370.102971,-153.219100
4016.315216,-9770.718434,518.144159,0.000000
4016.315546,-9474.636058,222.061783,536.266849
4016.315876,-9326.594869,222.061783,306.438199
4016.316205,-9918.759623,370.102971,0.000000
4016.316535,-9770.718434,74.020594,-383.047749
4016.316865,-9252.574275,0.000000,306.438199
4016.317195,-9474.636058,0.000000,0.000000
4016.317525,-9252.574275,148.041188,229.828649
4016.317854,-9548.656652,296.082377,536.266849
4016.318184,-9548.656652,370.102971,612.876398
4016.318514,-10066.800811,148.041188,842.705048
4016.318844,-9918.759623,296.082377,1302.362347
4016.319173,-9844.739029,0.000000,612.876398
4016.319503,-10214.842000,74.020594,0.000000
4016.319833,-10436.903782,222.061783,0.000000
4016.320163,-9622.677246,0.000000,0.000000
4016.320493,-9326.594869,0.000000,-306.438199
4016.320822,-9178.553681,148.041188,76.609550
4016.321152,-9622.677246,370.102971,383.047749
4016.321482,-10288.862594,296.082377,0.000000
4016.321812,-9622.677246,-74.020594,-383.047749
4016.322141,-9992.780217,74.020594,-383.047749
4016.322471,-9400.615463,-444.123565,536.266849
4016.322801,-9770.718434,-296.082377,612.876398
4016.323131,-9770.718434,-518.144159,842.705048
4016.323461,-9770.718434,-444.123565,1378.971896
4016.323790,-9770.718434,-814.226536,1608.800546
4016.324120,-9844.739029,-296.082377,536.266849
4016.324450,-10288.862594,-74.020594,0.000000
4016.324780,-10584.944971,0.000000,153.219100
4016.325109,-9844.739029,-74.020594,0.000000
4016.325439,-9104.533087,-444.123565,229.828649
4016.325769,-9030.512492,-148.041188,459.657299
4016.326099,-9770.718434,-444.123565,459.657299
4016.326429,-10066.800811,0.000000,0.000000
4016.326758,-10288.862594,0.000000,-536.266849
4016.327088,-9770.718434,0.000000,-612.876398
4016.327418,-9696.697840,-370.102971,153.219100
4016.327748,-9844.739029,-296.082377,842.705048
4016.328077,-9696.697840,0.000000,0.000000
4016.328407,-9918.759623,-222.061783,842.705048
4016.328737,-9918.759623,0.000000,1072.533697
4016.329067,-10140.821405,0.000000,919.314598
4016.329397,-10288.862594,-222.061783,153.219100
4016.329726,-10362.883188,-74.020594,-459.657299
4016.330056,-9770.718434,0.000000,-306.438199
4016.330386,-9104.533087,-444.123565,229.828649
4016.330716,-8956.491898,-370.102971,612.876398
4016.331045,-9178.553681,148.041188,0.000000
4016.331375,-9770.718434,0.000000,229.828649
4016.331705,-9770.718434,296.082377,-459.657299
4016.332035,-9992.780217,444.123565,-229.828649
4016.332365,-10362.883188,444.123565,0.000000
4016.332694,-9918.759623,222.061783,766.095498
4016.333024,-9696.697840,0.000000,306.438199
4016.333354,-9326.594869,0.000000,153.219100
4016.333684,-9474.636058,0.000000,0.000000
4016.334013,-9326.594869,0.000000,766.095498
4016.334343,-9548.656652,666.185348,306.438199
4016.334673,-10436.903782,740.205942,76.609550
4016.335003,-10510.924376,666.185348,76.609550
4016.335333,-9844.739029,592.164754,-153.219100
4016.335662,-9622.677246,74.020594,-229.828649
4016.335992,-9770.718434,148.041188,0.000000
4016.336322,-9918.759623,518.144159,76.609550
4016.336652,-9400.615463,444.123565,153.219100
4016.336981,-9548.656652,666.185348,0.000000
4016.337311,-9770.718434,592.164754,76.609550
4016.337641,-9622.677246,518.144159,-153.219100
4016.337971,-9844.739029,1110.308913,-153.219100
4016.338301,-9844.739029,222.061783,153.219100
4016.338630,-9844.739029,222.061783,766.095498
4016.338960,-9844.739029,74.020594,1225.752797
4016.339290,-9622.677246,222.061783,612.876398
4016.339620,-9326.594869,0.000000,76.609550
4016.339949,-9844.739029,444.123565,-306.438199
4016.340279,-9400.615463,296.082377,-383.047749
4016.340609,-9474.636058,518.144159,76.609550
4016.340939,-9622.677246,740.205942,383.047749
4016.341269,-10288.862594,444.123565,1072.533697
4016.341598,-10140.821405,666.185348,612.876398
4016.341928,-9992.780217,0.000000,-536.266849
4016.342258,-9548.656652,370.102971,-306.438199
4016.342588,-9474.636058,-222.061783,0.000000
4016.342917,-9696.697840,0.000000,153.219100
4016.343247,-9918.759623,-444.123565,536.266849
4016.343577,-9844.739029,0.000000,612.876398
4016.343907,-9770.718434,74.020594,1302.362347
4016.344237,-9474.636058,0.000000,612.876398
4016.344566,-9992.780217,-148.041188,383.047749
4016.344896,-10362.883188,-148.041188,306.438199
4016.345226,-9844.739029,-518.144159,76.609550
4016.345556,-9474.636058,-592.164754,153.219100
4016.345885,-8734.430116,-814.226536,153.219100
4016.346215,-9400.615463,-740.205942,1072.533697
4016.346545,-9474.636058,-222.061783,689.485948
4016.346875,-9992.780217,74.020594,536.266849
4016.347205,-9992.780217,0.000000,0.000000
4016.347534,-9696.697840,-370.102971,0.000000
4016.347864,-9770.718434,-148.041188,383.047749
4016.348194,-9622.677246,-444.123565,0.000000
4016.348524,-9622.677246,-518.144159,76.609550
4016.348853,-9326.594869,-592.164754,306.438199
4016.349183,-9474.636058,-592.164754,842.705048
4016.349513,-9548.656652,-592.164754,153.219100
4016.349843,-10066.800811,-148.041188,306.438199
4016.350173,-10214.842000,0.000000,-76.609550
4016.350502,-9770.718434,74.020594,-76.609550
4016.350832,-9400.615463,0.000000,0.000000
4016.351162,-9548.656652,-444.123565,612.876398
4016.351492,-10214.842000,0.000000,766.095498
4016.351822,-9844.739029,-148.041188,306.438199
4016.352151,-9548.656652,0.000000,76.609550
4016.352481,-9400.615463,-518.144159,153.219100
4016.352811,-9548.656652,0.000000,153.219100
4016.353141,-9548.656652,0.000000,459.657299
4016.353470,-9622.677246,74.020594,153.219100
4016.353800,-10066.800811,296.082377,536.266849
4016.354130,-10214.842000,74.020594,919.314598
4016.354460,-9622.677246,0.000000,459.657299
4016.354790,-9696.697840,444.123565,0.000000
4016.355119,-9844.739029,222.061783,-459.657299
4016.355449,-9918.759623,222.061783,-306.438199
4016.355779,-9400.615463,0.000000,-229.828649
4016.356109,-9326.594869,0.000000,383.047749
4016.356438,-9918.759623,444.123565,612.876398
4016.356768,-10066.800811,370.102971,1072.533697
4016.357098,-10066.800811,296.082377,612.876398
4016.357428,-9696.697840,370.102971,229.828649
4016.357758,-9992.780217,518.144159,153.219100
4016.358087,-10214.842000,740.205942,0.000000
4016.358417,-10288.862594,740.205942,-383.047749
4016.358747,-9918.759623,518.144159,0.000000
4016.359077,-9548.656652,222.061783,766.095498
4016.359406,-9252.574275,370.102971,306.438199
4016.359736,-9918.759623,296.082377,-383.047749
4016.360066,-10436.903782,592.164754,-995.924147
4016.360396,-9918.759623,296.082377,-766.095498
4016.360726,-9474.636058,222.061783,-612.876398
4016.361055,-9400.615463,518.144159,229.828649
4016.361385,-9326.594869,0.000000,536.266849
4016.361715,-9918.759623,148.041188,766.095498
4016.362045,-9992.780217,0.000000,229.828649
4016.362374,-9992.780217,592.164754,383.047749
4016.362704,-9992.780217,0.000000,536.266849
4016.363034,-9696.697840,444.123565,0.000000
4016.363364,-9548.656652,0.000000,153.219100
4016.363694,-9474.636058,296.082377,-306.438199
4016.364023,-9252.574275,296.082377,229.828649
4016.364353,-9696.697840,222.061783,229.828649
4016.364683,-9992.780217,74.020594,0.000000
4016.365013,-10066.800811,0.000000,0.000000
4016.365342,-10140.821405,370.102971,0.000000
4016.365672,-9770.718434,0.000000,153.219100
4016.366002,-9400.615463,0.000000,229.828649
4016.366332,-9548.656652,0.000000,842.705048
4016.366662,-9770.718434,0.000000,842.705048
4016.366991,-10362.883188,370.102971,766.095498
4016.367321,-10140.821405,370.102971,0.000000
4016.367651,-9844.739029,0.000000,0.000000
4016.367981,-9548.656652,0.000000,-229.828649
4016.368310,-9770.718434,0.000000,-919.314598
4016.368640,-9844.739029,-148.041188,-306.438199
4016.368970,-9918.759623,0.000000,0.000000
4016.369300,-9548.656652,-296.082377,919.314598
4016.369630,-9326.594869,-296.082377,612.876398
4016.369959,-10140.821405,0.000000,689.485948
4016.370289,-10288.862594,-296.082377,229.828649
4016.370619,-9844.739029,0.000000,-76.609550
4016.370949,-9548.656652,-444.123565,459.657299
4016.371278,-9474.636058,-370.102971,76.609550
4016.371608,-9770.718434,-518.144159,766.095498
4016.371938,-9844.739029,0.000000,766.095498
4016.372268,-9548.656652,-296.082377,383.047749
4016.372598,-9548.656652,-222.061783,-76.609550
4016.372927,-9548.656652,-370.102971,-153.219100
4016.373257,-9844.739029,-74.020594,0.000000
4016.373587,-10140.821405,-74.020594,153.219100
4016.373917,-10066.800811,-222.061783,689.485948
4016.374246,-9548.656652,-148.041188,1302.362347
4016.374576,-9326.594869,-592.164754,612.876398
4016.374906,-9474.636058,-296.082377,459.657299
4016.375236,-10214.842000,-74.020594,383.047749
4016.375566,-10362.883188,148.041188,229.828649
4016.375895,-9770.718434,-148.041188,76.609550
4016.376225,-9474.636058,-148.041188,153.219100
4016.376555,-9918.759623,-296.082377,1149.143247
4016.376885,-10510.924376,0.000000,689.485948
4016.377214,-9844.739029,-74.020594,383.047749
4016.377544,-9474.636058,148.041188,229.828649
4016.377874,-9548.656652,0.000000,153.219100
4016.378204,-9622.677246,0.000000,-153.219100
4016.378534,-9992.780217,-222.061783,-306.438199
4016.378863,-9844.739029,0.000000,0.000000
4016.379193,-9696.697840,0.000000,1149.143247
4016.379523,-9474.636058,0.000000,1532.190996
4016.379853,-9844.739029,-222.061783,1072.533697
4016.380182,-10066.800811,0.000000,153.219100
4016.380512,-9844.739029,74.020594,-76.609550
4016.380842,-9770.718434,148.041188,536.266849
4016.381172,-9548.656652,148.041188,153.219100
4016.381502,-9844.739029,296.082377,306.438199
4016.381831,-10140.821405,296.082377,842.705048
4016.382161,-9844.739029,0.000000,306.438199
4016.382491,-9992.780217,444.123565,-689.485948
4016.382821,-9770.718434,222.061783,-995.924147
4016.383150,-9770.718434,296.082377,-536.266849
4016.383480,-9770.718434,296.082377,-459.657299
4016.383810,-9844.739029,444.123565,-153.219100
4016.384140,-9326.594869,148.041188,229.828649
4016.384470,-9548.656652,518.144159,1072.533697
4016.384799,-9918.759623,222.061783,842.705048
4016.385129,-10436.903782,592.164754,-536.266849
4016.385459,-10436.903782,370.102971,-689.485948
4016.385789,-9696.697840,370.102971,-459.657299
4016.386118,-9474.636058,74.020594,-306.438199
4016.386448,-9474.636058,74.020594,612.876398
4016.386778,-10066.800811,296.082377,1149.143247
4016.387108,-10066.800811,444.123565,459.657299
4016.387438,-9918.759623,222.061783,0.000000
4016.387767,-10140.821405,740.205942,459.657299
4016.388097,-10066.800811,666.185348,153.219100
4016.388427,-9696.697840,518.144159,0.000000
4016.388757,-9844.739029,740.205942,0.000000
4016.389086,-9548.656652,666.185348,229.828649
4016.389416,-9770.718434,666.185348,689.485948
4016.389746,-9770.718434,444.123565,0.000000
4016.390076,-9548.656652,148.041188,0.000000
4016.390406,-10288.862594,296.082377,0.000000
4016.390735,-10140.821405,222.061783,153.219100
4016.391065,-9548.656652,148.041188,0.000000
4016.391395,-9104.533087,0.000000,766.095498
4016.391725,-9474.636058,74.020594,1225.752797
4016.392055,-10066.800811,370.102971,2068.457845
4016.392384,-10066.800811,222.061783,689.485948
4016.392714,-9918.759623,370.102971,0.000000
4016.393044,-9696.697840,74.020594,-229.828649
4016.393374,-9770.718434,148.041188,-383.047749
4016.393703,-9474.636058,-148.041188,76.609550
4016.394033,-9252.574275,0.000000,306.438199
4016.394363,-9252.574275,0.000000,1072.533697
4016.394693,-9474.636058,-148.041188,1225.752797
4016.395023,-9474.636058,-370.102971,459.657299
4016.395352,-10214.842000,0.000000,-306.438199
4016.395682,-9622.677246,0.000000,0.000000
4016.396012,-9770.718434,74.020594,0.000000
4016.396342,-9400.615463,-592.164754,612.876398
4016.396671,-9474.636058,0.000000,689.485948
4016.397001,-10214.842000,0.000000,919.314598
4016.397331,-10214.842000,148.041188,536.266849
4016.397661,-10066.800811,0.000000,0.000000
4016.397991,-9548.656652,0.000000,-459.657299
4016.398320,-9696.697840,0.000000,-76.609550
4016.398650,-9992.780217,0.000000,0.000000
4016.398980,-9992.780217,0.000000,0.000000
4016.399310,-9770.718434,-370.102971,995.924147
4016.399639,-9622.677246,-518.144159,1378.971896
4016.399969,-10140.821405,-740.205942,995.924147
4016.400299,-10510.924376,-592.164754,153.219100
4016.400629,-10066.800811,-740.205942,229.828649
4016.400959,-9474.636058,-518.144159,0.000000
4016.401288,-9326.594869,-592.164754,536.266849
4016.401618,-9252.574275,-592.164754,1225.752797
4016.401948,-9770.718434,-296.082377,1608.800546
4016.402278,-10214.842000,-296.082377,995.924147
4016.402607,-10362.883188,-296.082377,-76.609550
4016.402937,-10214.842000,-370.102971,-689.485948
4016.403267,-9474.636058,-74.020594,-919.314598
4016.403597,-9474.636058,-74.020594,-766.095498
4016.403927,-9474.636058,0.000000,76.609550
4016.404256,-9326.594869,0.000000,459.657299
4016.404586,-9474.636058,-222.061783,612.876398
4016.404916,-9474.636058,-74.020594,536.266849
4016.405246,-10140.821405,0.000000,76.609550
4016.405575,-10732.986159,148.041188,-536.266849
4016.405905,-9770.718434,0.000000,-306.438199
4016.406235,-9252.574275,0.000000,536.266849
4016.406565,-9474.636058,0.000000,536.266849
4016.406895,-9622.677246,0.000000,766.095498
4016.407224,-9844.739029,296.082377,612.876398
4016.407554,-9770.718434,222.061783,-306.438199
4016.407884,-9474.636058,444.123565,-536.266849
4016.408214,-9474.636058,518.144159,-229.828649
4016.408543,-9326.594869,666.185348,-229.828649
4016.408873,-9918.759623,370.102971,-383.047749
4016.409203,-10214.842000,962.267725,383.047749
4016.409533,-10214.842000,666.185348,383.047749
4016.409863,-9918.759623,666.185348,612.876398
4016.410192,-9918.759623,444.123565,76.609550
4016.410522,-10807.006753,1036.288319,153.219100
4016.410852,-10066.800811,814.226536,0.000000
4016.411182,-9622.677246,666.185348,153.219100
4016.411511,-9400.615463,222.061783,153.219100
4016.411841,-9992.780217,444.123565,766.095498
4016.412171,-10362.883188,814.226536,1455.581446
4016.412501,-10066.800811,518.144159,689.485948
4016.412830,-9770.718434,666.185348,0.000000
4016.413160,-9474.636058,296.082377,0.000000
4016.413490,-9696.697840,740.205942,-689.485948
4016.413820,-9474.636058,370.102971,-306.438199
4016.414149,-9622.677246,370.102971,0.000000
4016.414479,-9770.718434,296.082377,766.095498
4016.414809,-9474.636058,222.061783,766.095498
4016.415139,-9474.636058,0.000000,0.000000
4016.415468,-9992.780217,370.102971,0.000000
4016.415798,-9918.759623,0.000000,-153.219100
4016.416128,-9770.718434,370.102971,153.219100
4016.416458,-9178.553681,0.000000,153.219100
4016.416787,-9400.615463,148.041188,536.266849
4016.417117,-9696.697840,74.020594,919.314598
4016.417447,-10214.842000,222.061783,306.438199
4016.417777,-9992.780217,0.000000,-689.485948
4016.418106,-10140.821405,222.061783,-536.266849
4016.418436,-9844.739029,0.000000,-383.047749
4016.418766,-9918.759623,222.061783,-153.219100
4016.419096,-9844.739029,0.000000,383.047749
4016.419425,-9548.656652,-370.102971,459.657299
4016.419755,-9400.615463,0.000000,1072.533697
4016.420085,-9992.780217,0.000000,383.047749
4016.420415,-10288.862594,0.000000,306.438199
4016.420744,-10732.986159,0.000000,-153.219100
4016.421074,-9770.718434,-222.061783,0.000000
4016.421404,-9474.636058,-740.205942,153.219100
4016.421734,-9252.574275,-814.226536,383.047749
4016.422063,-9548.656652,-666.185348,1608.800546
4016.422393,-9844.739029,-592.164754,1072.533697
4016.422723,-9844.739029,-888.247130,612.876398
4016.423053,-9918.759623,-444.123565,536.266849
4016.423382,-9992.780217,0.000000,766.095498
4016.423712,-9918.759623,-148.041188,612.876398
4016.424042,-10288.862594,-518.144159,612.876398
4016.424371,-9844.739029,-444.123565,919.314598
4016.424701,-9918.759623,-222.061783,689.485948
4016.425031,-9548.656652,-296.082377,536.266849
4016.425361,-9474.636058,-296.082377,0.000000
4016.425690,-9844.739029,-518.144159,-306.438199
4016.426020,-9474.636058,-148.041188,-612.876398
4016.426350,-9474.636058,-296.082377,-306.438199
4016.426680,-9474.636058,-444.123565,689.485948
4016.427009,-9548.656652,-370.102971,1149.143247
4016.427339,-10140.821405,-148.041188,1532.190996
4016.427669,-9770.718434,74.020594,612.876398
4016.427999,-9696.697840,0.000000,689.485948
4016.428328,-9844.739029,0.000000,459.657299
4016.428658,-9992.780217,74.020594,536.266849
4016.428988,-9992.780217,444.123565,612.876398
4016.429318,-9622.677246,370.102971,229.828649
4016.429647,-9474.636058,592.164754,306.438199
4016.429977,-9326.594869,592.164754,-229.828649
4016.430307,-9622.677246,444.123565,-1225.752797
4016.430637,-9696.697840,370.102971,-1149.143247
4016.430966,-9474.636058,666.185348,-995.924147
4016.431296,-9326.594869,444.123565,-383.047749
4016.431626,-9548.656652,444.123565,383.047749
4016.431956,-9992.780217,296.082377,1072.533697
4016.432285,-10140.821405,518.144159,1149.143247
4016.432615,-10214.842000,518.144159,459.657299
4016.432945,-10436.903782,444.123565,306.438199
4016.433275,-10140.821405,296.082377,766.095498
4016.433604,-9548.656652,296.082377,306.438199
4016.433934,-9474.636058,518.144159,76.609550
4016.434264,-9770.718434,518.144159,0.000000
4016.434594,-9548.656652,370.102971,612.876398
4016.434923,-9548.656652,296.082377,153.219100
4016.435253,-9474.636058,296.082377,0.000000
4016.435583,-9918.759623,740.205942,-689.485948
4016.435913,-10288.862594,666.185348,-306.438199
4016.436242,-9844.739029,222.061783,-459.657299
4016.436572,-9474.636058,296.082377,76.609550
4016.436902,-9474.636058,370.102971,689.485948
4016.437232,-10288.862594,222.061783,1608.800546
4016.437561,-10510.924376,222.061783,1302.362347
4016.437891,-10066.800811,-296.082377,306.438199
4016.438221,-9622.677246,-370.102971,306.438199
4016.438551,-9548.656652,0.000000,153.219100
4016.438880,-9030.512492,0.000000,306.438199
4016.439210,-9548.656652,0.000000,459.657299
4016.439540,-9474.636058,296.082377,306.438199
4016.439870,-9400.615463,148.041188,306.438199
4016.440199,-9770.718434,222.061783,-612.876398
4016.440529,-10140.821405,0.000000,-612.876398
4016.440859,-10214.842000,-222.061783,-919.314598
4016.441189,-9696.697840,0.000000,-306.438199
4016.441518,-9178.553681,-444.123565,0.000000
4016.441848,-8660.409521,-740.205942,153.219100
4016.442178,-9178.553681,-666.185348,1149.143247
4016.442508,-9770.718434,-296.082377,1455.581446
4016.442837,-10214.842000,-444.123565,1072.533697
4016.443167,-9474.636058,-148.041188,612.876398
4016.443497,-10066.800811,-222.061783,0.000000
4016.443827,-9918.759623,0.000000,536.266849
4016.444156,-9918.759623,-444.123565,0.000000
4016.444486,-9696.697840,-222.061783,459.657299
4016.444816,-9474.636058,0.000000,229.828649
4016.445146,-9474.636058,0.000000,459.657299
4016.445475,-9918.759623,-296.082377,153.219100
4016.445805,-10436.903782,-148.041188,-153.219100
4016.446135,-9622.677246,-296.082377,-383.047749
4016.446465,-9548.656652,-296.082377,153.219100
4016.446794,-9548.656652,-518.144159,612.876398
4016.447124,-9622.677246,-148.041188,1608.800546
4016.447454,-10288.862594,-74.020594,1915.238745
4016.447784,-10140.821405,0.000000,612.876398
4016.448113,-10436.903782,0.000000,306.438199
4016.448443,-10362.883188,296.082377,383.047749
4016.448773,-9992.780217,74.020594,229.828649
4016.449103,-10288.862594,-148.041188,153.219100
4016.449432,-10140.821405,-74.020594,229.828649
4016.449762,-10066.800811,-222.061783,612.876398
4016.450092,-9548.656652,-222.061783,766.095498
4016.450422,-9770.718434,0.000000,459.657299
4016.450751,-9622.677246,74.020594,0.000000
4016.451081,-9918.759623,0.000000,-383.047749
4016.451411,-9844.739029,296.082377,-383.047749
4016.451741,-9326.594869,296.082377,-536.266849
4016.452070,-9104.533087,0.000000,76.609550
4016.452400,-9622.677246,0.000000,919.314598
4016.452730,-9918.759623,0.000000,536.266849
4016.453060,-9770.718434,-222.061783,76.609550
4016.453389,-9622.677246,0.000000,76.609550
4016.453719,-9030.512492,148.041188,383.047749
4016.454049,-9030.512492,0.000000,229.828649
4016.454379,-9474.636058,592.164754,306.438199
4016.454708,-9992.780217,444.123565,689.485948
4016.455038,-9844.739029,962.267725,229.828649
4016.455368,-9770.718434,814.226536,-689.485948
4016.455698,-10288.862594,888.247130,-995.924147
4016.456027,-9844.739029,814.226536,-995.924147
4016.456357,-9622.677246,296.082377,-1149.143247
4016.456687,-9178.553681,296.082377,-383.047749
4016.457017,-9400.615463,222.061783,153.219100
4016.457346,-9770.718434,148.041188,919.314598
4016.457676,-9992.780217,74.020594,842.705048
4016.458006,-10066.800811,0.000000,689.485948
4016.458336,-9992.780217,370.102971,919.314598
4016.458665,-10066.800811,296.082377,1149.143247
4016.458995,-9844.739029,518.144159,229.828649
4016.459325,-9696.697840,222.061783,0.000000
4016.459655,-9918.759623,296.082377,-153.219100
4016.459984,-10288.862594,148.041188,459.657299
4016.460314,-10140.821405,518.144159,459.657299
4016.460644,-9918.759623,0.000000,0.000000
4016.460974,-10214.842000,0.000000,-383.047749
4016.461303,-10584.944971,222.061783,-536.266849
4016.461633,-9622.677246,222.061783,-229.828649
4016.461963,-9400.615463,-222.061783,0.000000
4016.462293,-9474.636058,0.000000,919.314598
4016.462622,-9918.759623,0.000000,1378.971896
4016.462952,-10584.944971,296.082377,1225.752797
4016.463282,-10214.842000,-74.020594,383.047749
4016.463612,-9918.759623,-296.082377,459.657299
4016.463941,-9474.636058,-370.102971,842.705048
4016.464271,-9474.636058,-444.123565,459.657299
4016.464601,-9622.677246,-592.164754,612.876398
4016.464931,-9474.636058,-444.123565,229.828649
4016.465260,-9474.636058,-148.041188,306.438199
4016.465590,-9696.697840,0.000000,0.000000
4016.465920,-10066.800811,296.082377,-153.219100
4016.466249,-10066.800811,74.020594,-459.657299
4016.466579,-9326.594869,222.061783,-766.095498
4016.466909,-9178.553681,0.000000,0.000000
4016.467239,-10140.821405,592.164754,536.266849
4016.467568,-10362.883188,296.082377,306.438199
4016.467898,-10510.924376,0.000000,383.047749
4016.468228,-9844.739029,-296.082377,-306.438199
4016.468558,-9844.739029,-370.102971,689.485948
4016.468887,-9844.739029,-148.041188,842.705048
4016.469217,-9770.718434,-370.102971,612.876398
4016.469547,-9548.656652,-296.082377,536.266849
4016.469877,-9326.594869,-296.082377,306.438199
4016.470206,-9696.697840,444.123565,842.705048
4016.470536,-10066.800811,296.082377,306.438199
4016.470866,-10732.986159,296.082377,0.000000
4016.471196,-10658.965565,0.000000,-459.657299
4016.471525,-9696.697840,888.247130,-459.657299
4016.471855,-9252.574275,-444.123565,-76.609550
4016.472185,-9030.512492,74.020594,229.828649
4016.472515,-9622.677246,0.000000,612.876398
4016.472844,-10066.800811,148.041188,1302.362347
4016.473174,-10140.821405,370.102971,612.876398
4016.473504,-10436.903782,370.102971,842.705048
4016.473834,-10140.821405,74.020594,689.485948
4016.474163,-9770.718434,0.000000,612.876398
4016.474493,-9844.739029,-296.082377,153.219100
4016.474823,-9400.615463,-296.082377,383.047749
4016.475153,-9326.594869,0.000000,995.924147
4016.475482,-9178.553681,0.000000,766.095498
4016.475812,-9770.718434,-74.020594,0.000000
4016.476142,-10288.862594,444.123565,76.609550
4016.476472,-10066.800811,74.020594,-459.657299
4016.476801,-9400.615463,222.061783,0.000000
4016.477131,-8956.491898,-444.123565,842.705048
4016.477461,-9326.594869,0.000000,766.095498
4016.477791,-9844.739029,148.041188,919.314598
4016.478120,-9918.759623,222.061783,229.828649
4016.478450,-9918.759623,518.144159,-153.219100
4016.478780,-9548.656652,296.082377,76.609550
4016.479110,-10214.842000,370.102971,76.609550
4016.479439,-10436.903782,740.205942,-76.609550
4016.479769,-10066.800811,444.123565,-229.828649
4016.480099,-9400.615463,370.102971,0.000000
4016.480429,-9622.677246,74.020594,0.000000
4016.480758,-9548.656652,0.000000,0.000000
4016.481088,-9992.780217,74.020594,76.609550
4016.481418,-9770.718434,0.000000,153.219100
4016.481748,-9696.697840,222.061783,0.000000
4016.482077,-9474.636058,0.000000,536.266849
4016.482407,-9548.656652,148.041188,612.876398
4016.482737,-10214.842000,74.020594,919.314598
4016.483067,-10436.903782,222.061783,919.314598
4016.483396,-10214.842000,74.020594,76.609550
4016.483726,-9474.636058,-444.123565,383.047749
4016.484056,-9548.656652,0.000000,0.000000
4016.484386,-9548.656652,74.020594,0.000000
4016.484715,-9992.780217,0.000000,-153.219100
4016.485045,-9770.718434,148.041188,459.657299
4016.485375,-9844.739029,222.061783,766.095498
4016.485705,-9548.656652,0.000000,766.095498
4016.486034,-10140.821405,74.020594,0.000000
4016.486364,-10658.965565,296.082377,-689.485948
4016.486694,-9696.697840,148.041188,-919.314598
4016.487024,-8808.450710,-518.144159,-383.047749
4016.487353,-9178.553681,-74.020594,383.047749
4016.487683,-9770.718434,74.020594,1149.143247
4016.488013,-10066.800811,0.000000,1225.752797
4016.488343,-9622.677246,-296.082377,459.657299
4016.488672,-9326.594869,-444.123565,229.828649
4016.489002,-9622.677246,0.000000,383.047749
4016.489332,-9622.677246,-222.061783,459.657299
4016.489662,-10066.800811,0.000000,153.219100
4016.489991,-9548.656652,-148.041188,0.000000
4016.490321,-9918.759623,74.020594,536.266849
4016.490651,-10066.800811,222.061783,459.657299
4016.490981,-9844.739029,222.061783,0.000000
4016.491310,-10214.842000,888.247130,0.000000
4016.491640,-9992.780217,518.144159,-689.485948
4016.491970,-9474.636058,296.082377,-306.438199
4016.492300,-9474.636058,74.020594,229.828649
4016.492629,-10066.800811,296.082377,842.705048
4016.492959,-9992.780217,148.041188,995.924147
4016.493289,-9770.718434,-370.102971,0.000000
4016.493619,-9474.636058,-222.061783,153.219100
4016.493948,-9326.594869,0.000000,229.828649
4016.494278,-9622.677246,0.000000,689.485948
4016.494608,-10362.883188,370.102971,383.047749
4016.494938,-10214.842000,296.082377,612.876398
4016.495267,-9696.697840,0.000000,919.314598
4016.495597,-9696.697840,-370.102971,1532.190996
4016.495927,-9992.780217,-370.102971,612.876398
4016.496257,-9992.780217,-222.061783,0.000000
4016.496586,-9770.718434,-148.041188,-306.438199
4016.496916,-9400.615463,0.000000,-536.266849
4016.497246,-9326.594869,0.000000,-383.047749
4016.497576,-9252.574275,74.020594,0.000000
4016.497905,-9844.739029,518.144159,383.047749
4016.498235,-9918.759623,148.041188,536.266849
4016.498565,-10066.800811,-148.041188,536.266849
4016.498895,-9844.739029,-296.082377,459.657299
4016.499224,-9696.697840,-222.061783,306.438199
4016.499554,-9844.739029,0.000000,459.657299
4016.499884,-9844.739029,-148.041188,153.219100
4016.500214,-9622.677246,222.061783,0.000000
4016.500543,-9474.636058,222.061783,459.657299
4016.500873,-9326.594869,0.000000,612.876398
4016.501203,-10140.821405,518.144159,459.657299
4016.501533,-10584.944971,370.102971,-229.828649
4016.501862,-9548.656652,74.020594,-919.314598
4016.502192,-9400.615463,-370.102971,-612.876398
4016.502522,-9030.512492,-296.082377,0.000000
4016.502852,-9400.615463,-444.123565,1302.362347
4016.503181,-9770.718434,296.082377,1455.581446
4016.503511,-9622.677246,0.000000,919.314598
4016.503841,-9696.697840,0.000000,536.266849
4016.504171,-9992.780217,0.000000,76.609550
4016.504500,-9992.780217,518.144159,153.219100
4016.504830,-9844.739029,148.041188,-153.219100
4016.505160,-9844.739029,296.082377,0.000000
4016.505490,-9474.636058,148.041188,536.266849
4016.505819,-9474.636058,296.082377,689.485948
4016.506149,-10214.842000,296.082377,76.609550
4016.506479,-10658.965565,814.226536,0.000000
4016.506808,-10288.862594,592.164754,-536.266849
4016.507138,-9474.636058,148.041188,-306.438199
4016.507468,-9104.533087,0.000000,383.047749
4016.507798,-9770.718434,74.020594,766.095498
4016.508127,-10362.883188,0.000000,1455.581446
4016.508457,-9844.739029,-518.144159,459.657299
4016.508787,-9474.636058,0.000000,153.219100
4016.509117,-10066.800811,74.020594,153.219100
4016.509446,-9992.780217,148.041188,689.485948
4016.509776,-9992.780217,0.000000,76.609550
4016.510106,-10140.821405,444.123565,0.000000
4016.510436,-10066.800811,0.000000,536.266849
4016.510765,-9696.697840,74.020594,536.266849
4016.511095,-9622.677246,0.000000,-153.219100
4016.511425,-9992.780217,370.102971,-766.095498
4016.511755,-9770.718434,0.000000,-766.095498
4016.512084,-9400.615463,222.061783,-1149.143247
4016.512414,-9326.594869,0.000000,-919.314598
4016.512744,-8882.471304,0.000000,0.000000
4016.513074,-10362.883188,148.041188,1302.362347
4016.513404,-10584.944971,148.041188,842.705048
4016.513734,-10066.800811,-74.020594,842.705048
4016.514063,-9622.677246,-814.226536,536.266849
4016.514393,-9326.594869,-518.144159,229.828649
4016.514723,-9252.574275,0.000000,153.219100
4016.515053,-9400.615463,74.020594,153.219100
4016.515383,-9474.636058,148.041188,76.609550
4016.515713,-9770.718434,370.102971,1149.143247
4016.516043,-9918.759623,296.082377,689.485948
4016.516372,-10436.903782,444.123565,-153.219100
4016.516702,-10584.944971,74.020594,-536.266849
4016.517032,-9844.739029,0.000000,-689.485948
4016.517362,-9252.574275,-222.061783,0.000000
4016.517692,-9326.594869,0.000000,689.485948
4016.518022,-9548.656652,0.000000,1532.190996
4016.518351,-9918.759623,0.000000,1225.752797
4016.518681,-10510.924376,148.041188,689.485948
4016.519011,-10288.862594,222.061783,306.438199
4016.519341,-10066.800811,-74.020594,0.000000
4016.519671,-9992.780217,222.061783,0.000000
4016.520001,-9770.718434,-222.061783,0.000000
4016.520331,-9474.636058,-444.123565,459.657299
4016.520660,-9474.636058,0.000000,995.924147
4016.520990,-9844.739029,0.000000,536.266849
4016.521320,-10214.842000,0.000000,0.000000
4016.521650,-10510.924376,148.041188,-306.438199
4016.521980,-9918.759623,-370.102971,-229.828649
4016.522310,-9400.615463,-444.123565,229.828649
4016.522639,-8364.327145,-740.205942,459.657299
4016.522969,-9252.574275,-666.185348,1072.533697
4016.523299,-9696.697840,-296.082377,1072.533697
4016.523629,-9918.759623,-296.082377,383.047749
4016.523959,-9400.615463,-518.144159,383.047749
4016.524289,-9548.656652,-518.144159,0.000000
4016.524619,-9474.636058,-296.082377,-229.828649
4016.524948,-9622.677246,0.000000,0.000000
4016.525278,-9844.739029,74.020594,-229.828649
4016.525608,-9918.759623,74.020594,459.657299
4016.525938,-9474.636058,0.000000,612.876398
4016.526268,-9844.739029,0.000000,0.000000
4016.526598,-10436.903782,0.000000,0.000000
4016.526927,-10214.842000,222.061783,-995.924147
4016.527257,-9548.656652,0.000000,-842.705048
4016.527587,-9252.574275,0.000000,-459.657299
4016.527917,-9474.636058,-148.041188,306.438199
4016.528247,-10066.800811,-518.144159,842.705048
4016.528577,-9992.780217,-296.082377,842.705048
4016.528907,-9770.718434,0.000000,459.657299
4016.529236,-9622.677246,-370.102971,229.828649
4016.529566,-9696.697840,0.000000,-383.047749
4016.529896,-10066.800811,0.000000,76.609550
4016.530226,-10214.842000,296.082377,153.219100
4016.530556,-10066.800811,444.123565,1072.533697
4016.530886,-9770.718434,444.123565,1149.143247
4016.531215,-10066.800811,518.144159,229.828649
4016.531545,-10584.944971,592.164754,-459.657299
4016.531875,-10214.842000,814.226536,-536.266849
4016.532205,-9400.615463,518.144159,-1225.752797
4016.532535,-9178.553681,592.164754,-459.657299
4016.532865,-9622.677246,444.123565,689.485948
4016.533195,-10066.800811,518.144159,1072.533697
4016.533524,-10288.862594,296.082377,612.876398
4016.533854,-9992.780217,296.082377,0.000000
4016.534184,-9548.656652,370.102971,0.000000
4016.534514,-9400.615463,0.000000,459.657299
4016.534844,-9326.594869,0.000000,612.876398
4016.535174,-9770.718434,296.082377,689.485948
4016.535503,-9992.780217,518.144159,459.657299
4016.535833,-9696.697840,666.185348,995.924147
4016.536163,-9770.718434,740.205942,612.876398
4016.536493,-10584.944971,814.226536,-459.657299
4016.536823,-10362.883188,740.205942,-536.266849
4016.537153,-9696.697840,740.205942,-689.485948
4016.537483,-8882.471304,444.123565,-766.095498
4016.537812,-9178.553681,592.164754,-689.485948
4016.538142,-9992.780217,296.082377,-153.219100
4016.538472,-10510.924376,148.041188,383.047749
4016.538802,-9918.759623,0.000000,0.000000
4016.539132,-9696.697840,-222.061783,1072.533697
4016.539462,-9696.697840,-148.041188,842.705048
4016.539791,-9696.697840,-148.041188,1072.533697
4016.540121,-9474.636058,-518.144159,766.095498
4016.540451,-9844.739029,74.020594,459.657299
4016.540781,-9548.656652,-222.061783,1302.362347
4016.541111,-10066.800811,0.000000,1072.533697
4016.541441,-9992.780217,0.000000,536.266849
4016.541771,-10066.800811,74.020594,-306.438199
4016.542100,-9918.759623,222.061783,-1302.362347
4016.542430,-9770.718434,296.082377,-1302.362347
4016.542760,-9178.553681,0.000000,-153.219100
4016.543090,-9474.636058,0.000000,612.876398
4016.543420,-10362.883188,74.020594,995.924147
4016.543750,-9918.759623,-74.020594,459.657299
4016.544079,-9548.656652,-370.102971,-76.609550
4016.544409,-9770.718434,-518.144159,0.000000
4016.544739,-9992.780217,-370.102971,306.438199
4016.545069,-9844.739029,-222.061783,919.314598
4016.545399,-9548.656652,0.000000,842.705048
4016.545729,-9548.656652,0.000000,1455.581446
4016.546059,-9918.759623,0.000000,1225.752797
4016.546388,-9918.759623,-222.061783,0.000000
4016.546718,-10214.842000,0.000000,-766.095498
4016.547048,-10362.883188,0.000000,-459.657299
4016.547378,-9918.759623,74.020594,-153.219100
4016.547708,-9178.553681,-592.164754,76.609550
4016.548038,-8882.471304,-370.102971,383.047749
4016.548367,-9400.615463,74.020594,612.876398
4016.548697,-10140.821405,0.000000,459.657299
4016.549027,-10288.862594,0.000000,153.219100
4016.549357,-10288.862594,222.061783,995.924147
4016.549687,-9844.739029,0.000000,842.705048
4016.550017,-9770.718434,0.000000,383.047749
4016.550347,-9844.739029,0.000000,536.266849
4016.550676,-9474.636058,-222.061783,842.705048
4016.551006,-9548.656652,-148.041188,919.314598
4016.551336,-9844.739029,0.000000,1072.533697
4016.551666,-9844.739029,0.000000,153.219100
4016.551996,-9992.780217,0.000000,-536.266849
4016.552326,-9548.656652,-296.082377,-459.657299
4016.552655,-9104.533087,-296.082377,-306.438199
4016.552985,-8808.450710,0.000000,229.828649
4016.553315,-9326.594869,222.061783,766.095498
4016.553645,-10362.883188,0.000000,1072.533697
4016.553975,-10288.862594,148.041188,76.609550
4016.554305,-9918.759623,0.000000,-306.438199
4016.554635,-9696.697840,74.020594,153.219100
4016.554964,-9474.636058,0.000000,612.876398
4016.555294,-9918.759623,148.041188,459.657299
4016.555624,-9474.636058,74.020594,76.609550
4016.555954,-9400.615463,370.102971,229.828649
4016.556284,-9992.780217,814.226536,229.828649
4016.556614,-10732.986159,666.185348,-919.314598
4016.556943,-10955.047942,962.267725,-536.266849
4016.557273,-10140.821405,518.144159,-689.485948
4016.557603,-9474.636058,518.144159,-306.438199
4016.557933,-9178.553681,148.041188,766.095498
4016.558263,-9770.718434,148.041188,842.705048
4016.558593,-10288.862594,370.102971,842.705048
4016.558923,-9992.780217,0.000000,459.657299
4016.559252,-9992.780217,74.020594,0.000000
4016.559582,-9696.697840,222.061783,76.609550
4016.559912,-9548.656652,148.041188,459.657299
4016.560242,-9770.718434,0.000000,0.000000
4016.560572,-9844.739029,74.020594,0.000000
4016.560902,-9770.718434,148.041188,766.095498
4016.561231,-9548.656652,222.061783,919.314598
4016.561561,-9474.636058,74.020594,229.828649
4016.561891,-9548.656652,0.000000,-459.657299
4016.562221,-10066.800811,296.082377,-919.314598
4016.562551,-9622.677246,370.102971,-459.657299
4016.562881,-9474.636058,-74.020594,229.828649
4016.563211,-9548.656652,-74.020594,766.095498
4016.563540,-10214.842000,0.000000,1608.800546
4016.563870,-10066.800811,74.020594,306.438199
4016.564200,-9400.615463,-592.164754,-383.047749
4016.564530,-9104.533087,0.000000,153.219100
4016.564860,-9622.677246,148.041188,919.314598
4016.565190,-9992.780217,74.020594,766.095498
4016.565519,-10584.944971,74.020594,689.485948
4016.565849,-9992.780217,0.000000,919.314598
4016.566179,-9696.697840,-444.123565,612.876398
4016.566509,-9548.656652,-296.082377,459.657299
4016.566839,-9622.677246,-148.041188,-76.609550
4016.567169,-9548.656652,0.000000,-383.047749
4016.567499,-9400.615463,148.041188,-306.438199
4016.567828,-9474.636058,0.000000,0.000000
4016.568158,-9770.718434,222.061783,153.219100
4016.568488,-10140.821405,0.000000,766.095498
4016.568818,-10214.842000,148.041188,612.876398
4016.569148,-10140.821405,0.000000,383.047749
4016.569478,-9622.677246,0.000000,306.438199
4016.569807,-9474.636058,-148.041188,612.876398
4016.570137,-9770.718434,148.041188,229.828649
4016.570467,-10140.821405,74.020594,306.438199
4016.570797,-10214.842000,0.000000,459.657299
4016.571127,-9622.677246,0.000000,689.485948
4016.571457,-9918.759623,0.000000,229.828649
4016.571787,-9992.780217,0.000000,0.000000
4016.572116,-10140.821405,-370.102971,-383.047749
4016.572446,-9326.594869,0.000000,-766.095498
4016.572776,-9178.553681,0.000000,-229.828649
4016.573106,-9252.574275,-592.164754,459.657299
4016.573436,-9696.697840,-444.123565,766.095498
4016.573766,-10140.821405,-222.061783,689.485948
4016.574096,-9622.677246,-592.164754,459.657299
4016.574425,-9104.533087,-740.205942,0.000000
4016.574755,-9030.512492,-592.164754,766.095498
4016.575085,-9326.594869,-592.164754,1225.752797
4016.575415,-9844.739029,-148.041188,1149.143247
4016.575745,-10140.821405,0.000000,689.485948
4016.576075,-9992.780217,148.041188,229.828649
4016.576404,-9844.739029,0.000000,76.609550
4016.576734,-9474.636058,148.041188,-689.485948
4016.577064,-10140.821405,370.102971,-612.876398
4016.577394,-10288.862594,518.144159,-459.657299
4016.577724,-9474.636058,-74.020594,0.000000
4016.578054,-9178.553681,-296.082377,-76.609550
4016.578384,-9548.656652,0.000000,766.095498
4016.578713,-10140.821405,74.020594,1302.362347
4016.579043,-10214.842000,74.020594,689.485948
4016.579373,-9400.615463,0.000000,459.657299
4016.579703,-9770.718434,0.000000,459.657299
4016.580033,-9918.759623,0.000000,919.314598
4016.580363,-10066.800811,370.102971,536.266849
4016.580692,-9992.780217,666.185348,229.828649
4016.581022,-9622.677246,222.061783,383.047749
4016.581352,-9474.636058,222.061783,689.485948
4016.581682,-9622.677246,370.102971,459.657299
4016.582012,-10436.903782,666.185348,76.609550
4016.582342,-10066.800811,666.185348,-459.657299
4016.582672,-9696.697840,740.205942,-536.266849
4016.583001,-9178.553681,0.000000,0.000000
4016.583331,-9400.615463,444.123565,689.485948
4016.583661,-9844.739029,518.144159,153.219100
4016.583991,-9548.656652,222.061783,0.000000
4016.584321,-9696.697840,296.082377,-306.438199
4016.584651,-9696.697840,296.082377,459.657299
4016.584980,-9548.656652,222.061783,766.095498
4016.585310,-10066.800811,370.102971,1072.533697
4016.585640,-9992.780217,0.000000,459.657299
4016.585970,-9844.739029,148.041188,612.876398
4016.586300,-9696.697840,370.102971,153.219100
4016.586630,-9474.636058,222.061783,0.000000
4016.586960,-9992.780217,148.041188,0.000000
4016.587289,-10658.965565,296.082377,-229.828649
4016.587619,-9992.780217,666.185348,0.000000
4016.587949,-9252.574275,222.061783,-459.657299
4016.588279,-9474.636058,74.020594,76.609550
4016.588609,-9770.718434,74.020594,306.438199
4016.588939,-10066.800811,222.061783,383.047749
4016.589268,-9696.697840,0.000000,153.219100
4016.589598,-9844.739029,0.000000,766.095498
4016.589928,-9770.718434,-370.102971,766.095498
4016.590258,-9474.636058,-444.123565,536.266849
4016.590588,-9326.594869,-518.144159,229.828649
4016.590918,-9696.697840,0.000000,153.219100
4016.591248,-9548.656652,0.000000,766.095498
4016.591577,-9474.636058,74.020594,766.095498
4016.591907,-9696.697840,0.000000,76.609550
4016.592237,-10658.965565,518.144159,0.000000
4016.592567,-10288.862594,0.000000,-766.095498
4016.592897,-9696.697840,-296.082377,-383.047749
4016.593227,-9104.533087,-962.267725,-153.219100
4016.593556,-9326.594869,-666.185348,459.657299
4016.593886,-9474.636058,-740.205942,1149.143247
4016.594216,-9474.636058,-370.102971,153.219100
4016.594546,-9178.553681,-222.061783,0.000000
4016.594876,-9622.677246,-74.020594,383.047749
4016.595206,-10436.903782,-444.123565,689.485948
4016.595536,-10140.821405,-296.082377,689.485948
4016.595865,-9770.718434,-444.123565,306.438199
4016.596195,-9696.697840,-296.082377,995.924147
4016.596525,-9696.697840,-370.102971,459.657299
4016.596855,-9326.594869,-370.102971,0.000000
4016.597185,-9844.739029,0.000000,-536.266849
4016.597515,-10436.903782,444.123565,306.438199
4016.597844,-9992.780217,296.082377,-229.828649
4016.598174,-9622.677246,0.000000,0.000000
4016.598504,-9474.636058,148.041188,229.828649
4016.598834,-9844.739029,74.020594,842.705048
4016.599164,-10658.965565,370.102971,229.828649
4016.599494,-10066.800811,0.000000,0.000000
4016.599824,-9474.636058,0.000000,229.828649
4016.600153,-9770.718434,148.041188,459.657299
4016.600483,-10362.883188,296.082377,1302.362347
4016.600813,-10214.842000,0.000000,766.095498
4016.601143,-9252.574275,0.000000,919.314598
4016.601473,-8882.471304,148.041188,1072.533697
4016.601803,-9770.718434,370.102971,766.095498
4016.602132,-9844.739029,74.020594,153.219100
4016.602462,-10214.842000,518.144159,-229.828649
4016.602792,-9770.718434,444.123565,-536.266849
4016.603122,-9696.697840,370.102971,-306.438199
4016.603452,-9696.697840,0.000000,0.000000
4016.603782,-9548.656652,74.020594,153.219100
4016.604112,-9622.677246,444.123565,229.828649
4016.604441,-9918.759623,222.061783,306.438199
4016.604771,-9548.656652,0.000000,919.314598
4016.605101,-9696.697840,74.020594,1149.143247
4016.605431,-9770.718434,0.000000,612.876398
4016.605761,-9918.759623,-74.020594,153.219100
4016.606091,-10066.800811,0.000000,459.657299
4016.606420,-9400.615463,148.041188,459.657299
4016.606750,-9178.553681,0.000000,689.485948
4016.607080,-9696.697840,148.041188,383.047749
4016.607410,-10510.924376,888.247130,-306.438199
4016.607740,-10658.965565,814.226536,-1149.143247
4016.608070,-9400.615463,592.164754,-919.314598
4016.608400,-9474.636058,296.082377,-536.266849
4016.608729,-9918.759623,444.123565,459.657299
4016.609059,-9992.780217,74.020594,612.876398
4016.609389,-9400.615463,-222.061783,76.609550
4016.609719,-9548.656652,0.000000,0.000000
4016.610049,-10214.842000,-148.041188,383.047749
4016.610379,-10140.821405,-296.082377,76.609550
4016.610708,-9844.739029,74.020594,0.000000
4016.611038,-9918.759623,-148.041188,1072.533697
4016.611368,-9918.759623,0.000000,1455.581446
4016.611698,-9844.739029,-148.041188,1455.581446
4016.612028,-9770.718434,-518.144159,536.266849
4016.612357,-10066.800811,148.041188,153.219100
4016.612687,-10214.842000,0.000000,-229.828649
4016.613017,-9622.677246,0.000000,-536.266849
4016.613347,-8660.409521,-444.123565,-306.438199
4016.613677,-9104.533087,0.000000,0.000000
4016.614006,-9696.697840,74.020594,306.438199
4016.614336,-9844.739029,0.000000,0.000000
4016.614666,-9474.636058,74.020594,0.000000
4016.614996,-9474.636058,370.102971,0.000000
4016.615325,-10140.821405,0.000000,459.657299
4016.615655,-10214.842000,0.000000,459.657299
4016.615985,-10140.821405,-370.102971,-153.219100
4016.616315,-9770.718434,0.000000,-919.314598
4016.616644,-9400.615463,0.000000,1072.533697
4016.616974,-9548.656652,0.000000,766.095498
4016.617304,-9844.739029,0.000000,536.266849
4016.617634,-10510.924376,370.102971,76.609550
4016.617963,-9696.697840,518.144159,-536.266849
4016.618293,-9548.656652,148.041188,-306.438199
4016.618623,-9548.656652,0.000000,0.000000
4016.618953,-9770.718434,148.041188,229.828649
4016.619282,-9844.739029,518.144159,612.876398
4016.619612,-9918.759623,0.000000,229.828649
4016.619942,-9622.677246,0.000000,0.000000
4016.620272,-9400.615463,0.000000,459.657299
4016.620602,-9548.656652,74.020594,0.000000
4016.620931,-9992.780217,74.020594,612.876398
4016.621261,-9844.739029,222.061783,536.266849
4016.621591,-9474.636058,222.061783,919.314598
4016.621921,-9770.718434,148.041188,1072.533697
4016.622250,-10214.842000,296.082377,153.219100
4016.622580,-10436.903782,222.061783,-536.266849
4016.622910,-10214.842000,296.082377,-536.266849
4016.623240,-9326.594869,74.020594,-612.876398
4016.623569,-9104.533087,-444.123565,536.266849
4016.623899,-9252.574275,0.000000,612.876398
4016.624229,-9474.636058,0.000000,459.657299
4016.624559,-10214.842000,-148.041188,536.266849
4016.624888,-9548.656652,-370.102971,919.314598
4016.625218,-9622.677246,-296.082377,919.314598
4016.625548,-9548.656652,-370.102971,306.438199
4016.625878,-9548.656652,-370.102971,383.047749
4016.626208,-9548.656652,-222.061783,0.000000
4016.626537,-9326.594869,74.020594,919.314598
4016.626867,-9548.656652,74.020594,995.924147
4016.627197,-9622.677246,74.020594,536.266849
4016.627527,-10288.862594,148.041188,0.000000
4016.627856,-9992.780217,518.144159,-766.095498
4016.628186,-9770.718434,444.123565,-1608.800546
4016.628516,-9326.594869,148.041188,-1149.143247
4016.628846,-9622.677246,444.123565,-536.266849
4016.629175,-9622.677246,444.123565,229.828649
4016.629505,-10140.821405,74.020594,536.266849
4016.629835,-9696.697840,0.000000,306.438199
4016.630165,-10066.800811,0.000000,383.047749
4016.630494,-10066.800811,74.020594,0.000000
4016.630824,-10362.883188,222.061783,383.047749
4016.631154,-9770.718434,0.000000,306.438199
4016.631484,-10066.800811,74.020594,1149.143247
4016.631814,-9622.677246,0.000000,1762.019645
4016.632143,-9770.718434,0.000000,1149.143247
4016.632473,-9770.718434,0.000000,0.000000
4016.632803,-10288.862594,222.061783,-536.266849
4016.633133,-9918.759623,222.061783,-919.314598
4016.633462,-9326.594869,296.082377,-459.657299
4016.633792,-9326.594869,0.000000,229.828649
4016.634122,-9474.636058,148.041188,842.705048
4016.634452,-10066.800811,148.041188,689.485948
4016.634781,-9474.636058,0.000000,-306.438199
4016.635111,-9548.656652,296.082377,229.828649
4016.635441,-9770.718434,148.041188,383.047749
4016.635771,-10066.800811,0.000000,459.657299
4016.636100,-9992.780217,74.020594,536.266849
4016.636430,-9400.615463,0.000000,0.000000
4016.636760,-9474.636058,-222.061783,919.314598
4016.637090,-9548.656652,0.000000,842.705048
4016.637420,-9918.759623,-444.123565,536.266849
4016.637749,-9992.780217,296.082377,76.609550
4016.638079,-9622.677246,592.164754,-459.657299
4016.638409,-9326.594869,370.102971,-1225.752797
4016.638739,-9474.636058,444.123565,-842.705048
4016.639068,-9474.636058,888.247130,-383.047749
4016.639398,-10288.862594,444.123565,229.828649
4016.639728,-9844.739029,0.000000,612.876398
4016.640058,-9770.718434,0.000000,153.219100
4016.640387,-9622.677246,0.000000,536.266849
4016.640717,-9696.697840,0.000000,0.000000
4016.641047,-9622.677246,-296.082377,76.609550
4016.641377,-9918.759623,148.041188,383.047749
4016.641706,-9548.656652,0.000000,995.924147
4016.642036,-9474.636058,148.041188,1762.019645
4016.642366,-9918.759623,0.000000,919.314598
4016.642696,-10362.883188,370.102971,0.000000
4016.643025,-10214.842000,370.102971,-766.095498
4016.643355,-9326.594869,370.102971,-1072.533697
4016.643685,-9178.553681,0.000000,-306.438199
4016.644015,-9474.636058,-148.041188,536.266849
4016.644345,-9992.780217,0.000000,1302.362347
4016.644674,-9696.697840,-148.041188,536.266849
4016.645004,-9844.739029,-296.082377,536.266849
4016.645334,-9622.677246,-296.082377,689.485948
4016.645664,-9548.656652,-222.061783,612.876398
4016.645993,-10066.800811,148.041188,536.266849
4016.646323,-10214.842000,0.000000,306.438199
4016.646653,-9696.697840,0.000000,536.266849
4016.646983,-9844.739029,0.000000,766.095498
4016.647312,-9918.759623,-148.041188,0.000000
4016.647642,-9992.780217,148.041188,-536.266849
4016.647972,-10214.842000,-296.082377,-612.876398
4016.648302,-9770.718434,-148.041188,-383.047749
4016.648631,-9104.533087,-444.123565,-153.219100
4016.648961,-8660.409521,-370.102971,-306.438199
4016.649291,-9400.615463,-296.082377,689.485948
4016.649621,-9844.739029,0.000000,689.485948
4016.649951,-9770.718434,0.000000,383.047749
4016.650280,-9696.697840,74.020594,153.219100
4016.650610,-9844.739029,0.000000,306.438199
4016.650940,-10214.842000,0.000000,0.000000
4016.651270,-10066.800811,-74.020594,0.000000
4016.651599,-9770.718434,0.000000,229.828649
4016.651929,-9474.636058,74.020594,383.047749
4016.652259,-9548.656652,296.082377,612.876398
4016.652589,-10140.821405,148.041188,-76.609550
4016.652918,-10214.842000,444.123565,-459.657299
4016.653248,-9474.636058,370.102971,-306.438199
4016.653578,-9548.656652,148.041188,0.000000
4016.653908,-9548.656652,148.041188,306.438199
4016.654237,-10066.800811,296.082377,306.438199
4016.654567,-9992.780217,148.041188,229.828649
4016.654897,-10066.800811,222.061783,383.047749
4016.655227,-9548.656652,-148.041188,612.876398
4016.655557,-9548.656652,0.000000,689.485948
4016.655886,-9474.636058,0.000000,612.876398
4016.656216,-9696.697840,518.144159,612.876398
4016.656546,-9992.780217,444.123565,383.047749
4016.656876,-9918.759623,296.082377,383.047749
4016.657205,-9696.697840,148.041188,459.657299
4016.657535,-9918.759623,296.082377,306.438199
4016.657865,-9918.759623,148.041188,0.000000
4016.658195,-9548.656652,222.061783,0.000000
4016.658524,-8882.471304,370.102971,-842.705048
4016.658854,-8956.491898,222.061783,0.000000
4016.659184,-9400.615463,296.082377,229.828649
4016.659514,-9992.780217,666.185348,919.314598
4016.659843,-10214.842000,740.205942,536.266849
4016.660173,-9770.718434,148.041188,383.047749
4016.660503,-9770.718434,148.041188,-306.438199
4016.660833,-9622.677246,0.000000,-842.705048
4016.661163,-9548.656652,0.000000,-612.876398
4016.661492,-9770.718434,296.082377,0.000000
4016.661822,-9178.553681,0.000000,995.924147
4016.662152,-9030.512492,74.020594,766.095498
4016.662482,-9696.697840,0.000000,995.924147
4016.662811,-10362.883188,296.082377,0.000000
4016.663141,-10510.924376,0.000000,-842.705048
4016.663471,-9696.697840,-74.020594,-919.314598
4016.663801,-9400.615463,-444.123565,0.000000
4016.664130,-9474.636058,-148.041188,612.876398
4016.664460,-9918.759623,0.000000,1149.143247
4016.664790,-9844.739029,74.020594,459.657299
4016.665120,-9992.780217,0.000000,-229.828649
4016.665449,-9844.739029,296.082377,0.000000
4016.665779,-10288.862594,0.000000,459.657299
4016.666109,-9992.780217,518.144159,459.657299
4016.666439,-10140.821405,0.000000,459.657299
4016.666769,-9844.739029,-148.041188,383.047749
4016.667098,-9326.594869,-444.123565,766.095498
4016.667428,-9696.697840,-148.041188,229.828649
4016.667758,-10140.821405,0.000000,536.266849
4016.668088,-10658.965565,148.041188,306.438199
4016.668417,-10066.800811,0.000000,306.438199
4016.668747,-8734.430116,0.000000,0.000000
4016.669077,-9252.574275,74.020594,306.438199
4016.669407,-10066.800811,74.020594,612.876398
4016.669736,-10510.924376,0.000000,919.314598
4016.670066,-10362.883188,0.000000,842.705048
4016.670396,-9474.636058,-74.020594,0.000000
4016.670726,-9400.615463,-148.041188,0.000000
4016.671055,-9474.636058,-222.061783,229.828649
4016.671385,-9696.697840,-74.020594,229.828649
4016.671715,-8956.491898,74.020594,459.657299
4016.672045,-8956.491898,222.061783,306.438199
4016.672374,-9474.636058,74.020594,689.485948
4016.672704,-10288.862594,0.000000,153.219100
4016.673034,-10807.006753,592.164754,-689.485948
4016.673364,-10436.903782,74.020594,-459.657299
4016.673694,-9918.759623,148.041188,76.609550
4016.674023,-9030.512492,-444.123565,76.609550
4016.674353,-9400.615463,-148.041188,612.876398
4016.674683,-9696.697840,0.000000,612.876398
4016.675013,-9770.718434,222.061783,229.828649
4016.675342,-9622.677246,74.020594,0.000000
4016.675672,-9548.656652,0.000000,-76.609550
4016.676002,-9474.636058,222.061783,-383.047749
4016.676332,-9770.718434,222.061783,0.000000
4016.676661,-9992.780217,0.000000,689.485948
4016.676991,-9696.697840,74.020594,919.314598
4016.677321,-9770.718434,370.102971,766.095498
4016.677651,-10066.800811,0.000000,459.657299
4016.677980,-10436.903782,518.144159,-536.266849
4016.678310,-10362.883188,444.123565,-383.047749
4016.678640,-9770.718434,518.144159,-842.705048
4016.678970,-9252.574275,296.082377,0.000000
4016.679300,-9548.656652,148.041188,383.047749
4016.679629,-10288.862594,518.144159,612.876398
4016.679959,-10214.842000,296.082377,306.438199
4016.680289,-9548.656652,0.000000,-842.705048
4016.680619,-9696.697840,296.082377,-229.828649
4016.680948,-9696.697840,0.000000,383.047749
4016.681278,-9548.656652,0.000000,459.657299
4016.681608,-9548.656652,0.000000,306.438199
4016.681938,-9474.636058,-148.041188,995.924147
4016.682267,-9474.636058,0.000000,1072.533697
4016.682597,-9622.677246,0.000000,612.876398
4016.682927,-10436.903782,0.000000,-229.828649
4016.683257,-10510.924376,222.061783,76.609550
4016.683586,-10066.800811,74.020594,-383.047749
4016.683916,-9400.615463,148.041188,-306.438199
4016.684246,-9400.615463,0.000000,0.000000
4016.684576,-9696.697840,0.000000,153.219100
4016.684906,-10510.924376,0.000000,76.609550
4016.685235,-10066.800811,74.020594,-229.828649
4016.685565,-9548.656652,148.041188,-383.047749
4016.685895,-9770.718434,-444.123565,0.000000
4016.686225,-9770.718434,0.000000,842.705048
4016.686554,-9992.780217,0.000000,383.047749
4016.686884,-10140.821405,-74.020594,842.705048
4016.687214,-9622.677246,0.000000,1225.752797
4016.687544,-9844.739029,-296.082377,1455.581446
4016.687873,-10140.821405,-296.082377,459.657299
4016.688203,-10288.862594,74.020594,76.609550
4016.688533,-9622.677246,370.102971,-536.266849
4016.688863,-8956.491898,222.061783,-459.657299
4016.689192,-9030.512492,148.041188,76.609550
4016.689522,-9770.718434,444.123565,0.000000
4016.689852,-10140.821405,370.102971,0.000000
4016.690182,-10066.800811,444.123565,-383.047749
4016.690512,-9548.656652,370.102971,-536.266849
4016.690841,-9622.677246,0.000000,76.609550
4016.691171,-9696.697840,0.000000,459.657299
4016.691501,-9918.759623,0.000000,76.609550
4016.691831,-9918.759623,0.000000,689.485948
4016.692160,-9622.677246,0.000000,1225.752797
4016.692490,-9696.697840,0.000000,1072.533697
4016.692820,-9474.636058,0.000000,153.219100
4016.693150,-10066.800811,222.061783,229.828649
4016.693479,-10436.903782,296.082377,-459.657299
4016.693809,-9474.636058,0.000000,0.000000
4016.694139,-9400.615463,-296.082377,-76.609550
4016.694469,-9104.533087,0.000000,0.000000
4016.694798,-9622.677246,222.061783,766.095498
4016.695128,-10066.800811,222.061783,153.219100
4016.695458,-9844.739029,296.082377,-383.047749
4016.695788,-9474.636058,148.041188,-306.438199
4016.696118,-10288.862594,518.144159,76.609550
4016.696447,-10214.842000,444.123565,383.047749
4016.696777,-10066.800811,148.041188,306.438199
4016.697107,-9474.636058,0.000000,612.876398
4016.697437,-9474.636058,148.041188,1455.581446
4016.697766,-9844.739029,222.061783,306.438199
4016.698096,-10214.842000,0.000000,0.000000
4016.698426,-10214.842000,74.020594,-459.657299
4016.698756,-9400.615463,-222.061783,153.219100
4016.699085,-9030.512492,0.000000,612.876398
4016.699415,-9400.615463,0.000000,919.314598
4016.699745,-9770.718434,222.061783,766.095498
4016.700075,-10288.862594,222.061783,0.000000
4016.700404,-9622.677246,0.000000,-689.485948
4016.700734,-9696.697840,-222.061783,-306.438199
4016.701064,-9474.636058,0.000000,229.828649
4016.701394,-9326.594869,-222.061783,383.047749
4016.701723,-9474.636058,-74.020594,766.095498
4016.702053,-9844.739029,0.000000,383.047749
4016.702383,-10140.821405,0.000000,1225.752797
4016.702713,-10140.821405,-296.082377,1072.533697
4016.703043,-10214.842000,-296.082377,842.705048
4016.703372,-10288.862594,0.000000,536.266849
4016.703702,-9844.739029,0.000000,306.438199
4016.704032,-9030.512492,0.000000,0.000000
4016.704362,-9178.553681,-222.061783,0.000000
4016.704691,-9474.636058,0.000000,459.657299
4016.705021,-10140.821405,444.123565,306.438199
4016.705351,-10214.842000,666.185348,0.000000
4016.705681,-9548.656652,74.020594,-536.266849
4016.706010,-9548.656652,222.061783,-306.438199
4016.706340,-9992.780217,-74.020594,383.047749
4016.706670,-9992.780217,0.000000,536.266849
4016.707000,-9770.718434,-74.020594,689.485948
4016.707329,-9474.636058,444.123565,1532.190996
4016.707659,-9622.677246,296.082377,1378.971896
4016.707989,-10362.883188,74.020594,612.876398
4016.708319,-10584.944971,370.102971,0.000000
4016.708649,-10510.924376,666.185348,0.000000
4016.708978,-9844.739029,666.185348,-383.047749
4016.709308,-9918.759623,74.020594,229.828649
4016.709638,-9622.677246,0.000000,383.047749
4016.709968,-9918.759623,296.082377,153.219100
4016.710297,-9400.615463,296.082377,-612.876398
4016.710627,-9770.718434,0.000000,-612.876398
4016.710957,-9400.615463,296.082377,76.609550
4016.711287,-9252.574275,0.000000,383.047749
4016.711616,-9548.656652,740.205942,612.876398
4016.711946,-10140.821405,296.082377,383.047749
4016.712276,-10288.862594,518.144159,229.828649
4016.712606,-9992.780217,148.041188,689.485948
4016.712935,-10214.842000,148.041188,383.047749
4016.713265,-10214.842000,0.000000,76.609550
4016.713595,-10288.862594,148.041188,76.609550
4016.713925,-9400.615463,222.061783,76.609550
4016.714255,-9104.533087,0.000000,0.000000
4016.714584,-9178.553681,296.082377,-306.438199
4016.714914,-9918.759623,370.102971,153.219100
4016.715244,-9992.780217,148.041188,0.000000
4016.715574,-10066.800811,0.000000,-612.876398
4016.715904,-9548.656652,222.061783,0.000000
4016.716234,-9474.636058,-444.123565,-153.219100
4016.716564,-9696.697840,-296.082377,229.828649
4016.716893,-9844.739029,-296.082377,306.438199
4016.717223,-10066.800811,0.000000,689.485948
4016.717553,-9918.759623,0.000000,1302.362347
4016.717883,-9696.697840,-148.041188,1149.143247
4016.718213,-9992.780217,-444.123565,536.266849
4016.718543,-10140.821405,-148.041188,459.657299
4016.718872,-9992.780217,0.000000,0.000000
4016.719202,-9030.512492,0.000000,-612.876398
4016.719532,-9178.553681,0.000000,0.000000
4016.719862,-9474.636058,-74.020594,229.828649
4016.720192,-9770.718434,518.144159,229.828649
4016.720522,-10288.862594,148.041188,-766.095498
4016.720852,-9696.697840,0.000000,-459.657299
4016.721181,-9474.636058,0.000000,76.609550
4016.721511,-9400.615463,-74.020594,229.828649
4016.721841,-9696.697840,-74.020594,459.657299
4016.722171,-10066.800811,74.020594,536.266849
4016.722501,-10140.821405,0.000000,1149.143247
4016.722831,-10362.883188,0.000000,536.266849
4016.723161,-10214.842000,-296.082377,689.485948
4016.723490,-10288.862594,222.061783,306.438199
4016.723820,-9918.759623,-148.041188,0.000000
4016.724150,-9400.615463,0.000000,76.609550
4016.724480,-8956.491898,-74.020594,0.000000
4016.724810,-9622.677246,0.000000,306.438199
4016.725140,-10066.800811,518.144159,689.485948
4016.725469,-10140.821405,370.102971,612.876398
4016.725799,-9770.718434,74.020594,306.438199
4016.726129,-9770.718434,148.041188,383.047749
4016.726459,-9548.656652,0.000000,-153.219100
4016.726789,-9918.759623,0.000000,0.000000
4016.727119,-9918.759623,-370.102971,153.219100
4016.727449,-9918.759623,-222.061783,842.705048
4016.727778,-9474.636058,-148.041188,1378.971896
4016.728108,-9770.718434,-74.020594,995.924147
4016.728438,-10066.800811,148.041188,153.219100
4016.728768,-10362.883188,74.020594,0.000000
4016.729098,-9992.780217,370.102971,153.219100
