#time,accel_x,accel_y,accel_z
3665.447310,-9844.739029,-666.185348,-3600.648841
3665.447640,-10140.821405,-1036.288319,-2681.334243
3665.447970,-10288.862594,-888.247130,-306.438199
3665.448300,-10584.944971,-962.267725,842.705048
3665.448630,-9770.718434,-814.226536,-459.657299
3665.448960,-9770.718434,-740.205942,-2604.724693
3665.449289,-9178.553681,-666.185348,-3064.381992
3665.449619,-9030.512492,-74.020594,-1378.971896
3665.449949,-9252.574275,444.123565,-383.047749
3665.450279,-9844.739029,740.205942,-1455.581446
3665.450609,-9178.553681,296.082377,-3064.381992
3665.450939,-8808.450710,0.000000,-3294.210641
3665.451268,-9474.636058,222.061783,-2604.724693
3665.451598,-9474.636058,0.000000,-2298.286494
3665.451928,-9622.677246,0.000000,-1608.800546
3665.452258,-9252.574275,-222.061783,-995.924147
3665.452588,-9844.739029,148.041188,-306.438199
3665.452918,-10658.965565,222.061783,0.000000
3665.453248,-10807.006753,296.082377,-766.095498
3665.453577,-10288.862594,0.000000,-612.876398
3665.453907,-10140.821405,740.205942,-383.047749
3665.454237,-10436.903782,444.123565,76.609550
3665.454567,-10510.924376,74.020594,-76.609550
3665.454897,-10140.821405,0.000000,-2374.896044
3665.455227,-10140.821405,0.000000,-3830.477490
3665.455556,-9474.636058,-740.205942,-5056.230287
3665.455886,-9548.656652,-888.247130,-3753.867940
3665.456216,-9326.594869,-1554.432478,-2604.724693
3665.456546,-9104.533087,-1850.514855,-1378.971896
3665.456876,-8438.347739,-3256.906145,-1149.143247
3665.457206,-10066.800811,-2886.803174,0.000000
3665.457536,-9030.512492,-1554.432478,1991.848295
3665.457865,-11177.109724,-518.144159,1608.800546
3665.458195,-11843.295072,-740.205942,612.876398
3665.458525,-9622.677246,-1110.308913,0.000000
3665.458855,-10510.924376,-1184.329507,-2374.896044
3665.459185,-11769.274478,-1924.535449,-4213.525239
3665.459515,-11621.233289,-2664.741391,-4136.915689
3665.459844,-8660.409521,-2516.700203,-4903.011187
3665.460174,-7402.059420,-3182.885551,-3830.477490
3665.460504,-8290.306550,-3330.926739,-3294.210641
3665.460834,-8734.430116,-2738.761985,-2528.115143
3665.461164,-9622.677246,-2960.823768,-3524.039291
3665.461494,-9548.656652,-3256.906145,-2451.505594
3665.461824,-10584.944971,-2960.823768,-459.657299
3665.462153,-11769.274478,-3182.885551,229.828649
3665.462483,-12139.377449,-3997.112087,-995.924147
3665.462813,-11177.109724,-4293.194464,-2145.067394
3665.463143,-10510.924376,-4663.297435,-3753.867940
3665.463473,-9918.759623,-4885.359217,-3140.991542
3665.463803,-9992.780217,-4145.153275,-1762.019645
3665.464132,-9770.718434,-3627.009116,-2451.505594
3665.464462,-9548.656652,-3478.967927,-4519.963438
3665.464792,-8586.388927,-3923.091493,-5898.935335
3665.465122,-8512.368333,-4367.215058,-5745.716235
3665.465452,-9548.656652,-4737.318029,-4366.744339
3665.465782,-10362.883188,-4811.338623,-2451.505594
3665.466112,-9770.718434,-5107.421000,-1378.971896
3665.466441,-8438.347739,-5403.503377,-1685.410096
3665.466771,-8882.471304,-4959.379811,-2451.505594
3665.467101,-11029.068536,-4885.359217,-2911.162892
3665.467431,-11547.212695,-4959.379811,-2757.943793
3665.467761,-9622.677246,-5403.503377,-1302.362347
3665.468091,-7994.224174,-5329.482782,-383.047749
3665.468420,-7846.182985,-5181.441594,459.657299
3665.468750,-8660.409521,-4885.359217,-1302.362347
3665.469080,-7846.182985,-4737.318029,-3447.429741
3665.469410,-7624.121203,-3775.050304,-3524.039291
3665.469739,-9844.739029,-2442.679609,-2374.896044
3665.470069,-11769.274478,-2368.659014,76.609550
3665.470399,-11769.274478,-2590.720797,306.438199
3665.470729,-11917.315666,-3404.947333,-995.924147
3665.471059,-11399.171507,-4071.132681,-2374.896044
3665.471388,-9992.780217,-4441.235652,-995.924147
3665.471718,-8882.471304,-3849.070898,0.000000
3665.472048,-8142.265362,-2960.823768,995.924147
3665.472378,-7254.018232,-2072.576638,1455.581446
3665.472708,-8882.471304,-1406.391290,1072.533697
3665.473038,-11695.253884,-74.020594,842.705048
3665.473367,-11843.295072,-74.020594,1072.533697
3665.473697,-11547.212695,-888.247130,1149.143247
3665.474027,-10955.047942,-370.102971,995.924147
3665.474357,-11621.233289,-444.123565,1762.019645
3665.474687,-10955.047942,-370.102971,1302.362347
3665.475017,-9770.718434,-444.123565,229.828649
3665.475346,-9030.512492,-370.102971,-153.219100
3665.475676,-8734.430116,296.082377,1302.362347
3665.476006,-10140.821405,1258.350101,3064.381992
3665.476336,-10584.944971,1554.432478,3064.381992
3665.476666,-9548.656652,2294.638420,995.924147
3665.476995,-8660.409521,2072.576638,-459.657299
3665.477325,-9696.697840,2368.659014,-919.314598
3665.477655,-10510.924376,2294.638420,1225.752797
3665.477985,-10807.006753,2368.659014,3677.258390
3665.478315,-9622.677246,2368.659014,2298.286494
3665.478645,-9992.780217,2516.700203,-1149.143247
3665.478974,-10362.883188,2146.597232,-3370.820191
3665.479304,-10066.800811,1850.514855,-2987.772442
3665.479634,-9474.636058,2294.638420,-689.485948
3665.479964,-7476.080014,2590.720797,1225.752797
3665.480294,-7772.162391,3552.988522,1225.752797
3665.480624,-7846.182985,3627.009116,-612.876398
3665.480953,-8808.450710,3701.029710,-1762.019645
3665.481283,-9992.780217,3478.967927,-2451.505594
3665.481613,-11177.109724,3849.070898,-1149.143247
3665.481943,-11991.336260,3775.050304,842.705048
3665.482273,-10584.944971,2886.803174,1225.752797
3665.482603,-10140.821405,3256.906145,-536.266849
3665.482932,-9400.615463,2590.720797,-3217.601092
3665.483262,-9548.656652,2368.659014,-4673.182538
3665.483592,-9400.615463,2220.617826,-2451.505594
3665.483922,-9104.533087,2368.659014,1072.533697
3665.484252,-9400.615463,3330.926739,2987.772442
3665.484581,-9770.718434,2960.823768,1149.143247
3665.484911,-9918.759623,2368.659014,-1915.238745
3665.485241,-10140.821405,1628.453072,-3370.820191
3665.485571,-11029.068536,1184.329507,-2374.896044
3665.485901,-10510.924376,592.164754,1225.752797
3665.486231,-10214.842000,74.020594,3140.991542
3665.486560,-8808.450710,0.000000,2681.334243
3665.486890,-9400.615463,-222.061783,459.657299
3665.487220,-10066.800811,-592.164754,-1762.019645
3665.487550,-10066.800811,-1406.391290,-1072.533697
3665.487880,-9548.656652,-592.164754,2298.286494
3665.488210,-8660.409521,-888.247130,4826.401637
3665.488539,-9178.553681,-666.185348,4443.353888
3665.488869,-9252.574275,-740.205942,919.314598
3665.489199,-9326.594869,-962.267725,-2374.896044
3665.489529,-9770.718434,-1702.473667,-3600.648841
3665.489859,-10140.821405,-2368.659014,-536.266849
3665.490189,-10436.903782,-1924.535449,3600.648841
3665.490518,-10288.862594,-2368.659014,5132.839837
3665.490848,-9770.718434,-2146.597232,2298.286494
3665.491178,-9326.594869,-2664.741391,-1685.410096
3665.491508,-10066.800811,-2886.803174,-2987.772442
3665.491838,-9992.780217,-2442.679609,-306.438199
3665.492167,-9770.718434,-1554.432478,3983.696590
3665.492497,-9252.574275,-1924.535449,4443.353888
3665.492827,-9474.636058,-1776.494261,1915.238745
3665.493157,-10066.800811,-2220.617826,-1378.971896
3665.493487,-11177.109724,-2294.638420,-1838.629195
3665.493817,-11473.192101,-2368.659014,0.000000
3665.494146,-10436.903782,-2146.597232,3677.258390
3665.494476,-9770.718434,-1554.432478,5056.230287
3665.494806,-10214.842000,-1184.329507,2987.772442
3665.495136,-10436.903782,-1406.391290,-1532.190996
3665.495466,-10955.047942,-1406.391290,-4213.525239
3665.495796,-10881.027347,-1776.494261,-2374.896044
3665.496125,-10066.800811,-1036.288319,2068.457845
3665.496455,-9474.636058,-888.247130,4136.915689
3665.496785,-8882.471304,-740.205942,2451.505594
3665.497115,-8290.306550,-518.144159,-1608.800546
3665.497445,-9992.780217,-592.164754,-3677.258390
3665.497774,-11621.233289,-740.205942,-2298.286494
3665.498104,-10658.965565,-296.082377,2528.115143
3665.498434,-9622.677246,148.041188,5439.278036
3665.498764,-9252.574275,74.020594,3294.210641
3665.499094,-9548.656652,444.123565,-383.047749
3665.499424,-9696.697840,0.000000,-4979.620737
3665.499753,-9326.594869,0.000000,-4596.572988
3665.500083,-8808.450710,518.144159,-1072.533697
3665.500413,-8438.347739,888.247130,2298.286494
3665.500743,-8586.388927,1110.308913,2145.067394
3665.501073,-8290.306550,888.247130,-995.924147
3665.501403,-9252.574275,814.226536,-4673.182538
3665.501732,-10066.800811,222.061783,-4060.306139
3665.502062,-9696.697840,1110.308913,76.609550
3665.502392,-9104.533087,1628.453072,3907.087040
3665.502722,-9400.615463,1702.473667,3830.477490
3665.503052,-9770.718434,1776.494261,459.657299
3665.503382,-10288.862594,1406.391290,-3064.381992
3665.503711,-10510.924376,888.247130,-5209.449386
3665.504041,-10066.800811,1110.308913,-1225.752797
3665.504371,-9400.615463,1924.535449,2528.115143
3665.504701,-8734.430116,1998.556043,2451.505594
3665.505031,-8734.430116,1924.535449,-995.924147
3665.505360,-9622.677246,1850.514855,-4596.572988
3665.505690,-11251.130318,1406.391290,-4903.011187
3665.506020,-10955.047942,1184.329507,-1608.800546
3665.506350,-9696.697840,1480.411884,2757.943793
3665.506680,-9252.574275,1628.453072,4519.963438
3665.507010,-9770.718434,1924.535449,1991.848295
3665.507339,-10288.862594,962.267725,-2145.067394
3665.507669,-11029.068536,666.185348,-3370.820191
3665.507999,-10584.944971,296.082377,-689.485948
3665.508329,-9770.718434,592.164754,3753.867940
3665.508659,-9030.512492,518.144159,4826.401637
3665.508989,-7920.203579,148.041188,2374.896044
3665.509318,-8290.306550,296.082377,-1455.581446
3665.509648,-9696.697840,222.061783,-3294.210641
3665.509978,-10214.842000,444.123565,-1455.581446
3665.510308,-9770.718434,592.164754,2911.162892
3665.510638,-10214.842000,1258.350101,5822.325785
3665.510967,-10807.006753,1258.350101,3753.867940
3665.511297,-10881.027347,592.164754,-536.266849
3665.511627,-11177.109724,0.000000,-3830.477490
3665.511957,-10436.903782,-370.102971,-1225.752797
3665.512287,-10140.821405,74.020594,3370.820191
3665.512617,-9326.594869,296.082377,5515.887586
3665.512946,-7994.224174,-222.061783,3677.258390
3665.513276,-8142.265362,148.041188,459.657299
3665.513606,-10214.842000,0.000000,-2068.457845
3665.513936,-11399.171507,-666.185348,-612.876398
3665.514266,-10140.821405,-370.102971,3217.601092
3665.514596,-9252.574275,0.000000,6052.154434
3665.514925,-9622.677246,-148.041188,4749.792088
3665.515255,-10955.047942,0.000000,689.485948
3665.515585,-11473.192101,-962.267725,-3447.429741
3665.515915,-11103.089130,-1110.308913,-2987.772442
3665.516245,-9992.780217,-962.267725,1225.752797
3665.516575,-9326.594869,-296.082377,4596.572988
3665.516904,-8660.409521,-148.041188,4136.915689
3665.517234,-8142.265362,0.000000,536.266849
3665.517564,-9696.697840,0.000000,-2757.943793
3665.517894,-10881.027347,-222.061783,-3370.820191
3665.518224,-10732.986159,-370.102971,-229.828649
3665.518553,-9844.739029,0.000000,3907.087040
3665.518883,-9844.739029,-74.020594,4366.744339
3665.519213,-9844.739029,-296.082377,153.219100
3665.519543,-9918.759623,-1258.350101,-4366.744339
3665.519873,-10288.862594,-1406.391290,-4903.011187
3665.520203,-9918.759623,-888.247130,-842.705048
3665.520532,-9030.512492,0.000000,2987.772442
3665.520862,-7920.203579,-518.144159,2987.772442
3665.521192,-8068.244768,-222.061783,-612.876398
3665.521522,-9178.553681,-296.082377,-3907.087040
3665.521852,-9844.739029,-962.267725,-4903.011187
3665.522182,-9622.677246,-814.226536,-2528.115143
3665.522511,-9326.594869,-518.144159,1608.800546
3665.522841,-9252.574275,-370.102971,3524.039291
3665.523171,-10214.842000,0.000000,1991.848295
3665.523501,-10807.006753,-592.164754,-3140.991542
3665.523831,-10807.006753,-1406.391290,-5822.325785
3665.524161,-10288.862594,-1332.370696,-3140.991542
3665.524490,-9400.615463,-740.205942,1915.238745
3665.524820,-8956.491898,-148.041188,3370.820191
3665.525150,-8364.327145,0.000000,612.876398
3665.525480,-8734.430116,0.000000,-3447.429741
3665.525810,-10584.944971,-222.061783,-5056.230287
3665.526139,-10658.965565,-222.061783,-3140.991542
3665.526469,-10362.883188,-518.144159,1685.410096
3665.526799,-9770.718434,-222.061783,4366.744339
3665.527129,-9622.677246,-444.123565,2451.505594
3665.527459,-9548.656652,-888.247130,-1991.848295
3665.527789,-10214.842000,-1258.350101,-4519.963438
3665.528118,-10436.903782,-1480.411884,-2068.457845
3665.528448,-9770.718434,148.041188,3294.210641
3665.528778,-9400.615463,0.000000,4903.011187
3665.529108,-8438.347739,0.000000,2068.457845
3665.529438,-8216.285956,-222.061783,-1072.533697
3665.529768,-9992.780217,148.041188,-2834.553343
3665.530097,-10732.986159,-370.102971,-1762.019645
3665.530427,-9400.615463,-296.082377,2221.676944
3665.530757,-9326.594869,370.102971,5209.449386
3665.531087,-9696.697840,370.102971,4213.525239
3665.531417,-10732.986159,518.144159,153.219100
3665.531746,-10436.903782,-74.020594,-3600.648841
3665.532076,-10066.800811,-148.041188,-2451.505594
3665.532406,-9548.656652,370.102971,2374.896044
3665.532736,-8882.471304,1110.308913,5362.668486
3665.533066,-8734.430116,1110.308913,4290.134789
3665.533396,-8364.327145,1258.350101,229.828649
3665.533725,-10066.800811,962.267725,-2834.553343
3665.534055,-10955.047942,444.123565,-1915.238745
3665.534385,-10140.821405,888.247130,2221.676944
3665.534715,-9252.574275,1184.329507,5745.716235
3665.535045,-9770.718434,1332.370696,5132.839837
3665.535375,-10214.842000,1332.370696,1225.752797
3665.535704,-10510.924376,740.205942,-2681.334243
3665.536034,-10362.883188,148.041188,-2911.162892
3665.536364,-9992.780217,1110.308913,1072.533697
3665.536694,-9696.697840,1702.473667,4979.620737
3665.537024,-9104.533087,1924.535449,4519.963438
3665.537354,-8364.327145,1332.370696,229.828649
3665.537683,-9992.780217,1332.370696,-3447.429741
3665.538013,-10807.006753,962.267725,-3140.991542
3665.538343,-10214.842000,592.164754,-459.657299
3665.538673,-9104.533087,1036.288319,3447.429741
3665.539003,-8882.471304,1184.329507,4826.401637
3665.539332,-10362.883188,962.267725,1608.800546
3665.539662,-10214.842000,518.144159,-2911.162892
3665.539992,-10288.862594,0.000000,-4903.011187
3665.540322,-9918.759623,0.000000,-1762.019645
3665.540652,-9474.636058,740.205942,3600.648841
3665.540982,-9178.553681,814.226536,3907.087040
3665.541311,-8438.347739,370.102971,229.828649
3665.541641,-8808.450710,592.164754,-4673.182538
3665.541971,-10436.903782,74.020594,-4443.353888
3665.542301,-10732.986159,0.000000,-2145.067394
3665.542631,-9918.759623,0.000000,1838.629195
3665.542961,-9326.594869,444.123565,3600.648841
3665.543290,-9400.615463,0.000000,1455.581446
3665.543620,-10066.800811,-370.102971,-2987.772442
3665.543950,-10510.924376,-888.247130,-4979.620737
3665.544280,-10807.006753,-740.205942,-2911.162892
3665.544610,-9548.656652,-370.102971,1915.238745
3665.544940,-9252.574275,0.000000,3677.258390
3665.545269,-8808.450710,-444.123565,1225.752797
3665.545599,-9178.553681,-888.247130,-2834.553343
3665.545929,-10510.924376,-888.247130,-4443.353888
3665.546259,-11177.109724,-1258.350101,-2298.286494
3665.546589,-9992.780217,-1184.329507,1378.971896
3665.546918,-9474.636058,-740.205942,4136.915689
3665.547248,-9696.697840,-444.123565,2834.553343
3665.547578,-10510.924376,-666.185348,-842.705048
3665.547908,-10288.862594,-1480.411884,-3830.477490
3665.548238,-10658.965565,-1554.432478,-2451.505594
3665.548568,-10066.800811,-1184.329507,1838.629195
3665.548897,-9252.574275,-296.082377,4826.401637
3665.549227,-8660.409521,-666.185348,2681.334243
3665.549557,-8586.388927,-1036.288319,-1302.362347
3665.549887,-9548.656652,-1110.308913,-3524.039291
3665.550217,-10807.006753,-962.267725,-2757.943793
3665.550547,-9696.697840,-962.267725,766.095498
3665.550876,-8808.450710,-444.123565,4673.182538
3665.551206,-9326.594869,-74.020594,4749.792088
3665.551536,-9918.759623,0.000000,1455.581446
3665.551866,-10214.842000,-888.247130,-2451.505594
3665.552196,-10140.821405,-1184.329507,-2528.115143
3665.552525,-9918.759623,-666.185348,1225.752797
3665.552855,-8882.471304,-370.102971,4903.011187
3665.553185,-8882.471304,74.020594,4826.401637
3665.553515,-8660.409521,296.082377,842.705048
3665.553845,-9548.656652,74.020594,-2528.115143
3665.554175,-10807.006753,0.000000,-2451.505594
3665.554504,-10362.883188,0.000000,612.876398
3665.554834,-9400.615463,518.144159,3753.867940
3665.555164,-9326.594869,518.144159,4749.792088
3665.555494,-9474.636058,666.185348,1608.800546
3665.555824,-9844.739029,296.082377,-2374.896044
3665.556154,-10881.027347,444.123565,-3983.696590
3665.556483,-11029.068536,740.205942,-76.609550
3665.556813,-10584.944971,1332.370696,4290.134789
3665.557143,-9548.656652,888.247130,4213.525239
3665.557473,-9252.574275,962.267725,842.705048
3665.557803,-9622.677246,888.247130,-3140.991542
3665.558133,-10214.842000,666.185348,-3677.258390
3665.558462,-10436.903782,370.102971,-1685.410096
3665.558792,-9252.574275,592.164754,2528.115143
3665.559122,-9696.697840,1628.453072,3753.867940
3665.559452,-9918.759623,1332.370696,1915.238745
3665.559782,-9918.759623,592.164754,-2221.676944
3665.560111,-10362.883188,74.020594,-4290.134789
3665.560441,-10362.883188,444.123565,-1685.410096
3665.560771,-9770.718434,1036.288319,2528.115143
3665.561101,-8808.450710,1036.288319,3370.820191
3665.561431,-8586.388927,814.226536,995.924147
3665.561761,-9252.574275,814.226536,-2834.553343
3665.562090,-10807.006753,666.185348,-4290.134789
3665.562420,-10881.027347,222.061783,-2911.162892
3665.562750,-9622.677246,592.164754,766.095498
3665.563080,-8734.430116,740.205942,3294.210641
3665.563410,-9104.533087,814.226536,1608.800546
3665.563740,-9474.636058,814.226536,-1685.410096
3665.564069,-9770.718434,0.000000,-4366.744339
3665.564399,-10881.027347,148.041188,-2911.162892
3665.564729,-10214.842000,814.226536,1838.629195
3665.565059,-10066.800811,740.205942,3830.477490
3665.565389,-9548.656652,518.144159,2528.115143
3665.565719,-9326.594869,296.082377,-842.705048
3665.566048,-10436.903782,0.000000,-3140.991542
3665.566378,-10658.965565,-222.061783,-3140.991542
3665.566708,-9622.677246,0.000000,229.828649
3665.567038,-8734.430116,222.061783,2987.772442
3665.567368,-9178.553681,518.144159,3064.381992
3665.567697,-9770.718434,518.144159,0.000000
3665.568027,-10584.944971,148.041188,-3140.991542
3665.568357,-10807.006753,-370.102971,-2987.772442
3665.568687,-10436.903782,-296.082377,459.657299
3665.569017,-9178.553681,0.000000,4136.915689
3665.569347,-9030.512492,-296.082377,3907.087040
3665.569676,-8734.430116,-444.123565,919.314598
3665.570006,-9622.677246,0.000000,-1838.629195
3665.570336,-10584.944971,-444.123565,-2374.896044
3665.570666,-9770.718434,-592.164754,-766.095498
3665.570996,-8882.471304,-370.102971,2451.505594
3665.571326,-9178.553681,222.061783,3753.867940
3665.571655,-9400.615463,-444.123565,1225.752797
3665.571985,-9326.594869,-666.185348,-1915.238745
3665.572315,-9622.677246,-1036.288319,-2911.162892
3665.572645,-10066.800811,-1110.308913,459.657299
3665.572975,-9918.759623,-370.102971,4060.306139
3665.573305,-9326.594869,-666.185348,4136.915689
3665.573635,-8660.409521,-444.123565,1915.238745
3665.573965,-9474.636058,-518.144159,-1072.533697
3665.574295,-11251.130318,-148.041188,-2298.286494
3665.574625,-11029.068536,-592.164754,-612.876398
3665.574955,-9844.739029,-222.061783,2221.676944
3665.575285,-9548.656652,0.000000,4136.915689
3665.575615,-9992.780217,222.061783,2068.457845
3665.575946,-9844.739029,-296.082377,-1532.190996
3665.576276,-10510.924376,-592.164754,-3064.381992
3665.576606,-10214.842000,-666.185348,-919.314598
3665.576936,-10510.924376,148.041188,2911.162892
3665.577266,-10140.821405,222.061783,4519.963438
3665.577596,-9548.656652,0.000000,2221.676944
3665.577926,-9918.759623,0.000000,-689.485948
3665.578256,-10510.924376,-296.082377,-2374.896044
3665.578586,-10732.986159,-444.123565,-1838.629195
3665.578916,-9622.677246,-518.144159,1455.581446
3665.579246,-9252.574275,74.020594,2681.334243
3665.579576,-9400.615463,74.020594,2068.457845
3665.579906,-9474.636058,296.082377,-1225.752797
3665.580236,-9474.636058,-148.041188,-3983.696590
3665.580566,-9696.697840,-370.102971,-2911.162892
3665.580896,-9474.636058,148.041188,229.828649
3665.581226,-9400.615463,444.123565,2681.334243
3665.581556,-9474.636058,370.102971,1762.019645
3665.581886,-9696.697840,814.226536,-995.924147
3665.582216,-10658.965565,518.144159,-3140.991542
3665.582546,-11029.068536,0.000000,-3447.429741
3665.582876,-9696.697840,0.000000,-919.314598
3665.583206,-8216.285956,592.164754,1072.533697
3665.583536,-8734.430116,740.205942,2068.457845
3665.583866,-8808.450710,666.185348,-995.924147
3665.584196,-9548.656652,148.041188,-4060.306139
3665.584526,-10288.862594,296.082377,-4136.915689
3665.584856,-10140.821405,518.144159,-459.657299
3665.585186,-9696.697840,518.144159,3140.991542
3665.585516,-9474.636058,296.082377,3370.820191
3665.585846,-9178.553681,296.082377,919.314598
3665.586176,-9622.677246,296.082377,-1762.019645
3665.586506,-10732.986159,0.000000,-2834.553343
3665.586836,-10140.821405,-148.041188,-459.657299
3665.587166,-10214.842000,222.061783,2681.334243
3665.587496,-9696.697840,814.226536,3370.820191
3665.587826,-9548.656652,222.061783,612.876398
3665.588156,-8956.491898,0.000000,-2834.553343
3665.588486,-9326.594869,-222.061783,-3830.477490
3665.588816,-9696.697840,74.020594,-536.266849
3665.589146,-9400.615463,222.061783,2911.162892
3665.589476,-9104.533087,518.144159,4060.306139
3665.589806,-9030.512492,296.082377,2528.115143
3665.590136,-10362.883188,444.123565,-459.657299
3665.590466,-11473.192101,-222.061783,-1685.410096
3665.590796,-11325.150913,-148.041188,-689.485948
3665.591126,-9992.780217,0.000000,2374.896044
3665.591456,-9178.553681,74.020594,3907.087040
3665.591786,-8660.409521,0.000000,3140.991542
3665.592116,-8956.491898,0.000000,-612.876398
3665.592446,-9326.594869,-296.082377,-3217.601092
3665.592776,-9992.780217,-370.102971,-1762.019645
3665.593106,-9400.615463,0.000000,2068.457845
3665.593436,-9252.574275,74.020594,4749.792088
3665.593766,-9178.553681,222.061783,3677.258390
3665.594096,-9548.656652,148.041188,153.219100
3665.594426,-11177.109724,444.123565,-2374.896044
3665.594756,-11399.171507,-444.123565,-1378.971896
3665.595086,-10807.006753,0.000000,2298.286494
3665.595416,-10362.883188,74.020594,4903.011187
3665.595746,-9918.759623,0.000000,4290.134789
3665.596076,-9548.656652,0.000000,0.000000
3665.596406,-9696.697840,-74.020594,-3370.820191
3665.596736,-9696.697840,-444.123565,-2911.162892
3665.597066,-9474.636058,296.082377,1302.362347
3665.597396,-9548.656652,666.185348,4596.572988
3665.597726,-9326.594869,1554.432478,3370.820191
3665.598056,-10362.883188,1110.308913,-306.438199
3665.598386,-11695.253884,814.226536,-3370.820191
3665.598716,-11473.192101,-370.102971,-3370.820191
3665.599046,-10807.006753,-296.082377,0.000000
3665.599376,-9326.594869,0.000000,3677.258390
3665.599706,-9104.533087,74.020594,4290.134789
3665.600036,-8660.409521,0.000000,919.314598
3665.600366,-8734.430116,-296.082377,-4060.306139
3665.600696,-9474.636058,0.000000,-4979.620737
3665.601026,-9770.718434,370.102971,-1302.362347
3665.601356,-9178.553681,740.205942,2681.334243
3665.601686,-8808.450710,666.185348,3370.820191
3665.602016,-9030.512492,814.226536,-536.266849
3665.602346,-10140.821405,148.041188,-3753.867940
3665.602676,-11103.089130,-222.061783,-4903.011187
3665.603006,-10732.986159,-518.144159,-2528.115143
3665.603336,-9696.697840,0.000000,1685.410096
3665.603666,-9104.533087,-148.041188,3217.601092
3665.603996,-8438.347739,-296.082377,689.485948
3665.604326,-9030.512492,-74.020594,-2987.772442
3665.604656,-9622.677246,-518.144159,-4673.182538
3665.604986,-10214.842000,-74.020594,-2068.457845
3665.605316,-9178.553681,518.144159,2298.286494
3665.605647,-9474.636058,592.164754,4136.915689
3665.605977,-10140.821405,444.123565,1762.019645
3665.606307,-10658.965565,0.000000,-1838.629195
3665.606637,-11621.233289,-444.123565,-3830.477490
3665.606967,-11251.130318,-1184.329507,-2451.505594
3665.607297,-10214.842000,-666.185348,1915.238745
3665.607627,-8956.491898,-592.164754,4443.353888
3665.607957,-8512.368333,-222.061783,2681.334243
3665.608287,-8660.409521,-296.082377,-1225.752797
3665.608617,-9918.759623,-518.144159,-3983.696590
3665.608947,-10510.924376,-592.164754,-1838.629195
3665.609277,-10140.821405,222.061783,2681.334243
3665.609607,-9548.656652,74.020594,5132.839837
3665.609937,-8808.450710,0.000000,3907.087040
3665.610267,-9030.512492,0.000000,-153.219100
3665.610597,-9992.780217,-666.185348,-3370.820191
3665.610927,-11621.233289,-666.185348,-2757.943793
3665.611257,-10881.027347,-222.061783,1455.581446
3665.611587,-9474.636058,0.000000,4443.353888
3665.611917,-8956.491898,-74.020594,4060.306139
3665.612247,-8290.306550,-148.041188,-383.047749
3665.612577,-8660.409521,-666.185348,-3447.429741
3665.612907,-9400.615463,-592.164754,-2681.334243
3665.613237,-9474.636058,148.041188,1838.629195
3665.613567,-9622.677246,592.164754,5362.668486
3665.613897,-9622.677246,740.205942,4060.306139
3665.614227,-9696.697840,518.144159,459.657299
3665.614557,-10881.027347,74.020594,-2528.115143
3665.614887,-11769.274478,-222.061783,-2221.676944
3665.615217,-11251.130318,148.041188,1302.362347
3665.615547,-9548.656652,370.102971,5056.230287
3665.615877,-9252.574275,1036.288319,4673.182538
3665.616207,-9326.594869,888.247130,1302.362347
3665.616537,-9844.739029,444.123565,-2987.772442
3665.616867,-10658.965565,148.041188,-3370.820191
3665.617197,-9622.677246,148.041188,459.657299
3665.617527,-9400.615463,962.267725,4596.572988
3665.617857,-9474.636058,962.267725,5286.058936
3665.618187,-9622.677246,814.226536,1532.190996
3665.618517,-10658.965565,592.164754,-2298.286494
3665.618847,-11621.233289,74.020594,-3370.820191
3665.619177,-10807.006753,370.102971,-919.314598
3665.619507,-9844.739029,740.205942,2834.553343
3665.619837,-9252.574275,592.164754,4213.525239
3665.620167,-8660.409521,592.164754,1225.752797
3665.620497,-8956.491898,444.123565,-3677.258390
3665.620827,-9622.677246,74.020594,-5286.058936
3665.621157,-9622.677246,148.041188,-2451.505594
3665.621487,-9252.574275,888.247130,2604.724693
3665.621817,-8734.430116,1110.308913,4213.525239
3665.622147,-8734.430116,740.205942,1072.533697
3665.622477,-9696.697840,592.164754,-2681.334243
3665.622807,-11325.150913,296.082377,-4060.306139
3665.623137,-11473.192101,0.000000,-1455.581446
3665.623467,-10510.924376,296.082377,2145.067394
3665.623797,-9474.636058,222.061783,3447.429741
3665.624127,-9030.512492,0.000000,1225.752797
3665.624457,-9252.574275,0.000000,-2911.162892
3665.624787,-9770.718434,-74.020594,-5209.449386
3665.625117,-9178.553681,-444.123565,-3294.210641
3665.625447,-9030.512492,518.144159,995.924147
3665.625777,-8882.471304,814.226536,4060.306139
3665.626107,-9326.594869,592.164754,2451.505594
3665.626437,-9474.636058,74.020594,-1455.581446
3665.626767,-10807.006753,-518.144159,-3677.258390
3665.627097,-11473.192101,-888.247130,-1991.848295
3665.627427,-10881.027347,-962.267725,2145.067394
3665.627757,-9770.718434,-666.185348,4519.963438
3665.628087,-9104.533087,-518.144159,2681.334243
3665.628417,-8808.450710,-666.185348,-2145.067394
3665.628747,-9104.533087,-888.247130,-4596.572988
3665.629077,-9696.697840,-962.267725,-3753.867940
3665.629407,-9178.553681,-296.082377,1225.752797
3665.629737,-8882.471304,0.000000,4060.306139
3665.630067,-9104.533087,74.020594,2987.772442
3665.630397,-9400.615463,-222.061783,0.000000
3665.630727,-10436.903782,-888.247130,-2374.896044
3665.631057,-11547.212695,-1036.288319,-2068.457845
3665.631387,-10584.944971,-1184.329507,1838.629195
3665.631717,-9696.697840,-518.144159,5362.668486
3665.632047,-9622.677246,-148.041188,4443.353888
3665.632377,-9770.718434,0.000000,536.266849
3665.632707,-9992.780217,-666.185348,-3370.820191
3665.633037,-10362.883188,-592.164754,-4136.915689
3665.633367,-9474.636058,-518.144159,-76.609550
3665.633697,-8956.491898,-148.041188,4060.306139
3665.634027,-8660.409521,296.082377,4749.792088
3665.634357,-9030.512492,74.020594,1915.238745
3665.634687,-10140.821405,222.061783,-1608.800546
3665.635017,-11843.295072,-444.123565,-1915.238745
3665.635347,-12065.356855,0.000000,1532.190996
3665.635678,-10955.047942,370.102971,4903.011187
3665.636008,-10140.821405,370.102971,4903.011187
3665.636338,-9696.697840,148.041188,1532.190996
3665.636668,-9696.697840,0.000000,-2451.505594
3665.636998,-9770.718434,-370.102971,-3753.867940
3665.637328,-9252.574275,-222.061783,-766.095498
3665.637658,-8438.347739,444.123565,3524.039291
3665.637988,-8290.306550,740.205942,4596.572988
3665.638318,-8586.388927,518.144159,2068.457845
3665.638648,-9622.677246,518.144159,-1378.971896
3665.638978,-11251.130318,296.082377,-2451.505594
3665.639308,-11473.192101,222.061783,-612.876398
3665.639638,-10584.944971,666.185348,3294.210641
3665.639968,-9918.759623,962.267725,4903.011187
3665.640298,-9622.677246,814.226536,1838.629195
3665.640628,-9844.739029,1110.308913,-3524.039291
3665.640958,-9474.636058,74.020594,-5745.716235
3665.641288,-9178.553681,148.041188,-3677.258390
3665.641618,-8290.306550,962.267725,1149.143247
3665.641948,-8512.368333,1480.411884,3524.039291
3665.642278,-8512.368333,1554.432478,1225.752797
3665.642608,-9104.533087,1480.411884,-2987.772442
3665.642938,-11103.089130,1184.329507,-4979.620737
3665.643268,-11843.295072,518.144159,-3370.820191
3665.643598,-10955.047942,444.123565,1455.581446
3665.643928,-10140.821405,296.082377,4136.915689
3665.644258,-9622.677246,222.061783,2681.334243
3665.644588,-9548.656652,148.041188,-1378.971896
3665.644918,-9400.615463,-444.123565,-5209.449386
3665.645248,-9548.656652,-370.102971,-3600.648841
3665.645578,-8660.409521,148.041188,1072.533697
3665.645908,-8438.347739,666.185348,4290.134789
3665.646238,-8882.471304,1406.391290,2987.772442
3665.646568,-9474.636058,740.205942,-1072.533697
3665.646898,-10807.006753,296.082377,-3524.039291
3665.647228,-11399.171507,-370.102971,-2987.772442
3665.647558,-11103.089130,-370.102971,689.485948
3665.647888,-9918.759623,-296.082377,4443.353888
3665.648218,-9622.677246,-444.123565,4213.525239
3665.648548,-9622.677246,-592.164754,153.219100
3665.648878,-9400.615463,-1036.288319,-4213.525239
3665.649208,-9622.677246,-1406.391290,-3983.696590
3665.649538,-8512.368333,-518.144159,0.000000
3665.649868,-8586.388927,0.000000,4519.963438
3665.650198,-8660.409521,296.082377,3907.087040
3665.650528,-8290.306550,0.000000,-229.828649
3665.650858,-9622.677246,-370.102971,-2834.553343
3665.651188,-11473.192101,-740.205942,-2451.505594
3665.651518,-11843.295072,-814.226536,919.314598
3665.651848,-10807.006753,-740.205942,4366.744339
3665.652178,-10214.842000,-148.041188,4826.401637
3665.652508,-9770.718434,-370.102971,1149.143247
3665.652838,-9844.739029,-666.185348,-2834.553343
3665.653168,-9992.780217,-888.247130,-4673.182538
3665.653498,-8882.471304,-814.226536,-1991.848295
3665.653828,-8660.409521,-74.020594,3064.381992
3665.654158,-8734.430116,148.041188,4366.744339
3665.654488,-9030.512492,-222.061783,2068.457845
3665.654818,-9548.656652,0.000000,-1608.800546
3665.655148,-11547.212695,-444.123565,-2145.067394
3665.655478,-11843.295072,-740.205942,306.438199
3665.655808,-11177.109724,0.000000,3907.087040
3665.656138,-10362.883188,296.082377,5362.668486
3665.656468,-10362.883188,74.020594,2757.943793
3665.656798,-10510.924376,370.102971,-1532.190996
3665.657128,-10214.842000,-592.164754,-4060.306139
3665.657458,-9770.718434,-666.185348,-2068.457845
3665.657788,-8216.285956,0.000000,2451.505594
3665.658118,-8068.244768,296.082377,4443.353888
3665.658448,-8068.244768,444.123565,2451.505594
3665.658778,-8882.471304,740.205942,-1378.971896
3665.659108,-10214.842000,518.144159,-3907.087040
3665.659438,-11769.274478,222.061783,-1532.190996
3665.659768,-11399.171507,592.164754,2145.067394
3665.660098,-10362.883188,518.144159,4290.134789
3665.660428,-9992.780217,888.247130,3140.991542
3665.660758,-10066.800811,444.123565,-1302.362347
3665.661088,-9622.677246,0.000000,-4749.792088
3665.661418,-8956.491898,0.000000,-4060.306139
3665.661748,-8216.285956,148.041188,306.438199
3665.662078,-8216.285956,1110.308913,2911.162892
3665.662408,-8364.327145,1036.288319,1532.190996
3665.662738,-8660.409521,888.247130,-1991.848295
3665.663068,-10066.800811,518.144159,-4366.744339
3665.663398,-10881.027347,148.041188,-3907.087040
3665.663728,-10732.986159,222.061783,536.266849
3665.664058,-9992.780217,148.041188,3524.039291
3665.664388,-9844.739029,222.061783,3370.820191
3665.664718,-10214.842000,814.226536,459.657299
3665.665048,-10436.903782,-296.082377,-3907.087040
3665.665379,-9770.718434,-296.082377,-4443.353888
3665.665709,-9178.553681,222.061783,-919.314598
3665.666039,-8660.409521,1110.308913,2987.772442
3665.666369,-8438.347739,962.267725,2681.334243
3665.666699,-8512.368333,814.226536,-612.876398
3665.667029,-9474.636058,444.123565,-3140.991542
3665.667359,-11251.130318,0.000000,-3064.381992
3665.667689,-11473.192101,74.020594,0.000000
3665.668019,-10510.924376,0.000000,3677.258390
3665.668349,-9918.759623,-74.020594,4443.353888
3665.668679,-10288.862594,-222.061783,1991.848295
3665.669009,-10214.842000,-518.144159,-2681.334243
3665.669339,-10066.800811,-888.247130,-3217.601092
3665.669669,-8734.430116,-962.267725,-612.876398
3665.669999,-8364.327145,296.082377,3524.039291
3665.670329,-8364.327145,1184.329507,4213.525239
3665.670659,-8586.388927,592.164754,1225.752797
3665.670989,-9400.615463,148.041188,-2145.067394
3665.671318,-11399.171507,0.000000,-2834.553343
3665.671648,-11843.295072,-370.102971,-459.657299
3665.671978,-10362.883188,-148.041188,2834.553343
3665.672308,-9548.656652,-222.061783,4290.134789
3665.672638,-9104.533087,-444.123565,2145.067394
3665.672968,-9548.656652,-222.061783,-1455.581446
3665.673298,-9548.656652,-370.102971,-4443.353888
3665.673627,-9400.615463,-888.247130,-1838.629195
3665.673957,-9104.533087,0.000000,2451.505594
3665.674287,-8586.388927,444.123565,3907.087040
3665.674617,-8216.285956,0.000000,2451.505594
3665.674947,-9030.512492,0.000000,-536.266849
3665.675277,-10214.842000,-148.041188,-1762.019645
3665.675607,-11695.253884,-296.082377,-229.828649
3665.675936,-11251.130318,-296.082377,2987.772442
3665.676266,-10955.047942,148.041188,5286.058936
3665.676596,-10732.986159,296.082377,3907.087040
3665.676926,-10584.944971,444.123565,-229.828649
3665.677256,-10140.821405,-888.247130,-3983.696590
3665.677586,-9326.594869,-74.020594,-2987.772442
3665.677916,-9474.636058,0.000000,689.485948
3665.678245,-8808.450710,370.102971,3294.210641
3665.678575,-7920.203579,592.164754,2604.724693
3665.678905,-8512.368333,888.247130,0.000000
3665.679235,-10510.924376,592.164754,-2681.334243
3665.679565,-11695.253884,0.000000,-2145.067394
3665.679895,-11399.171507,0.000000,1532.190996
3665.680225,-10066.800811,0.000000,4213.525239
3665.680554,-9992.780217,444.123565,4443.353888
3665.680884,-10436.903782,592.164754,919.314598
3665.681214,-10288.862594,0.000000,-3447.429741
3665.681544,-9770.718434,0.000000,-4749.792088
3665.681874,-8956.491898,0.000000,-1685.410096
3665.682204,-8660.409521,666.185348,1991.848295
3665.682534,-8290.306550,814.226536,2221.676944
3665.682863,-7846.182985,74.020594,-612.876398
3665.683193,-8290.306550,0.000000,-3294.210641
3665.683523,-10436.903782,296.082377,-3983.696590
3665.683853,-10732.986159,296.082377,-1685.410096
3665.684183,-10214.842000,222.061783,2374.896044
3665.684513,-10214.842000,518.144159,4519.963438
3665.684843,-10732.986159,296.082377,1838.629195
3665.685172,-10584.944971,370.102971,-2451.505594
3665.685502,-10362.883188,-370.102971,-4826.401637
3665.685832,-9548.656652,-444.123565,-2221.676944
3665.686162,-9178.553681,148.041188,1838.629195
3665.686492,-8438.347739,296.082377,2834.553343
3665.686822,-8142.265362,444.123565,766.095498
3665.687152,-8660.409521,518.144159,-1838.629195
3665.687481,-10288.862594,370.102971,-3370.820191
3665.687811,-11177.109724,-296.082377,-1685.410096
3665.688141,-10584.944971,0.000000,1991.848295
3665.688471,-10288.862594,0.000000,4826.401637
3665.688801,-10510.924376,444.123565,3447.429741
3665.689131,-10584.944971,0.000000,-229.828649
3665.689461,-10288.862594,-962.267725,-3677.258390
3665.689790,-9696.697840,-1110.308913,-2374.896044
3665.690120,-8882.471304,-222.061783,1762.019645
3665.690450,-8734.430116,370.102971,4060.306139
3665.690780,-8216.285956,370.102971,2451.505594
3665.691110,-8660.409521,296.082377,-995.924147
3665.691440,-9696.697840,0.000000,-3140.991542
3665.691770,-10510.924376,-148.041188,-2911.162892
3665.692099,-10658.965565,0.000000,1149.143247
3665.692429,-9696.697840,-296.082377,4596.572988
3665.692759,-9844.739029,-148.041188,4366.744339
3665.693089,-9992.780217,74.020594,536.266849
3665.693419,-10881.027347,-592.164754,-2604.724693
3665.693749,-10658.965565,-1110.308913,-2911.162892
3665.694079,-9548.656652,-740.205942,766.095498
3665.694408,-8068.244768,296.082377,3140.991542
3665.694738,-7698.141797,-148.041188,3140.991542
3665.695068,-7920.203579,444.123565,842.705048
3665.695398,-9474.636058,370.102971,-2451.505594
3665.695728,-10955.047942,0.000000,-2681.334243
3665.696058,-11177.109724,0.000000,0.000000
3665.696388,-10807.006753,74.020594,3983.696590
3665.696717,-11103.089130,222.061783,5362.668486
3665.697047,-10881.027347,148.041188,2528.115143
3665.697377,-10288.862594,-222.061783,-2221.676944
3665.697707,-9918.759623,-814.226536,-3217.601092
3665.698037,-9696.697840,0.000000,-536.266849
3665.698367,-9178.553681,814.226536,3370.820191
3665.698697,-8660.409521,1184.329507,4060.306139
3665.699026,-8142.265362,740.205942,536.266849
3665.699356,-9400.615463,666.185348,-2221.676944
3665.699686,-11103.089130,222.061783,-2604.724693
3665.700016,-10881.027347,74.020594,-229.828649
3665.700346,-10288.862594,148.041188,3370.820191
3665.700676,-9770.718434,444.123565,4519.963438
3665.701006,-10288.862594,444.123565,2451.505594
3665.701335,-10658.965565,370.102971,-2145.067394
3665.701665,-10658.965565,0.000000,-4366.744339
3665.701995,-9992.780217,-370.102971,-3064.381992
3665.702325,-9104.533087,148.041188,1455.581446
3665.702655,-8364.327145,592.164754,3140.991542
3665.702985,-7550.100608,740.205942,1302.362347
3665.703315,-8142.265362,518.144159,-2757.943793
3665.703644,-9844.739029,74.020594,-4596.572988
3665.703974,-11103.089130,-74.020594,-2374.896044
3665.704304,-10732.986159,0.000000,1455.581446
3665.704634,-10140.821405,296.082377,4136.915689
3665.704964,-9844.739029,0.000000,2757.943793
3665.705294,-10362.883188,-444.123565,-1149.143247
3665.705624,-10288.862594,-814.226536,-4213.525239
3665.705953,-9992.780217,-740.205942,-2911.162892
3665.706283,-9178.553681,0.000000,536.266849
3665.706613,-8364.327145,0.000000,2604.724693
3665.706943,-7846.182985,370.102971,842.705048
3665.707273,-7994.224174,296.082377,-1838.629195
3665.707603,-9992.780217,148.041188,-3524.039291
3665.707933,-11177.109724,0.000000,-2528.115143
3665.708262,-10436.903782,-370.102971,689.485948
3665.708592,-9622.677246,0.000000,3983.696590
3665.708922,-10214.842000,0.000000,4673.182538
3665.709252,-10510.924376,-296.082377,612.876398
3665.709582,-10436.903782,-1036.288319,-2681.334243
3665.709912,-10214.842000,-1332.370696,-2987.772442
3665.710242,-9474.636058,-740.205942,689.485948
3665.710571,-8956.491898,-148.041188,3677.258390
3665.710901,-8216.285956,296.082377,2757.943793
3665.711231,-7476.080014,296.082377,-153.219100
3665.711561,-9104.533087,296.082377,-2911.162892
3665.711891,-10732.986159,0.000000,-3217.601092
3665.712221,-11029.068536,0.000000,0.000000
3665.712551,-10510.924376,0.000000,3753.867940
3665.712880,-10140.821405,74.020594,5209.449386
3665.713210,-9770.718434,-370.102971,1685.410096
3665.713540,-9844.739029,-740.205942,-2298.286494
3665.713870,-9918.759623,-666.185348,-3447.429741
3665.714200,-9474.636058,-148.041188,0.000000
3665.714530,-8808.450710,592.164754,3600.648841
3665.714860,-8808.450710,666.185348,3907.087040
3665.715189,-8660.409521,1036.288319,995.924147
3665.715519,-9696.697840,740.205942,-1991.848295
3665.715849,-10807.006753,296.082377,-2757.943793
3665.716179,-10584.944971,-222.061783,-459.657299
3665.716509,-9844.739029,148.041188,4136.915689
3665.716839,-10066.800811,592.164754,6128.763984
3665.717169,-11251.130318,1184.329507,2987.772442
3665.717498,-11029.068536,296.082377,-1685.410096
3665.717828,-11103.089130,-74.020594,-4060.306139
3665.718158,-10436.903782,-370.102971,-995.924147
3665.718488,-9252.574275,296.082377,4060.306139
3665.718818,-8290.306550,666.185348,4979.620737
3665.719148,-7476.080014,370.102971,2298.286494
3665.719478,-8142.265362,666.185348,-1685.410096
3665.719807,-10658.965565,740.205942,-3600.648841
3665.720137,-11473.192101,296.082377,-1915.238745
3665.720467,-10955.047942,370.102971,2451.505594
3665.720797,-9844.739029,962.267725,5132.839837
3665.721127,-9918.759623,444.123565,2987.772442
3665.721457,-9326.594869,148.041188,-1685.410096
3665.721787,-10066.800811,-444.123565,-5132.839837
3665.722116,-10362.883188,-592.164754,-3370.820191
3665.722446,-9474.636058,296.082377,1072.533697
3665.722776,-8438.347739,888.247130,3370.820191
3665.723106,-7994.224174,814.226536,1685.410096
3665.723436,-8216.285956,740.205942,-2374.896044
3665.723766,-10140.821405,148.041188,-4213.525239
3665.724096,-10955.047942,74.020594,-3447.429741
3665.724425,-10510.924376,222.061783,383.047749
3665.724755,-9992.780217,222.061783,4596.572988
3665.725085,-9696.697840,148.041188,3677.258390
3665.725415,-10066.800811,0.000000,-612.876398
3665.725745,-9770.718434,-296.082377,-5056.230287
3665.726075,-10214.842000,-1110.308913,-4903.011187
3665.726405,-9770.718434,-222.061783,0.000000
3665.726734,-8734.430116,148.041188,3140.991542
3665.727064,-8142.265362,666.185348,3217.601092
3665.727394,-8364.327145,296.082377,-842.705048
3665.727724,-9844.739029,0.000000,-3447.429741
3665.728054,-11621.233289,0.000000,-3370.820191
3665.728384,-10436.903782,-296.082377,76.609550
3665.728714,-10066.800811,74.020594,4366.744339
3665.729043,-10140.821405,0.000000,5056.230287
3665.729373,-10658.965565,0.000000,1762.019645
3665.729703,-10807.006753,-740.205942,-2987.772442
3665.730033,-10732.986159,-962.267725,-3677.258390
3665.730363,-9844.739029,-814.226536,-459.657299
3665.730693,-8956.491898,-222.061783,3447.429741
3665.731023,-7698.141797,-444.123565,3983.696590
3665.731352,-7402.059420,0.000000,689.485948
3665.731682,-9178.553681,74.020594,-2528.115143
3665.732012,-10807.006753,0.000000,-3370.820191
3665.732342,-10658.965565,-444.123565,-842.705048
3665.732672,-10288.862594,0.000000,3753.867940
3665.733002,-10140.821405,0.000000,5592.497135
3665.733332,-10362.883188,0.000000,2757.943793
3665.733661,-9844.739029,-1036.288319,-1915.238745
3665.733991,-9400.615463,-1480.411884,-4519.963438
3665.734321,-9474.636058,-814.226536,-1072.533697
3665.734651,-8956.491898,0.000000,3447.429741
3665.734981,-8438.347739,518.144159,4290.134789
3665.735311,-8216.285956,740.205942,1685.410096
3665.735641,-9178.553681,518.144159,-3064.381992
3665.735970,-11325.150913,74.020594,-3294.210641
3665.736300,-11177.109724,-666.185348,-1762.019645
3665.736630,-9696.697840,-296.082377,2757.943793
3665.736960,-9252.574275,518.144159,6128.763984
3665.737290,-9918.759623,444.123565,4060.306139
3665.737620,-10807.006753,370.102971,-306.438199
3665.737950,-11251.130318,0.000000,-3140.991542
3665.738279,-11473.192101,-370.102971,-1915.238745
3665.738609,-10658.965565,592.164754,2451.505594
3665.738939,-8956.491898,518.144159,4443.353888
3665.739269,-7994.224174,518.144159,2834.553343
3665.739599,-8142.265362,518.144159,-1838.629195
3665.739929,-9992.780217,666.185348,-4060.306139
3665.740259,-11251.130318,296.082377,-3140.991542
3665.740588,-10436.903782,740.205942,1149.143247
3665.740918,-9992.780217,592.164754,4903.011187
3665.741248,-10288.862594,1110.308913,4519.963438
3665.741578,-9844.739029,0.000000,-153.219100
3665.741908,-9918.759623,-444.123565,-4290.134789
3665.742238,-9992.780217,-370.102971,-3677.258390
3665.742568,-9918.759623,444.123565,689.485948
3665.742897,-8882.471304,592.164754,3677.258390
3665.743227,-8142.265362,592.164754,2221.676944
3665.743557,-8512.368333,740.205942,-1915.238745
3665.743887,-10214.842000,222.061783,-4596.572988
3665.744217,-10732.986159,-370.102971,-4519.963438
3665.744547,-9548.656652,0.000000,-919.314598
3665.744877,-8808.450710,370.102971,3294.210641
3665.745206,-9474.636058,814.226536,4136.915689
3665.745536,-10140.821405,740.205942,766.095498
3665.745866,-10510.924376,-222.061783,-3524.039291
3665.746196,-10807.006753,-296.082377,-4519.963438
3665.746526,-10436.903782,-444.123565,-459.657299
3665.746856,-9770.718434,370.102971,3830.477490
3665.747186,-8882.471304,296.082377,3907.087040
3665.747515,-8290.306550,296.082377,536.266849
3665.747845,-9400.615463,296.082377,-3064.381992
3665.748175,-11473.192101,222.061783,-4443.353888
3665.748505,-10881.027347,0.000000,-1302.362347
3665.748835,-9474.636058,370.102971,2681.334243
3665.749165,-9474.636058,370.102971,4749.792088
3665.749495,-10066.800811,0.000000,1915.238745
3665.749824,-9918.759623,0.000000,-2987.772442
3665.750154,-9992.780217,-1110.308913,-4673.182538
3665.750484,-9918.759623,-592.164754,-1225.752797
3665.750814,-9770.718434,148.041188,3753.867940
3665.751144,-9030.512492,370.102971,4749.792088
3665.751474,-8364.327145,0.000000,1532.190996
3665.751804,-9178.553681,370.102971,-1991.848295
3665.752133,-10510.924376,0.000000,-3677.258390
3665.752463,-10658.965565,-296.082377,-1915.238745
3665.752793,-9474.636058,148.041188,2451.505594
3665.753123,-9474.636058,592.164754,5286.058936
3665.753453,-9844.739029,148.041188,3217.601092
3665.753783,-9918.759623,-222.061783,-1685.410096
3665.754113,-10066.800811,-666.185348,-4136.915689
3665.754442,-10436.903782,-666.185348,-1685.410096
3665.754772,-10066.800811,0.000000,3217.601092
3665.755102,-9252.574275,0.000000,5056.230287
3665.755432,-8068.244768,0.000000,3907.087040
3665.755762,-8586.388927,-222.061783,-383.047749
3665.756092,-10732.986159,0.000000,-2374.896044
3665.756422,-11103.089130,-444.123565,-1378.971896
3665.756751,-9770.718434,-370.102971,2221.676944
3665.757081,-9400.615463,0.000000,5209.449386
3665.757411,-9696.697840,222.061783,4136.915689
3665.757741,-9918.759623,74.020594,0.000000
3665.758071,-10510.924376,-296.082377,-3064.381992
3665.758401,-11325.150913,-518.144159,-2451.505594
3665.758731,-10510.924376,148.041188,1608.800546
3665.759060,-9474.636058,148.041188,4136.915689
3665.759390,-8364.327145,74.020594,2757.943793
3665.759720,-8438.347739,296.082377,-229.828649
3665.760050,-10214.842000,222.061783,-3370.820191
3665.760380,-10658.965565,148.041188,-3600.648841
3665.760710,-9844.739029,74.020594,-383.047749
3665.761040,-9548.656652,444.123565,3830.477490
3665.761369,-10066.800811,518.144159,3677.258390
3665.761699,-9992.780217,296.082377,306.438199
3665.762029,-9918.759623,-370.102971,-4060.306139
3665.762359,-10066.800811,-296.082377,-3830.477490
3665.762689,-10288.862594,74.020594,153.219100
3665.763019,-9918.759623,592.164754,3677.258390
3665.763349,-9474.636058,444.123565,2757.943793
3665.763678,-9474.636058,592.164754,-842.705048
3665.764008,-10066.800811,666.185348,-3753.867940
3665.764338,-10658.965565,444.123565,-4979.620737
3665.764668,-9474.636058,0.000000,-2221.676944
3665.764998,-8956.491898,592.164754,2145.067394
3665.765328,-9474.636058,1184.329507,3753.867940
3665.765658,-9918.759623,222.061783,919.314598
3665.765987,-9844.739029,0.000000,-2757.943793
3665.766317,-10658.965565,-888.247130,-3907.087040
3665.766647,-10732.986159,-296.082377,-689.485948
3665.766977,-9548.656652,0.000000,3140.991542
3665.767307,-9030.512492,74.020594,3983.696590
3665.767637,-8956.491898,296.082377,1302.362347
3665.767967,-10066.800811,518.144159,-2145.067394
3665.768296,-10732.986159,148.041188,-3217.601092
3665.768626,-10288.862594,-592.164754,-2221.676944
3665.768956,-8956.491898,-444.123565,1915.238745
3665.769286,-8512.368333,-148.041188,4366.744339
3665.769616,-9030.512492,370.102971,3064.381992
3665.769946,-9326.594869,-74.020594,-1532.190996
3665.770276,-10066.800811,-962.267725,-3907.087040
3665.770605,-10658.965565,-666.185348,-1762.019645
3665.770935,-10436.903782,0.000000,3370.820191
3665.771265,-9474.636058,74.020594,5056.230287
3665.771595,-8364.327145,-148.041188,2987.772442
3665.771925,-8586.388927,0.000000,-612.876398
3665.772255,-10066.800811,-296.082377,-2757.943793
3665.772585,-9918.759623,-370.102971,-2757.943793
3665.772914,-8956.491898,0.000000,689.485948
3665.773244,-9400.615463,370.102971,4366.744339
3665.773574,-9622.677246,370.102971,3524.039291
3665.773904,-9622.677246,148.041188,0.000000
3665.774234,-9474.636058,-296.082377,-3524.039291
3665.774564,-10288.862594,-814.226536,-3064.381992
3665.774894,-10584.944971,0.000000,1455.581446
3665.775224,-9548.656652,148.041188,4596.572988
3665.775554,-9548.656652,296.082377,4136.915689
3665.775884,-9770.718434,444.123565,766.095498
3665.776214,-10955.047942,0.000000,-2221.676944
3665.776544,-11399.171507,-370.102971,-2604.724693
3665.776874,-9844.739029,-296.082377,459.657299
3665.777204,-9252.574275,296.082377,4443.353888
3665.777534,-9622.677246,296.082377,4673.182538
3665.777864,-10066.800811,592.164754,1302.362347
3665.778194,-9844.739029,148.041188,-2451.505594
3665.778524,-11103.089130,0.000000,-3600.648841
3665.778854,-11325.150913,0.000000,229.828649
3665.779184,-9918.759623,296.082377,3677.258390
3665.779514,-8364.327145,666.185348,3907.087040
3665.779844,-8438.347739,518.144159,995.924147
3665.780174,-10362.883188,592.164754,-1991.848295
3665.780504,-11843.295072,0.000000,-2757.943793
3665.780834,-10955.047942,-148.041188,-995.924147
3665.781164,-9326.594869,74.020594,2757.943793
3665.781494,-8956.491898,222.061783,4443.353888
3665.781824,-9104.533087,222.061783,1608.800546
3665.782154,-9030.512492,-74.020594,-2834.553343
3665.782483,-9400.615463,-518.144159,-5209.449386
3665.782813,-9992.780217,-222.061783,-2374.896044
3665.783143,-10140.821405,370.102971,1838.629195
3665.783473,-9622.677246,370.102971,2987.772442
3665.783803,-8364.327145,296.082377,919.314598
3665.784133,-8660.409521,74.020594,-2374.896044
3665.784463,-10066.800811,0.000000,-4366.744339
3665.784793,-9844.739029,-222.061783,-3140.991542
3665.785123,-9252.574275,0.000000,995.924147
3665.785453,-9474.636058,592.164754,4060.306139
3665.785783,-9622.677246,370.102971,2068.457845
3665.786113,-9918.759623,296.082377,-1991.848295
3665.786443,-9918.759623,0.000000,-5209.449386
3665.786773,-10436.903782,-222.061783,-3217.601092
3665.787103,-9770.718434,148.041188,842.705048
3665.787433,-9474.636058,444.123565,3524.039291
3665.787763,-9252.574275,518.144159,2068.457845
3665.788093,-9326.594869,222.061783,-306.438199
3665.788423,-11029.068536,0.000000,-2834.553343
3665.788753,-11177.109724,-666.185348,-2757.943793
3665.789083,-9622.677246,-592.164754,536.266849
3665.789413,-9326.594869,148.041188,4673.182538
3665.789743,-9622.677246,-148.041188,4443.353888
3665.790073,-9844.739029,0.000000,995.924147
3665.790403,-10140.821405,-888.247130,-3140.991542
3665.790733,-10140.821405,-962.267725,-2604.724693
3665.791063,-9770.718434,-370.102971,1225.752797
3665.791393,-8956.491898,-222.061783,4213.525239
3665.791723,-8438.347739,-296.082377,3907.087040
3665.792053,-8882.471304,74.020594,842.705048
3665.792383,-10288.862594,148.041188,-1991.848295
3665.792712,-10658.965565,-518.144159,-3217.601092
3665.793042,-10066.800811,-370.102971,-995.924147
3665.793372,-9326.594869,0.000000,2911.162892
3665.793702,-9252.574275,222.061783,4596.572988
3665.794032,-9104.533087,0.000000,1532.190996
3665.794362,-9696.697840,-518.144159,-2145.067394
3665.794692,-10658.965565,-592.164754,-2834.553343
3665.795022,-10584.944971,148.041188,536.266849
3665.795352,-9474.636058,0.000000,3830.477490
3665.795682,-8882.471304,0.000000,3983.696590
3665.796012,-8956.491898,0.000000,1915.238745
3665.796342,-9918.759623,0.000000,-1072.533697
3665.796672,-11029.068536,-222.061783,-2374.896044
3665.797002,-10362.883188,-74.020594,-306.438199
3665.797332,-10066.800811,518.144159,2604.724693
3665.797662,-10362.883188,888.247130,4213.525239
3665.797992,-9844.739029,1110.308913,1455.581446
3665.798322,-9770.718434,444.123565,-2221.676944
3665.798652,-10140.821405,296.082377,-3677.258390
3665.798982,-10436.903782,148.041188,-1225.752797
3665.799312,-9548.656652,1258.350101,3447.429741
3665.799642,-9252.574275,814.226536,3907.087040
3665.799972,-9400.615463,962.267725,1915.238745
3665.800302,-10066.800811,592.164754,-1685.410096
3665.800632,-11251.130318,370.102971,-2834.553343
3665.800962,-10436.903782,0.000000,-1378.971896
3665.801292,-9844.739029,296.082377,2221.676944
3665.801622,-9696.697840,592.164754,4519.963438
3665.801952,-9178.553681,444.123565,1915.238745
3665.802282,-9104.533087,370.102971,-1608.800546
3665.802612,-9696.697840,-296.082377,-4596.572988
3665.802942,-9918.759623,0.000000,-2987.772442
3665.803271,-9178.553681,518.144159,995.924147
3665.803601,-8882.471304,814.226536,3524.039291
3665.803931,-8586.388927,592.164754,1532.190996
3665.804261,-9548.656652,444.123565,-1302.362347
3665.804591,-10955.047942,370.102971,-3753.867940
3665.804921,-10732.986159,0.000000,-3294.210641
3665.805251,-9548.656652,74.020594,306.438199
3665.805581,-9326.594869,296.082377,3677.258390
3665.805911,-9178.553681,0.000000,3140.991542
3665.806241,-9400.615463,0.000000,-612.876398
3665.806571,-10214.842000,-370.102971,-3753.867940
3665.806901,-10436.903782,-666.185348,-3370.820191
3665.807231,-9696.697840,0.000000,919.314598
3665.807561,-8512.368333,296.082377,3447.429741
3665.807891,-8512.368333,518.144159,3294.210641
3665.808221,-9474.636058,666.185348,-612.876398
3665.808551,-11029.068536,148.041188,-3753.867940
3665.808881,-12065.356855,-296.082377,-3447.429741
3665.809211,-10807.006753,-370.102971,-153.219100
3665.809541,-9992.780217,-296.082377,3294.210641
3665.809871,-9400.615463,-296.082377,4060.306139
3665.810201,-8364.327145,-370.102971,0.000000
3665.810531,-8734.430116,-888.247130,-3907.087040
3665.810861,-9992.780217,-666.185348,-3600.648841
3665.811191,-10436.903782,-222.061783,766.095498
3665.811521,-9918.759623,370.102971,4443.353888
3665.811851,-9474.636058,370.102971,4519.963438
3665.812181,-9326.594869,-222.061783,1455.581446
3665.812511,-10436.903782,-296.082377,-1991.848295
3665.812841,-10584.944971,-1184.329507,-3370.820191
3665.813171,-9548.656652,-962.267725,-919.314598
3665.813500,-9104.533087,-222.061783,2911.162892
3665.813830,-9252.574275,444.123565,4136.915689
3665.814160,-9400.615463,222.061783,1302.362347
3665.814490,-9030.512492,0.000000,-2834.553343
3665.814820,-9770.718434,-444.123565,-4826.401637
3665.815150,-10362.883188,-222.061783,-1225.752797
3665.815480,-9474.636058,-74.020594,3753.867940
3665.815810,-9030.512492,296.082377,5515.887586
3665.816140,-9252.574275,74.020594,3140.991542
3665.816470,-10140.821405,222.061783,-995.924147
3665.816800,-11399.171507,-444.123565,-3064.381992
3665.817130,-10807.006753,-518.144159,-842.705048
3665.817460,-10066.800811,-148.041188,3753.867940
3665.817790,-9770.718434,296.082377,5822.325785
3665.818120,-9622.677246,518.144159,2911.162892
3665.818450,-9696.697840,296.082377,-1838.629195
3665.818780,-10362.883188,-296.082377,-4826.401637
3665.819110,-10436.903782,-370.102971,-2451.505594
3665.819440,-9474.636058,370.102971,2528.115143
3665.819770,-8734.430116,444.123565,5132.839837
3665.820100,-8660.409521,370.102971,3370.820191
3665.820430,-9400.615463,518.144159,-766.095498
3665.820760,-11251.130318,222.061783,-3294.210641
3665.821090,-11399.171507,-148.041188,-2374.896044
3665.821420,-10732.986159,296.082377,1608.800546
3665.821750,-9400.615463,518.144159,4903.011187
3665.822080,-8660.409521,148.041188,4213.525239
3665.822410,-8586.388927,444.123565,-1532.190996
3665.822740,-9474.636058,0.000000,-5439.278036
3665.823070,-10288.862594,0.000000,-4596.572988
3665.823400,-9548.656652,148.041188,459.657299
3665.823730,-9326.594869,1036.288319,3294.210641
3665.824059,-9178.553681,740.205942,2681.334243
3665.824389,-9178.553681,518.144159,-1378.971896
3665.824719,-10288.862594,222.061783,-4673.182538
3665.825049,-11029.068536,-74.020594,-4596.572988
3665.825379,-10288.862594,-296.082377,-459.657299
3665.825709,-9474.636058,296.082377,4136.915689
3665.826039,-9252.574275,592.164754,4519.963438
3665.826369,-9104.533087,148.041188,-153.219100
3665.826699,-9770.718434,0.000000,-4366.744339
3665.827029,-10362.883188,-518.144159,-5209.449386
3665.827359,-10288.862594,-296.082377,-766.095498
3665.827689,-9104.533087,148.041188,4519.963438
3665.828019,-8660.409521,222.061783,4519.963438
3665.828349,-8956.491898,0.000000,919.314598
3665.828679,-10214.842000,0.000000,-3064.381992
3665.829009,-11621.233289,-592.164754,-4213.525239
3665.829339,-10584.944971,-740.205942,-842.705048
3665.829669,-9178.553681,-370.102971,4136.915689
3665.829999,-9030.512492,74.020594,5745.716235
3665.830329,-9474.636058,296.082377,2068.457845
3665.830659,-9696.697840,-370.102971,-3064.381992
3665.830989,-9918.759623,-962.267725,-4903.011187
3665.831319,-10436.903782,-518.144159,-1608.800546
3665.831649,-9770.718434,0.000000,3600.648841
3665.831979,-8882.471304,0.000000,5286.058936
3665.832309,-7920.203579,-370.102971,2068.457845
3665.832639,-8882.471304,0.000000,-2451.505594
3665.832969,-10584.944971,-592.164754,-3907.087040
3665.833299,-10807.006753,-666.185348,-1455.581446
3665.833629,-9844.739029,222.061783,3907.087040
3665.833959,-9252.574275,296.082377,5745.716235
3665.834288,-9474.636058,370.102971,2911.162892
3665.834618,-9400.615463,148.041188,-2068.457845
3665.834948,-9622.677246,-740.205942,-4979.620737
3665.835278,-10510.924376,-370.102971,-2451.505594
3665.835608,-9770.718434,222.061783,2528.115143
3665.835938,-8956.491898,444.123565,5132.839837
3665.836268,-8734.430116,222.061783,3294.210641
3665.836598,-9474.636058,444.123565,-919.314598
3665.836928,-11251.130318,296.082377,-2834.553343
3665.837258,-11325.150913,0.000000,-1685.410096
3665.837588,-10658.965565,296.082377,2068.457845
3665.837918,-10436.903782,740.205942,5822.325785
3665.838248,-10436.903782,740.205942,4366.744339
3665.838578,-9918.759623,296.082377,-612.876398
3665.838908,-9696.697840,-296.082377,-4366.744339
3665.839238,-9770.718434,-296.082377,-3294.210641
3665.839568,-9474.636058,222.061783,1915.238745
3665.839898,-9104.533087,592.164754,4903.011187
3665.840228,-8882.471304,592.164754,3217.601092
3665.840558,-9400.615463,592.164754,0.000000
3665.840888,-11103.089130,370.102971,-3140.991542
3665.841218,-11769.274478,148.041188,-2374.896044
3665.841548,-10510.924376,222.061783,306.438199
3665.841878,-8808.450710,74.020594,3830.477490
3665.842208,-8956.491898,518.144159,3677.258390
3665.842538,-9696.697840,518.144159,-306.438199
3665.842868,-9992.780217,0.000000,-4443.353888
3665.843198,-10140.821405,-666.185348,-4903.011187
3665.843528,-9474.636058,-222.061783,-1072.533697
3665.843858,-8586.388927,296.082377,2987.772442
3665.844188,-8142.265362,444.123565,2987.772442
3665.844518,-8364.327145,444.123565,-229.828649
3665.844847,-9474.636058,296.082377,-3753.867940
3665.845177,-11029.068536,-296.082377,-4136.915689
3665.845507,-11029.068536,-296.082377,-1225.752797
3665.845837,-10140.821405,74.020594,2757.943793
3665.846167,-9918.759623,444.123565,3524.039291
3665.846497,-9474.636058,-370.102971,306.438199
3665.846827,-9400.615463,-962.267725,-3983.696590
3665.847157,-9622.677246,-1110.308913,-5286.058936
3665.847487,-9030.512492,-592.164754,-1915.238745
3665.847817,-8882.471304,296.082377,3064.381992
3665.848147,-8956.491898,592.164754,3524.039291
3665.848477,-8882.471304,370.102971,689.485948
3665.848807,-10362.883188,296.082377,-2681.334243
3665.849137,-11695.253884,-222.061783,-3983.696590
3665.849467,-11251.130318,-518.144159,-2145.067394
3665.849797,-9548.656652,-592.164754,1991.848295
3665.850127,-9474.636058,0.000000,4136.915689
3665.850457,-9474.636058,-444.123565,2528.115143
3665.850787,-9844.739029,-148.041188,-1991.848295
3665.851117,-10214.842000,-666.185348,-4060.306139
3665.851447,-10510.924376,-222.061783,-1838.629195
3665.851777,-9474.636058,0.000000,2374.896044
3665.852107,-8956.491898,0.000000,4596.572988
3665.852437,-8364.327145,-296.082377,2528.115143
3665.852767,-9030.512492,0.000000,-842.705048
3665.853097,-10807.006753,-518.144159,-2451.505594
3665.853427,-11177.109724,-518.144159,-1455.581446
3665.853757,-9844.739029,-444.123565,2451.505594
3665.854087,-9622.677246,370.102971,5132.839837
3665.854417,-10288.862594,444.123565,4136.915689
3665.854747,-9992.780217,0.000000,-842.705048
3665.855076,-10066.800811,-592.164754,-3753.867940
3665.855406,-10140.821405,-888.247130,-2451.505594
3665.855736,-9326.594869,-444.123565,2374.896044
3665.856066,-8216.285956,148.041188,4213.525239
3665.856396,-8068.244768,74.020594,3600.648841
3665.856726,-8364.327145,0.000000,153.219100
3665.857056,-10510.924376,592.164754,-1915.238745
3665.857386,-11547.212695,0.000000,-1302.362347
3665.857716,-11029.068536,148.041188,1991.848295
3665.858046,-10214.842000,148.041188,4903.011187
3665.858376,-10066.800811,148.041188,4290.134789
3665.858706,-9844.739029,0.000000,0.000000
3665.859036,-9548.656652,-296.082377,-3524.039291
3665.859366,-9696.697840,-296.082377,-3447.429741
3665.859696,-9474.636058,222.061783,842.705048
3665.860026,-8808.450710,1184.329507,4366.744339
3665.860356,-8882.471304,1332.370696,3677.258390
3665.860686,-9178.553681,1258.350101,536.266849
3665.861016,-10436.903782,1110.308913,-2528.115143
3665.861346,-11547.212695,518.144159,-2834.553343
3665.861676,-11103.089130,518.144159,-919.314598
3665.862006,-9622.677246,592.164754,2757.943793
3665.862336,-9548.656652,444.123565,3677.258390
3665.862666,-9400.615463,592.164754,383.047749
3665.862996,-9770.718434,592.164754,-3907.087040
3665.863326,-10658.965565,148.041188,-4519.963438
3665.863656,-9918.759623,148.041188,-1072.533697
3665.863986,-8808.450710,1110.308913,2451.505594
3665.864316,-8216.285956,666.185348,2451.505594
3665.864646,-8512.368333,1110.308913,-689.485948
3665.864976,-9474.636058,518.144159,-3217.601092
3665.865306,-10881.027347,444.123565,-3830.477490
3665.865635,-10584.944971,0.000000,-2068.457845
3665.865965,-9918.759623,666.185348,1302.362347
3665.866295,-10288.862594,666.185348,4290.134789
3665.866625,-10436.903782,296.082377,2068.457845
3665.866955,-9992.780217,148.041188,-2145.067394
3665.867285,-10066.800811,-444.123565,-4213.525239
3665.867615,-9844.739029,-222.061783,-2221.676944
3665.867945,-9400.615463,148.041188,1762.019645
3665.868275,-8956.491898,518.144159,3600.648841
3665.868605,-8586.388927,222.061783,1455.581446
3665.868935,-8586.388927,148.041188,-1838.629195
3665.869265,-10288.862594,0.000000,-3370.820191
3665.869595,-10584.944971,0.000000,-2145.067394
3665.869925,-9844.739029,74.020594,1685.410096
3665.870255,-9696.697840,222.061783,4366.744339
3665.870585,-10807.006753,222.061783,3370.820191
3665.870915,-10214.842000,-592.164754,-766.095498
3665.871245,-10362.883188,-1332.370696,-3830.477490
3665.871575,-10140.821405,-1184.329507,-3064.381992
3665.871905,-9104.533087,-1184.329507,919.314598
3665.872235,-8364.327145,-74.020594,3753.867940
3665.872565,-7846.182985,-222.061783,2757.943793
3665.872895,-8142.265362,0.000000,-229.828649
3665.873225,-10066.800811,0.000000,-2374.896044
3665.873554,-11251.130318,-518.144159,-2298.286494
3665.873884,-10732.986159,-518.144159,766.095498
3665.874214,-10214.842000,-444.123565,4290.134789
3665.874544,-9844.739029,-370.102971,4519.963438
3665.874874,-9918.759623,-518.144159,995.924147
3665.875204,-9992.780217,-962.267725,-2834.553343
3665.875534,-9770.718434,-1554.432478,-3524.039291
3665.875864,-9252.574275,-1036.288319,306.438199
3665.876194,-8808.450710,0.000000,3677.258390
3665.876524,-8290.306550,222.061783,3830.477490
3665.876854,-8068.244768,74.020594,1149.143247
3665.877184,-9474.636058,0.000000,-1762.019645
3665.877513,-11399.171507,148.041188,-2374.896044
3665.877843,-11695.253884,-740.205942,383.047749
3665.878173,-10732.986159,-444.123565,3600.648841
3665.878503,-9918.759623,-444.123565,5209.449386
3665.878833,-10140.821405,518.144159,2451.505594
3665.879163,-10362.883188,0.000000,-1532.190996
3665.879493,-10510.924376,-444.123565,-3753.867940
3665.879823,-10362.883188,-296.082377,-1685.410096
3665.880153,-8882.471304,148.041188,1991.848295
3665.880483,-8956.491898,222.061783,3677.258390
3665.880813,-8364.327145,0.000000,2451.505594
3665.881143,-8882.471304,296.082377,-919.314598
3665.881472,-10362.883188,0.000000,-3447.429741
3665.881802,-10658.965565,0.000000,-2374.896044
3665.882132,-10658.965565,148.041188,1685.410096
3665.882462,-10881.027347,592.164754,4826.401637
3665.882792,-10584.944971,518.144159,3447.429741
3665.883122,-10140.821405,222.061783,-766.095498
3665.883452,-10362.883188,0.000000,-4290.134789
3665.883782,-10140.821405,-444.123565,-3447.429741
3665.884112,-9252.574275,370.102971,0.000000
3665.884442,-8290.306550,814.226536,2145.067394
3665.884772,-7624.121203,222.061783,1762.019645
3665.885102,-8586.388927,1110.308913,-1302.362347
3665.885431,-10362.883188,888.247130,-3600.648841
3665.885761,-10955.047942,592.164754,-3677.258390
3665.886091,-10214.842000,296.082377,-383.047749
3665.886421,-10214.842000,666.185348,3294.210641
3665.886751,-10658.965565,444.123565,3753.867940
3665.887081,-10288.862594,0.000000,459.657299
3665.887411,-9548.656652,-518.144159,-3370.820191
3665.887741,-9400.615463,-666.185348,-3830.477490
3665.888071,-9252.574275,0.000000,-229.828649
3665.888401,-9252.574275,148.041188,3217.601092
3665.888731,-8142.265362,518.144159,3600.648841
3665.889061,-7920.203579,592.164754,0.000000
3665.889391,-9400.615463,592.164754,-2757.943793
3665.889720,-10584.944971,370.102971,-3447.429741
3665.890050,-9844.739029,148.041188,-1608.800546
3665.890380,-9992.780217,444.123565,2757.943793
3665.890710,-10510.924376,518.144159,3600.648841
3665.891040,-10288.862594,444.123565,689.485948
3665.891370,-10214.842000,-592.164754,-2987.772442
3665.891700,-10288.862594,-888.247130,-3600.648841
3665.892030,-9548.656652,-740.205942,0.000000
3665.892360,-8808.450710,296.082377,3064.381992
3665.892690,-7846.182985,74.020594,3370.820191
3665.893020,-7254.018232,74.020594,1225.752797
3665.893350,-8956.491898,444.123565,-1225.752797
3665.893679,-11473.192101,296.082377,-2221.676944
3665.894009,-11251.130318,0.000000,-766.095498
3665.894339,-10584.944971,370.102971,2298.286494
3665.894669,-10362.883188,74.020594,4519.963438
3665.894999,-10658.965565,222.061783,2757.943793
3665.895329,-9770.718434,-444.123565,-1685.410096
3665.895659,-9548.656652,-888.247130,-3907.087040
3665.895989,-9400.615463,-666.185348,-766.095498
3665.896319,-9326.594869,222.061783,3370.820191
3665.896649,-8956.491898,0.000000,4749.792088
3665.896979,-8290.306550,74.020594,2681.334243
3665.897309,-8734.430116,0.000000,76.609550
3665.897638,-10732.986159,-74.020594,-1915.238745
3665.897968,-11251.130318,-444.123565,-306.438199
3665.898298,-10362.883188,0.000000,3140.991542
3665.898628,-9844.739029,370.102971,5822.325785
3665.898958,-10288.862594,222.061783,3907.087040
3665.899288,-10658.965565,74.020594,-689.485948
3665.899618,-10584.944971,-296.082377,-3447.429741
3665.899948,-9770.718434,-296.082377,-2451.505594
3665.900278,-9770.718434,-148.041188,1149.143247
3665.900608,-9104.533087,222.061783,3064.381992
3665.900938,-7994.224174,0.000000,2221.676944
3665.901268,-8290.306550,222.061783,-689.485948
3665.901597,-10066.800811,296.082377,-2911.162892
3665.901927,-11251.130318,222.061783,-2834.553343
3665.902257,-10732.986159,370.102971,919.314598
3665.902587,-10584.944971,592.164754,4903.011187
3665.902917,-10584.944971,444.123565,4673.182538
3665.903247,-10214.842000,74.020594,76.609550
3665.903577,-9622.677246,-592.164754,-4213.525239
3665.903907,-9474.636058,-592.164754,-4903.011187
3665.904237,-9178.553681,370.102971,-1532.190996
3665.904567,-8956.491898,666.185348,1915.238745
3665.904897,-7846.182985,592.164754,1532.190996
3665.905227,-8068.244768,592.164754,-1608.800546
3665.905556,-9474.636058,592.164754,-4136.915689
3665.905886,-11325.150913,0.000000,-3753.867940
3665.906216,-10510.924376,-222.061783,-612.876398
3665.906546,-9326.594869,-74.020594,3370.820191
3665.906876,-9400.615463,74.020594,4290.134789
3665.907206,-9548.656652,0.000000,1302.362347
3665.907536,-10140.821405,-370.102971,-2604.724693
3665.907866,-10436.903782,-592.164754,-4136.915689
3665.908196,-10140.821405,-592.164754,-995.924147
3665.908526,-8882.471304,222.061783,2374.896044
3665.908856,-8290.306550,148.041188,2604.724693
3665.909186,-7698.141797,296.082377,383.047749
3665.909515,-9104.533087,444.123565,-2528.115143
3665.909845,-10288.862594,74.020594,-4136.915689
3665.910175,-10288.862594,0.000000,-1532.190996
3665.910505,-10658.965565,370.102971,2757.943793
3665.910835,-10881.027347,592.164754,5362.668486
3665.911165,-10955.047942,296.082377,3294.210641
3665.911495,-9992.780217,148.041188,-1685.410096
3665.911825,-10288.862594,-592.164754,-3753.867940
3665.912155,-10436.903782,-666.185348,-1225.752797
3665.912485,-9696.697840,-148.041188,2911.162892
3665.912815,-8438.347739,74.020594,4443.353888
3665.913145,-7476.080014,148.041188,1915.238745
3665.913474,-8068.244768,74.020594,-1762.019645
3665.913804,-10066.800811,222.061783,-2911.162892
3665.914134,-10288.862594,-222.061783,-1685.410096
3665.914464,-10066.800811,222.061783,2451.505594
3665.914794,-10436.903782,222.061783,5439.278036
3665.915124,-10955.047942,370.102971,4826.401637
3665.915454,-10510.924376,0.000000,153.219100
3665.915784,-10214.842000,-592.164754,-3524.039291
3665.916114,-9844.739029,-962.267725,-2451.505594
3665.916444,-9104.533087,296.082377,1915.238745
3665.916774,-8364.327145,518.144159,3983.696590
3665.917104,-8216.285956,888.247130,2604.724693
3665.917433,-8660.409521,814.226536,-1149.143247
3665.917763,-10436.903782,444.123565,-2911.162892
3665.918093,-11103.089130,0.000000,-2221.676944
3665.918423,-10140.821405,222.061783,1149.143247
3665.918753,-10214.842000,296.082377,5898.935335
3665.919083,-10436.903782,222.061783,4903.011187
3665.919413,-10732.986159,296.082377,842.705048
3665.919743,-10881.027347,-444.123565,-3294.210641
3665.920073,-11547.212695,-370.102971,-3064.381992
3665.920403,-10732.986159,0.000000,842.705048
3665.920733,-8808.450710,518.144159,4213.525239
3665.921063,-7698.141797,370.102971,2987.772442
3665.921392,-7698.141797,444.123565,-612.876398
3665.921722,-9696.697840,296.082377,-3447.429741
3665.922052,-11029.068536,0.000000,-3600.648841
3665.922382,-10288.862594,-148.041188,-612.876398
3665.922712,-9326.594869,222.061783,3524.039291
3665.923042,-9918.759623,74.020594,4979.620737
3665.923372,-9992.780217,0.000000,1608.800546
3665.923702,-9622.677246,-666.185348,-3524.039291
3665.924032,-9992.780217,-1036.288319,-4596.572988
3665.924362,-9918.759623,-666.185348,-1072.533697
3665.924692,-9326.594869,0.000000,2681.334243
3665.925022,-8364.327145,296.082377,2834.553343
3665.925351,-7254.018232,0.000000,-459.657299
3665.925681,-8660.409521,148.041188,-3983.696590
3665.926011,-9992.780217,0.000000,-4979.620737
3665.926341,-10510.924376,-148.041188,-2604.724693
3665.926671,-9770.718434,370.102971,2068.457845
3665.927001,-10140.821405,740.205942,3753.867940
3665.927331,-10362.883188,370.102971,1991.848295
3665.927661,-10584.944971,-592.164754,-2757.943793
3665.927991,-11103.089130,-1036.288319,-4749.792088
3665.928321,-10881.027347,-888.247130,-2221.676944
3665.928651,-9770.718434,-296.082377,3294.210641
3665.928981,-8290.306550,0.000000,4213.525239
3665.929311,-7920.203579,74.020594,1225.752797
3665.929640,-9104.533087,222.061783,-2374.896044
3665.929970,-10955.047942,222.061783,-4060.306139
3665.930300,-11399.171507,74.020594,-2987.772442
3665.930630,-9844.739029,0.000000,995.924147
3665.930960,-9992.780217,148.041188,4749.792088
3665.931290,-10362.883188,296.082377,3294.210641
3665.931620,-10066.800811,-740.205942,-919.314598
3665.931950,-10214.842000,-1110.308913,-4290.134789
3665.932280,-9918.759623,-1110.308913,-2221.676944
3665.932610,-9326.594869,0.000000,2528.115143
3665.932940,-8956.491898,0.000000,5209.449386
3665.933270,-8290.306550,222.061783,2757.943793
3665.933599,-8438.347739,148.041188,-612.876398
3665.933929,-10214.842000,370.102971,-2987.772442
3665.934259,-10881.027347,-222.061783,-2604.724693
3665.934589,-10066.800811,0.000000,1225.752797
3665.934919,-9400.615463,0.000000,4213.525239
3665.935249,-9400.615463,0.000000,3830.477490
3665.935579,-8956.491898,-296.082377,306.438199
3665.935909,-9548.656652,-740.205942,-3447.429741
3665.936239,-10214.842000,-814.226536,-2298.286494
3665.936569,-10288.862594,222.061783,2145.067394
3665.936899,-9326.594869,666.185348,4136.915689
3665.937229,-8808.450710,814.226536,3677.258390
3665.937558,-8660.409521,444.123565,153.219100
3665.937888,-10362.883188,518.144159,-2374.896044
3665.938218,-11103.089130,592.164754,-2068.457845
3665.938548,-10584.944971,148.041188,842.705048
3665.938878,-9622.677246,666.185348,4443.353888
3665.939208,-10362.883188,1110.308913,5209.449386
3665.939538,-10732.986159,740.205942,919.314598
3665.939868,-10436.903782,370.102971,-3753.867940
3665.940198,-10658.965565,74.020594,-4136.915689
3665.940528,-10807.006753,296.082377,-229.828649
3665.940858,-9770.718434,666.185348,3600.648841
3665.941188,-8586.388927,962.267725,2528.115143
3665.941517,-7994.224174,740.205942,-612.876398
3665.941847,-9548.656652,370.102971,-2987.772442
3665.942177,-11325.150913,222.061783,-3140.991542
3665.942507,-11251.130318,222.061783,-536.266849
3665.942837,-10066.800811,222.061783,3217.601092
3665.943167,-9474.636058,222.061783,4443.353888
3665.943497,-9326.594869,-370.102971,1838.629195
3665.943827,-9104.533087,-666.185348,-2451.505594
3665.944157,-9622.677246,-666.185348,-3907.087040
3665.944487,-10140.821405,-296.082377,-1378.971896
3665.944817,-9696.697840,296.082377,1608.800546
3665.945147,-8882.471304,222.061783,2604.724693
3665.945476,-8216.285956,0.000000,76.609550
3665.945806,-8956.491898,0.000000,-2757.943793
3665.946136,-10214.842000,-518.144159,-4213.525239
3665.946466,-9992.780217,-296.082377,-2757.943793
3665.946796,-8882.471304,-148.041188,612.876398
3665.947126,-9548.656652,370.102971,3907.087040
3665.947456,-10066.800811,74.020594,2528.115143
3665.947786,-10436.903782,0.000000,-1608.800546
3665.948116,-10658.965565,-370.102971,-4136.915689
3665.948446,-10658.965565,-740.205942,-2298.286494
3665.948776,-10140.821405,-444.123565,2068.457845
3665.949106,-8956.491898,0.000000,3677.258390
3665.949435,-8512.368333,0.000000,1455.581446
3665.949765,-9030.512492,148.041188,-1838.629195
3665.950095,-11103.089130,0.000000,-3600.648841
3665.950425,-11177.109724,-370.102971,-2298.286494
3665.950755,-10140.821405,-444.123565,1302.362347
3665.951085,-9622.677246,222.061783,3753.867940
3665.951415,-9770.718434,-222.061783,3217.601092
3665.951745,-9326.594869,-444.123565,-459.657299
3665.952075,-9696.697840,-592.164754,-4060.306139
3665.952405,-10510.924376,-592.164754,-2757.943793
3665.952735,-10214.842000,0.000000,1762.019645
3665.953065,-9252.574275,74.020594,4366.744339
3665.953394,-8586.388927,222.061783,3064.381992
3665.953724,-8882.471304,0.000000,-459.657299
3665.954054,-9918.759623,-592.164754,-2681.334243
3665.954384,-10584.944971,-740.205942,-2221.676944
3665.954714,-9696.697840,-148.041188,1149.143247
3665.955044,-8660.409521,74.020594,4673.182538
3665.955374,-8808.450710,814.226536,4673.182538
3665.955704,-9474.636058,518.144159,306.438199
3665.956034,-9696.697840,74.020594,-3294.210641
3665.956364,-10658.965565,0.000000,-3140.991542
3665.956694,-10140.821405,0.000000,1455.581446
3665.957024,-9622.677246,666.185348,4290.134789
3665.957353,-8956.491898,740.205942,3677.258390
3665.957683,-8512.368333,148.041188,536.266849
3665.958013,-9770.718434,0.000000,-2374.896044
3665.958343,-11029.068536,296.082377,-2528.115143
3665.958673,-10732.986159,0.000000,612.876398
3665.959003,-9770.718434,740.205942,4826.401637
3665.959333,-9548.656652,1036.288319,5822.325785
3665.959663,-10288.862594,1184.329507,2374.896044
3665.959993,-10436.903782,222.061783,-2528.115143
3665.960323,-10732.986159,74.020594,-3600.648841
3665.960653,-10732.986159,0.000000,-689.485948
3665.960983,-9326.594869,666.185348,3753.867940
3665.961312,-9252.574275,962.267725,3677.258390
3665.961642,-8660.409521,666.185348,383.047749
3665.961972,-9696.697840,666.185348,-2757.943793
3665.962302,-10807.006753,222.061783,-3524.039291
3665.962632,-10510.924376,0.000000,-1455.581446
3665.962962,-9178.553681,296.082377,2911.162892
3665.963292,-8956.491898,666.185348,4366.744339
3665.963622,-9104.533087,444.123565,2374.896044
3665.963952,-9474.636058,222.061783,-2528.115143
3665.964282,-10362.883188,74.020594,-4903.011187
3665.964612,-10436.903782,0.000000,-2681.334243
3665.964942,-10140.821405,518.144159,1685.410096
3665.965271,-9326.594869,1036.288319,3294.210641
3665.965601,-8808.450710,592.164754,1302.362347
3665.965931,-9030.512492,296.082377,-2451.505594
3665.966261,-9992.780217,0.000000,-4290.134789
3665.966591,-10510.924376,-592.164754,-2834.553343
3665.966921,-9770.718434,0.000000,1225.752797
3665.967251,-8882.471304,148.041188,3677.258390
3665.967581,-8956.491898,296.082377,2451.505594
3665.967911,-9474.636058,148.041188,-1838.629195
3665.968241,-10510.924376,-518.144159,-4136.915689
3665.968571,-10807.006753,-518.144159,-2604.724693
3665.968901,-10288.862594,0.000000,1685.410096
3665.969231,-9548.656652,296.082377,4366.744339
3665.969560,-8882.471304,0.000000,2681.334243
3665.969890,-9400.615463,-148.041188,-1072.533697
3665.970220,-10140.821405,-296.082377,-3217.601092
3665.970550,-10584.944971,-296.082377,-2681.334243
3665.970880,-9770.718434,-962.267725,306.438199
3665.971210,-9104.533087,0.000000,3907.087040
3665.971540,-9326.594869,0.000000,4596.572988
3665.971870,-9548.656652,0.000000,612.876398
3665.972200,-9770.718434,-814.226536,-3370.820191
3665.972530,-10436.903782,-740.205942,-3217.601092
3665.972860,-10288.862594,-740.205942,612.876398
3665.973190,-9548.656652,-444.123565,4443.353888
3665.973519,-9030.512492,-148.041188,4060.306139
3665.973849,-8956.491898,-222.061783,919.314598
3665.974179,-9474.636058,-148.041188,-2221.676944
3665.974509,-10732.986159,-444.123565,-2911.162892
3665.974839,-10214.842000,-222.061783,-383.047749
3665.975169,-8882.471304,0.000000,3140.991542
3665.975499,-9030.512492,74.020594,4290.134789
3665.975829,-9474.636058,74.020594,1532.190996
3665.976159,-9326.594869,0.000000,-2145.067394
3665.976489,-10288.862594,-370.102971,-3677.258390
3665.976819,-10658.965565,0.000000,-689.485948
3665.977148,-10140.821405,666.185348,3294.210641
3665.977478,-9696.697840,666.185348,4290.134789
3665.977808,-8808.450710,0.000000,1838.629195
3665.978138,-9326.594869,0.000000,-1302.362347
3665.978468,-10214.842000,-148.041188,-2451.505594
3665.978798,-10066.800811,-296.082377,-689.485948
3665.979128,-9400.615463,444.123565,2757.943793
3665.979458,-9548.656652,1110.308913,4903.011187
3665.979788,-10066.800811,1110.308913,2681.334243
3665.980118,-10362.883188,592.164754,-842.705048
3665.980448,-10807.006753,0.000000,-3140.991542
3665.980778,-10881.027347,-148.041188,-1455.581446
3665.981107,-10066.800811,148.041188,2451.505594
3665.981437,-8808.450710,296.082377,4519.963438
3665.981767,-8290.306550,296.082377,2604.724693
3665.982097,-8882.471304,814.226536,-766.095498
3665.982427,-10288.862594,370.102971,-2604.724693
3665.982757,-10955.047942,296.082377,-2374.896044
3665.983087,-10288.862594,0.000000,306.438199
3665.983417,-9770.718434,222.061783,3294.210641
3665.983747,-9178.553681,0.000000,2757.943793
3665.984077,-9400.615463,0.000000,-612.876398
3665.984407,-9252.574275,-296.082377,-3983.696590
3665.984737,-9622.677246,-518.144159,-3677.258390
3665.985066,-9104.533087,-444.123565,-76.609550
3665.985396,-9326.594869,222.061783,2604.724693
3665.985726,-9104.533087,444.123565,2221.676944
3665.986056,-9326.594869,0.000000,-842.705048
3665.986386,-10288.862594,-74.020594,-3524.039291
3665.986716,-10436.903782,-518.144159,-3830.477490
3665.987046,-9474.636058,-518.144159,-1072.533697
3665.987376,-8438.347739,-148.041188,2068.457845
3665.987706,-9474.636058,148.041188,2757.943793
3665.988036,-9400.615463,74.020594,536.266849
3665.988366,-10288.862594,-74.020594,-3677.258390
3665.988695,-10955.047942,-444.123565,-3983.696590
3665.989025,-10658.965565,-444.123565,-536.266849
3665.989355,-9400.615463,-74.020594,2221.676944
3665.989685,-8734.430116,0.000000,3217.601092
3665.990015,-9030.512492,74.020594,689.485948
3665.990345,-10288.862594,148.041188,-1991.848295
3665.990675,-11473.192101,-74.020594,-2911.162892
3665.991005,-11029.068536,-222.061783,-1072.533697
3665.991335,-10140.821405,-222.061783,2068.457845
3665.991665,-9770.718434,0.000000,3830.477490
3665.991995,-9548.656652,-296.082377,1838.629195
3665.992325,-9474.636058,-296.082377,-2221.676944
3665.992654,-9770.718434,-666.185348,-3600.648841
3665.992984,-9770.718434,-888.247130,-1149.143247
3665.993314,-9326.594869,148.041188,2911.162892
3665.993644,-8586.388927,296.082377,3830.477490
3665.993974,-8882.471304,444.123565,2221.676944
3665.994304,-9474.636058,296.082377,-1072.533697
3665.994634,-11029.068536,0.000000,-2374.896044
3665.994964,-11177.109724,74.020594,-766.095498
3665.995294,-9844.739029,74.020594,2145.067394
3665.995624,-9622.677246,592.164754,4213.525239
3665.995954,-9474.636058,370.102971,2757.943793
3665.996284,-9178.553681,296.082377,-766.095498
3665.996613,-9252.574275,74.020594,-3370.820191
3665.996943,-10214.842000,148.041188,-2145.067394
3665.997273,-10066.800811,666.185348,1838.629195
3665.997603,-9178.553681,370.102971,4979.620737
3665.997933,-8956.491898,1184.329507,3217.601092
3665.998263,-9548.656652,962.267725,459.657299
3665.998593,-10955.047942,592.164754,-2451.505594
3665.998923,-11325.150913,0.000000,-2298.286494
3665.999253,-10510.924376,444.123565,1991.848295
3665.999583,-10214.842000,592.164754,4673.182538
3665.999913,-10066.800811,518.144159,3907.087040
3666.000242,-9104.533087,444.123565,153.219100
3666.000572,-8882.471304,0.000000,-3370.820191
3666.000902,-10140.821405,222.061783,-2987.772442
3666.001232,-10510.924376,0.000000,842.705048
3666.001562,-9326.594869,666.185348,4060.306139
3666.001892,-9030.512492,814.226536,3524.039291
3666.002222,-9474.636058,1258.350101,689.485948
3666.002552,-10807.006753,370.102971,-2604.724693
3666.002882,-11399.171507,444.123565,-3447.429741
3666.003212,-10140.821405,0.000000,-1072.533697
3666.003542,-9104.533087,296.082377,2528.115143
3666.003872,-9178.553681,296.082377,2834.553343
3666.004201,-9104.533087,148.041188,0.000000
3666.004531,-8882.471304,0.000000,-3983.696590
3666.004861,-9696.697840,-592.164754,-4673.182538
3666.005191,-9474.636058,-296.082377,-1225.752797
3666.005521,-9104.533087,74.020594,3140.991542
3666.005851,-8882.471304,370.102971,4060.306139
3666.006181,-9178.553681,592.164754,1225.752797
3666.006511,-10288.862594,0.000000,-2451.505594
3666.006841,-11325.150913,0.000000,-4136.915689
3666.007171,-11251.130318,-740.205942,-2374.896044
3666.007501,-10140.821405,-444.123565,1838.629195
3666.007831,-9622.677246,0.000000,4136.915689
3666.008160,-9252.574275,0.000000,1302.362347
3666.008490,-8882.471304,-222.061783,-3064.381992
3666.008820,-9696.697840,-592.164754,-4903.011187
3666.009150,-9474.636058,-740.205942,-2145.067394
3666.009480,-9474.636058,74.020594,1838.629195
3666.009810,-9030.512492,518.144159,3983.696590
3666.010140,-9770.718434,222.061783,2757.943793
3666.010470,-10807.006753,0.000000,-689.485948
3666.010800,-11917.315666,-518.144159,-2604.724693
3666.011130,-11843.295072,-1184.329507,-2451.505594
3666.011460,-10584.944971,-888.247130,1915.238745
3666.011789,-9474.636058,-444.123565,4366.744339
3666.012119,-9178.553681,0.000000,2834.553343
3666.012449,-8438.347739,-296.082377,-1608.800546
3666.012779,-9326.594869,-962.267725,-4673.182538
3666.013109,-9844.739029,-666.185348,-2757.943793
3666.013439,-9548.656652,0.000000,1378.971896
3666.013769,-9030.512492,0.000000,4673.182538
3666.014099,-8882.471304,0.000000,3600.648841
3666.014429,-9474.636058,-444.123565,-306.438199
3666.014759,-11029.068536,-740.205942,-2451.505594
3666.015089,-11473.192101,-888.247130,-1991.848295
3666.015419,-10436.903782,-666.185348,1915.238745
3666.015748,-9474.636058,0.000000,5056.230287
3666.016078,-8734.430116,0.000000,4136.915689
3666.016408,-8808.450710,444.123565,383.047749
3666.016738,-9252.574275,-222.061783,-3600.648841
3666.017068,-9770.718434,-370.102971,-3524.039291
3666.017398,-9548.656652,0.000000,536.266849
3666.017728,-8956.491898,666.185348,4749.792088
3666.018058,-8956.491898,888.247130,3907.087040
3666.018388,-9178.553681,370.102971,459.657299
3666.018718,-10288.862594,518.144159,-2451.505594
3666.019048,-11991.336260,222.061783,-2145.067394
3666.019377,-11843.295072,222.061783,842.705048
3666.019707,-10955.047942,444.123565,4826.401637
3666.020037,-10066.800811,444.123565,4979.620737
3666.020367,-9326.594869,222.061783,842.705048
3666.020697,-8290.306550,-222.061783,-3983.696590
3666.021027,-8808.450710,-444.123565,-4443.353888
3666.021357,-9400.615463,148.041188,-536.266849
3666.021687,-9326.594869,1184.329507,3600.648841
3666.022017,-9400.615463,814.226536,4060.306139
3666.022347,-9474.636058,1110.308913,612.876398
3666.022677,-10140.821405,666.185348,-2834.553343
3666.023007,-11325.150913,0.000000,-3370.820191
3666.023336,-11103.089130,-296.082377,-76.609550
3666.023666,-9696.697840,0.000000,3064.381992
3666.023996,-8956.491898,444.123565,4443.353888
3666.024326,-9030.512492,592.164754,1225.752797
3666.024656,-9474.636058,666.185348,-3294.210641
3666.024986,-10140.821405,148.041188,-5515.887586
3666.025316,-9770.718434,148.041188,-2528.115143
3666.025646,-9104.533087,518.144159,2221.676944
3666.025976,-8660.409521,814.226536,3677.258390
3666.026306,-8586.388927,1184.329507,1685.410096
3666.026636,-9400.615463,518.144159,-2604.724693
3666.026966,-11399.171507,296.082377,-4519.963438
3666.027295,-11695.253884,-148.041188,-2681.334243
3666.027625,-10362.883188,296.082377,2757.943793
3666.027955,-9696.697840,666.185348,4366.744339
3666.028285,-10140.821405,296.082377,2451.505594
3666.028615,-10066.800811,0.000000,-2145.067394
3666.028945,-9918.759623,-296.082377,-4443.353888
3666.029275,-9992.780217,-666.185348,-2528.115143
3666.029605,-9770.718434,0.000000,1915.238745
3666.029935,-9400.615463,296.082377,4903.011187
3666.030265,-9252.574275,592.164754,3140.991542
3666.030595,-8808.450710,74.020594,-842.705048
3666.030924,-10881.027347,0.000000,-3294.210641
3666.031254,-11843.295072,-592.164754,-2145.067394
3666.031584,-10658.965565,-666.185348,1915.238745
3666.031914,-9474.636058,-518.144159,5592.497135
3666.032244,-9474.636058,-222.061783,3830.477490
3666.032574,-9622.677246,-370.102971,-689.485948
3666.032904,-9474.636058,-1184.329507,-4673.182538
3666.033234,-9178.553681,-1554.432478,-3983.696590
3666.033564,-8808.450710,-814.226536,612.876398
3666.033894,-8216.285956,0.000000,4826.401637
3666.034224,-7846.182985,222.061783,4213.525239
3666.034554,-8438.347739,296.082377,536.266849
3666.034883,-10436.903782,-148.041188,-3217.601092
3666.035213,-11769.274478,-666.185348,-3064.381992
3666.035543,-11103.089130,-740.205942,383.047749
3666.035873,-9770.718434,0.000000,4136.915689
3666.036203,-9400.615463,-148.041188,4366.744339
3666.036533,-9326.594869,-148.041188,459.657299
3666.036863,-9178.553681,-740.205942,-3753.867940
3666.037193,-9844.739029,-740.205942,-4290.134789
3666.037523,-9548.656652,-444.123565,0.000000
3666.037853,-8882.471304,148.041188,4826.401637
3666.038183,-8660.409521,962.267725,5209.449386
3666.038513,-8882.471304,666.185348,1225.752797
3666.038842,-10436.903782,370.102971,-2451.505594
3666.039172,-12213.398043,222.061783,-3064.381992
3666.039502,-12213.398043,74.020594,153.219100
3666.039832,-10955.047942,666.185348,3830.477490
3666.040162,-10288.862594,592.164754,5439.278036
3666.040492,-10436.903782,296.082377,2451.505594
3666.040822,-9770.718434,0.000000,-2911.162892
3666.041152,-10140.821405,-518.144159,-4673.182538
3666.041482,-9400.615463,-592.164754,-1302.362347
3666.041812,-8512.368333,0.000000,4826.401637
3666.042142,-8290.306550,962.267725,5362.668486
3666.042471,-8438.347739,518.144159,2298.286494
3666.042801,-9474.636058,592.164754,-2451.505594
3666.043131,-11399.171507,518.144159,-3753.867940
3666.043461,-11843.295072,370.102971,-1762.019645
3666.043791,-10955.047942,666.185348,2604.724693
3666.044121,-9622.677246,666.185348,4749.792088
3666.044451,-9696.697840,666.185348,1915.238745
3666.044781,-9622.677246,0.000000,-2681.334243
3666.045111,-9400.615463,-444.123565,-5898.935335
3666.045441,-8956.491898,-444.123565,-4060.306139
3666.045771,-8142.265362,518.144159,995.924147
3666.046101,-7846.182985,1036.288319,4060.306139
3666.046430,-8142.265362,814.226536,1991.848295
3666.046760,-9178.553681,888.247130,-2298.286494
3666.047090,-11103.089130,592.164754,-4136.915689
3666.047420,-12361.439231,0.000000,-2681.334243
3666.047750,-11177.109724,0.000000,2145.067394
3666.048080,-10066.800811,74.020594,4979.620737
3666.048410,-9918.759623,296.082377,3677.258390
3666.048740,-10066.800811,0.000000,-1072.533697
3666.049070,-10658.965565,-148.041188,-4979.620737
3666.049400,-9992.780217,-592.164754,-4596.572988
3666.049730,-9104.533087,0.000000,536.266849
3666.050059,-8068.244768,444.123565,3600.648841
3666.050389,-7550.100608,888.247130,2681.334243
3666.050719,-8068.244768,370.102971,-1685.410096
3666.051049,-10436.903782,74.020594,-4366.744339
3666.051379,-12287.418637,0.000000,-3524.039291
3666.051709,-11473.192101,-370.102971,612.876398
3666.052039,-10362.883188,-592.164754,4903.011187
3666.052369,-9918.759623,-518.144159,4903.011187
3666.052699,-9918.759623,-1036.288319,612.876398
3666.053029,-9030.512492,-1702.473667,-3677.258390
3666.053359,-8660.409521,-1258.350101,-4366.744339
3666.053689,-8882.471304,-740.205942,-76.609550
3666.054018,-8734.430116,-296.082377,3600.648841
3666.054348,-7476.080014,0.000000,4136.915689
3666.054678,-7476.080014,148.041188,229.828649
3666.055008,-9622.677246,148.041188,-2681.334243
3666.055338,-11991.336260,-592.164754,-3217.601092
3666.055668,-11917.315666,-740.205942,-229.828649
3666.055998,-10288.862594,-444.123565,3907.087040
3666.056328,-10066.800811,-444.123565,5362.668486
3666.056658,-10288.862594,-592.164754,2528.115143
3666.056988,-9992.780217,-444.123565,-2298.286494
3666.057318,-9474.636058,-1184.329507,-4290.134789
3666.057648,-9400.615463,-888.247130,-919.314598
3666.057977,-8956.491898,0.000000,3907.087040
3666.058307,-8364.327145,0.000000,4903.011187
3666.058637,-8364.327145,0.000000,2221.676944
3666.058967,-9474.636058,444.123565,-1378.971896
3666.059297,-11917.315666,0.000000,-2374.896044
3666.059627,-12435.459826,-222.061783,-306.438199
3666.059957,-11621.233289,0.000000,3447.429741
3666.060287,-10658.965565,888.247130,5669.106685
3666.060617,-10807.006753,444.123565,3294.210641
3666.060947,-10362.883188,0.000000,-1149.143247
3666.061277,-9918.759623,-592.164754,-4290.134789
3666.061606,-9696.697840,-296.082377,-1991.848295
3666.061936,-8438.347739,370.102971,2145.067394
3666.062266,-7920.203579,888.247130,4443.353888
3666.062596,-7698.141797,1332.370696,2145.067394
3666.062926,-9030.512492,814.226536,-1915.238745
3666.063256,-11325.150913,592.164754,-3217.601092
3666.063586,-12213.398043,592.164754,-2068.457845
3666.063916,-11103.089130,148.041188,1532.190996
3666.064246,-9696.697840,74.020594,4443.353888
3666.064576,-9548.656652,222.061783,3370.820191
3666.064906,-9622.677246,148.041188,-1072.533697
3666.065236,-9252.574275,74.020594,-4903.011187
3666.065565,-9326.594869,222.061783,-4213.525239
3666.065895,-9178.553681,1110.308913,536.266849
3666.066225,-8660.409521,1702.473667,2681.334243
3666.066555,-8142.265362,1332.370696,1608.800546
3666.066885,-8290.306550,888.247130,-2451.505594
3666.067215,-9474.636058,888.247130,-4673.182538
3666.067545,-10955.047942,518.144159,-3600.648841
3666.067875,-10955.047942,370.102971,0.000000
3666.068205,-10436.903782,888.247130,3753.867940
3666.068535,-10436.903782,296.082377,3600.648841
3666.068865,-9844.739029,444.123565,0.000000
3666.069195,-9696.697840,-296.082377,-4290.134789
3666.069524,-9696.697840,-592.164754,-4596.572988
3666.069854,-9178.553681,-296.082377,-383.047749
3666.070184,-8586.388927,1110.308913,3753.867940
3666.070514,-8290.306550,740.205942,3217.601092
3666.070844,-9326.594869,666.185348,0.000000
3666.071174,-10288.862594,222.061783,-2834.553343
3666.071504,-11843.295072,0.000000,-2681.334243
3666.071834,-11325.150913,-592.164754,0.000000
3666.072164,-10066.800811,-518.144159,3983.696590
3666.072494,-9770.718434,-222.061783,5209.449386
3666.072824,-9992.780217,-740.205942,2604.724693
3666.073153,-10288.862594,-888.247130,-1991.848295
3666.073483,-9844.739029,-1184.329507,-3907.087040
3666.073813,-9252.574275,-814.226536,-1685.410096
3666.074143,-7994.224174,0.000000,2834.553343
3666.074473,-7846.182985,370.102971,4213.525239
3666.074802,-8142.265362,222.061783,1532.190996
3666.075132,-9474.636058,74.020594,-1455.581446
3666.075462,-11251.130318,0.000000,-2221.676944
3666.075792,-11621.233289,-222.061783,153.219100
3666.076122,-10881.027347,-74.020594,3370.820191
3666.076451,-10436.903782,-74.020594,5056.230287
3666.076781,-10362.883188,74.020594,3217.601092
3666.077111,-10066.800811,-74.020594,-1072.533697
3666.077441,-10140.821405,-814.226536,-3907.087040
3666.077771,-9770.718434,-814.226536,-2221.676944
3666.078100,-9178.553681,-296.082377,1685.410096
3666.078430,-8216.285956,0.000000,3830.477490
3666.078760,-7328.038826,222.061783,2145.067394
3666.079090,-8438.347739,-74.020594,-1225.752797
3666.079420,-10510.924376,74.020594,-1991.848295
3666.079749,-11843.295072,-74.020594,-383.047749
3666.080079,-11473.192101,444.123565,3217.601092
3666.080409,-10881.027347,740.205942,5286.058936
3666.080739,-10955.047942,814.226536,4366.744339
3666.081069,-10807.006753,518.144159,536.266849
3666.081398,-10584.944971,0.000000,-3524.039291
3666.081728,-10362.883188,-222.061783,-3830.477490
3666.082058,-9622.677246,148.041188,306.438199
3666.082388,-8364.327145,740.205942,3217.601092
3666.082718,-7920.203579,666.185348,2374.896044
3666.083047,-8142.265362,444.123565,-995.924147
3666.083377,-9326.594869,518.144159,-3370.820191
3666.083707,-10584.944971,148.041188,-2604.724693
3666.084037,-10807.006753,296.082377,919.314598
3666.084367,-10584.944971,296.082377,4673.182538
3666.084696,-10140.821405,222.061783,4519.963438
3666.085026,-10288.862594,148.041188,1072.533697
3666.085356,-10066.800811,-74.020594,-3217.601092
3666.085686,-10214.842000,-518.144159,-4596.572988
3666.086016,-9400.615463,-296.082377,-1838.629195
3666.086345,-7624.121203,74.020594,1762.019645
3666.086675,-7698.141797,740.205942,1991.848295
3666.087005,-7846.182985,518.144159,-919.314598
3666.087335,-9844.739029,370.102971,-3983.696590
3666.087665,-11177.109724,296.082377,-4213.525239
3666.087994,-10881.027347,74.020594,-1991.848295
3666.088324,-9992.780217,-148.041188,2604.724693
3666.088654,-9918.759623,296.082377,4366.744339
3666.088984,-10288.862594,-222.061783,2681.334243
3666.089314,-10362.883188,-444.123565,-995.924147
3666.089643,-10658.965565,-370.102971,-3983.696590
3666.089973,-10732.986159,-592.164754,-2145.067394
3666.090303,-9548.656652,0.000000,1685.410096
3666.090633,-8290.306550,370.102971,3524.039291
3666.090963,-8142.265362,148.041188,995.924147
3666.091292,-8734.430116,0.000000,-2451.505594
3666.091622,-10214.842000,370.102971,-3983.696590
3666.091952,-11103.089130,-222.061783,-2757.943793
3666.092282,-10436.903782,0.000000,1225.752797
3666.092612,-11103.089130,0.000000,4366.744339
3666.092941,-10955.047942,-222.061783,3907.087040
3666.093271,-9918.759623,-666.185348,229.828649
3666.093601,-9844.739029,-1406.391290,-2528.115143
3666.093931,-9992.780217,-1110.308913,-1991.848295
3666.094261,-9474.636058,-592.164754,2374.896044
3666.094590,-8364.327145,148.041188,3753.867940
3666.094920,-8068.244768,444.123565,2298.286494
3666.095250,-8956.491898,444.123565,-766.095498
3666.095580,-9992.780217,74.020594,-2911.162892
3666.095909,-10584.944971,-296.082377,-2451.505594
3666.096239,-9770.718434,0.000000,842.705048
3666.096569,-9844.739029,370.102971,4366.744339
3666.096899,-10732.986159,888.247130,4366.744339
3666.097229,-10732.986159,222.061783,919.314598
3666.097558,-10436.903782,0.000000,-2451.505594
3666.097888,-10955.047942,-370.102971,-2757.943793
3666.098218,-10214.842000,74.020594,459.657299
3666.098548,-8734.430116,370.102971,3753.867940
3666.098878,-7550.100608,296.082377,3370.820191
3666.099207,-7772.162391,370.102971,766.095498
3666.099537,-9548.656652,444.123565,-1378.971896
3666.099867,-11251.130318,592.164754,-1072.533697
3666.100197,-10732.986159,444.123565,383.047749
3666.100527,-10584.944971,814.226536,3524.039291
3666.100856,-10955.047942,814.226536,4213.525239
3666.101186,-10881.027347,370.102971,1608.800546
3666.101516,-10584.944971,0.000000,-1991.848295
3666.101846,-9918.759623,-592.164754,-3677.258390
3666.102176,-9474.636058,-592.164754,-459.657299
3666.102505,-8660.409521,296.082377,3064.381992
3666.102835,-8364.327145,592.164754,3677.258390
3666.103165,-7846.182985,666.185348,766.095498
3666.103495,-9030.512492,740.205942,-2221.676944
3666.103825,-10732.986159,740.205942,-3447.429741
3666.104154,-10732.986159,74.020594,-1072.533697
3666.104484,-9918.759623,296.082377,2221.676944
3666.104814,-10066.800811,444.123565,4213.525239
3666.105144,-10510.924376,518.144159,2451.505594
3666.105474,-10510.924376,148.041188,-2528.115143
3666.105803,-9622.677246,-296.082377,-4903.011187
3666.106133,-9844.739029,-444.123565,-2987.772442
3666.106463,-9548.656652,0.000000,1072.533697
3666.106793,-8660.409521,0.000000,2987.772442
3666.107123,-7920.203579,444.123565,689.485948
3666.107452,-7698.141797,222.061783,-2145.067394
3666.107782,-9622.677246,222.061783,-3830.477490
3666.108112,-11029.068536,0.000000,-2451.505594
3666.108442,-11103.089130,0.000000,1072.533697
3666.108772,-10807.006753,222.061783,4136.915689
3666.109101,-11029.068536,0.000000,3907.087040
3666.109431,-10881.027347,-296.082377,-766.095498
3666.109761,-10288.862594,-888.247130,-3753.867940
3666.110091,-9844.739029,-1110.308913,-3064.381992
3666.110421,-9400.615463,-592.164754,842.705048
3666.110750,-9030.512492,222.061783,3064.381992
3666.111080,-8364.327145,74.020594,2221.676944
3666.111410,-8438.347739,222.061783,-766.095498
3666.111740,-9918.759623,-148.041188,-2757.943793
3666.112070,-10732.986159,-518.144159,-2374.896044
3666.112399,-10436.903782,-888.247130,459.657299
3666.112729,-9770.718434,-370.102971,4596.572988
3666.113059,-10066.800811,-74.020594,4749.792088
3666.113389,-10658.965565,-148.041188,1455.581446
3666.113719,-10436.903782,-888.247130,-2528.115143
3666.114048,-10436.903782,-1480.411884,-2834.553343
3666.114378,-9474.636058,-1036.288319,459.657299
3666.114708,-8216.285956,-444.123565,3064.381992
3666.115038,-7698.141797,0.000000,2604.724693
3666.115368,-7624.121203,0.000000,0.000000
3666.115697,-8808.450710,0.000000,-2145.067394
3666.116027,-10436.903782,0.000000,-3217.601092
3666.116357,-10510.924376,0.000000,-1149.143247
3666.116687,-10140.821405,0.000000,3064.381992
3666.117017,-10066.800811,74.020594,4903.011187
3666.117346,-10214.842000,148.041188,2374.896044
3666.117676,-10140.821405,222.061783,-2451.505594
3666.118006,-9992.780217,-592.164754,-4519.963438
3666.118336,-9918.759623,-222.061783,-1455.581446
3666.118666,-9770.718434,592.164754,3140.991542
3666.118995,-9104.533087,518.144159,3753.867940
3666.119325,-8808.450710,518.144159,1302.362347
3666.119655,-9474.636058,518.144159,-1455.581446
3666.119985,-10658.965565,0.000000,-2528.115143
3666.120314,-10658.965565,-148.041188,-383.047749
3666.120644,-10140.821405,148.041188,4213.525239
3666.120974,-10807.006753,888.247130,5515.887586
3666.121304,-10214.842000,740.205942,3447.429741
3666.121634,-10732.986159,74.020594,-1532.190996
3666.121963,-11029.068536,-222.061783,-4060.306139
3666.122293,-10658.965565,-296.082377,-1685.410096
3666.122623,-9548.656652,-296.082377,3140.991542
3666.122953,-8290.306550,222.061783,3677.258390
3666.123283,-7105.977043,74.020594,1685.410096
3666.123612,-7994.224174,74.020594,-1455.581446
3666.123942,-9474.636058,0.000000,-2987.772442
3666.124272,-10436.903782,222.061783,-2068.457845
3666.124602,-10066.800811,0.000000,1915.238745
3666.124932,-10214.842000,740.205942,4903.011187
3666.125261,-11029.068536,740.205942,3753.867940
3666.125591,-10362.883188,0.000000,-689.485948
3666.125921,-10288.862594,-814.226536,-5286.058936
3666.126251,-10066.800811,-888.247130,-4903.011187
3666.126581,-9178.553681,-222.061783,76.609550
3666.126910,-7994.224174,222.061783,2987.772442
3666.127240,-7179.997637,296.082377,1378.971896
3666.127570,-7846.182985,592.164754,-2451.505594
3666.127900,-9918.759623,518.144159,-4979.620737
3666.128230,-10881.027347,74.020594,-3907.087040
3666.128559,-10510.924376,370.102971,229.828649
3666.128889,-10658.965565,592.164754,3983.696590
3666.129219,-10510.924376,74.020594,3983.696590
3666.129549,-10732.986159,148.041188,306.438199
3666.129879,-10732.986159,-370.102971,-3983.696590
3666.130208,-11325.150913,-592.164754,-3600.648841
3666.130538,-10658.965565,148.041188,536.266849
3666.130868,-9252.574275,518.144159,3524.039291
3666.131198,-7698.141797,592.164754,2834.553343
3666.131528,-8216.285956,370.102971,-612.876398
3666.131857,-10140.821405,444.123565,-2911.162892
3666.132187,-10955.047942,-370.102971,-3294.210641
3666.132517,-10584.944971,-518.144159,-76.609550
3666.132847,-9696.697840,0.000000,4519.963438
3666.133177,-10140.821405,148.041188,5822.325785
3666.133506,-10807.006753,296.082377,2834.553343
3666.133836,-10140.821405,-592.164754,-2298.286494
3666.134166,-10066.800811,-1258.350101,-3677.258390
3666.134496,-9918.759623,-592.164754,306.438199
3666.134826,-8808.450710,74.020594,4903.011187
3666.135155,-7698.141797,148.041188,4443.353888
3666.135485,-7105.977043,0.000000,0.000000
3666.135815,-8364.327145,0.000000,-3370.820191
3666.136145,-10436.903782,-296.082377,-3830.477490
3666.136475,-10436.903782,-370.102971,-689.485948
3666.136804,-9622.677246,-444.123565,3447.429741
3666.137134,-9474.636058,222.061783,5439.278036
3666.137464,-9770.718434,74.020594,3064.381992
3666.137794,-10214.842000,-222.061783,-1608.800546
3666.138124,-10881.027347,-370.102971,-3524.039291
3666.138453,-11103.089130,-148.041188,-306.438199
3666.138783,-9770.718434,592.164754,3830.477490
3666.139113,-8438.347739,888.247130,4519.963438
3666.139443,-8364.327145,888.247130,1608.800546
3666.139773,-8808.450710,814.226536,-2451.505594
3666.140102,-10436.903782,518.144159,-3907.087040
3666.140432,-10881.027347,592.164754,-2374.896044
3666.140762,-10288.862594,740.205942,2374.896044
3666.141092,-10584.944971,740.205942,5209.449386
3666.141422,-10881.027347,888.247130,3907.087040
3666.141751,-10362.883188,148.041188,-1072.533697
3666.142081,-10584.944971,-444.123565,-4213.525239
3666.142411,-11029.068536,-518.144159,-2068.457845
3666.142741,-10510.924376,74.020594,3294.210641
3666.143070,-8882.471304,740.205942,5209.449386
3666.143400,-7846.182985,518.144159,2145.067394
3666.143730,-8290.306550,518.144159,-2451.505594
3666.144060,-10881.027347,370.102971,-4443.353888
3666.144390,-11695.253884,0.000000,-2681.334243
3666.144719,-10140.821405,0.000000,919.314598
3666.145049,-9400.615463,148.041188,4136.915689
3666.145379,-9474.636058,0.000000,3294.210641
3666.145709,-9918.759623,0.000000,-689.485948
3666.146039,-9696.697840,-666.185348,-4903.011187
3666.146368,-10214.842000,-444.123565,-4443.353888
3666.146698,-9918.759623,-148.041188,76.609550
3666.147028,-9252.574275,592.164754,3524.039291
3666.147358,-8438.347739,370.102971,2528.115143
3666.147688,-8512.368333,296.082377,-1608.800546
3666.148017,-9770.718434,0.000000,-4903.011187
3666.148347,-11103.089130,-222.061783,-4749.792088
3666.148677,-10510.924376,-518.144159,-689.485948
3666.149007,-10066.800811,0.000000,3830.477490
3666.149337,-9622.677246,-222.061783,4060.306139
3666.149666,-9474.636058,148.041188,1072.533697
3666.149996,-9400.615463,-518.144159,-3370.820191
3666.150326,-10658.965565,-814.226536,-4290.134789
3666.150656,-10658.965565,-444.123565,0.000000
3666.150986,-9696.697840,0.000000,4366.744339
3666.151315,-8956.491898,296.082377,3677.258390
3666.151645,-8882.471304,0.000000,-153.219100
3666.151975,-9474.636058,-74.020594,-3140.991542
3666.152305,-11029.068536,-370.102971,-4290.134789
3666.152635,-10214.842000,-592.164754,-689.485948
3666.152964,-9252.574275,-296.082377,3600.648841
3666.153294,-9326.594869,148.041188,5056.230287
3666.153624,-9918.759623,444.123565,2528.115143
3666.153954,-9770.718434,74.020594,-2298.286494
3666.154284,-10436.903782,-444.123565,-4136.915689
3666.154613,-10584.944971,-296.082377,-612.876398
3666.154943,-9770.718434,74.020594,3753.867940
3666.155273,-8808.450710,444.123565,3983.696590
3666.155603,-8142.265362,0.000000,766.095498
3666.155933,-8882.471304,222.061783,-3064.381992
3666.156262,-10658.965565,74.020594,-3753.867940
3666.156592,-10732.986159,148.041188,-1608.800546
3666.156922,-9696.697840,0.000000,3370.820191
3666.157252,-9474.636058,666.185348,5822.325785
3666.157582,-9992.780217,444.123565,4060.306139
3666.157911,-9992.780217,0.000000,-689.485948
3666.158241,-10436.903782,-148.041188,-3294.210641
3666.158571,-10881.027347,-148.041188,-1685.410096
3666.158901,-9844.739029,370.102971,3140.991542
3666.159231,-8956.491898,1110.308913,5056.230287
3666.159560,-8808.450710,740.205942,2604.724693
3666.159890,-9548.656652,666.185348,-1149.143247
3666.160220,-11103.089130,222.061783,-3907.087040
3666.160550,-11621.233289,0.000000,-2604.724693
3666.160880,-9696.697840,148.041188,689.485948
3666.161209,-9326.594869,444.123565,4826.401637
3666.161539,-9474.636058,444.123565,4136.915689
3666.161869,-9622.677246,222.061783,0.000000
3666.162199,-9770.718434,-296.082377,-3830.477490
3666.162529,-10658.965565,-296.082377,-2834.553343
3666.162858,-10658.965565,148.041188,2068.457845
3666.163188,-10066.800811,296.082377,4979.620737
3666.163518,-9030.512492,148.041188,2911.162892
3666.163848,-8364.327145,-74.020594,-1915.238745
3666.164178,-9844.739029,-222.061783,-3677.258390
3666.164507,-10436.903782,-222.061783,-3294.210641
3666.164837,-9252.574275,-74.020594,-536.266849
3666.165167,-7920.203579,740.205942,3140.991542
3666.165497,-9400.615463,814.226536,2911.162892
3666.165827,-9622.677246,74.020594,-536.266849
3666.166156,-9992.780217,-222.061783,-4213.525239
3666.166486,-10436.903782,-518.144159,-4060.306139
3666.166816,-10362.883188,-296.082377,-383.047749
3666.167146,-9400.615463,0.000000,3370.820191
3666.167475,-9104.533087,370.102971,3140.991542
3666.167805,-9030.512492,296.082377,-383.047749
3666.168135,-9696.697840,0.000000,-3524.039291
3666.168465,-10732.986159,-222.061783,-3983.696590
3666.168795,-10140.821405,-370.102971,-1072.533697
3666.169124,-8734.430116,0.000000,3217.601092
3666.169454,-8808.450710,222.061783,4213.525239
3666.169784,-9770.718434,222.061783,1149.143247
3666.170114,-9992.780217,0.000000,-2681.334243
3666.170444,-10732.986159,0.000000,-4136.915689
3666.170773,-11177.109724,0.000000,-766.095498
3666.171103,-10658.965565,148.041188,3217.601092
3666.171433,-9548.656652,444.123565,4213.525239
3666.171763,-9400.615463,74.020594,1225.752797
3666.172093,-9548.656652,0.000000,-2068.457845
3666.172423,-10732.986159,-148.041188,-3064.381992
3666.172752,-10214.842000,-444.123565,-1838.629195
3666.173082,-9326.594869,0.000000,1838.629195
3666.173412,-9104.533087,296.082377,4136.915689
3666.173742,-9400.615463,518.144159,2451.505594
3666.174072,-9474.636058,-148.041188,-919.314598
3666.174402,-9696.697840,-592.164754,-2987.772442
3666.174732,-10436.903782,-1036.288319,-1072.533697
3666.175061,-10140.821405,-222.061783,3447.429741
3666.175391,-9400.615463,222.061783,5132.839837
3666.175721,-9104.533087,0.000000,2604.724693
3666.176051,-9326.594869,0.000000,-1302.362347
3666.176381,-10362.883188,-148.041188,-2834.553343
3666.176711,-9770.718434,-370.102971,-2834.553343
3666.177041,-8512.368333,-148.041188,612.876398
3666.177370,-8512.368333,296.082377,3907.087040
3666.177700,-9178.553681,592.164754,3217.601092
3666.178030,-8734.430116,0.000000,-766.095498
3666.178360,-9548.656652,296.082377,-3907.087040
3666.178690,-11547.212695,0.000000,-2528.115143
3666.179020,-11325.150913,0.000000,1991.848295
3666.179350,-9844.739029,222.061783,4903.011187
3666.179679,-9548.656652,74.020594,3907.087040
3666.180009,-9844.739029,148.041188,689.485948
3666.180339,-10288.862594,148.041188,-2298.286494
3666.180669,-10066.800811,518.144159,-2451.505594
3666.180999,-9474.636058,222.061783,536.266849
3666.181329,-9474.636058,962.267725,3983.696590
3666.181659,-10584.944971,1110.308913,4519.963438
3666.181988,-10510.924376,740.205942,612.876398
3666.182318,-10436.903782,74.020594,-3217.601092
3666.182648,-11029.068536,-296.082377,-3753.867940
3666.182978,-10807.006753,-222.061783,-153.219100
3666.183308,-9178.553681,0.000000,4136.915689
3666.183638,-8290.306550,222.061783,5056.230287
3666.183968,-8956.491898,296.082377,1762.019645
3666.184297,-10362.883188,518.144159,-1838.629195
3666.184627,-11621.233289,0.000000,-3600.648841
3666.184957,-10510.924376,0.000000,-1608.800546
3666.185287,-9326.594869,74.020594,1991.848295
3666.185617,-9178.553681,0.000000,3677.258390
3666.185947,-8586.388927,0.000000,612.876398
3666.186277,-7994.224174,-222.061783,-3677.258390
3666.186606,-9104.533087,-666.185348,-4903.011187
3666.186936,-10732.986159,-444.123565,-2298.286494
3666.187266,-10510.924376,370.102971,2145.067394
3666.187596,-9252.574275,74.020594,3370.820191
3666.187926,-8512.368333,-296.082377,1455.581446
3666.188256,-9030.512492,-296.082377,-1608.800546
3666.188586,-9992.780217,-518.144159,-3370.820191
3666.188916,-9770.718434,-370.102971,-2451.505594
3666.189245,-9030.512492,592.164754,842.705048
3666.189575,-9252.574275,444.123565,3370.820191
3666.189905,-10066.800811,592.164754,1838.629195
3666.190235,-10362.883188,148.041188,-1915.238745
3666.190565,-10510.924376,-370.102971,-4136.915689
3666.190895,-10732.986159,-666.185348,-2681.334243
3666.191225,-10214.842000,-296.082377,1838.629195
3666.191554,-9178.553681,0.000000,3677.258390
3666.191884,-9326.594869,148.041188,2757.943793
3666.192214,-10066.800811,222.061783,0.000000
3666.192544,-11029.068536,74.020594,-2298.286494
3666.192874,-11399.171507,-222.061783,-2068.457845
3666.193204,-9992.780217,-518.144159,1072.533697
3666.193534,-9400.615463,222.061783,4290.134789
3666.193863,-9548.656652,296.082377,3140.991542
3666.194193,-9252.574275,0.000000,0.000000
3666.194523,-9474.636058,-296.082377,-2987.772442
3666.194853,-10436.903782,-666.185348,-2911.162892
3666.195183,-10362.883188,-592.164754,1302.362347
3666.195513,-9104.533087,-296.082377,4290.134789
3666.195843,-8216.285956,-148.041188,3524.039291
3666.196172,-8734.430116,148.041188,1302.362347
3666.196502,-10214.842000,296.082377,-1762.019645
3666.196832,-10732.986159,0.000000,-2604.724693
3666.197162,-9770.718434,-296.082377,-76.609550
3666.197492,-9474.636058,222.061783,3753.867940
3666.197822,-9918.759623,740.205942,4749.792088
3666.198152,-9474.636058,444.123565,1149.143247
3666.198481,-8882.471304,0.000000,-2528.115143
3666.198811,-9548.656652,-444.123565,-3677.258390
3666.199141,-10288.862594,222.061783,0.000000
3666.199471,-10288.862594,1036.288319,3907.087040
3666.199801,-9770.718434,1258.350101,4213.525239
3666.200131,-9844.739029,962.267725,1915.238745
3666.200461,-10436.903782,666.185348,-1302.362347
3666.200790,-11325.150913,370.102971,-2911.162892
3666.201120,-11177.109724,370.102971,-689.485948
3666.201450,-10066.800811,740.205942,2911.162892
3666.201780,-10066.800811,740.205942,4213.525239
3666.202110,-9548.656652,666.185348,1532.190996
3666.202440,-9104.533087,370.102971,-1991.848295
3666.202770,-9696.697840,222.061783,-3294.210641
3666.203099,-10362.883188,296.082377,-1149.143247
3666.203429,-9474.636058,518.144159,3217.601092
3666.203759,-9474.636058,1258.350101,3370.820191
3666.204089,-9770.718434,592.164754,1225.752797
3666.204419,-10140.821405,518.144159,-1455.581446
3666.204749,-10436.903782,-148.041188,-3140.991542
3666.205079,-9844.739029,-74.020594,-2528.115143
3666.205408,-8956.491898,0.000000,919.314598
3666.205738,-9104.533087,222.061783,3983.696590
3666.206068,-9474.636058,296.082377,2757.943793
3666.206398,-9400.615463,296.082377,-1838.629195
3666.206728,-9252.574275,-148.041188,-4290.134789
3666.207058,-10362.883188,-74.020594,-2604.724693
3666.207388,-9992.780217,0.000000,1378.971896
3666.207718,-9104.533087,148.041188,2834.553343
3666.208047,-9030.512492,222.061783,1302.362347
3666.208377,-9252.574275,148.041188,-1532.190996
3666.208707,-10436.903782,74.020594,-3600.648841
3666.209037,-10732.986159,-592.164754,-3677.258390
3666.209367,-9992.780217,-370.102971,-306.438199
3666.209697,-9252.574275,74.020594,3064.381992
3666.210027,-9474.636058,0.000000,2681.334243
3666.210356,-9252.574275,-148.041188,-383.047749
3666.210686,-9474.636058,-814.226536,-3677.258390
3666.211016,-10140.821405,-740.205942,-2757.943793
3666.211346,-9770.718434,-518.144159,1072.533697
3666.211676,-9326.594869,0.000000,4213.525239
3666.212006,-9622.677246,222.061783,3217.601092
3666.212336,-10140.821405,0.000000,536.266849
3666.212665,-11399.171507,0.000000,-2145.067394
3666.212995,-11621.233289,-592.164754,-2528.115143
3666.213325,-10214.842000,-1110.308913,-459.657299
3666.213655,-8956.491898,-888.247130,3217.601092
3666.213985,-8660.409521,-444.123565,3907.087040
3666.214315,-8808.450710,-444.123565,612.876398
3666.214645,-8734.430116,-740.205942,-2834.553343
3666.214974,-10066.800811,-518.144159,-3140.991542
3666.215304,-10732.986159,0.000000,383.047749
3666.215634,-9844.739029,0.000000,4060.306139
3666.215964,-9400.615463,222.061783,4673.182538
3666.216294,-9178.553681,0.000000,1915.238745
3666.216624,-10140.821405,-296.082377,-1149.143247
3666.216954,-10362.883188,-740.205942,-2681.334243
3666.217283,-10140.821405,-888.247130,-612.876398
3666.217613,-9104.533087,-370.102971,2681.334243
3666.217943,-9400.615463,296.082377,4519.963438
3666.218273,-9548.656652,296.082377,1838.629195
3666.218603,-9400.615463,148.041188,-2604.724693
3666.218933,-10140.821405,-148.041188,-4443.353888
3666.219263,-10881.027347,-74.020594,-1072.533697
3666.219592,-9918.759623,0.000000,3600.648841
3666.219922,-9326.594869,740.205942,4903.011187
3666.220252,-9474.636058,592.164754,2221.676944
3666.220582,-9918.759623,740.205942,-1455.581446
3666.220912,-11473.192101,370.102971,-3064.381992
3666.221242,-11547.212695,148.041188,-1532.190996
3666.221572,-10140.821405,296.082377,2528.115143
3666.221901,-10214.842000,1258.350101,4749.792088
3666.222231,-9696.697840,962.267725,2374.896044
3666.222561,-8956.491898,666.185348,-1991.848295
3666.222891,-9104.533087,74.020594,-4826.401637
3666.223221,-9844.739029,222.061783,-2681.334243
3666.223551,-10140.821405,888.247130,2145.067394
3666.223881,-9474.636058,1036.288319,4443.353888
3666.224211,-9400.615463,1110.308913,2374.896044
3666.224540,-9770.718434,814.226536,-1302.362347
3666.224870,-10510.924376,444.123565,-4136.915689
3666.225200,-11103.089130,74.020594,-3140.991542
3666.225530,-9770.718434,74.020594,766.095498
3666.225860,-8660.409521,740.205942,3907.087040
3666.226190,-9104.533087,592.164754,2911.162892
3666.226520,-9696.697840,444.123565,-1225.752797
3666.226849,-9696.697840,0.000000,-4979.620737
3666.227179,-9992.780217,-444.123565,-4673.182538
3666.227509,-8882.471304,-370.102971,536.266849
3666.227839,-8586.388927,370.102971,3830.477490
3666.228169,-8734.430116,814.226536,3140.991542
3666.228499,-9326.594869,444.123565,-612.876398
3666.228829,-10807.006753,444.123565,-2987.772442
3666.229158,-11547.212695,148.041188,-3294.210641
3666.229488,-10510.924376,-296.082377,0.000000
3666.229818,-8956.491898,-296.082377,4136.915689
3666.230148,-9474.636058,666.185348,4443.353888
3666.230478,-9844.739029,74.020594,153.219100
3666.230808,-9918.759623,-370.102971,-4519.963438
3666.231138,-10362.883188,-1184.329507,-4749.792088
3666.231467,-9992.780217,-888.247130,229.828649
3666.231797,-9548.656652,0.000000,3907.087040
3666.232127,-8734.430116,222.061783,4366.744339
3666.232457,-8808.450710,-148.041188,995.924147
3666.232787,-9844.739029,-296.082377,-2528.115143
3666.233117,-11399.171507,-370.102971,-2528.115143
3666.233447,-11325.150913,-518.144159,-536.266849
3666.233776,-10140.821405,0.000000,3677.258390
3666.234106,-9622.677246,-148.041188,4903.011187
3666.234436,-9400.615463,-518.144159,1149.143247
3666.234766,-8808.450710,-1036.288319,-3370.820191
3666.235096,-9770.718434,-1184.329507,-4979.620737
3666.235426,-9696.697840,-962.267725,-1762.019645
3666.235756,-9326.594869,0.000000,3294.210641
3666.236085,-8882.471304,222.061783,4596.572988
3666.236415,-9252.574275,0.000000,1915.238745
3666.236745,-9548.656652,-518.144159,-2145.067394
3666.237075,-10807.006753,-666.185348,-3294.210641
3666.237405,-10658.965565,-962.267725,-842.705048
3666.237735,-10066.800811,-592.164754,3907.087040
3666.238065,-9844.739029,222.061783,6128.763984
3666.238394,-10140.821405,222.061783,3600.648841
3666.238724,-10140.821405,0.000000,-1608.800546
3666.239054,-9844.739029,-814.226536,-4903.011187
3666.239384,-10436.903782,-518.144159,-2145.067394
3666.239714,-9622.677246,-148.041188,3294.210641
3666.240044,-8438.347739,370.102971,5209.449386
3666.240374,-8364.327145,74.020594,2374.896044
3666.240704,-9104.533087,0.000000,-1225.752797
3666.241033,-10955.047942,222.061783,-2528.115143
3666.241363,-11843.295072,148.041188,-995.924147
3666.241693,-10658.965565,148.041188,2221.676944
3666.242023,-9622.677246,592.164754,5209.449386
3666.242353,-9918.759623,518.144159,3370.820191
3666.242683,-9918.759623,74.020594,-919.314598
3666.243013,-10214.842000,0.000000,-5286.058936
3666.243342,-9770.718434,-148.041188,-3983.696590
3666.243672,-9474.636058,296.082377,536.266849
3666.244002,-8216.285956,888.247130,4290.134789
3666.244332,-8290.306550,888.247130,2911.162892
3666.244662,-8512.368333,740.205942,-1455.581446
3666.244992,-9992.780217,814.226536,-4213.525239
3666.245322,-11547.212695,444.123565,-3370.820191
3666.245651,-11177.109724,370.102971,612.876398
3666.245981,-9992.780217,814.226536,3677.258390
3666.246311,-9696.697840,1110.308913,4060.306139
3666.246641,-9474.636058,666.185348,-229.828649
3666.246971,-9474.636058,148.041188,-4979.620737
3666.247301,-10362.883188,148.041188,-5439.278036
3666.247631,-10214.842000,518.144159,-995.924147
3666.247960,-8956.491898,740.205942,3600.648841
3666.248290,-8216.285956,814.226536,2834.553343
3666.248620,-8364.327145,444.123565,-306.438199
3666.248950,-9696.697840,296.082377,-3140.991542
3666.249280,-10955.047942,-444.123565,-3677.258390
3666.249610,-10955.047942,-148.041188,-919.314598
3666.249940,-9844.739029,148.041188,3907.087040
3666.250269,-9770.718434,444.123565,5286.058936
3666.250599,-10436.903782,370.102971,1838.629195
3666.250929,-9696.697840,0.000000,-3294.210641
3666.251259,-9622.677246,-814.226536,-5286.058936
3666.251589,-9104.533087,-1332.370696,-1915.238745
3666.251919,-9030.512492,74.020594,3140.991542
3666.252249,-8882.471304,444.123565,4519.963438
3666.252578,-8734.430116,-148.041188,1532.190996
3666.252908,-8660.409521,-370.102971,-2604.724693
3666.253238,-10584.944971,-148.041188,-3140.991542
3666.253568,-11325.150913,-592.164754,-766.095498
3666.253898,-10436.903782,-370.102971,3064.381992
3666.254228,-9918.759623,222.061783,5362.668486
3666.254558,-10214.842000,0.000000,2451.505594
3666.254887,-9918.759623,-296.082377,-1991.848295
3666.255217,-9474.636058,-888.247130,-4903.011187
3666.255547,-9918.759623,-962.267725,-2528.115143
3666.255877,-8586.388927,-148.041188,2451.505594
3666.256207,-8290.306550,0.000000,4979.620737
3666.256537,-8364.327145,148.041188,2528.115143
3666.256867,-9104.533087,74.020594,-919.314598
3666.257196,-10584.944971,0.000000,-3217.601092
3666.257526,-12213.398043,0.000000,-1455.581446
3666.257856,-10955.047942,-222.061783,2834.553343
3666.258186,-10214.842000,296.082377,6052.154434
3666.258516,-10140.821405,370.102971,3983.696590
3666.258846,-9992.780217,0.000000,-766.095498
