#time,accel_x,accel_y,accel_z
3973.397746,-11695.253884,592.164754,3294.210641
3973.398076,-12139.377449,962.267725,2528.115143
3973.398407,-11769.274478,814.226536,1302.362347
3973.398737,-10658.965565,666.185348,536.266849
3973.399067,-9030.512492,-444.123565,1149.143247
3973.399397,-7698.141797,-592.164754,1225.752797
3973.399727,-7031.956449,-1184.329507,1072.533697
3973.400057,-7550.100608,0.000000,919.314598
3973.400388,-9104.533087,0.000000,1149.143247
3973.400718,-9844.739029,370.102971,1225.752797
3973.401048,-10362.883188,592.164754,689.485948
3973.401378,-10732.986159,740.205942,1532.190996
3973.401708,-10955.047942,888.247130,2221.676944
3973.402038,-10955.047942,592.164754,2911.162892
3973.402368,-10436.903782,814.226536,2451.505594
3973.402699,-9918.759623,74.020594,2145.067394
3973.403029,-9326.594869,370.102971,1838.629195
3973.403359,-8660.409521,148.041188,995.924147
3973.403689,-8734.430116,444.123565,919.314598
3973.404019,-9178.553681,0.000000,1455.581446
3973.404349,-9178.553681,1110.308913,1302.362347
3973.404679,-9992.780217,296.082377,1532.190996
3973.405010,-10288.862594,666.185348,1532.190996
3973.405340,-11029.068536,888.247130,1762.019645
3973.405670,-11177.109724,518.144159,2528.115143
3973.406000,-10732.986159,370.102971,1915.238745
3973.406330,-10658.965565,444.123565,1915.238745
3973.406660,-10214.842000,0.000000,2145.067394
3973.406990,-9622.677246,-740.205942,2374.896044
3973.407321,-8956.491898,-592.164754,1838.629195
3973.407651,-8882.471304,-962.267725,766.095498
3973.407981,-8808.450710,-1184.329507,153.219100
3973.408311,-8956.491898,-1480.411884,612.876398
3973.408641,-9918.759623,-1702.473667,1225.752797
3973.408971,-9474.636058,-2146.597232,2911.162892
3973.409302,-11621.233289,-2294.638420,3294.210641
3973.409632,-11103.089130,-2072.576638,3064.381992
3973.409962,-10881.027347,-1776.494261,3140.991542
3973.410292,-11399.171507,-1554.432478,1455.581446
3973.410622,-10140.821405,-1554.432478,1072.533697
3973.410952,-10510.924376,-1702.473667,1762.019645
3973.411282,-8734.430116,-1998.556043,2298.286494
3973.411613,-8660.409521,-2368.659014,1991.848295
3973.411943,-9326.594869,-2738.761985,1915.238745
3973.412273,-10066.800811,-2590.720797,2068.457845
3973.412603,-10436.903782,-2664.741391,1685.410096
3973.412933,-10214.842000,-2664.741391,995.924147
3973.413263,-10362.883188,-2812.782580,536.266849
3973.413593,-10807.006753,-2886.803174,766.095498
3973.413924,-10436.903782,-3627.009116,1378.971896
3973.414254,-9770.718434,-4145.153275,1915.238745
3973.414584,-8660.409521,-3997.112087,2757.943793
3973.414914,-9400.615463,-3923.091493,2451.505594
3973.415244,-9178.553681,-3627.009116,1072.533697
3973.415574,-9474.636058,-3330.926739,0.000000
3973.415905,-9696.697840,-2738.761985,-995.924147
3973.416235,-9548.656652,-2812.782580,0.000000
3973.416565,-9548.656652,-2886.803174,536.266849
3973.416895,-9770.718434,-3182.885551,995.924147
3973.417225,-9770.718434,-3034.844362,919.314598
3973.417555,-9918.759623,-3330.926739,995.924147
3973.417885,-9474.636058,-3182.885551,306.438199
3973.418216,-8512.368333,-2812.782580,-153.219100
3973.418546,-8290.306550,-2516.700203,-153.219100
3973.418876,-9030.512492,-1924.535449,0.000000
3973.419206,-9326.594869,-1554.432478,306.438199
3973.419536,-10214.842000,-1258.350101,689.485948
3973.419866,-10584.944971,-1332.370696,1149.143247
3973.420196,-11177.109724,-1184.329507,153.219100
3973.420526,-10436.903782,-1184.329507,-842.705048
3973.420856,-9474.636058,-1332.370696,-229.828649
3973.421186,-9326.594869,-1332.370696,383.047749
3973.421516,-9400.615463,-740.205942,1149.143247
3973.421846,-9326.594869,0.000000,306.438199
3973.422176,-9104.533087,740.205942,-459.657299
3973.422506,-9918.759623,1184.329507,-1455.581446
3973.422836,-10807.006753,1332.370696,-995.924147
3973.423166,-11325.150913,1332.370696,76.609550
3973.423496,-10732.986159,1258.350101,1072.533697
3973.423826,-10436.903782,814.226536,919.314598
3973.424156,-9992.780217,592.164754,612.876398
3973.424486,-9844.739029,1258.350101,-919.314598
3973.424815,-9400.615463,1258.350101,-1225.752797
3973.425145,-9178.553681,2220.617826,-842.705048
3973.425475,-9548.656652,2368.659014,1225.752797
3973.425805,-9992.780217,2886.803174,1915.238745
3973.426135,-10214.842000,2590.720797,1838.629195
3973.426465,-10658.965565,3034.844362,536.266849
3973.426795,-10436.903782,2442.679609,-1838.629195
3973.427125,-9770.718434,2442.679609,-2374.896044
3973.427455,-8956.491898,2072.576638,-1302.362347
3973.427785,-9104.533087,2368.659014,0.000000
3973.428115,-9252.574275,2442.679609,842.705048
3973.428445,-9548.656652,2664.741391,995.924147
3973.428775,-9252.574275,2886.803174,0.000000
3973.429105,-9622.677246,2664.741391,-612.876398
3973.429435,-10214.842000,2738.761985,-536.266849
3973.429765,-9844.739029,2590.720797,536.266849
3973.430095,-9548.656652,2886.803174,306.438199
3973.430425,-9622.677246,2738.761985,-153.219100
3973.430755,-10658.965565,3034.844362,-1302.362347
3973.431084,-10436.903782,2738.761985,-2145.067394
3973.431414,-9770.718434,2368.659014,-2604.724693
3973.431744,-9474.636058,2294.638420,-1762.019645
3973.432074,-9326.594869,1850.514855,842.705048
3973.432404,-9918.759623,1776.494261,2068.457845
3973.432734,-9918.759623,1258.350101,1378.971896
3973.433064,-9474.636058,888.247130,-229.828649
3973.433394,-9474.636058,518.144159,-1608.800546
3973.433724,-9918.759623,444.123565,-1225.752797
3973.434054,-9622.677246,296.082377,229.828649
3973.434384,-9474.636058,222.061783,995.924147
3973.434714,-9474.636058,0.000000,2451.505594
3973.435044,-10140.821405,-222.061783,2068.457845
3973.435374,-10510.924376,-148.041188,842.705048
3973.435704,-10214.842000,-888.247130,-1149.143247
3973.436034,-9474.636058,-1184.329507,-1608.800546
3973.436364,-9030.512492,-1554.432478,-612.876398
3973.436694,-9326.594869,-1480.411884,612.876398
3973.437024,-9178.553681,-1850.514855,1762.019645
3973.437353,-9844.739029,-1702.473667,919.314598
3973.437683,-9992.780217,-2072.576638,76.609550
3973.438013,-10066.800811,-2072.576638,0.000000
3973.438343,-9844.739029,-2294.638420,612.876398
3973.438673,-9918.759623,-2368.659014,2221.676944
3973.439003,-9696.697840,-2590.720797,2834.553343
3973.439333,-9252.574275,-2664.741391,2451.505594
3973.439663,-9696.697840,-2960.823768,1072.533697
3973.439993,-9992.780217,-1924.535449,-229.828649
3973.440323,-9992.780217,-2146.597232,-766.095498
3973.440653,-9918.759623,-1924.535449,689.485948
3973.440983,-10510.924376,-1924.535449,1991.848295
3973.441313,-10288.862594,-2368.659014,2757.943793
3973.441643,-10214.842000,-2368.659014,2298.286494
3973.441973,-10140.821405,-1924.535449,0.000000
3973.442303,-9770.718434,-1998.556043,-536.266849
3973.442633,-9844.739029,-2146.597232,-766.095498
3973.442963,-9918.759623,-1332.370696,1072.533697
3973.443293,-10066.800811,-1110.308913,2604.724693
3973.443622,-10214.842000,-962.267725,3217.601092
3973.443952,-10584.944971,-1184.329507,1608.800546
3973.444282,-10658.965565,-518.144159,0.000000
3973.444612,-10362.883188,-814.226536,-1225.752797
3973.444942,-10066.800811,-444.123565,-995.924147
3973.445272,-9400.615463,-814.226536,76.609550
3973.445602,-8808.450710,-740.205942,766.095498
3973.445932,-8882.471304,-222.061783,1455.581446
3973.446262,-9252.574275,0.000000,612.876398
3973.446592,-9474.636058,148.041188,-459.657299
3973.446922,-9770.718434,148.041188,-842.705048
3973.447252,-9622.677246,666.185348,0.000000
3973.447582,-9474.636058,592.164754,919.314598
3973.447912,-9252.574275,888.247130,1378.971896
3973.448242,-9104.533087,740.205942,1149.143247
3973.448572,-9474.636058,1110.308913,-1378.971896
3973.448902,-8956.491898,1332.370696,-2068.457845
3973.449232,-9326.594869,1850.514855,-1608.800546
3973.449561,-9400.615463,1850.514855,153.219100
3973.449891,-9992.780217,1998.556043,995.924147
3973.450221,-9548.656652,1406.391290,1225.752797
3973.450551,-9622.677246,1702.473667,0.000000
3973.450881,-9622.677246,1998.556043,-1762.019645
3973.451211,-9548.656652,1702.473667,-1991.848295
3973.451541,-9474.636058,1850.514855,-1685.410096
3973.451871,-9548.656652,1924.535449,0.000000
3973.452201,-9918.759623,2220.617826,1072.533697
3973.452531,-9844.739029,2368.659014,1302.362347
3973.452861,-10584.944971,2220.617826,76.609550
3973.453191,-10807.006753,2146.597232,-1685.410096
3973.453521,-9918.759623,1850.514855,-2451.505594
3973.453851,-9252.574275,1702.473667,-2145.067394
3973.454181,-9622.677246,1924.535449,-536.266849
3973.454511,-9844.739029,1776.494261,153.219100
3973.454841,-9770.718434,1776.494261,0.000000
3973.455171,-10288.862594,1480.411884,-383.047749
3973.455501,-10362.883188,1332.370696,-842.705048
3973.455830,-10066.800811,1036.288319,-995.924147
3973.456160,-9400.615463,592.164754,0.000000
3973.456490,-9474.636058,222.061783,1072.533697
3973.456820,-9474.636058,444.123565,2068.457845
3973.457150,-10066.800811,592.164754,1378.971896
3973.457480,-10362.883188,814.226536,-383.047749
3973.457810,-9992.780217,296.082377,-1302.362347
3973.458140,-9696.697840,296.082377,-612.876398
3973.458470,-9548.656652,222.061783,689.485948
3973.458800,-9918.759623,0.000000,1532.190996
3973.459130,-9548.656652,-592.164754,1762.019645
3973.459460,-9622.677246,-592.164754,536.266849
3973.459790,-9548.656652,-814.226536,-1225.752797
3973.460120,-9548.656652,-1184.329507,-1149.143247
3973.460450,-9844.739029,-888.247130,0.000000
3973.460780,-9474.636058,-814.226536,1455.581446
3973.461110,-9770.718434,-814.226536,2374.896044
3973.461440,-9992.780217,-592.164754,2451.505594
3973.461770,-10732.986159,-1036.288319,1225.752797
3973.462099,-10658.965565,-1036.288319,-383.047749
3973.462429,-10288.862594,-1184.329507,-1149.143247
3973.462759,-9844.739029,-1258.350101,306.438199
3973.463089,-9400.615463,-1332.370696,842.705048
3973.463419,-9474.636058,-1258.350101,1455.581446
3973.463749,-9548.656652,-1554.432478,1149.143247
3973.464079,-9696.697840,-1332.370696,0.000000
3973.464409,-9844.739029,-1850.514855,-536.266849
3973.464739,-10362.883188,-1258.350101,-229.828649
3973.465069,-9770.718434,-1480.411884,1149.143247
3973.465399,-9696.697840,-1258.350101,1991.848295
3973.465729,-9918.759623,-1480.411884,2145.067394
3973.466059,-10066.800811,-1184.329507,459.657299
3973.466389,-10214.842000,-666.185348,-612.876398
3973.466719,-9844.739029,-666.185348,-1225.752797
3973.467049,-10214.842000,-592.164754,459.657299
3973.467379,-9548.656652,-666.185348,1225.752797
3973.467709,-9622.677246,-444.123565,2068.457845
3973.468039,-9474.636058,-1036.288319,1378.971896
3973.468368,-9474.636058,-1036.288319,153.219100
3973.468698,-9548.656652,-592.164754,-1838.629195
3973.469028,-9992.780217,-370.102971,-1762.019645
3973.469358,-9548.656652,-296.082377,-153.219100
3973.469688,-9474.636058,-222.061783,1532.190996
3973.470018,-9252.574275,148.041188,2374.896044
3973.470348,-9844.739029,-296.082377,1991.848295
3973.470678,-10584.944971,148.041188,229.828649
3973.471008,-9844.739029,0.000000,-995.924147
3973.471338,-9326.594869,814.226536,-1225.752797
3973.471668,-9400.615463,148.041188,-536.266849
3973.471998,-9326.594869,666.185348,306.438199
3973.472328,-9178.553681,444.123565,689.485948
3973.472658,-9548.656652,518.144159,536.266849
3973.472988,-9992.780217,814.226536,-459.657299
3973.473318,-10140.821405,740.205942,-919.314598
3973.473648,-10066.800811,740.205942,-536.266849
3973.473978,-9548.656652,740.205942,383.047749
3973.474308,-9844.739029,444.123565,1532.190996
3973.474637,-9844.739029,592.164754,1149.143247
3973.474967,-10140.821405,814.226536,-76.609550
3973.475297,-10140.821405,1036.288319,-1225.752797
3973.475627,-10066.800811,1184.329507,-1302.362347
3973.475957,-9992.780217,1332.370696,-459.657299
3973.476287,-9918.759623,1110.308913,842.705048
3973.476617,-9696.697840,1036.288319,1072.533697
3973.476947,-9770.718434,814.226536,995.924147
3973.477277,-9696.697840,740.205942,-612.876398
3973.477607,-9178.553681,518.144159,-1685.410096
3973.477937,-9474.636058,370.102971,-1378.971896
3973.478267,-9400.615463,962.267725,0.000000
3973.478597,-9400.615463,888.247130,1378.971896
3973.478927,-10066.800811,1110.308913,2145.067394
3973.479257,-10362.883188,888.247130,1149.143247
3973.479587,-10732.986159,740.205942,0.000000
3973.479917,-10510.924376,740.205942,-1302.362347
3973.480247,-9696.697840,814.226536,-1685.410096
3973.480576,-9104.533087,518.144159,-766.095498
3973.480906,-9474.636058,592.164754,0.000000
3973.481236,-9400.615463,444.123565,1072.533697
3973.481566,-9474.636058,370.102971,0.000000
3973.481896,-9474.636058,444.123565,-306.438199
3973.482226,-9770.718434,222.061783,-766.095498
3973.482556,-9696.697840,0.000000,995.924147
3973.482886,-9622.677246,74.020594,1072.533697
3973.483216,-9770.718434,-74.020594,1608.800546
3973.483546,-10066.800811,0.000000,1302.362347
3973.483876,-10362.883188,222.061783,76.609550
3973.484206,-10658.965565,370.102971,-689.485948
3973.484536,-10140.821405,222.061783,-1149.143247
3973.484866,-9696.697840,148.041188,229.828649
3973.485196,-9844.739029,0.000000,1225.752797
3973.485526,-9918.759623,74.020594,1762.019645
3973.485856,-9400.615463,-518.144159,995.924147
3973.486186,-9474.636058,-666.185348,-306.438199
3973.486516,-9474.636058,-962.267725,-1455.581446
3973.486845,-9622.677246,-1036.288319,0.000000
3973.487175,-9548.656652,-888.247130,1072.533697
3973.487505,-9844.739029,-814.226536,2757.943793
3973.487835,-10214.842000,-444.123565,3140.991542
3973.488165,-10584.944971,-592.164754,1762.019645
3973.488495,-10807.006753,-666.185348,76.609550
3973.488825,-10140.821405,-740.205942,-1072.533697
3973.489155,-9548.656652,-592.164754,-689.485948
3973.489485,-9104.533087,-1258.350101,153.219100
3973.489815,-9474.636058,-666.185348,383.047749
3973.490145,-9178.553681,-740.205942,459.657299
3973.490475,-9548.656652,-1258.350101,383.047749
3973.490805,-9696.697840,-1184.329507,-383.047749
3973.491135,-9770.718434,-1110.308913,76.609550
3973.491465,-10066.800811,-962.267725,383.047749
3973.491795,-9474.636058,-1184.329507,1915.238745
3973.492125,-9770.718434,-1036.288319,2604.724693
3973.492455,-9844.739029,-962.267725,1532.190996
3973.492785,-10510.924376,-518.144159,0.000000
3973.493114,-10510.924376,-148.041188,-919.314598
3973.493444,-10214.842000,74.020594,-919.314598
3973.493774,-9696.697840,74.020594,153.219100
3973.494104,-9844.739029,222.061783,1149.143247
3973.494434,-9622.677246,0.000000,995.924147
3973.494764,-9844.739029,-222.061783,76.609550
3973.495094,-9844.739029,-222.061783,-1378.971896
3973.495424,-9326.594869,-1110.308913,-1302.362347
3973.495754,-9400.615463,-370.102971,-229.828649
3973.496084,-9474.636058,0.000000,1378.971896
3973.496414,-10066.800811,370.102971,3294.210641
3973.496744,-10362.883188,518.144159,3370.820191
3973.497074,-10881.027347,592.164754,1838.629195
3973.497404,-10807.006753,666.185348,0.000000
3973.497734,-10510.924376,888.247130,-1072.533697
3973.498064,-9696.697840,962.267725,-995.924147
3973.498394,-9400.615463,1036.288319,-306.438199
3973.498724,-9030.512492,1332.370696,-306.438199
3973.499054,-8882.471304,444.123565,-76.609550
3973.499383,-9400.615463,740.205942,-919.314598
3973.499713,-8956.491898,740.205942,-1302.362347
3973.500043,-9474.636058,518.144159,-536.266849
3973.500373,-9030.512492,222.061783,536.266849
3973.500703,-9474.636058,592.164754,1225.752797
3973.501033,-9326.594869,888.247130,2374.896044
3973.501363,-10066.800811,814.226536,1072.533697
3973.501693,-10510.924376,1184.329507,-229.828649
3973.502023,-10658.965565,1258.350101,-1302.362347
3973.502353,-9992.780217,1480.411884,-1072.533697
3973.502683,-9770.718434,1184.329507,306.438199
3973.503013,-9844.739029,888.247130,766.095498
3973.503343,-9030.512492,518.144159,306.438199
3973.503673,-9030.512492,0.000000,-919.314598
3973.504003,-8882.471304,296.082377,-1455.581446
3973.504333,-9252.574275,0.000000,-1838.629195
3973.504663,-9178.553681,296.082377,-383.047749
3973.504993,-9400.615463,518.144159,1072.533697
3973.505323,-9474.636058,666.185348,2757.943793
3973.505652,-10658.965565,518.144159,2604.724693
3973.505982,-11325.150913,592.164754,1532.190996
3973.506312,-10732.986159,518.144159,-612.876398
3973.506642,-10214.842000,222.061783,-1149.143247
3973.506972,-9474.636058,370.102971,-1149.143247
3973.507302,-9474.636058,222.061783,0.000000
3973.507632,-9178.553681,222.061783,383.047749
3973.507962,-9400.615463,148.041188,0.000000
3973.508292,-9474.636058,0.000000,-766.095498
3973.508622,-9622.677246,-518.144159,-1072.533697
3973.508952,-9770.718434,-666.185348,-689.485948
3973.509282,-9400.615463,-1036.288319,842.705048
3973.509612,-9326.594869,-814.226536,2451.505594
3973.509942,-9844.739029,-444.123565,2221.676944
3973.510272,-10362.883188,-444.123565,1302.362347
3973.510602,-10881.027347,0.000000,0.000000
3973.510932,-10510.924376,0.000000,-536.266849
3973.511262,-10288.862594,296.082377,-153.219100
3973.511591,-10140.821405,0.000000,842.705048
3973.511921,-9770.718434,-74.020594,1149.143247
3973.512251,-9104.533087,-888.247130,842.705048
3973.512581,-9400.615463,-962.267725,0.000000
3973.512911,-8808.450710,-1036.288319,-1378.971896
3973.513241,-9400.615463,-1258.350101,-1302.362347
3973.513571,-9548.656652,-962.267725,536.266849
3973.513901,-9474.636058,-888.247130,2757.943793
3973.514231,-9622.677246,-592.164754,3524.039291
3973.514561,-10288.862594,-444.123565,2911.162892
3973.514891,-10807.006753,-370.102971,1072.533697
3973.515221,-10288.862594,-222.061783,-459.657299
3973.515551,-10140.821405,-296.082377,-919.314598
3973.515881,-9622.677246,-74.020594,-459.657299
3973.516211,-9326.594869,-296.082377,306.438199
3973.516541,-9104.533087,-370.102971,306.438199
3973.516871,-9326.594869,-222.061783,612.876398
3973.517201,-9474.636058,-148.041188,-842.705048
3973.517531,-9474.636058,-444.123565,-995.924147
3973.517860,-9844.739029,-370.102971,-306.438199
3973.518190,-9770.718434,-592.164754,1302.362347
3973.518520,-9696.697840,-592.164754,2451.505594
3973.518850,-9992.780217,-370.102971,1991.848295
3973.519180,-10362.883188,0.000000,459.657299
3973.519510,-10807.006753,148.041188,306.438199
3973.519840,-10140.821405,444.123565,-612.876398
3973.520169,-9992.780217,962.267725,0.000000
3973.520499,-9696.697840,518.144159,919.314598
3973.520829,-9696.697840,518.144159,1685.410096
3973.521159,-9178.553681,-222.061783,766.095498
3973.521488,-9400.615463,-444.123565,-842.705048
3973.521818,-9696.697840,-592.164754,-1608.800546
3973.522148,-9474.636058,-444.123565,-1302.362347
3973.522478,-9400.615463,0.000000,229.828649
3973.522808,-9474.636058,222.061783,2145.067394
3973.523137,-10140.821405,666.185348,2528.115143
3973.523467,-11103.089130,666.185348,1685.410096
3973.523797,-11029.068536,666.185348,229.828649
3973.524127,-10510.924376,666.185348,-1608.800546
3973.524456,-9992.780217,740.205942,-1532.190996
3973.524786,-9400.615463,444.123565,-383.047749
3973.525116,-9326.594869,148.041188,536.266849
3973.525446,-8956.491898,592.164754,0.000000
3973.525775,-9326.594869,296.082377,-383.047749
3973.526105,-9474.636058,296.082377,-1225.752797
3973.526435,-9548.656652,0.000000,-766.095498
3973.526765,-9696.697840,0.000000,0.000000
3973.527095,-9474.636058,148.041188,842.705048
3973.527424,-9918.759623,518.144159,2068.457845
3973.527754,-10214.842000,666.185348,1378.971896
3973.528084,-10362.883188,592.164754,-153.219100
3973.528414,-10362.883188,888.247130,-1455.581446
3973.528743,-10140.821405,1184.329507,-1378.971896
3973.529073,-10066.800811,1184.329507,-229.828649
3973.529403,-9844.739029,592.164754,1072.533697
3973.529733,-9474.636058,740.205942,536.266849
3973.530062,-9252.574275,0.000000,0.000000
3973.530392,-9474.636058,74.020594,-1302.362347
3973.530722,-9104.533087,0.000000,-1532.190996
3973.531052,-9400.615463,0.000000,-919.314598
3973.531382,-9474.636058,222.061783,766.095498
3973.531711,-9918.759623,0.000000,2451.505594
3973.532041,-10436.903782,296.082377,2834.553343
3973.532371,-11103.089130,148.041188,1838.629195
3973.532701,-10955.047942,370.102971,0.000000
3973.533030,-10140.821405,222.061783,-1225.752797
3973.533360,-9474.636058,296.082377,-1378.971896
3973.533690,-9326.594869,0.000000,-383.047749
3973.534020,-9400.615463,0.000000,76.609550
3973.534349,-9252.574275,0.000000,229.828649
3973.534679,-9326.594869,-296.082377,-383.047749
3973.535009,-9474.636058,-444.123565,306.438199
3973.535339,-9474.636058,-962.267725,-536.266849
3973.535669,-9696.697840,-740.205942,536.266849
3973.535998,-9548.656652,-962.267725,1991.848295
3973.536328,-9844.739029,-444.123565,2681.334243
3973.536658,-10436.903782,-444.123565,1762.019645
3973.536988,-10807.006753,0.000000,842.705048
3973.537317,-10362.883188,-370.102971,-612.876398
3973.537647,-9992.780217,0.000000,-766.095498
3973.537977,-10066.800811,0.000000,0.000000
3973.538307,-9474.636058,-296.082377,536.266849
3973.538637,-9400.615463,-518.144159,1072.533697
3973.538966,-9400.615463,-888.247130,383.047749
3973.539296,-9474.636058,-740.205942,0.000000
3973.539626,-9252.574275,-962.267725,-1302.362347
3973.539956,-9548.656652,-592.164754,-459.657299
3973.540285,-9770.718434,-148.041188,1378.971896
3973.540615,-10362.883188,0.000000,2987.772442
3973.540945,-10510.924376,0.000000,3140.991542
3973.541275,-11029.068536,0.000000,1915.238745
3973.541604,-10732.986159,0.000000,153.219100
3973.541934,-10436.903782,148.041188,-1072.533697
3973.542264,-9326.594869,74.020594,-1149.143247
3973.542594,-9326.594869,-222.061783,-153.219100
3973.542924,-9030.512492,148.041188,536.266849
3973.543253,-9030.512492,-222.061783,766.095498
3973.543583,-9474.636058,-370.102971,306.438199
3973.543913,-9178.553681,-296.082377,-1225.752797
3973.544243,-9992.780217,-296.082377,-536.266849
3973.544572,-9992.780217,-296.082377,612.876398
3973.544902,-10214.842000,-74.020594,2298.286494
3973.545232,-9918.759623,0.000000,2451.505594
3973.545562,-10362.883188,0.000000,1378.971896
3973.545891,-10436.903782,296.082377,-153.219100
3973.546221,-10584.944971,592.164754,-995.924147
3973.546551,-10140.821405,962.267725,-1608.800546
3973.546881,-9622.677246,444.123565,0.000000
3973.547211,-9474.636058,296.082377,306.438199
3973.547540,-9252.574275,222.061783,842.705048
3973.547870,-9252.574275,74.020594,153.219100
3973.548200,-9178.553681,-296.082377,-1532.190996
3973.548530,-9474.636058,0.000000,-1378.971896
3973.548859,-9474.636058,0.000000,-842.705048
3973.549189,-9770.718434,444.123565,1762.019645
3973.549519,-9992.780217,370.102971,2987.772442
3973.549849,-10362.883188,740.205942,2681.334243
3973.550178,-10881.027347,444.123565,1225.752797
3973.550508,-10658.965565,962.267725,-919.314598
3973.550838,-9918.759623,444.123565,-1685.410096
3973.551168,-9178.553681,296.082377,-1225.752797
3973.551498,-9326.594869,370.102971,-459.657299
3973.551827,-9030.512492,518.144159,306.438199
3973.552157,-8882.471304,74.020594,0.000000
3973.552487,-9548.656652,0.000000,-919.314598
3973.552817,-9622.677246,74.020594,-919.314598
3973.553146,-9992.780217,0.000000,-612.876398
3973.553476,-9696.697840,-370.102971,1838.629195
3973.553806,-9622.677246,0.000000,2068.457845
3973.554136,-10066.800811,74.020594,2374.896044
3973.554465,-10510.924376,222.061783,842.705048
3973.554795,-10584.944971,666.185348,-383.047749
3973.555125,-10066.800811,888.247130,-1378.971896
3973.555455,-9918.759623,592.164754,-1225.752797
3973.555785,-9770.718434,518.144159,459.657299
3973.556114,-9918.759623,592.164754,1378.971896
3973.556444,-9696.697840,0.000000,766.095498
3973.556774,-9474.636058,-444.123565,-919.314598
3973.557104,-9030.512492,-222.061783,-1532.190996
3973.557433,-9474.636058,-444.123565,-1532.190996
3973.557763,-9474.636058,-222.061783,229.828649
3973.558093,-9696.697840,0.000000,1455.581446
3973.558423,-10214.842000,666.185348,2834.553343
3973.558752,-10955.047942,222.061783,2451.505594
3973.559082,-11029.068536,148.041188,919.314598
3973.559412,-10510.924376,74.020594,-536.266849
3973.559742,-10140.821405,0.000000,-1072.533697
3973.560072,-9474.636058,222.061783,0.000000
3973.560401,-9178.553681,-148.041188,383.047749
3973.560731,-8808.450710,-222.061783,689.485948
3973.561061,-9474.636058,-296.082377,229.828649
3973.561391,-9548.656652,-222.061783,-919.314598
3973.561720,-9548.656652,-518.144159,-919.314598
3973.562050,-9474.636058,-666.185348,-76.609550
3973.562380,-9326.594869,-518.144159,1225.752797
3973.562710,-9918.759623,-370.102971,2145.067394
3973.563039,-10140.821405,0.000000,2298.286494
3973.563369,-10362.883188,74.020594,919.314598
3973.563699,-10140.821405,74.020594,-612.876398
3973.564029,-9918.759623,592.164754,-1302.362347
3973.564359,-9696.697840,296.082377,-229.828649
3973.564688,-9326.594869,148.041188,919.314598
3973.565018,-9474.636058,74.020594,1149.143247
3973.565348,-9252.574275,-296.082377,1072.533697
3973.565678,-9474.636058,-444.123565,-153.219100
3973.566007,-9474.636058,-444.123565,-1608.800546
3973.566337,-9474.636058,-74.020594,-842.705048
3973.566667,-9622.677246,0.000000,383.047749
3973.566997,-9992.780217,148.041188,1915.238745
3973.567326,-10362.883188,296.082377,2757.943793
3973.567656,-10955.047942,296.082377,2298.286494
3973.567986,-11251.130318,518.144159,0.000000
3973.568316,-10732.986159,74.020594,-995.924147
3973.568646,-9770.718434,0.000000,-1455.581446
3973.568975,-9030.512492,-148.041188,-153.219100
3973.569305,-8734.430116,-222.061783,306.438199
3973.569635,-8882.471304,-222.061783,689.485948
3973.569965,-9474.636058,-370.102971,536.266849
3973.570294,-9696.697840,-74.020594,-229.828649
3973.570624,-9918.759623,-444.123565,-459.657299
3973.570954,-10066.800811,0.000000,306.438199
3973.571284,-9770.718434,0.000000,1608.800546
3973.571613,-9992.780217,74.020594,2451.505594
3973.571943,-9696.697840,74.020594,1762.019645
3973.572273,-9992.780217,74.020594,383.047749
3973.572603,-9992.780217,296.082377,-1378.971896
3973.572933,-9548.656652,518.144159,-1608.800546
3973.573262,-9104.533087,296.082377,-306.438199
3973.573592,-9622.677246,518.144159,1072.533697
3973.573922,-9326.594869,370.102971,919.314598
3973.574252,-9474.636058,-148.041188,229.828649
3973.574581,-9770.718434,0.000000,-842.705048
3973.574911,-9400.615463,-518.144159,-1378.971896
3973.575241,-9992.780217,0.000000,-383.047749
3973.575571,-9770.718434,444.123565,1072.533697
3973.575900,-9992.780217,222.061783,2145.067394
3973.576230,-10214.842000,1110.308913,1991.848295
3973.576560,-10955.047942,888.247130,1302.362347
3973.576890,-10658.965565,592.164754,-689.485948
3973.577220,-10214.842000,370.102971,-2068.457845
3973.577549,-9696.697840,518.144159,-1225.752797
3973.577879,-8956.491898,222.061783,-383.047749
3973.578209,-9178.553681,518.144159,459.657299
3973.578539,-9326.594869,222.061783,383.047749
3973.578868,-9770.718434,74.020594,153.219100
3973.579198,-9992.780217,148.041188,-76.609550
3973.579528,-10362.883188,222.061783,153.219100
3973.579858,-10066.800811,0.000000,766.095498
3973.580187,-10066.800811,0.000000,1838.629195
3973.580517,-10066.800811,148.041188,2451.505594
3973.580847,-10214.842000,444.123565,1302.362347
3973.581177,-10584.944971,444.123565,-383.047749
3973.581507,-9992.780217,296.082377,-1838.629195
3973.581836,-9770.718434,370.102971,-1532.190996
3973.582166,-9548.656652,370.102971,0.000000
3973.582496,-9548.656652,0.000000,1149.143247
3973.582826,-9104.533087,0.000000,1149.143247
3973.583155,-9326.594869,-592.164754,383.047749
3973.583485,-9548.656652,-888.247130,-612.876398
3973.583815,-9474.636058,-518.144159,-995.924147
3973.584145,-9696.697840,-74.020594,0.000000
3973.584474,-9548.656652,74.020594,1149.143247
3973.584804,-10140.821405,74.020594,2298.286494
3973.585134,-9992.780217,370.102971,2298.286494
3973.585464,-10732.986159,222.061783,766.095498
3973.585794,-10436.903782,518.144159,-1225.752797
3973.586123,-9770.718434,222.061783,-1991.848295
3973.586453,-9104.533087,0.000000,-1302.362347
3973.586783,-8808.450710,-518.144159,-459.657299
3973.587113,-9252.574275,0.000000,536.266849
3973.587442,-9400.615463,-518.144159,995.924147
3973.587772,-9844.739029,-296.082377,306.438199
3973.588102,-9622.677246,-222.061783,-229.828649
3973.588432,-10140.821405,-370.102971,0.000000
3973.588761,-10066.800811,-148.041188,1149.143247
3973.589091,-9992.780217,-296.082377,2068.457845
3973.589421,-9770.718434,-222.061783,2757.943793
3973.589751,-10510.924376,74.020594,919.314598
3973.590081,-10362.883188,518.144159,-689.485948
3973.590410,-9696.697840,0.000000,-1532.190996
3973.590740,-9474.636058,518.144159,-1225.752797
3973.591070,-9400.615463,0.000000,0.000000
3973.591400,-9400.615463,0.000000,1072.533697
3973.591729,-9104.533087,-296.082377,995.924147
3973.592059,-9622.677246,-444.123565,306.438199
3973.592389,-10214.842000,-370.102971,-536.266849
3973.592719,-9992.780217,-518.144159,-919.314598
3973.593048,-9844.739029,-222.061783,229.828649
3973.593378,-9770.718434,74.020594,1838.629195
3973.593708,-10214.842000,296.082377,2987.772442
3973.594038,-10362.883188,222.061783,2451.505594
3973.594368,-10510.924376,74.020594,1072.533697
3973.594697,-10214.842000,74.020594,-1225.752797
3973.595027,-9400.615463,296.082377,-2757.943793
3973.595357,-9326.594869,0.000000,-1225.752797
3973.595687,-8882.471304,0.000000,153.219100
3973.596016,-9252.574275,-148.041188,995.924147
3973.596346,-9474.636058,74.020594,995.924147
3973.596676,-9992.780217,0.000000,-153.219100
3973.597006,-9992.780217,0.000000,-536.266849
3973.597335,-9918.759623,0.000000,-459.657299
3973.597665,-10066.800811,0.000000,1225.752797
3973.597995,-9770.718434,74.020594,2145.067394
3973.598325,-9918.759623,370.102971,1762.019645
3973.598655,-10362.883188,296.082377,383.047749
3973.598984,-10140.821405,888.247130,-1302.362347
3973.599314,-9622.677246,444.123565,-2604.724693
3973.599644,-9844.739029,666.185348,-1302.362347
3973.599974,-9400.615463,148.041188,459.657299
3973.600303,-9474.636058,148.041188,919.314598
3973.600633,-9400.615463,370.102971,1225.752797
3973.600963,-9474.636058,-222.061783,-153.219100
3973.601293,-9474.636058,-222.061783,-1225.752797
3973.601622,-9770.718434,0.000000,-1072.533697
3973.601952,-9918.759623,222.061783,0.000000
3973.602282,-9992.780217,444.123565,1685.410096
3973.602612,-10584.944971,444.123565,2451.505594
3973.602942,-10658.965565,296.082377,1685.410096
3973.603271,-10732.986159,518.144159,229.828649
3973.603601,-9696.697840,0.000000,-1149.143247
3973.603931,-9474.636058,0.000000,-1915.238745
3973.604261,-9030.512492,0.000000,-383.047749
3973.604590,-9178.553681,0.000000,459.657299
3973.604920,-8142.265362,0.000000,1072.533697
3973.605250,-9474.636058,74.020594,536.266849
3973.605580,-9770.718434,0.000000,0.000000
3973.605910,-9992.780217,0.000000,-459.657299
3973.606239,-10362.883188,222.061783,0.000000
3973.606569,-10214.842000,148.041188,1149.143247
3973.606899,-9992.780217,74.020594,2145.067394
3973.607229,-10140.821405,74.020594,1685.410096
3973.607558,-9992.780217,148.041188,153.219100
3973.607888,-10140.821405,222.061783,-1149.143247
3973.608218,-9770.718434,444.123565,-1378.971896
3973.608548,-9474.636058,296.082377,-1149.143247
3973.608877,-9326.594869,0.000000,766.095498
3973.609207,-9474.636058,296.082377,766.095498
3973.609537,-9252.574275,-592.164754,1378.971896
3973.609867,-9696.697840,-370.102971,76.609550
3973.610197,-9622.677246,-296.082377,-995.924147
3973.610526,-9622.677246,296.082377,-919.314598
3973.610856,-9918.759623,296.082377,153.219100
3973.611186,-10066.800811,222.061783,1991.848295
3973.611516,-10214.842000,296.082377,2681.334243
3973.611845,-10658.965565,370.102971,1685.410096
3973.612175,-10510.924376,222.061783,-459.657299
3973.612505,-9770.718434,0.000000,-1991.848295
3973.612835,-9696.697840,148.041188,-1838.629195
3973.613164,-9178.553681,-222.061783,-536.266849
3973.613494,-9030.512492,0.000000,0.000000
3973.613824,-8956.491898,-222.061783,1072.533697
3973.614154,-9622.677246,0.000000,766.095498
3973.614484,-10066.800811,-148.041188,-383.047749
3973.614813,-9844.739029,0.000000,-383.047749
3973.615143,-10214.842000,0.000000,459.657299
3973.615473,-9992.780217,-148.041188,1225.752797
3973.615803,-10066.800811,-74.020594,2451.505594
3973.616132,-9770.718434,0.000000,1532.190996
3973.616462,-10362.883188,74.020594,0.000000
3973.616792,-9696.697840,0.000000,-1149.143247
3973.617122,-9474.636058,0.000000,-995.924147
3973.617451,-8956.491898,0.000000,-306.438199
3973.617781,-9252.574275,-518.144159,1532.190996
3973.618111,-9400.615463,-370.102971,1838.629195
3973.618441,-9474.636058,-740.205942,1072.533697
3973.618771,-10066.800811,-222.061783,-383.047749
3973.619100,-9770.718434,-222.061783,-306.438199
3973.619430,-9622.677246,0.000000,-689.485948
3973.619760,-9696.697840,148.041188,995.924147
3973.620090,-10140.821405,296.082377,2298.286494
3973.620419,-10214.842000,444.123565,2451.505594
3973.620749,-10510.924376,370.102971,919.314598
3973.621079,-10140.821405,74.020594,-383.047749
3973.621409,-9548.656652,0.000000,-1991.848295
3973.621739,-9178.553681,0.000000,-1532.190996
3973.622069,-8660.409521,-370.102971,0.000000
3973.622398,-9252.574275,148.041188,919.314598
3973.622728,-9326.594869,-444.123565,1149.143247
3973.623058,-9992.780217,74.020594,689.485948
3973.623388,-10214.842000,222.061783,0.000000
3973.623718,-10288.862594,148.041188,-306.438199
3973.624048,-10362.883188,444.123565,383.047749
3973.624378,-9844.739029,74.020594,1532.190996
3973.624707,-10066.800811,74.020594,1532.190996
3973.625037,-9844.739029,148.041188,842.705048
3973.625367,-10436.903782,370.102971,-842.705048
3973.625697,-10288.862594,518.144159,-1991.848295
3973.626027,-9918.759623,518.144159,-1608.800546
3973.626357,-9474.636058,148.041188,0.000000
3973.626687,-9548.656652,222.061783,1608.800546
3973.627016,-9474.636058,0.000000,1762.019645
3973.627346,-9622.677246,-148.041188,1149.143247
3973.627676,-9696.697840,-222.061783,-229.828649
3973.628006,-9770.718434,222.061783,-689.485948
3973.628336,-10510.924376,444.123565,-459.657299
3973.628666,-10140.821405,518.144159,1225.752797
3973.628996,-10362.883188,666.185348,2221.676944
3973.629326,-9918.759623,666.185348,2451.505594
3973.629655,-10288.862594,296.082377,383.047749
3973.629985,-10066.800811,370.102971,-1225.752797
3973.630315,-9622.677246,518.144159,-2298.286494
3973.630645,-8882.471304,74.020594,-1302.362347
3973.630975,-8956.491898,0.000000,0.000000
3973.631305,-8808.450710,222.061783,842.705048
3973.631635,-9326.594869,0.000000,995.924147
3973.631964,-10140.821405,592.164754,306.438199
3973.632294,-10288.862594,370.102971,0.000000
3973.632624,-10362.883188,518.144159,-229.828649
3973.632954,-10214.842000,888.247130,766.095498
3973.633284,-10066.800811,518.144159,1608.800546
3973.633614,-9770.718434,444.123565,1838.629195
3973.633944,-10288.862594,518.144159,383.047749
3973.634274,-9992.780217,740.205942,-1378.971896
3973.634603,-9622.677246,296.082377,-2145.067394
3973.634933,-9474.636058,666.185348,-1302.362347
3973.635263,-9474.636058,0.000000,153.219100
3973.635593,-9548.656652,222.061783,1838.629195
3973.635923,-9622.677246,-222.061783,1685.410096
3973.636253,-9770.718434,-370.102971,766.095498
3973.636583,-9770.718434,0.000000,-766.095498
3973.636912,-9844.739029,-444.123565,-766.095498
3973.637242,-10140.821405,0.000000,76.609550
3973.637572,-10140.821405,0.000000,1915.238745
3973.637902,-10214.842000,962.267725,2604.724693
3973.638232,-9474.636058,148.041188,1762.019645
3973.638562,-10362.883188,74.020594,0.000000
3973.638892,-10066.800811,-148.041188,-1455.581446
3973.639222,-9548.656652,-296.082377,-1762.019645
3973.639551,-8882.471304,-222.061783,-995.924147
3973.639881,-8808.450710,-370.102971,0.000000
3973.640211,-9030.512492,-444.123565,612.876398
3973.640541,-9474.636058,-518.144159,459.657299
3973.640871,-10066.800811,-222.061783,229.828649
3973.641201,-10288.862594,-222.061783,-306.438199
3973.641531,-10362.883188,-370.102971,0.000000
3973.641860,-9844.739029,-296.082377,995.924147
3973.642190,-9918.759623,-592.164754,1915.238745
3973.642520,-9770.718434,-592.164754,1532.190996
3973.642850,-10436.903782,-222.061783,459.657299
3973.643180,-10288.862594,-74.020594,-842.705048
3973.643510,-9622.677246,-148.041188,-1072.533697
3973.643840,-9400.615463,-148.041188,-766.095498
3973.644170,-9474.636058,-370.102971,459.657299
3973.644499,-9844.739029,-148.041188,1532.190996
3973.644829,-9770.718434,-666.185348,1072.533697
3973.645159,-10436.903782,-296.082377,383.047749
3973.645489,-10066.800811,-370.102971,-612.876398
3973.645819,-10436.903782,-222.061783,-383.047749
3973.646149,-10362.883188,0.000000,689.485948
3973.646479,-10140.821405,222.061783,1608.800546
3973.646808,-10140.821405,148.041188,2374.896044
3973.647138,-10066.800811,0.000000,1608.800546
3973.647468,-10510.924376,222.061783,0.000000
3973.647798,-9696.697840,296.082377,-1302.362347
3973.648128,-9400.615463,0.000000,-1302.362347
3973.648458,-8808.450710,0.000000,-229.828649
3973.648788,-9030.512492,0.000000,383.047749
3973.649118,-9104.533087,-148.041188,919.314598
3973.649447,-9696.697840,-148.041188,612.876398
3973.649777,-9844.739029,0.000000,153.219100
3973.650107,-9918.759623,74.020594,-536.266849
3973.650437,-9918.759623,222.061783,0.000000
3973.650767,-9252.574275,0.000000,919.314598
3973.651097,-9548.656652,74.020594,1302.362347
3973.651427,-9622.677246,222.061783,919.314598
3973.651756,-9918.759623,518.144159,-76.609550
3973.652086,-9474.636058,592.164754,-1685.410096
3973.652416,-9622.677246,888.247130,-1915.238745
3973.652746,-9400.615463,740.205942,-842.705048
3973.653076,-9844.739029,740.205942,995.924147
3973.653406,-9918.759623,666.185348,1149.143247
3973.653736,-9622.677246,0.000000,919.314598
3973.654066,-10066.800811,296.082377,-306.438199
3973.654395,-9770.718434,222.061783,-1225.752797
3973.654725,-10140.821405,222.061783,-995.924147
3973.655055,-9622.677246,296.082377,0.000000
3973.655385,-9992.780217,296.082377,1532.190996
3973.655715,-9918.759623,518.144159,2221.676944
3973.656045,-10140.821405,296.082377,1685.410096
3973.656375,-10658.965565,148.041188,306.438199
3973.656704,-9918.759623,0.000000,-1225.752797
3973.657034,-9622.677246,74.020594,-1378.971896
3973.657364,-9030.512492,0.000000,-842.705048
3973.657694,-9400.615463,74.020594,612.876398
3973.658024,-9474.636058,148.041188,842.705048
3973.658354,-9918.759623,0.000000,689.485948
3973.658684,-9992.780217,0.000000,-229.828649
3973.659014,-9844.739029,-444.123565,-383.047749
3973.659343,-9548.656652,-148.041188,306.438199
3973.659673,-9030.512492,-592.164754,919.314598
3973.660003,-9474.636058,-370.102971,1915.238745
3973.660333,-9474.636058,-518.144159,1455.581446
3973.660663,-9844.739029,-296.082377,-153.219100
3973.660993,-9844.739029,74.020594,-919.314598
3973.661323,-9992.780217,74.020594,-1225.752797
3973.661652,-9770.718434,222.061783,-229.828649
3973.661982,-9844.739029,296.082377,1608.800546
3973.662312,-9696.697840,74.020594,1608.800546
3973.662642,-9770.718434,-296.082377,995.924147
3973.662972,-9770.718434,-444.123565,-306.438199
3973.663302,-9622.677246,-592.164754,-1532.190996
3973.663632,-10140.821405,0.000000,-842.705048
3973.663962,-9844.739029,74.020594,153.219100
3973.664291,-10140.821405,148.041188,1685.410096
3973.664621,-10066.800811,0.000000,2451.505594
3973.664951,-10288.862594,296.082377,1149.143247
3973.665281,-10436.903782,148.041188,0.000000
3973.665611,-10140.821405,-148.041188,-1225.752797
3973.665941,-9770.718434,-148.041188,-842.705048
3973.666271,-9104.533087,-518.144159,306.438199
3973.666600,-9622.677246,0.000000,1225.752797
3973.666930,-9474.636058,-296.082377,1072.533697
3973.667260,-9918.759623,0.000000,536.266849
3973.667590,-9770.718434,0.000000,0.000000
3973.667920,-9844.739029,0.000000,-306.438199
3973.668250,-10066.800811,0.000000,76.609550
3973.668580,-9474.636058,-296.082377,1532.190996
3973.668910,-9548.656652,0.000000,2068.457845
3973.669239,-9622.677246,0.000000,1072.533697
3973.669569,-9548.656652,296.082377,-689.485948
3973.669899,-9548.656652,74.020594,-1455.581446
3973.670229,-9326.594869,222.061783,-1302.362347
3973.670559,-9622.677246,74.020594,383.047749
3973.670889,-9622.677246,370.102971,2068.457845
3973.671219,-9622.677246,0.000000,1838.629195
3973.671548,-9696.697840,-370.102971,383.047749
3973.671878,-9474.636058,-296.082377,-459.657299
3973.672208,-9548.656652,-370.102971,-1302.362347
3973.672538,-9548.656652,0.000000,-612.876398
3973.672868,-9548.656652,74.020594,612.876398
3973.673198,-9918.759623,518.144159,2068.457845
3973.673528,-10066.800811,444.123565,1838.629195
3973.673858,-10658.965565,518.144159,383.047749
3973.674187,-10658.965565,518.144159,-766.095498
3973.674517,-10140.821405,-148.041188,-1608.800546
3973.674847,-9252.574275,0.000000,-612.876398
3973.675177,-9104.533087,148.041188,766.095498
3973.675507,-9326.594869,0.000000,1072.533697
3973.675837,-9474.636058,74.020594,689.485948
3973.676167,-10066.800811,222.061783,0.000000
3973.676496,-9918.759623,296.082377,-612.876398
3973.676826,-10214.842000,222.061783,-536.266849
3973.677156,-9918.759623,0.000000,459.657299
3973.677486,-9696.697840,0.000000,1149.143247
3973.677816,-9548.656652,0.000000,1532.190996
3973.678146,-9696.697840,0.000000,612.876398
3973.678476,-9844.739029,0.000000,-459.657299
3973.678806,-9770.718434,148.041188,-1455.581446
3973.679135,-9548.656652,222.061783,-766.095498
3973.679465,-9326.594869,444.123565,0.000000
3973.679795,-9844.739029,296.082377,1838.629195
3973.680125,-9696.697840,0.000000,1838.629195
3973.680455,-9918.759623,-74.020594,383.047749
3973.680785,-9326.594869,222.061783,-919.314598
3973.681115,-9548.656652,0.000000,-1225.752797
3973.681444,-9474.636058,0.000000,-229.828649
3973.681774,-9622.677246,370.102971,1225.752797
3973.682104,-9770.718434,370.102971,2298.286494
3973.682434,-9770.718434,444.123565,2068.457845
3973.682764,-10510.924376,592.164754,383.047749
3973.683094,-10214.842000,518.144159,-1149.143247
3973.683424,-9992.780217,296.082377,-1378.971896
3973.683754,-9474.636058,814.226536,-919.314598
3973.684083,-9400.615463,222.061783,0.000000
3973.684413,-9474.636058,444.123565,612.876398
3973.684743,-9696.697840,0.000000,459.657299
3973.685073,-10140.821405,888.247130,229.828649
3973.685403,-10140.821405,148.041188,-689.485948
3973.685733,-10140.821405,74.020594,76.609550
3973.686063,-9844.739029,0.000000,612.876398
3973.686392,-9918.759623,-148.041188,1608.800546
3973.686722,-9696.697840,-148.041188,1991.848295
3973.687052,-9992.780217,-148.041188,919.314598
3973.687382,-9770.718434,296.082377,-612.876398
3973.687712,-9622.677246,148.041188,-1378.971896
3973.688042,-9844.739029,592.164754,-766.095498
3973.688372,-9844.739029,222.061783,842.705048
3973.688702,-9770.718434,370.102971,1302.362347
3973.689031,-9474.636058,-148.041188,842.705048
3973.689361,-9548.656652,74.020594,153.219100
3973.689691,-9474.636058,-222.061783,-1455.581446
3973.690021,-9548.656652,-222.061783,-1378.971896
3973.690351,-9548.656652,0.000000,76.609550
3973.690681,-9252.574275,0.000000,2145.067394
3973.691011,-9474.636058,0.000000,2298.286494
3973.691340,-10066.800811,-148.041188,2298.286494
3973.691670,-10288.862594,0.000000,612.876398
3973.692000,-10214.842000,-148.041188,-1149.143247
3973.692330,-9696.697840,-370.102971,-1149.143247
3973.692660,-9548.656652,-74.020594,-383.047749
3973.692990,-9474.636058,0.000000,0.000000
3973.693320,-9326.594869,0.000000,612.876398
3973.693650,-9770.718434,0.000000,766.095498
3973.693979,-9770.718434,-222.061783,-306.438199
3973.694309,-9992.780217,-518.144159,-689.485948
3973.694639,-10066.800811,-222.061783,0.000000
3973.694969,-10140.821405,0.000000,1302.362347
3973.695299,-9918.759623,-444.123565,1455.581446
3973.695629,-9696.697840,-74.020594,1455.581446
3973.695959,-10510.924376,0.000000,536.266849
3973.696288,-10584.944971,222.061783,-689.485948
3973.696618,-10288.862594,222.061783,-1455.581446
3973.696948,-9770.718434,518.144159,-153.219100
3973.697278,-9770.718434,148.041188,1302.362347
3973.697608,-9622.677246,222.061783,1532.190996
3973.697938,-9992.780217,0.000000,1149.143247
3973.698268,-9770.718434,0.000000,-689.485948
3973.698598,-9400.615463,-296.082377,-1302.362347
3973.698927,-9548.656652,0.000000,-1072.533697
3973.699257,-9474.636058,518.144159,306.438199
3973.699587,-9548.656652,74.020594,1991.848295
3973.699917,-9548.656652,0.000000,2604.724693
3973.700247,-10288.862594,0.000000,1762.019645
3973.700577,-10140.821405,222.061783,229.828649
3973.700907,-10066.800811,222.061783,-1225.752797
3973.701236,-9696.697840,370.102971,-1532.190996
3973.701566,-9474.636058,222.061783,-536.266849
3973.701896,-9474.636058,296.082377,0.000000
3973.702226,-9622.677246,222.061783,383.047749
3973.702556,-9918.759623,296.082377,0.000000
3973.702886,-9918.759623,518.144159,-536.266849
3973.703216,-9696.697840,148.041188,-1149.143247
3973.703545,-9844.739029,74.020594,0.000000
3973.703875,-9474.636058,0.000000,1149.143247
3973.704205,-9844.739029,74.020594,2068.457845
3973.704535,-9918.759623,148.041188,1532.190996
3973.704865,-10362.883188,444.123565,1072.533697
3973.705195,-10584.944971,592.164754,-766.095498
3973.705525,-10362.883188,592.164754,-995.924147
3973.705855,-9770.718434,444.123565,0.000000
3973.706184,-9844.739029,296.082377,1225.752797
3973.706514,-9770.718434,592.164754,1455.581446
3973.706844,-9252.574275,0.000000,536.266849
3973.707174,-9326.594869,0.000000,-612.876398
3973.707504,-9326.594869,0.000000,-1685.410096
3973.707834,-9918.759623,74.020594,-1072.533697
3973.708164,-9326.594869,74.020594,459.657299
3973.708493,-9696.697840,0.000000,2145.067394
3973.708823,-9770.718434,444.123565,2681.334243
3973.709153,-10807.006753,444.123565,2528.115143
3973.709483,-10436.903782,370.102971,229.828649
3973.709813,-10362.883188,370.102971,-1072.533697
3973.710143,-9992.780217,444.123565,-995.924147
3973.710473,-9474.636058,0.000000,-536.266849
3973.710803,-9474.636058,370.102971,459.657299
3973.711132,-9252.574275,-148.041188,689.485948
3973.711462,-9400.615463,0.000000,-153.219100
3973.711792,-9252.574275,74.020594,-995.924147
3973.712122,-9770.718434,-296.082377,-842.705048
3973.712452,-9696.697840,-296.082377,536.266849
3973.712782,-9696.697840,-592.164754,1532.190996
3973.713112,-9622.677246,-518.144159,2451.505594
3973.713441,-9844.739029,-592.164754,1378.971896
3973.713771,-10214.842000,-222.061783,306.438199
3973.714101,-10288.862594,-222.061783,-689.485948
3973.714431,-10140.821405,666.185348,-1072.533697
3973.714761,-10066.800811,296.082377,229.828649
3973.715091,-10436.903782,370.102971,1225.752797
3973.715421,-9844.739029,0.000000,1149.143247
3973.715751,-9918.759623,-148.041188,229.828649
3973.716080,-9548.656652,-518.144159,-1149.143247
3973.716410,-9326.594869,-666.185348,-1838.629195
3973.716740,-9252.574275,-666.185348,-995.924147
3973.717070,-9474.636058,-518.144159,995.924147
3973.717400,-9696.697840,-296.082377,2987.772442
3973.717730,-9918.759623,-444.123565,3370.820191
3973.718060,-10362.883188,-518.144159,1991.848295
3973.718389,-10510.924376,-148.041188,76.609550
3973.718719,-10140.821405,-222.061783,-612.876398
3973.719049,-9696.697840,0.000000,-383.047749
3973.719379,-9400.615463,-370.102971,536.266849
3973.719709,-9104.533087,-148.041188,995.924147
3973.720039,-9400.615463,-296.082377,459.657299
3973.720370,-9622.677246,0.000000,-842.705048
3973.720700,-9178.553681,-222.061783,-1149.143247
3973.721030,-9474.636058,-518.144159,-1149.143247
3973.721359,-9474.636058,-74.020594,153.219100
3973.721689,-9474.636058,-296.082377,1685.410096
3973.722019,-9696.697840,0.000000,1991.848295
3973.722349,-10066.800811,0.000000,1072.533697
3973.722678,-9992.780217,222.061783,-766.095498
3973.723008,-10362.883188,370.102971,-1225.752797
3973.723338,-10288.862594,740.205942,-1149.143247
3973.723668,-9770.718434,592.164754,842.705048
3973.723997,-9770.718434,370.102971,1225.752797
3973.724327,-9400.615463,0.000000,1378.971896
3973.724657,-9474.636058,0.000000,306.438199
3973.724986,-9252.574275,-296.082377,-1149.143247
3973.725316,-9474.636058,-370.102971,-1455.581446
3973.725646,-9474.636058,-74.020594,-612.876398
3973.725976,-9474.636058,0.000000,1378.971896
3973.726305,-9844.739029,222.061783,2681.334243
3973.726635,-10140.821405,296.082377,2604.724693
3973.726965,-11103.089130,740.205942,766.095498
3973.727295,-10658.965565,592.164754,-383.047749
3973.727624,-10066.800811,592.164754,-1225.752797
3973.727954,-9474.636058,666.185348,-1225.752797
3973.728284,-9474.636058,444.123565,76.609550
3973.728614,-9474.636058,444.123565,153.219100
3973.728943,-9326.594869,370.102971,-306.438199
3973.729273,-9474.636058,518.144159,-1149.143247
3973.729603,-9326.594869,74.020594,-1302.362347
3973.729933,-9622.677246,74.020594,-459.657299
3973.730262,-9326.594869,-74.020594,1072.533697
3973.730592,-9770.718434,0.000000,1838.629195
3973.730922,-9474.636058,-444.123565,1838.629195
3973.731252,-10288.862594,0.000000,1149.143247
3973.731581,-10510.924376,370.102971,-689.485948
3973.731911,-10066.800811,444.123565,-1455.581446
3973.732241,-9992.780217,666.185348,-689.485948
3973.732571,-9548.656652,444.123565,612.876398
3973.732900,-9696.697840,518.144159,995.924147
3973.733230,-9696.697840,296.082377,842.705048
3973.733560,-9844.739029,74.020594,-689.485948
3973.733889,-9400.615463,0.000000,-1838.629195
3973.734219,-9548.656652,-370.102971,-1685.410096
3973.734549,-9400.615463,-444.123565,-153.219100
3973.734879,-9696.697840,0.000000,1685.410096
3973.735208,-9770.718434,0.000000,2757.943793
3973.735538,-10288.862594,0.000000,2451.505594
3973.735868,-11103.089130,518.144159,842.705048
3973.736198,-10732.986159,148.041188,-536.266849
3973.736527,-9992.780217,222.061783,-1225.752797
3973.736857,-9400.615463,0.000000,-229.828649
3973.737187,-8956.491898,0.000000,612.876398
3973.737517,-8956.491898,0.000000,536.266849
3973.737846,-9030.512492,0.000000,0.000000
3973.738176,-9622.677246,74.020594,-1225.752797
3973.738506,-9548.656652,-222.061783,-1225.752797
3973.738836,-9696.697840,-444.123565,-76.609550
3973.739165,-9474.636058,-296.082377,1455.581446
3973.739495,-9622.677246,-296.082377,2834.553343
3973.739825,-9992.780217,-74.020594,2145.067394
3973.740155,-10436.903782,0.000000,995.924147
3973.740484,-10584.944971,296.082377,-306.438199
3973.740814,-10066.800811,-370.102971,-1149.143247
3973.741144,-9770.718434,592.164754,-306.438199
3973.741474,-9770.718434,296.082377,1302.362347
3973.741803,-9474.636058,222.061783,842.705048
3973.742133,-9178.553681,-296.082377,536.266849
3973.742463,-9474.636058,-222.061783,-995.924147
3973.742792,-9326.594869,-518.144159,-2068.457845
3973.743122,-9178.553681,-592.164754,-1455.581446
3973.743452,-9474.636058,-370.102971,0.000000
3973.743782,-9474.636058,0.000000,1532.190996
3973.744111,-10140.821405,0.000000,2681.334243
3973.744441,-10732.986159,0.000000,2298.286494
3973.744771,-11029.068536,370.102971,459.657299
3973.745101,-10436.903782,-444.123565,-383.047749
3973.745430,-9992.780217,74.020594,-459.657299
3973.745760,-9696.697840,296.082377,-383.047749
3973.746090,-9400.615463,0.000000,76.609550
3973.746420,-9030.512492,0.000000,306.438199
3973.746749,-9400.615463,-148.041188,-459.657299
3973.747079,-9474.636058,-148.041188,-842.705048
3973.747409,-9178.553681,-814.226536,-612.876398
3973.747739,-9326.594869,-666.185348,0.000000
3973.748068,-9030.512492,-962.267725,1685.410096
3973.748398,-9622.677246,-592.164754,2221.676944
3973.748728,-9844.739029,-592.164754,2298.286494
3973.749058,-10584.944971,-148.041188,766.095498
3973.749387,-10436.903782,222.061783,-459.657299
3973.749717,-10510.924376,370.102971,-689.485948
3973.750047,-9844.739029,370.102971,-153.219100
3973.750377,-9548.656652,370.102971,229.828649
3973.750706,-9622.677246,296.082377,153.219100
3973.751036,-9400.615463,-222.061783,383.047749
3973.751366,-9252.574275,-370.102971,-842.705048
3973.751696,-8660.409521,-518.144159,-1838.629195
3973.752025,-9252.574275,-518.144159,-536.266849
3973.752355,-9400.615463,-296.082377,306.438199
3973.752685,-9992.780217,0.000000,1915.238745
3973.753014,-9844.739029,74.020594,2757.943793
3973.753344,-10807.006753,74.020594,2374.896044
3973.753674,-10881.027347,592.164754,612.876398
3973.754004,-10436.903782,518.144159,-919.314598
3973.754333,-9918.759623,666.185348,-1225.752797
3973.754663,-9474.636058,296.082377,-919.314598
3973.754993,-9400.615463,0.000000,-459.657299
3973.755323,-9030.512492,74.020594,0.000000
3973.755652,-9474.636058,370.102971,-459.657299
3973.755982,-9474.636058,296.082377,-1225.752797
3973.756312,-9400.615463,222.061783,-1532.190996
3973.756642,-9622.677246,0.000000,0.000000
3973.756971,-9844.739029,74.020594,1072.533697
3973.757301,-9770.718434,148.041188,2145.067394
3973.757631,-9992.780217,222.061783,1838.629195
3973.757961,-10214.842000,592.164754,612.876398
3973.758290,-10362.883188,666.185348,-689.485948
3973.758620,-10436.903782,888.247130,-919.314598
3973.758950,-9992.780217,888.247130,153.219100
3973.759280,-9474.636058,814.226536,0.000000
3973.759609,-9326.594869,592.164754,383.047749
3973.759939,-9178.553681,148.041188,0.000000
3973.760269,-9474.636058,0.000000,-1072.533697
3973.760599,-9030.512492,74.020594,-2221.676944
3973.760928,-9400.615463,-148.041188,-1302.362347
3973.761258,-9474.636058,0.000000,689.485948
3973.761588,-10214.842000,148.041188,2451.505594
3973.761917,-10140.821405,222.061783,2757.943793
3973.762247,-10881.027347,74.020594,2068.457845
3973.762577,-10658.965565,370.102971,229.828649
3973.762907,-10584.944971,296.082377,-1225.752797
3973.763236,-9918.759623,222.061783,-1149.143247
3973.763566,-9474.636058,0.000000,0.000000
3973.763896,-9400.615463,222.061783,76.609550
3973.764226,-8808.450710,-148.041188,306.438199
3973.764555,-9104.533087,-74.020594,-459.657299
3973.764885,-8956.491898,74.020594,-1991.848295
3973.765215,-9326.594869,-518.144159,-1532.190996
3973.765545,-9548.656652,-296.082377,-153.219100
3973.765874,-9918.759623,-296.082377,1762.019645
3973.766204,-9918.759623,222.061783,1915.238745
3973.766534,-10584.944971,-74.020594,1685.410096
3973.766864,-10732.986159,222.061783,153.219100
3973.767193,-10584.944971,0.000000,-995.924147
3973.767523,-10214.842000,444.123565,-1225.752797
3973.767853,-9844.739029,222.061783,383.047749
3973.768183,-9770.718434,370.102971,1455.581446
3973.768512,-9400.615463,-74.020594,1685.410096
3973.768842,-9400.615463,-370.102971,229.828649
3973.769172,-8956.491898,-222.061783,-1991.848295
3973.769502,-9474.636058,-888.247130,-1685.410096
3973.769831,-9548.656652,-592.164754,-689.485948
3973.770161,-9474.636058,-592.164754,1225.752797
3973.770491,-9770.718434,148.041188,2221.676944
3973.770820,-10140.821405,0.000000,2834.553343
3973.771150,-11177.109724,518.144159,1532.190996
3973.771480,-11177.109724,296.082377,76.609550
3973.771810,-10658.965565,518.144159,-1072.533697
3973.772139,-9696.697840,0.000000,-919.314598
3973.772469,-9474.636058,-74.020594,0.000000
3973.772799,-8956.491898,-74.020594,306.438199
3973.773129,-8808.450710,-370.102971,0.000000
3973.773458,-9030.512492,0.000000,-1072.533697
3973.773788,-9326.594869,-296.082377,-1302.362347
3973.774118,-9696.697840,0.000000,-689.485948
3973.774448,-9770.718434,-74.020594,919.314598
3973.774777,-10140.821405,222.061783,1838.629195
3973.775107,-10140.821405,74.020594,2374.896044
3973.775437,-10510.924376,74.020594,689.485948
3973.775767,-10436.903782,444.123565,-766.095498
3973.776096,-10214.842000,666.185348,-919.314598
3973.776426,-9918.759623,888.247130,-842.705048
3973.776756,-9474.636058,370.102971,459.657299
3973.777086,-9548.656652,370.102971,1302.362347
3973.777415,-9474.636058,74.020594,766.095498
3973.777745,-9696.697840,0.000000,-383.047749
3973.778075,-9400.615463,-444.123565,-1608.800546
3973.778405,-9474.636058,-592.164754,-995.924147
3973.778734,-9326.594869,-296.082377,153.219100
3973.779064,-9696.697840,74.020594,1915.238745
3973.779394,-10140.821405,370.102971,3064.381992
3973.779723,-10658.965565,296.082377,2604.724693
3973.780053,-11399.171507,888.247130,842.705048
3973.780383,-11103.089130,888.247130,-306.438199
3973.780713,-10066.800811,666.185348,-1149.143247
3973.781042,-9400.615463,370.102971,-689.485948
3973.781372,-9030.512492,0.000000,0.000000
3973.781702,-8734.430116,148.041188,306.438199
3973.782032,-9252.574275,0.000000,0.000000
3973.782361,-9104.533087,0.000000,-842.705048
3973.782691,-9326.594869,-222.061783,-1149.143247
3973.783021,-9992.780217,0.000000,0.000000
3973.783351,-9918.759623,74.020594,1378.971896
3973.783680,-10066.800811,0.000000,2145.067394
3973.784010,-9844.739029,74.020594,2221.676944
3973.784340,-10510.924376,74.020594,536.266849
3973.784670,-10436.903782,592.164754,-842.705048
3973.784999,-10362.883188,296.082377,-995.924147
3973.785329,-9992.780217,444.123565,-689.485948
3973.785659,-9696.697840,74.020594,459.657299
3973.785989,-9474.636058,296.082377,766.095498
3973.786318,-9474.636058,0.000000,842.705048
3973.786648,-9622.677246,0.000000,-306.438199
3973.786978,-9770.718434,-222.061783,-1302.362347
3973.787308,-9770.718434,-148.041188,-995.924147
3973.787637,-9696.697840,0.000000,229.828649
3973.787967,-10214.842000,0.000000,1838.629195
3973.788297,-10066.800811,0.000000,2911.162892
3973.788626,-10510.924376,148.041188,2451.505594
3973.788956,-11103.089130,518.144159,919.314598
3973.789286,-10584.944971,148.041188,-919.314598
3973.789616,-10066.800811,74.020594,-1302.362347
3973.789945,-9474.636058,-148.041188,-766.095498
3973.790275,-9326.594869,-148.041188,459.657299
3973.790605,-9030.512492,-148.041188,229.828649
3973.790935,-9104.533087,-370.102971,0.000000
3973.791264,-9252.574275,-222.061783,-689.485948
3973.791594,-9474.636058,-518.144159,-689.485948
3973.791924,-9770.718434,-592.164754,0.000000
3973.792254,-9548.656652,-444.123565,1532.190996
3973.792583,-9918.759623,-148.041188,2298.286494
3973.792913,-9992.780217,0.000000,1838.629195
3973.793243,-10807.006753,296.082377,306.438199
3973.793573,-10066.800811,222.061783,-995.924147
3973.793902,-9844.739029,592.164754,-1838.629195
3973.794232,-9696.697840,518.144159,-995.924147
3973.794562,-9400.615463,296.082377,306.438199
3973.794892,-9326.594869,0.000000,612.876398
3973.795221,-9252.574275,-222.061783,153.219100
3973.795551,-9252.574275,0.000000,-536.266849
3973.795881,-9252.574275,-296.082377,-1302.362347
3973.796211,-9474.636058,0.000000,-919.314598
3973.796540,-9770.718434,0.000000,536.266849
3973.796870,-10214.842000,296.082377,2374.896044
3973.797200,-10584.944971,370.102971,2834.553343
3973.797529,-11325.150913,518.144159,2068.457845
3973.797859,-11103.089130,444.123565,383.047749
3973.798189,-10214.842000,296.082377,-1072.533697
3973.798519,-9622.677246,370.102971,-1302.362347
3973.798848,-9252.574275,0.000000,229.828649
3973.799178,-9030.512492,0.000000,536.266849
3973.799508,-9178.553681,74.020594,689.485948
3973.799838,-9622.677246,222.061783,0.000000
3973.800167,-9474.636058,148.041188,-689.485948
3973.800497,-9918.759623,0.000000,-689.485948
3973.800827,-9696.697840,0.000000,0.000000
3973.801157,-9770.718434,0.000000,1455.581446
3973.801486,-9844.739029,74.020594,2374.896044
3973.801816,-10288.862594,-148.041188,1608.800546
3973.802146,-10510.924376,296.082377,76.609550
3973.802476,-10288.862594,444.123565,-919.314598
3973.802805,-9844.739029,296.082377,-1225.752797
3973.803135,-9474.636058,0.000000,-229.828649
3973.803465,-9622.677246,370.102971,612.876398
3973.803795,-9252.574275,148.041188,995.924147
3973.804124,-9252.574275,-592.164754,76.609550
3973.804454,-9474.636058,-296.082377,-1302.362347
3973.804784,-9030.512492,-666.185348,-1378.971896
3973.805114,-9400.615463,-74.020594,-766.095498
3973.805443,-9400.615463,-148.041188,612.876398
3973.805773,-10066.800811,370.102971,2451.505594
3973.806103,-10436.903782,296.082377,2757.943793
3973.806432,-11177.109724,518.144159,1838.629195
3973.806762,-10955.047942,296.082377,0.000000
3973.807092,-10436.903782,296.082377,-1378.971896
3973.807422,-9548.656652,666.185348,-995.924147
3973.807751,-9400.615463,0.000000,-306.438199
3973.808081,-9622.677246,148.041188,612.876398
3973.808411,-9252.574275,-74.020594,842.705048
3973.808741,-9252.574275,0.000000,-383.047749
3973.809070,-9696.697840,74.020594,-995.924147
3973.809400,-9918.759623,0.000000,-612.876398
3973.809730,-9918.759623,0.000000,383.047749
3973.810060,-10214.842000,0.000000,1915.238745
3973.810389,-9548.656652,-222.061783,2298.286494
3973.810719,-10214.842000,0.000000,1608.800546
3973.811049,-10288.862594,222.061783,0.000000
3973.811379,-10288.862594,0.000000,-1302.362347
3973.811708,-9622.677246,592.164754,-1455.581446
3973.812038,-9622.677246,222.061783,76.609550
3973.812368,-9400.615463,0.000000,1532.190996
3973.812698,-9400.615463,-148.041188,1532.190996
3973.813027,-9104.533087,-148.041188,306.438199
3973.813357,-9474.636058,0.000000,-995.924147
3973.813687,-9844.739029,-518.144159,-1532.190996
3973.814017,-9696.697840,0.000000,-842.705048
3973.814346,-9326.594869,296.082377,689.485948
3973.814676,-9918.759623,518.144159,2221.676944
3973.815006,-10140.821405,444.123565,2374.896044
3973.815335,-10881.027347,592.164754,766.095498
3973.815665,-10436.903782,296.082377,-689.485948
3973.815995,-9622.677246,148.041188,-1149.143247
3973.816325,-9178.553681,0.000000,-995.924147
3973.816654,-9104.533087,0.000000,383.047749
3973.816984,-9178.553681,0.000000,689.485948
3973.817314,-9400.615463,-74.020594,689.485948
3973.817644,-9622.677246,148.041188,-612.876398
3973.817973,-9474.636058,0.000000,-766.095498
3973.818303,-10066.800811,74.020594,-229.828649
3973.818633,-9992.780217,148.041188,612.876398
3973.818963,-9992.780217,-148.041188,2374.896044
3973.819292,-9844.739029,-222.061783,1991.848295
3973.819622,-9992.780217,0.000000,1149.143247
3973.819952,-9918.759623,148.041188,-612.876398
3973.820281,-9622.677246,74.020594,-1455.581446
3973.820611,-9548.656652,296.082377,-842.705048
3973.820941,-9252.574275,370.102971,153.219100
3973.821271,-9696.697840,444.123565,1072.533697
3973.821600,-9474.636058,0.000000,995.924147
3973.821930,-9770.718434,0.000000,153.219100
3973.822260,-9696.697840,-148.041188,-995.924147
3973.822590,-9918.759623,-518.144159,-1378.971896
3973.822919,-9474.636058,0.000000,-919.314598
3973.823249,-9548.656652,0.000000,1685.410096
3973.823579,-10066.800811,74.020594,2451.505594
3973.823908,-10436.903782,296.082377,2451.505594
3973.824238,-10955.047942,666.185348,612.876398
3973.824568,-10436.903782,148.041188,-459.657299
3973.824898,-9918.759623,0.000000,-1455.581446
3973.825227,-9104.533087,-370.102971,-689.485948
3973.825557,-9104.533087,0.000000,229.828649
3973.825887,-9178.553681,0.000000,1149.143247
3973.826216,-9474.636058,148.041188,459.657299
3973.826546,-9844.739029,148.041188,-306.438199
3973.826876,-9844.739029,0.000000,-766.095498
3973.827206,-9696.697840,222.061783,-919.314598
3973.827535,-9918.759623,74.020594,919.314598
3973.827865,-10288.862594,370.102971,2451.505594
3973.828195,-10214.842000,148.041188,2145.067394
3973.828524,-10362.883188,592.164754,689.485948
3973.828854,-10066.800811,222.061783,-1532.190996
3973.829184,-9844.739029,370.102971,-2068.457845
3973.829514,-9770.718434,592.164754,-995.924147
3973.829843,-9400.615463,222.061783,1072.533697
3973.830173,-9252.574275,296.082377,1685.410096
3973.830503,-9326.594869,-444.123565,1149.143247
3973.830832,-9622.677246,-444.123565,-229.828649
3973.831162,-9326.594869,-370.102971,-1225.752797
3973.831492,-9326.594869,0.000000,-1838.629195
3973.831822,-9326.594869,0.000000,229.828649
3973.832151,-9548.656652,74.020594,1991.848295
3973.832481,-10140.821405,370.102971,2911.162892
3973.832811,-10436.903782,592.164754,2374.896044
3973.833140,-11103.089130,666.185348,76.609550
3973.833470,-10584.944971,222.061783,-1532.190996
3973.833800,-9622.677246,370.102971,-1762.019645
3973.834130,-8882.471304,-74.020594,-306.438199
3973.834459,-9030.512492,222.061783,459.657299
3973.834789,-8734.430116,0.000000,612.876398
3973.835119,-9474.636058,0.000000,306.438199
3973.835448,-9918.759623,296.082377,-536.266849
3973.835778,-10066.800811,148.041188,-689.485948
3973.836108,-10362.883188,74.020594,0.000000
3973.836438,-10214.842000,0.000000,1532.190996
3973.836767,-9918.759623,74.020594,2221.676944
3973.837097,-9844.739029,0.000000,1225.752797
3973.837427,-10362.883188,0.000000,0.000000
3973.837756,-9918.759623,74.020594,-1149.143247
3973.838086,-9992.780217,370.102971,-1532.190996
3973.838416,-9474.636058,814.226536,-383.047749
3973.838746,-9548.656652,0.000000,1225.752797
3973.839075,-9326.594869,0.000000,1991.848295
3973.839405,-9548.656652,-518.144159,1072.533697
3973.839735,-9918.759623,-148.041188,0.000000
3973.840064,-9622.677246,-444.123565,-919.314598
3973.840394,-9992.780217,0.000000,-1149.143247
3973.840724,-9696.697840,0.000000,766.095498
3973.841054,-10066.800811,74.020594,2068.457845
3973.841383,-10140.821405,666.185348,2068.457845
3973.841713,-10510.924376,370.102971,1455.581446
3973.842043,-10658.965565,222.061783,0.000000
3973.842372,-10214.842000,0.000000,-1532.190996
3973.842702,-9770.718434,518.144159,-995.924147
3973.843032,-9104.533087,-444.123565,-459.657299
3973.843362,-9474.636058,0.000000,536.266849
3973.843691,-9178.553681,-666.185348,995.924147
3973.844021,-9474.636058,-296.082377,306.438199
3973.844351,-9400.615463,-148.041188,-459.657299
3973.844680,-9696.697840,-370.102971,-459.657299
3973.845010,-10066.800811,0.000000,153.219100
3973.845340,-9992.780217,0.000000,1608.800546
3973.845670,-9474.636058,-370.102971,2221.676944
3973.845999,-10140.821405,-148.041188,1302.362347
3973.846329,-10362.883188,0.000000,-459.657299
3973.846659,-9844.739029,74.020594,-1532.190996
3973.846989,-9548.656652,74.020594,-1149.143247
3973.847318,-9622.677246,370.102971,-76.609550
3973.847648,-9696.697840,222.061783,612.876398
3973.847978,-9548.656652,0.000000,1378.971896
3973.848307,-9918.759623,0.000000,459.657299
3973.848637,-9622.677246,-148.041188,-919.314598
3973.848967,-9548.656652,-444.123565,-995.924147
3973.849297,-9622.677246,-370.102971,-612.876398
3973.849626,-9548.656652,-148.041188,459.657299
3973.849956,-9474.636058,74.020594,2298.286494
3973.850286,-10066.800811,296.082377,2681.334243
3973.850615,-10732.986159,370.102971,1685.410096
3973.850945,-10362.883188,0.000000,-153.219100
3973.851275,-9548.656652,444.123565,-1532.190996
3973.851605,-9326.594869,222.061783,-1072.533697
3973.851934,-9252.574275,-222.061783,76.609550
3973.852264,-9326.594869,74.020594,689.485948
3973.852594,-9474.636058,0.000000,1225.752797
3973.852923,-9844.739029,74.020594,153.219100
3973.853253,-10140.821405,74.020594,-689.485948
3973.853583,-9770.718434,74.020594,-1072.533697
3973.853913,-9474.636058,0.000000,229.828649
3973.854242,-9622.677246,0.000000,1991.848295
3973.854572,-9844.739029,296.082377,2221.676944
3973.854902,-9918.759623,0.000000,1225.752797
3973.855231,-10288.862594,518.144159,-306.438199
3973.855561,-9696.697840,148.041188,-1149.143247
3973.855891,-10066.800811,592.164754,-1378.971896
3973.856221,-9474.636058,296.082377,76.609550
3973.856550,-9548.656652,222.061783,1225.752797
3973.856880,-9548.656652,0.000000,1685.410096
3973.857210,-9918.759623,-222.061783,459.657299
3973.857539,-9696.697840,0.000000,-1149.143247
3973.857869,-9918.759623,-148.041188,-1532.190996
3973.858199,-9770.718434,0.000000,-689.485948
3973.858529,-9844.739029,0.000000,1685.410096
3973.858858,-9844.739029,148.041188,2451.505594
3973.859188,-9696.697840,148.041188,2451.505594
3973.859518,-10732.986159,370.102971,1149.143247
3973.859847,-10510.924376,74.020594,-306.438199
3973.860177,-10066.800811,370.102971,-1302.362347
3973.860507,-9400.615463,222.061783,-995.924147
3973.860837,-9400.615463,148.041188,459.657299
3973.861166,-8882.471304,444.123565,919.314598
3973.861496,-9326.594869,0.000000,153.219100
3973.861826,-9918.759623,592.164754,-306.438199
3973.862155,-9844.739029,-74.020594,-1225.752797
3973.862485,-10288.862594,222.061783,-766.095498
3973.862815,-9918.759623,148.041188,153.219100
3973.863145,-9844.739029,-74.020594,1302.362347
3973.863474,-9622.677246,0.000000,1532.190996
3973.863804,-9918.759623,0.000000,689.485948
3973.864134,-9918.759623,148.041188,-383.047749
3973.864463,-9474.636058,222.061783,-1762.019645
3973.864793,-9622.677246,518.144159,-766.095498
3973.865123,-9844.739029,222.061783,995.924147
3973.865453,-10066.800811,370.102971,1838.629195
3973.865782,-9696.697840,-74.020594,1225.752797
3973.866112,-9918.759623,0.000000,459.657299
3973.866442,-9696.697840,-148.041188,-995.924147
3973.866771,-9474.636058,0.000000,-842.705048
3973.867101,-9474.636058,222.061783,-383.047749
3973.867431,-9548.656652,444.123565,1225.752797
3973.867761,-9844.739029,370.102971,2298.286494
3973.868090,-9918.759623,222.061783,1762.019645
3973.868420,-10658.965565,740.205942,306.438199
3973.868750,-10362.883188,370.102971,-919.314598
3973.869080,-10066.800811,222.061783,-1302.362347
3973.869409,-9474.636058,74.020594,-459.657299
3973.869739,-9474.636058,518.144159,766.095498
3973.870069,-9400.615463,370.102971,842.705048
3973.870398,-9770.718434,0.000000,766.095498
3973.870728,-9844.739029,74.020594,-153.219100
3973.871058,-9548.656652,-148.041188,-536.266849
3973.871388,-9770.718434,0.000000,-383.047749
3973.871717,-9548.656652,-222.061783,842.705048
3973.872047,-9548.656652,-370.102971,2145.067394
3973.872377,-9548.656652,-296.082377,1608.800546
3973.872706,-10436.903782,0.000000,306.438199
3973.873036,-10214.842000,148.041188,-842.705048
3973.873366,-9696.697840,0.000000,-1225.752797
3973.873696,-9622.677246,0.000000,-459.657299
3973.874025,-9548.656652,0.000000,842.705048
3973.874355,-9696.697840,0.000000,1455.581446
3973.874685,-9252.574275,-888.247130,1302.362347
3973.875014,-9696.697840,-444.123565,0.000000
3973.875344,-9918.759623,-370.102971,-689.485948
3973.875674,-10066.800811,-518.144159,-1149.143247
3973.876004,-9326.594869,-444.123565,-306.438199
3973.876333,-9474.636058,0.000000,1455.581446
3973.876663,-9844.739029,0.000000,2528.115143
3973.876993,-10436.903782,0.000000,2068.457845
3973.877322,-10584.944971,370.102971,229.828649
3973.877652,-10214.842000,-74.020594,-919.314598
3973.877982,-9844.739029,0.000000,-1302.362347
3973.878312,-9474.636058,-592.164754,-153.219100
3973.878641,-9474.636058,0.000000,306.438199
3973.878971,-9178.553681,0.000000,766.095498
3973.879301,-9696.697840,74.020594,383.047749
3973.879630,-10066.800811,-222.061783,0.000000
3973.879960,-9918.759623,-222.061783,-919.314598
3973.880290,-9992.780217,-444.123565,153.219100
3973.880620,-9844.739029,-222.061783,1149.143247
3973.880949,-9918.759623,0.000000,1991.848295
3973.881279,-9918.759623,-296.082377,1455.581446
3973.881609,-10288.862594,0.000000,0.000000
3973.881938,-9770.718434,0.000000,-1378.971896
3973.882268,-9770.718434,74.020594,-1378.971896
3973.882598,-9696.697840,222.061783,-229.828649
3973.882928,-9622.677246,148.041188,1378.971896
3973.883257,-9548.656652,370.102971,1685.410096
3973.883587,-9474.636058,0.000000,1225.752797
3973.883917,-9548.656652,222.061783,-459.657299
3973.884246,-9474.636058,0.000000,-1302.362347
3973.884576,-9548.656652,296.082377,-1302.362347
3973.884906,-9548.656652,296.082377,0.000000
3973.885236,-9548.656652,222.061783,1685.410096
3973.885565,-9622.677246,444.123565,1838.629195
3973.885895,-10510.924376,592.164754,1149.143247
3973.886225,-10658.965565,666.185348,0.000000
3973.886554,-10140.821405,444.123565,-1302.362347
3973.886884,-9474.636058,740.205942,-1302.362347
3973.887214,-9178.553681,0.000000,-383.047749
3973.887544,-9474.636058,518.144159,612.876398
3973.887873,-9474.636058,148.041188,919.314598
3973.888203,-9992.780217,740.205942,612.876398
3973.888533,-9844.739029,148.041188,-383.047749
3973.888862,-9770.718434,0.000000,-612.876398
3973.889192,-9548.656652,0.000000,306.438199
3973.889522,-9548.656652,0.000000,1532.190996
3973.889852,-9770.718434,0.000000,2221.676944
3973.890181,-9770.718434,74.020594,1302.362347
3973.890511,-10584.944971,222.061783,0.000000
3973.890841,-9696.697840,148.041188,-1225.752797
3973.891170,-9844.739029,222.061783,-995.924147
3973.891500,-9548.656652,370.102971,0.000000
3973.891830,-10066.800811,74.020594,1455.581446
3973.892160,-9474.636058,0.000000,1455.581446
3973.892489,-9252.574275,-296.082377,229.828649
3973.892819,-9696.697840,0.000000,-1072.533697
3973.893149,-9548.656652,-592.164754,-1455.581446
3973.893479,-9770.718434,0.000000,-1378.971896
3973.893808,-9622.677246,74.020594,842.705048
3973.894138,-9696.697840,0.000000,1915.238745
3973.894468,-9918.759623,0.000000,2145.067394
3973.894797,-10510.924376,0.000000,995.924147
3973.895127,-10436.903782,74.020594,306.438199
3973.895457,-10288.862594,0.000000,-842.705048
3973.895787,-9770.718434,0.000000,-536.266849
3973.896116,-9474.636058,-296.082377,306.438199
3973.896446,-9474.636058,0.000000,766.095498
3973.896776,-9770.718434,-444.123565,842.705048
3973.897105,-10066.800811,148.041188,153.219100
3973.897435,-9918.759623,0.000000,-766.095498
3973.897765,-9696.697840,-370.102971,-919.314598
3973.898095,-9622.677246,-148.041188,612.876398
3973.898424,-9696.697840,-370.102971,1685.410096
3973.898754,-9622.677246,-592.164754,2451.505594
3973.899084,-10066.800811,-370.102971,1378.971896
3973.899413,-10510.924376,296.082377,306.438199
3973.899743,-10140.821405,74.020594,-1072.533697
3973.900073,-9844.739029,592.164754,-689.485948
3973.900403,-9696.697840,444.123565,383.047749
3973.900732,-9992.780217,296.082377,1225.752797
3973.901062,-9548.656652,0.000000,1225.752797
3973.901392,-9622.677246,0.000000,0.000000
3973.901721,-9326.594869,-148.041188,-1532.190996
3973.902051,-9400.615463,-222.061783,-2145.067394
3973.902381,-9178.553681,148.041188,-842.705048
3973.902711,-9104.533087,-370.102971,995.924147
3973.903040,-9844.739029,0.000000,2451.505594
3973.903370,-10214.842000,74.020594,2528.115143
3973.903700,-10955.047942,222.061783,1532.190996
3973.904029,-10288.862594,0.000000,-76.609550
3973.904359,-10066.800811,0.000000,-766.095498
3973.904689,-9252.574275,222.061783,-383.047749
3973.905019,-9474.636058,0.000000,383.047749
3973.905348,-9400.615463,370.102971,995.924147
3973.905678,-9400.615463,0.000000,612.876398
3973.906008,-9844.739029,222.061783,-306.438199
3973.906337,-9696.697840,74.020594,-995.924147
3973.906667,-9770.718434,0.000000,-842.705048
3973.906997,-9548.656652,0.000000,229.828649
3973.907327,-9548.656652,-296.082377,1915.238745
3973.907656,-9622.677246,-74.020594,2451.505594
3973.907986,-9992.780217,0.000000,1455.581446
3973.908316,-10214.842000,0.000000,-383.047749
3973.908645,-9844.739029,148.041188,-1072.533697
3973.908975,-9992.780217,444.123565,0.000000
3973.909305,-9844.739029,518.144159,1685.410096
3973.909635,-10214.842000,518.144159,1378.971896
3973.909964,-9770.718434,74.020594,1378.971896
3973.910294,-9622.677246,0.000000,0.000000
3973.910624,-9326.594869,0.000000,-1915.238745
3973.910953,-9622.677246,-148.041188,-2374.896044
3973.911283,-9326.594869,0.000000,-842.705048
3973.911613,-9326.594869,-370.102971,842.705048
3973.911943,-9844.739029,222.061783,2298.286494
3973.912272,-10066.800811,74.020594,2374.896044
3973.912602,-10584.944971,296.082377,766.095498
3973.912932,-10510.924376,370.102971,-612.876398
3973.913261,-10214.842000,296.082377,-1072.533697
3973.913591,-9844.739029,296.082377,0.000000
3973.913921,-9770.718434,0.000000,306.438199
3973.914251,-9548.656652,148.041188,612.876398
3973.914580,-9696.697840,74.020594,76.609550
3973.914910,-9844.739029,296.082377,-689.485948
3973.915240,-9622.677246,-148.041188,-1149.143247
3973.915569,-9474.636058,0.000000,-306.438199
3973.915899,-9400.615463,0.000000,612.876398
3973.916229,-9770.718434,74.020594,1762.019645
3973.916559,-10214.842000,148.041188,2068.457845
3973.916888,-10732.986159,222.061783,536.266849
3973.917218,-10584.944971,592.164754,-689.485948
3973.917548,-10436.903782,666.185348,-1532.190996
3973.917878,-10362.883188,1036.288319,153.219100
3973.918207,-9770.718434,296.082377,766.095498
3973.918537,-9918.759623,518.144159,1302.362347
3973.918867,-9622.677246,222.061783,842.705048
3973.919196,-9548.656652,0.000000,306.438199
3973.919526,-9474.636058,-74.020594,-1378.971896
3973.919856,-9548.656652,-444.123565,-1072.533697
3973.920186,-9474.636058,-148.041188,0.000000
3973.920515,-9474.636058,74.020594,1455.581446
3973.920845,-9622.677246,74.020594,2221.676944
3973.921175,-10066.800811,222.061783,1915.238745
3973.921504,-10658.965565,0.000000,842.705048
3973.921834,-10510.924376,370.102971,-536.266849
3973.922164,-9770.718434,148.041188,-919.314598
3973.922494,-9178.553681,148.041188,-612.876398
3973.922823,-9252.574275,0.000000,229.828649
3973.923153,-9178.553681,148.041188,842.705048
3973.923483,-9474.636058,296.082377,536.266849
3973.923812,-9474.636058,148.041188,-689.485948
3973.924142,-9622.677246,-296.082377,-1225.752797
3973.924472,-9326.594869,0.000000,-459.657299
3973.924802,-9622.677246,-148.041188,1149.143247
3973.925131,-9474.636058,-296.082377,2068.457845
3973.925461,-9696.697840,0.000000,1991.848295
3973.925791,-10288.862594,0.000000,919.314598
3973.926120,-10140.821405,0.000000,-459.657299
3973.926450,-10584.944971,370.102971,-1302.362347
3973.926780,-9918.759623,222.061783,0.000000
3973.927109,-10140.821405,148.041188,1072.533697
3973.927439,-9770.718434,518.144159,1302.362347
3973.927769,-9548.656652,0.000000,612.876398
3973.928098,-9548.656652,0.000000,-766.095498
3973.928428,-9474.636058,-222.061783,-1915.238745
3973.928758,-9770.718434,0.000000,-1532.190996
3973.929087,-9326.594869,-296.082377,76.609550
3973.929417,-9844.739029,0.000000,2451.505594
3973.929747,-9770.718434,296.082377,2528.115143
3973.930076,-10362.883188,222.061783,1838.629195
3973.930406,-10732.986159,0.000000,306.438199
3973.930736,-10658.965565,148.041188,-919.314598
3973.931065,-9770.718434,444.123565,-1072.533697
3973.931395,-9548.656652,0.000000,0.000000
3973.931725,-9474.636058,0.000000,612.876398
3973.932054,-9474.636058,0.000000,612.876398
3973.932384,-9474.636058,0.000000,-383.047749
3973.932714,-9548.656652,0.000000,-1149.143247
3973.933043,-9622.677246,-444.123565,-995.924147
3973.933373,-9770.718434,0.000000,229.828649
3973.933703,-9622.677246,-444.123565,1685.410096
3973.934032,-9770.718434,-296.082377,2374.896044
3973.934362,-10140.821405,-222.061783,2068.457845
3973.934692,-10584.944971,0.000000,229.828649
3973.935021,-9844.739029,-74.020594,-766.095498
3973.935351,-9474.636058,518.144159,-1072.533697
3973.935681,-9918.759623,518.144159,0.000000
3973.936010,-9992.780217,518.144159,919.314598
3973.936340,-9400.615463,222.061783,689.485948
3973.936670,-9548.656652,-370.102971,-536.266849
3973.936999,-9474.636058,0.000000,-1991.848295
3973.937329,-9104.533087,-296.082377,-2221.676944
3973.937659,-9252.574275,0.000000,-1072.533697
3973.937988,-9178.553681,0.000000,459.657299
3973.938318,-9252.574275,0.000000,2221.676944
3973.938648,-9844.739029,74.020594,2528.115143
3973.938977,-10807.006753,222.061783,1378.971896
3973.939307,-10732.986159,370.102971,229.828649
3973.939637,-10584.944971,296.082377,-612.876398
3973.939966,-9770.718434,666.185348,-536.266849
3973.940296,-9474.636058,370.102971,-153.219100
3973.940626,-9178.553681,444.123565,76.609550
3973.940955,-9474.636058,518.144159,0.000000
3973.941285,-9770.718434,518.144159,-766.095498
3973.941615,-9474.636058,74.020594,-1225.752797
3973.941944,-9400.615463,-222.061783,-689.485948
3973.942274,-9104.533087,-296.082377,383.047749
3973.942604,-9622.677246,-148.041188,2374.896044
3973.942933,-9770.718434,-444.123565,2451.505594
3973.943263,-10288.862594,0.000000,2068.457845
3973.943593,-10658.965565,444.123565,229.828649
3973.943922,-10140.821405,370.102971,-919.314598
3973.944252,-10584.944971,592.164754,-383.047749
3973.944582,-10288.862594,444.123565,383.047749
3973.944911,-10140.821405,370.102971,1225.752797
3973.945241,-8956.491898,148.041188,842.705048
3973.945571,-9326.594869,-74.020594,0.000000
3973.945900,-9104.533087,-296.082377,-995.924147
3973.946230,-9326.594869,-370.102971,-1608.800546
3973.946560,-9252.574275,-74.020594,-1225.752797
3973.946889,-9474.636058,-296.082377,459.657299
3973.947219,-9622.677246,0.000000,2068.457845
3973.947549,-10436.903782,148.041188,2834.553343
3973.947878,-10955.047942,222.061783,1762.019645
3973.948208,-10584.944971,0.000000,0.000000
3973.948538,-10584.944971,222.061783,-1225.752797
3973.948867,-9992.780217,370.102971,-612.876398
3973.949197,-9622.677246,0.000000,0.000000
3973.949527,-9696.697840,296.082377,459.657299
3973.949856,-9178.553681,0.000000,306.438199
3973.950186,-9548.656652,148.041188,-689.485948
3973.950516,-9474.636058,-296.082377,-1455.581446
3973.950845,-9030.512492,0.000000,-1225.752797
3973.951175,-9474.636058,-370.102971,459.657299
3973.951505,-9992.780217,-444.123565,2068.457845
3973.951834,-9844.739029,-666.185348,2681.334243
3973.952164,-10362.883188,-148.041188,1149.143247
3973.952494,-10881.027347,148.041188,153.219100
3973.952823,-10436.903782,148.041188,-919.314598
3973.953153,-10510.924376,518.144159,-536.266849
3973.953483,-10214.842000,222.061783,689.485948
3973.953812,-9622.677246,592.164754,842.705048
3973.954142,-9252.574275,0.000000,536.266849
3973.954472,-9104.533087,-444.123565,-689.485948
3973.954801,-8808.450710,-296.082377,-1991.848295
3973.955131,-8660.409521,-444.123565,-2451.505594
3973.955461,-8882.471304,-592.164754,-766.095498
3973.955790,-8808.450710,-592.164754,1149.143247
3973.956120,-9252.574275,0.000000,2604.724693
3973.956450,-9918.759623,0.000000,1838.629195
3973.956779,-10807.006753,518.144159,1072.533697
3973.957109,-10658.965565,370.102971,-153.219100
3973.957439,-10807.006753,518.144159,-919.314598
3973.957769,-9622.677246,296.082377,-842.705048
3973.958098,-9400.615463,518.144159,153.219100
3973.958428,-9474.636058,444.123565,536.266849
3973.958758,-9326.594869,74.020594,0.000000
3973.959087,-9474.636058,370.102971,-1149.143247
3973.959417,-9326.594869,222.061783,-1378.971896
3973.959747,-9622.677246,0.000000,-306.438199
3973.960076,-9474.636058,74.020594,995.924147
3973.960406,-9844.739029,0.000000,2604.724693
3973.960736,-10288.862594,296.082377,2298.286494
3973.961065,-10732.986159,370.102971,1225.752797
3973.961395,-10510.924376,444.123565,-536.266849
3973.961725,-10584.944971,592.164754,-995.924147
3973.962054,-10362.883188,1036.288319,-459.657299
3973.962384,-10214.842000,740.205942,612.876398
3973.962714,-9622.677246,740.205942,1225.752797
3973.963043,-9326.594869,0.000000,612.876398
3973.963373,-9548.656652,148.041188,-612.876398
3973.963703,-8882.471304,0.000000,-2221.676944
3973.964032,-9474.636058,-444.123565,-1378.971896
3973.964362,-9548.656652,0.000000,-689.485948
3973.964692,-9622.677246,0.000000,1378.971896
3973.965021,-9326.594869,-148.041188,2834.553343
3973.965351,-10288.862594,148.041188,2451.505594
3973.965681,-10658.965565,222.061783,689.485948
3973.966010,-10658.965565,222.061783,-689.485948
3973.966340,-10140.821405,296.082377,-1302.362347
3973.966670,-9326.594869,0.000000,-306.438199
3973.966999,-9474.636058,74.020594,383.047749
3973.967329,-9030.512492,-148.041188,995.924147
3973.967659,-9178.553681,-666.185348,229.828649
3973.967988,-8808.450710,-370.102971,-689.485948
3973.968318,-9326.594869,-222.061783,-1302.362347
3973.968648,-9178.553681,-444.123565,-459.657299
3973.968977,-9622.677246,-518.144159,1149.143247
3973.969307,-9992.780217,0.000000,2834.553343
3973.969637,-10214.842000,-74.020594,2451.505594
3973.969966,-10807.006753,0.000000,689.485948
3973.970296,-10140.821405,148.041188,-1149.143247
3973.970626,-10066.800811,222.061783,-1608.800546
3973.970955,-9918.759623,518.144159,-383.047749
3973.971285,-10214.842000,222.061783,766.095498
3973.971615,-9992.780217,222.061783,1608.800546
3973.971944,-9548.656652,0.000000,689.485948
3973.972274,-9474.636058,-222.061783,-842.705048
3973.972604,-9326.594869,-666.185348,-1762.019645
3973.972933,-9252.574275,-740.205942,-1225.752797
3973.973263,-9326.594869,-370.102971,383.047749
3973.973593,-9474.636058,-518.144159,2757.943793
3973.973922,-9770.718434,0.000000,2604.724693
3973.974252,-10881.027347,444.123565,1915.238745
3973.974582,-11399.171507,370.102971,536.266849
3973.974911,-10732.986159,0.000000,-536.266849
3973.975241,-10214.842000,444.123565,-1072.533697
3973.975571,-9178.553681,0.000000,-536.266849
3973.975900,-9178.553681,148.041188,459.657299
3973.976230,-8808.450710,-222.061783,459.657299
3973.976560,-9400.615463,-74.020594,-766.095498
3973.976889,-9400.615463,-74.020594,-1149.143247
3973.977219,-9622.677246,-370.102971,-995.924147
3973.977549,-9770.718434,-74.020594,306.438199
3973.977878,-9770.718434,-814.226536,2145.067394
3973.978208,-9918.759623,0.000000,3064.381992
3973.978538,-10584.944971,0.000000,2528.115143
3973.978867,-10955.047942,296.082377,306.438199
3973.979197,-10510.924376,444.123565,-1532.190996
3973.979527,-10214.842000,666.185348,-1378.971896
3973.979856,-10066.800811,814.226536,0.000000
3973.980186,-9918.759623,518.144159,842.705048
3973.980516,-9326.594869,222.061783,766.095498
3973.980845,-9326.594869,0.000000,-459.657299
3973.981175,-9326.594869,-222.061783,-1455.581446
3973.981505,-8956.491898,-296.082377,-1762.019645
3973.981834,-9400.615463,-74.020594,-766.095498
3973.982164,-9252.574275,-592.164754,1072.533697
3973.982494,-9770.718434,74.020594,2298.286494
3973.982823,-10436.903782,222.061783,2757.943793
3973.983153,-11029.068536,370.102971,1532.190996
3973.983483,-10436.903782,592.164754,229.828649
3973.983812,-10584.944971,444.123565,-536.266849
3973.984142,-9770.718434,592.164754,-612.876398
3973.984472,-9030.512492,74.020594,-459.657299
3973.984801,-8734.430116,222.061783,0.000000
3973.985131,-8956.491898,74.020594,-766.095498
3973.985461,-9548.656652,148.041188,-919.314598
3973.985790,-9474.636058,222.061783,-1378.971896
3973.986120,-9400.615463,-148.041188,-1072.533697
3973.986450,-9178.553681,0.000000,459.657299
3973.986779,-9992.780217,-222.061783,1915.238745
3973.987109,-10140.821405,0.000000,2757.943793
3973.987439,-10214.842000,0.000000,2145.067394
3973.987768,-10066.800811,518.144159,459.657299
3973.988098,-9918.759623,74.020594,-689.485948
3973.988428,-9844.739029,592.164754,-536.266849
3973.988757,-9918.759623,518.144159,306.438199
3973.989087,-9474.636058,296.082377,842.705048
3973.989417,-9400.615463,74.020594,919.314598
3973.989746,-9548.656652,-222.061783,-383.047749
3973.990076,-9252.574275,-148.041188,-1378.971896
3973.990406,-9474.636058,-296.082377,-1455.581446
3973.990736,-9400.615463,-370.102971,-995.924147
3973.991065,-9326.594869,-370.102971,612.876398
3973.991395,-9992.780217,0.000000,2221.676944
3973.991725,-10362.883188,0.000000,2451.505594
3973.992054,-11103.089130,370.102971,1149.143247
3973.992384,-10658.965565,222.061783,0.000000
3973.992714,-10140.821405,0.000000,-995.924147
3973.993043,-9548.656652,0.000000,-689.485948
3973.993373,-9178.553681,0.000000,-536.266849
3973.993703,-9104.533087,74.020594,459.657299
3973.994032,-9474.636058,-222.061783,306.438199
3973.994362,-9548.656652,0.000000,-842.705048
3973.994692,-9326.594869,0.000000,-919.314598
3973.995021,-9474.636058,-296.082377,-612.876398
3973.995351,-9548.656652,-74.020594,689.485948
3973.995681,-9696.697840,-444.123565,2221.676944
3973.996010,-9918.759623,-74.020594,2374.896044
3973.996340,-10362.883188,148.041188,1225.752797
3973.996670,-10658.965565,592.164754,-306.438199
3973.996999,-10362.883188,222.061783,-1455.581446
3973.997329,-10066.800811,518.144159,-842.705048
3973.997659,-9548.656652,592.164754,-383.047749
3973.997988,-9918.759623,592.164754,1149.143247
3973.998318,-9400.615463,222.061783,689.485948
3973.998648,-9474.636058,0.000000,76.609550
3973.998977,-9400.615463,148.041188,-1302.362347
3973.999307,-9326.594869,-370.102971,-1762.019645
3973.999637,-9770.718434,0.000000,-689.485948
3973.999966,-9474.636058,0.000000,1225.752797
3974.000296,-9992.780217,222.061783,2451.505594
3974.000626,-9992.780217,296.082377,2068.457845
3974.000955,-11177.109724,888.247130,919.314598
3974.001285,-10436.903782,370.102971,-153.219100
3974.001615,-10362.883188,296.082377,-919.314598
3974.001944,-8660.409521,74.020594,-1149.143247
3974.002274,-9178.553681,296.082377,0.000000
3974.002604,-9178.553681,296.082377,842.705048
3974.002933,-9252.574275,74.020594,612.876398
3974.003263,-9696.697840,666.185348,-383.047749
3974.003593,-9474.636058,74.020594,-1225.752797
3974.003922,-9548.656652,296.082377,-536.266849
3974.004252,-9622.677246,148.041188,842.705048
3974.004582,-9770.718434,222.061783,1915.238745
3974.004911,-10066.800811,222.061783,2221.676944
3974.005241,-10584.944971,370.102971,766.095498
3974.005571,-10214.842000,518.144159,-766.095498
3974.005900,-10436.903782,370.102971,-1455.581446
3974.006230,-9770.718434,962.267725,-766.095498
3974.006560,-10140.821405,74.020594,689.485948
3974.006889,-9622.677246,0.000000,1378.971896
3974.007219,-9104.533087,-592.164754,1225.752797
3974.007549,-9104.533087,-444.123565,383.047749
3974.007878,-9178.553681,-592.164754,-1149.143247
3974.008208,-9844.739029,-222.061783,-1302.362347
3974.008538,-9844.739029,-148.041188,0.000000
3974.008867,-9770.718434,148.041188,1302.362347
3974.009197,-10288.862594,444.123565,2681.334243
3974.009527,-10807.006753,222.061783,1991.848295
3974.009856,-11103.089130,592.164754,459.657299
3974.010186,-10436.903782,0.000000,-1149.143247
3974.010516,-9918.759623,444.123565,-1838.629195
3974.010845,-9178.553681,-148.041188,-766.095498
3974.011175,-8956.491898,0.000000,0.000000
3974.011505,-8956.491898,0.000000,766.095498
3974.011834,-9548.656652,-222.061783,0.000000
3974.012164,-9548.656652,0.000000,-459.657299
3974.012494,-9918.759623,-444.123565,-842.705048
3974.012823,-10288.862594,-222.061783,0.000000
3974.013153,-9696.697840,0.000000,1608.800546
3974.013483,-9992.780217,-444.123565,2451.505594
3974.013812,-9992.780217,-222.061783,2451.505594
3974.014142,-10288.862594,0.000000,919.314598
3974.014472,-10066.800811,0.000000,-842.705048
3974.014801,-9770.718434,0.000000,-1762.019645
3974.015131,-9474.636058,444.123565,-536.266849
3974.015461,-9622.677246,222.061783,383.047749
3974.015790,-9474.636058,222.061783,1455.581446
3974.016120,-9178.553681,0.000000,0.000000
3974.016450,-9178.553681,-296.082377,-612.876398
3974.016779,-8956.491898,-444.123565,-1685.410096
3974.017109,-9622.677246,0.000000,-919.314598
3974.017439,-9770.718434,444.123565,612.876398
3974.017768,-9844.739029,222.061783,1838.629195
3974.018098,-10066.800811,370.102971,2834.553343
3974.018428,-10881.027347,592.164754,1378.971896
3974.018757,-10881.027347,370.102971,0.000000
3974.019087,-10214.842000,0.000000,-1225.752797
3974.019417,-9696.697840,370.102971,-1378.971896
3974.019746,-9104.533087,0.000000,-459.657299
3974.020076,-9252.574275,148.041188,612.876398
3974.020406,-8734.430116,-296.082377,766.095498
3974.020735,-9474.636058,74.020594,0.000000
3974.021065,-9622.677246,148.041188,-766.095498
3974.021395,-9770.718434,-370.102971,-383.047749
3974.021724,-9770.718434,74.020594,842.705048
3974.022054,-9918.759623,0.000000,2221.676944
3974.022384,-10510.924376,0.000000,2834.553343
3974.022713,-10584.944971,148.041188,1991.848295
3974.023043,-10510.924376,222.061783,0.000000
3974.023373,-9992.780217,296.082377,-1072.533697
3974.023703,-9696.697840,222.061783,-1455.581446
3974.024032,-9400.615463,296.082377,153.219100
3974.024362,-9326.594869,74.020594,1532.190996
3974.024692,-9252.574275,0.000000,1302.362347
3974.025021,-9252.574275,-370.102971,76.609550
3974.025351,-9400.615463,-370.102971,-1225.752797
3974.025681,-9474.636058,-370.102971,-1532.190996
3974.026010,-9326.594869,-148.041188,-766.095498
3974.026340,-9104.533087,-296.082377,383.047749
3974.026670,-9400.615463,0.000000,2374.896044
3974.026999,-9548.656652,222.061783,2145.067394
3974.027329,-10510.924376,296.082377,842.705048
3974.027659,-10732.986159,592.164754,-383.047749
3974.027988,-10436.903782,148.041188,-1302.362347
3974.028318,-9844.739029,296.082377,-1225.752797
3974.028648,-8956.491898,-592.164754,0.000000
3974.028978,-9104.533087,148.041188,153.219100
3974.029307,-9104.533087,-296.082377,536.266849
3974.029637,-9622.677246,0.000000,0.000000
3974.029967,-9474.636058,0.000000,-689.485948
3974.030296,-9992.780217,0.000000,-689.485948
3974.030626,-10140.821405,148.041188,612.876398
3974.030956,-10288.862594,0.000000,2221.676944
3974.031286,-10140.821405,74.020594,2604.724693
3974.031615,-10214.842000,222.061783,919.314598
3974.031945,-10584.944971,370.102971,-229.828649
3974.032275,-10140.821405,222.061783,-1532.190996
3974.032604,-10140.821405,740.205942,-1378.971896
3974.032934,-9770.718434,592.164754,459.657299
3974.033264,-9992.780217,666.185348,919.314598
3974.033594,-9326.594869,296.082377,1149.143247
3974.033923,-9622.677246,0.000000,153.219100
3974.034253,-9548.656652,0.000000,-919.314598
3974.034583,-9474.636058,0.000000,-995.924147
3974.034912,-9770.718434,74.020594,-306.438199
3974.035242,-9474.636058,148.041188,919.314598
3974.035572,-9844.739029,370.102971,2528.115143
3974.035902,-9696.697840,740.205942,1685.410096
3974.036231,-10732.986159,444.123565,842.705048
3974.036561,-10362.883188,148.041188,-459.657299
3974.036891,-10066.800811,518.144159,-1149.143247
3974.037221,-9252.574275,296.082377,-766.095498
3974.037550,-9030.512492,0.000000,-229.828649
3974.037880,-8956.491898,148.041188,459.657299
3974.038210,-9252.574275,-444.123565,383.047749
3974.038539,-9474.636058,0.000000,-383.047749
3974.038869,-8956.491898,-148.041188,-1225.752797
3974.039199,-9474.636058,0.000000,0.000000
3974.039529,-9474.636058,148.041188,919.314598
3974.039858,-9844.739029,0.000000,2068.457845
3974.040188,-10436.903782,444.123565,1838.629195
3974.040518,-10510.924376,74.020594,766.095498
3974.040847,-10214.842000,592.164754,-689.485948
3974.041177,-10066.800811,296.082377,-1608.800546
3974.041507,-10214.842000,1036.288319,-1149.143247
3974.041837,-9622.677246,148.041188,0.000000
3974.042166,-9844.739029,444.123565,919.314598
3974.042496,-9474.636058,0.000000,919.314598
3974.042826,-9696.697840,-222.061783,0.000000
3974.043155,-9770.718434,0.000000,-766.095498
3974.043485,-10066.800811,-370.102971,-1225.752797
3974.043815,-10066.800811,-74.020594,-536.266849
3974.044145,-9548.656652,-74.020594,1455.581446
3974.044474,-9992.780217,370.102971,2374.896044
3974.044804,-9992.780217,0.000000,2298.286494
3974.045134,-10510.924376,0.000000,766.095498
3974.045463,-10288.862594,-222.061783,-383.047749
3974.045793,-9770.718434,296.082377,-1838.629195
3974.046123,-9104.533087,-296.082377,-383.047749
3974.046453,-9252.574275,-222.061783,536.266849
3974.046782,-9252.574275,-296.082377,919.314598
3974.047112,-9326.594869,-592.164754,919.314598
3974.047442,-9992.780217,-148.041188,0.000000
3974.047772,-9992.780217,-296.082377,-612.876398
3974.048101,-10066.800811,-370.102971,0.000000
3974.048431,-9622.677246,-592.164754,1302.362347
3974.048761,-9770.718434,-148.041188,2451.505594
3974.049090,-9770.718434,-370.102971,2221.676944
3974.049420,-10140.821405,-74.020594,766.095498
3974.049750,-9696.697840,0.000000,-842.705048
3974.050080,-9400.615463,296.082377,-1302.362347
3974.050409,-9548.656652,370.102971,-766.095498
3974.050739,-9770.718434,148.041188,536.266849
3974.051069,-9696.697840,296.082377,1378.971896
3974.051398,-9548.656652,-296.082377,919.314598
3974.051728,-9696.697840,0.000000,-383.047749
3974.052058,-9696.697840,0.000000,-1378.971896
3974.052388,-9548.656652,-148.041188,-1608.800546
3974.052717,-9548.656652,148.041188,-383.047749
3974.053047,-9400.615463,148.041188,766.095498
3974.053377,-9770.718434,518.144159,1991.848295
3974.053706,-10288.862594,592.164754,1762.019645
3974.054036,-10732.986159,814.226536,383.047749
3974.054366,-9918.759623,0.000000,-995.924147
3974.054696,-9844.739029,444.123565,-1532.190996
3974.055025,-9178.553681,148.041188,-383.047749
3974.055355,-9252.574275,222.061783,306.438199
3974.055685,-9400.615463,444.123565,1225.752797
3974.056014,-9844.739029,0.000000,842.705048
3974.056344,-9770.718434,666.185348,0.000000
3974.056674,-9918.759623,0.000000,-612.876398
3974.057004,-10140.821405,296.082377,-76.609550
3974.057333,-9770.718434,0.000000,1455.581446
3974.057663,-9844.739029,222.061783,2068.457845
3974.057993,-9548.656652,0.000000,1532.190996
3974.058322,-10066.800811,370.102971,153.219100
3974.058652,-9770.718434,740.205942,-1072.533697
3974.058982,-9770.718434,666.185348,-1838.629195
3974.059312,-9474.636058,370.102971,-919.314598
3974.059641,-9548.656652,74.020594,1072.533697
3974.059971,-9696.697840,666.185348,1685.410096
3974.060301,-9474.636058,0.000000,1149.143247
3974.060631,-9474.636058,-74.020594,-229.828649
3974.060960,-9178.553681,-222.061783,-1455.581446
3974.061290,-9474.636058,-222.061783,-1455.581446
3974.061620,-9326.594869,222.061783,0.000000
3974.061949,-9770.718434,0.000000,1762.019645
3974.062279,-9992.780217,222.061783,2374.896044
3974.062609,-10584.944971,148.041188,1532.190996
3974.062939,-10732.986159,888.247130,-153.219100
3974.063268,-10140.821405,148.041188,-1378.971896
3974.063598,-9918.759623,148.041188,-1149.143247
3974.063928,-9252.574275,-444.123565,-153.219100
3974.064257,-8882.471304,-222.061783,919.314598
3974.064587,-9252.574275,-370.102971,612.876398
3974.064917,-9844.739029,-222.061783,229.828649
3974.065247,-9770.718434,222.061783,-612.876398
3974.065576,-9770.718434,-592.164754,-842.705048
3974.065906,-9918.759623,0.000000,0.000000
3974.066236,-9992.780217,0.000000,1685.410096
3974.066565,-10214.842000,0.000000,2145.067394
3974.066895,-10362.883188,-222.061783,1532.190996
3974.067225,-10214.842000,-296.082377,0.000000
3974.067555,-9548.656652,-370.102971,-1532.190996
3974.067884,-9622.677246,0.000000,-1762.019645
3974.068214,-9400.615463,0.000000,-229.828649
3974.068544,-9178.553681,0.000000,842.705048
3974.068873,-9474.636058,-74.020594,1915.238745
3974.069203,-9474.636058,-814.226536,1225.752797
3974.069533,-9992.780217,-370.102971,-306.438199
3974.069863,-9474.636058,-222.061783,-2145.067394
3974.070192,-9622.677246,-444.123565,-612.876398
3974.070522,-9770.718434,-74.020594,919.314598
3974.070852,-10066.800811,74.020594,1838.629195
3974.071182,-9992.780217,222.061783,2298.286494
3974.071511,-10362.883188,296.082377,1149.143247
3974.071841,-10510.924376,148.041188,-689.485948
3974.072171,-9770.718434,0.000000,-1378.971896
3974.072500,-9326.594869,0.000000,-1378.971896
3974.072830,-9030.512492,0.000000,0.000000
3974.073160,-9326.594869,0.000000,306.438199
3974.073490,-9400.615463,-148.041188,842.705048
3974.073819,-9992.780217,0.000000,76.609550
3974.074149,-9844.739029,148.041188,76.609550
3974.074479,-10140.821405,74.020594,-612.876398
3974.074808,-9696.697840,0.000000,459.657299
3974.075138,-9844.739029,-296.082377,1762.019645
3974.075468,-9844.739029,0.000000,2374.896044
3974.075798,-10214.842000,148.041188,1532.190996
3974.076127,-10288.862594,222.061783,-612.876398
3974.076457,-9622.677246,148.041188,-1838.629195
3974.076787,-9474.636058,518.144159,-1608.800546
3974.077116,-9474.636058,518.144159,0.000000
3974.077446,-9770.718434,518.144159,1149.143247
3974.077776,-9474.636058,222.061783,1302.362347
3974.078106,-9770.718434,0.000000,612.876398
3974.078435,-9548.656652,74.020594,-995.924147
3974.078765,-10066.800811,222.061783,-1378.971896
3974.079095,-9696.697840,444.123565,-383.047749
3974.079424,-9474.636058,370.102971,459.657299
3974.079754,-9770.718434,962.267725,2068.457845
3974.080084,-9918.759623,296.082377,1762.019645
3974.080414,-10510.924376,592.164754,612.876398
3974.080743,-10436.903782,370.102971,-612.876398
3974.081073,-9992.780217,296.082377,-1762.019645
3974.081403,-9474.636058,74.020594,-1149.143247
3974.081733,-9400.615463,0.000000,-76.609550
3974.082062,-9252.574275,0.000000,689.485948
3974.082392,-9326.594869,-74.020594,842.705048
3974.082722,-9622.677246,518.144159,76.609550
3974.083051,-9844.739029,0.000000,-229.828649
3974.083381,-9844.739029,0.000000,-306.438199
3974.083711,-9622.677246,0.000000,536.266849
3974.084041,-9844.739029,148.041188,2068.457845
3974.084370,-9844.739029,0.000000,2374.896044
3974.084700,-9918.759623,0.000000,766.095498
3974.085030,-9918.759623,296.082377,-766.095498
3974.085359,-9844.739029,148.041188,-1838.629195
3974.085689,-9770.718434,148.041188,-1149.143247
3974.086019,-9474.636058,370.102971,0.000000
3974.086349,-9844.739029,148.041188,1072.533697
3974.086678,-9474.636058,0.000000,1225.752797
3974.087008,-9548.656652,-74.020594,459.657299
3974.087338,-9400.615463,0.000000,-1302.362347
3974.087667,-9548.656652,-222.061783,-1072.533697
3974.087997,-9918.759623,74.020594,-383.047749
3974.088327,-9474.636058,296.082377,536.266849
3974.088657,-9622.677246,222.061783,2298.286494
3974.088986,-9918.759623,74.020594,1838.629195
3974.089316,-10807.006753,518.144159,919.314598
3974.089646,-10436.903782,444.123565,-689.485948
3974.089975,-9696.697840,148.041188,-1455.581446
3974.090305,-9252.574275,74.020594,-766.095498
3974.090635,-9178.553681,0.000000,383.047749
3974.090965,-9474.636058,222.061783,919.314598
3974.091294,-9474.636058,0.000000,306.438199
3974.091624,-9696.697840,222.061783,-459.657299
3974.091954,-9992.780217,-148.041188,-766.095498
3974.092283,-9918.759623,0.000000,-383.047749
3974.092613,-9844.739029,0.000000,919.314598
3974.092943,-9918.759623,-370.102971,1991.848295
3974.093273,-10066.800811,-148.041188,2145.067394
3974.093602,-10436.903782,0.000000,919.314598
3974.093932,-9918.759623,74.020594,-612.876398
3974.094262,-9918.759623,0.000000,-1762.019645
3974.094592,-9770.718434,518.144159,-306.438199
3974.094921,-9918.759623,0.000000,1455.581446
3974.095251,-9696.697840,222.061783,1685.410096
3974.095581,-9474.636058,-222.061783,1302.362347
3974.095910,-9844.739029,-148.041188,0.000000
3974.096240,-9622.677246,-592.164754,-1302.362347
3974.096570,-9992.780217,-296.082377,-1378.971896
3974.096900,-9548.656652,0.000000,0.000000
3974.097229,-9400.615463,-296.082377,1378.971896
3974.097559,-9474.636058,0.000000,2451.505594
3974.097889,-9918.759623,0.000000,1532.190996
3974.098218,-10362.883188,370.102971,383.047749
3974.098548,-10066.800811,-592.164754,-919.314598
3974.098878,-9770.718434,-148.041188,-1072.533697
3974.099208,-9030.512492,-740.205942,0.000000
3974.099537,-8808.450710,-370.102971,612.876398
3974.099867,-8956.491898,0.000000,1302.362347
3974.100197,-9400.615463,0.000000,153.219100
3974.100526,-9696.697840,296.082377,-1072.533697
3974.100856,-9992.780217,148.041188,-1149.143247
3974.101186,-10066.800811,296.082377,0.000000
3974.101516,-10436.903782,0.000000,919.314598
3974.101845,-9844.739029,74.020594,1685.410096
3974.102175,-9622.677246,0.000000,1378.971896
3974.102505,-10288.862594,148.041188,0.000000
3974.102834,-9770.718434,74.020594,-1225.752797
3974.103164,-9918.759623,222.061783,-1302.362347
3974.103494,-9844.739029,444.123565,0.000000
3974.103824,-9696.697840,592.164754,1838.629195
3974.104153,-10140.821405,666.185348,2374.896044
3974.104483,-10140.821405,0.000000,1302.362347
3974.104813,-9992.780217,222.061783,-459.657299
3974.105143,-9770.718434,222.061783,-1149.143247
3974.105472,-10066.800811,222.061783,-689.485948
3974.105802,-9474.636058,222.061783,0.000000
3974.106132,-9400.615463,0.000000,1378.971896
3974.106461,-9548.656652,222.061783,1991.848295
3974.106791,-10140.821405,370.102971,1225.752797
3974.107121,-10658.965565,592.164754,459.657299
3974.107451,-10362.883188,296.082377,-842.705048
3974.107780,-9622.677246,148.041188,-766.095498
3974.108110,-9104.533087,-444.123565,229.828649
3974.108440,-9252.574275,222.061783,612.876398
3974.108769,-9474.636058,0.000000,1149.143247
3974.109099,-9770.718434,74.020594,536.266849
3974.109429,-9548.656652,222.061783,-459.657299
3974.109759,-9548.656652,222.061783,-1072.533697
3974.110088,-9770.718434,296.082377,-153.219100
3974.110418,-9622.677246,370.102971,842.705048
3974.110748,-9844.739029,222.061783,1762.019645
3974.111077,-9696.697840,0.000000,995.924147
3974.111407,-9844.739029,222.061783,-919.314598
3974.111737,-9918.759623,444.123565,-1608.800546
3974.112067,-9548.656652,222.061783,-1378.971896
3974.112396,-9844.739029,814.226536,229.828649
3974.112726,-9844.739029,296.082377,1225.752797
3974.113056,-9770.718434,370.102971,1532.190996
3974.113385,-10066.800811,0.000000,536.266849
3974.113715,-9770.718434,0.000000,-459.657299
3974.114045,-9622.677246,-444.123565,-1532.190996
3974.114375,-9474.636058,-592.164754,-995.924147
3974.114704,-9474.636058,0.000000,536.266849
3974.115034,-9770.718434,74.020594,2298.286494
3974.115364,-9918.759623,74.020594,2374.896044
3974.115693,-10510.924376,296.082377,1225.752797
3974.116023,-10584.944971,148.041188,-76.609550
3974.116353,-10436.903782,0.000000,-1072.533697
3974.116683,-9400.615463,-148.041188,-306.438199
3974.117012,-9252.574275,-370.102971,383.047749
3974.117342,-9548.656652,-148.041188,766.095498
3974.117672,-9548.656652,-222.061783,919.314598
3974.118002,-9844.739029,0.000000,1149.143247
3974.118331,-9844.739029,-74.020594,-76.609550
3974.118661,-9844.739029,-370.102971,-229.828649
3974.118991,-9474.636058,-370.102971,766.095498
3974.119320,-9844.739029,-444.123565,1762.019645
3974.119650,-9918.759623,-592.164754,2068.457845
3974.119980,-10066.800811,-518.144159,1532.190996
3974.120310,-10066.800811,0.000000,-229.828649
3974.120639,-9548.656652,-444.123565,-1378.971896
3974.120969,-10140.821405,740.205942,-689.485948
3974.121299,-9548.656652,0.000000,459.657299
3974.121628,-9844.739029,0.000000,1072.533697
3974.121958,-9918.759623,-74.020594,1762.019645
3974.122288,-9770.718434,-222.061783,689.485948
3974.122618,-9770.718434,0.000000,-842.705048
3974.122947,-9844.739029,-296.082377,-1072.533697
3974.123277,-9622.677246,-222.061783,-1225.752797
3974.123607,-9474.636058,-296.082377,459.657299
3974.123936,-9400.615463,0.000000,1838.629195
3974.124266,-9844.739029,0.000000,2145.067394
3974.124596,-10510.924376,296.082377,1302.362347
3974.124926,-10510.924376,296.082377,-383.047749
3974.125255,-10066.800811,222.061783,-1302.362347
3974.125585,-9252.574275,74.020594,-1149.143247
3974.125915,-9326.594869,-74.020594,0.000000
3974.126244,-9326.594869,148.041188,842.705048
3974.126574,-9178.553681,0.000000,842.705048
3974.126904,-9548.656652,0.000000,76.609550
3974.127233,-9326.594869,0.000000,-153.219100
3974.127563,-9696.697840,74.020594,-383.047749
3974.127893,-9918.759623,222.061783,766.095498
3974.128222,-9844.739029,74.020594,1838.629195
3974.128552,-10066.800811,0.000000,2374.896044
3974.128882,-9918.759623,0.000000,1225.752797
3974.129211,-10140.821405,222.061783,-383.047749
3974.129541,-10140.821405,296.082377,-1302.362347
3974.129871,-9992.780217,740.205942,-1455.581446
3974.130200,-9770.718434,592.164754,536.266849
3974.130530,-9918.759623,518.144159,1455.581446
3974.130860,-9548.656652,740.205942,995.924147
3974.131189,-9844.739029,148.041188,0.000000
3974.131519,-9252.574275,0.000000,-1302.362347
3974.131849,-9474.636058,-296.082377,-1915.238745
3974.132178,-9474.636058,-148.041188,-383.047749
3974.132508,-9252.574275,-296.082377,1149.143247
3974.132838,-9770.718434,0.000000,2374.896044
3974.133167,-10066.800811,74.020594,2451.505594
3974.133497,-10881.027347,222.061783,995.924147
3974.133827,-10214.842000,222.061783,-536.266849
3974.134156,-10288.862594,0.000000,-1302.362347
3974.134486,-9548.656652,222.061783,-766.095498
3974.134816,-9474.636058,74.020594,0.000000
3974.135145,-9252.574275,222.061783,229.828649
3974.135475,-9548.656652,148.041188,0.000000
3974.135805,-9696.697840,296.082377,-1149.143247
3974.136134,-9326.594869,0.000000,-1608.800546
3974.136464,-9326.594869,0.000000,-1532.190996
3974.136794,-9548.656652,0.000000,766.095498
3974.137123,-10066.800811,-444.123565,2068.457845
3974.137453,-9622.677246,-518.144159,2145.067394
3974.137783,-10140.821405,-148.041188,842.705048
3974.138112,-9622.677246,74.020594,-536.266849
3974.138442,-10214.842000,74.020594,-842.705048
3974.138772,-10140.821405,592.164754,-153.219100
3974.139101,-10288.862594,148.041188,1225.752797
3974.139431,-9770.718434,444.123565,1378.971896
3974.139761,-9548.656652,0.000000,766.095498
3974.140090,-9622.677246,0.000000,-383.047749
3974.140420,-9474.636058,-296.082377,-1455.581446
3974.140750,-9252.574275,-296.082377,-1762.019645
3974.141079,-9252.574275,-296.082377,-306.438199
3974.141409,-9770.718434,-148.041188,1149.143247
3974.141739,-10140.821405,296.082377,2528.115143
3974.142068,-10510.924376,444.123565,1915.238745
3974.142398,-10881.027347,592.164754,842.705048
3974.142728,-10510.924376,0.000000,-459.657299
3974.143057,-10214.842000,0.000000,-919.314598
3974.143387,-9400.615463,0.000000,-229.828649
3974.143717,-9474.636058,0.000000,76.609550
3974.144046,-9252.574275,74.020594,383.047749
3974.144376,-9622.677246,74.020594,76.609550
3974.144706,-9474.636058,148.041188,-1225.752797
3974.145035,-9622.677246,222.061783,-2068.457845
3974.145365,-9770.718434,-222.061783,-459.657299
3974.145695,-9548.656652,-370.102971,1225.752797
3974.146024,-9844.739029,-444.123565,2451.505594
3974.146354,-9696.697840,74.020594,1455.581446
3974.146684,-10214.842000,0.000000,919.314598
3974.147013,-9918.759623,0.000000,-459.657299
3974.147343,-9918.759623,148.041188,-612.876398
3974.147672,-9918.759623,518.144159,153.219100
3974.148002,-10066.800811,444.123565,1225.752797
3974.148332,-9918.759623,666.185348,1455.581446
3974.148661,-9474.636058,74.020594,766.095498
3974.148991,-9622.677246,0.000000,-1072.533697
3974.149321,-9252.574275,0.000000,-2604.724693
3974.149650,-9474.636058,0.000000,-2298.286494
3974.149980,-9474.636058,0.000000,-383.047749
3974.150310,-9548.656652,0.000000,1532.190996
3974.150639,-9252.574275,0.000000,1762.019645
3974.150969,-10658.965565,148.041188,2068.457845
3974.151299,-10732.986159,0.000000,689.485948
3974.151628,-10214.842000,0.000000,-536.266849
3974.151958,-9918.759623,74.020594,-689.485948
3974.152288,-9326.594869,0.000000,536.266849
3974.152617,-9770.718434,222.061783,1302.362347
3974.152947,-9474.636058,0.000000,842.705048
3974.153277,-9474.636058,0.000000,-459.657299
3974.153606,-9326.594869,0.000000,-1302.362347
3974.153936,-9918.759623,0.000000,-1608.800546
3974.154266,-9696.697840,0.000000,-383.047749
3974.154595,-9770.718434,0.000000,1149.143247
3974.154925,-9326.594869,-148.041188,2451.505594
3974.155255,-9696.697840,-74.020594,1838.629195
3974.155584,-10288.862594,0.000000,612.876398
3974.155914,-10214.842000,222.061783,-766.095498
3974.156244,-10214.842000,222.061783,-766.095498
3974.156573,-10140.821405,444.123565,612.876398
3974.156903,-10214.842000,518.144159,1838.629195
3974.157233,-9770.718434,370.102971,1532.190996
3974.157562,-9474.636058,-370.102971,536.266849
3974.157892,-9474.636058,74.020594,-1302.362347
3974.158222,-9178.553681,-370.102971,-2374.896044
3974.158551,-9326.594869,-370.102971,-1608.800546
3974.158881,-9030.512492,0.000000,76.609550
3974.159211,-9696.697840,74.020594,1991.848295
3974.159540,-10066.800811,592.164754,2298.286494
3974.159870,-10658.965565,222.061783,1225.752797
3974.160200,-10584.944971,222.061783,0.000000
3974.160529,-10362.883188,0.000000,-459.657299
3974.160859,-9696.697840,0.000000,-459.657299
3974.161189,-9030.512492,0.000000,0.000000
3974.161518,-9474.636058,370.102971,766.095498
3974.161848,-9548.656652,222.061783,459.657299
3974.162178,-10140.821405,518.144159,-229.828649
3974.162507,-9770.718434,222.061783,-1225.752797
3974.162837,-9548.656652,0.000000,-995.924147
3974.163167,-9252.574275,0.000000,153.219100
3974.163496,-9474.636058,0.000000,1838.629195
3974.163826,-9770.718434,-222.061783,2374.896044
3974.164156,-10214.842000,0.000000,1378.971896
3974.164485,-10584.944971,148.041188,76.609550
3974.164815,-9918.759623,592.164754,-1225.752797
3974.165145,-10214.842000,370.102971,-842.705048
3974.165474,-10066.800811,148.041188,842.705048
3974.165804,-10362.883188,518.144159,1762.019645
3974.166134,-9622.677246,296.082377,1685.410096
3974.166463,-9474.636058,0.000000,612.876398
3974.166793,-9400.615463,-296.082377,-1149.143247
3974.167123,-9104.533087,-962.267725,-1685.410096
3974.167452,-9474.636058,-222.061783,-1225.752797
3974.167782,-9178.553681,-74.020594,459.657299
3974.168112,-9474.636058,0.000000,2451.505594
3974.168441,-9992.780217,222.061783,2451.505594
3974.168771,-10584.944971,74.020594,1608.800546
3974.169101,-10584.944971,592.164754,-612.876398
3974.169430,-10288.862594,74.020594,-1149.143247
3974.169760,-10066.800811,370.102971,-995.924147
3974.170090,-9474.636058,0.000000,76.609550
3974.170419,-9252.574275,296.082377,229.828649
3974.170749,-9178.553681,-296.082377,306.438199
3974.171079,-9326.594869,0.000000,-766.095498
3974.171408,-9474.636058,0.000000,-995.924147
3974.171738,-9548.656652,-592.164754,-689.485948
3974.172068,-9548.656652,0.000000,689.485948
3974.172397,-9844.739029,-518.144159,1915.238745
3974.172727,-9992.780217,-296.082377,2681.334243
3974.173057,-10436.903782,0.000000,1149.143247
3974.173386,-10288.862594,296.082377,-1532.190996
3974.173716,-10288.862594,222.061783,-1838.629195
3974.174046,-10214.842000,814.226536,-995.924147
3974.174375,-9918.759623,148.041188,536.266849
3974.174705,-9918.759623,1110.308913,1455.581446
3974.175035,-9474.636058,0.000000,1072.533697
3974.175364,-9400.615463,-370.102971,0.000000
3974.175694,-9178.553681,-148.041188,-1608.800546
3974.176024,-9622.677246,-148.041188,-1685.410096
3974.176353,-9400.615463,-222.061783,-689.485948
3974.176683,-9400.615463,0.000000,1072.533697
3974.177013,-9770.718434,296.082377,2604.724693
3974.177342,-10288.862594,370.102971,2451.505594
3974.177672,-11029.068536,814.226536,842.705048
3974.178002,-10732.986159,296.082377,-306.438199
3974.178331,-10288.862594,592.164754,-1072.533697
3974.178661,-9474.636058,370.102971,-766.095498
3974.178991,-9400.615463,370.102971,0.000000
3974.179320,-9326.594869,370.102971,459.657299
3974.179650,-9400.615463,0.000000,153.219100
3974.179980,-9400.615463,444.123565,-612.876398
3974.180309,-9400.615463,74.020594,-1532.190996
3974.180639,-9548.656652,0.000000,-612.876398
3974.180969,-9622.677246,74.020594,842.705048
3974.181298,-10288.862594,0.000000,2451.505594
3974.181628,-10214.842000,-222.061783,2528.115143
3974.181957,-9844.739029,74.020594,1532.190996
3974.182287,-10066.800811,74.020594,-383.047749
3974.182617,-10066.800811,74.020594,-995.924147
3974.182946,-10288.862594,740.205942,-153.219100
3974.183276,-9844.739029,592.164754,1225.752797
3974.183606,-9770.718434,592.164754,1225.752797
3974.183935,-9400.615463,0.000000,842.705048
3974.184265,-9326.594869,0.000000,-612.876398
3974.184595,-9178.553681,0.000000,-2298.286494
3974.184924,-9400.615463,-74.020594,-2221.676944
3974.185254,-8956.491898,-222.061783,-306.438199
3974.185584,-9400.615463,-74.020594,1455.581446
3974.185913,-9918.759623,0.000000,2528.115143
3974.186243,-10436.903782,222.061783,2604.724693
3974.186573,-10881.027347,296.082377,1225.752797
3974.186902,-10584.944971,74.020594,-306.438199
3974.187232,-9918.759623,74.020594,-1072.533697
3974.187562,-9326.594869,444.123565,-1072.533697
3974.187891,-9548.656652,296.082377,0.000000
3974.188221,-9252.574275,518.144159,153.219100
3974.188551,-9474.636058,-74.020594,-306.438199
3974.188880,-9326.594869,444.123565,-919.314598
3974.189210,-9474.636058,-74.020594,-995.924147
3974.189540,-9696.697840,-74.020594,0.000000
3974.189869,-9474.636058,-518.144159,1302.362347
3974.190199,-9696.697840,-222.061783,2298.286494
3974.190529,-10288.862594,-148.041188,2374.896044
3974.190858,-10658.965565,74.020594,536.266849
3974.191188,-10510.924376,296.082377,-1149.143247
3974.191518,-10658.965565,518.144159,-1072.533697
3974.191847,-9844.739029,888.247130,-383.047749
3974.192177,-10066.800811,222.061783,1302.362347
3974.192507,-10066.800811,370.102971,1149.143247
3974.192836,-9622.677246,-444.123565,459.657299
3974.193166,-9252.574275,-370.102971,-536.266849
3974.193496,-9104.533087,-814.226536,-1762.019645
3974.193825,-9030.512492,-666.185348,-1378.971896
3974.194155,-8882.471304,-370.102971,76.609550
3974.194485,-9548.656652,-222.061783,1762.019645
3974.194814,-9918.759623,0.000000,2911.162892
3974.195144,-10732.986159,148.041188,2528.115143
3974.195474,-10658.965565,296.082377,842.705048
3974.195803,-10510.924376,0.000000,-536.266849
3974.196133,-9844.739029,222.061783,-689.485948
3974.196463,-9252.574275,-518.144159,-536.266849
3974.196792,-9474.636058,296.082377,229.828649
3974.197122,-9474.636058,74.020594,153.219100
3974.197452,-9178.553681,74.020594,0.000000
3974.197781,-9326.594869,148.041188,-1149.143247
3974.198111,-9252.574275,-296.082377,-995.924147
3974.198441,-9622.677246,0.000000,-229.828649
3974.198770,-9474.636058,-444.123565,1378.971896
3974.199100,-9918.759623,0.000000,2451.505594
3974.199430,-9844.739029,-296.082377,2145.067394
3974.199759,-10288.862594,0.000000,612.876398
3974.200089,-9918.759623,74.020594,-1225.752797
3974.200419,-9918.759623,740.205942,-1149.143247
3974.200748,-10066.800811,814.226536,0.000000
3974.201078,-10362.883188,666.185348,995.924147
3974.201408,-9696.697840,592.164754,995.924147
3974.201737,-9104.533087,0.000000,536.266849
3974.202067,-9474.636058,222.061783,-1378.971896
3974.202397,-9400.615463,0.000000,-1915.238745
3974.202726,-9400.615463,-296.082377,-1762.019645
3974.203056,-9104.533087,0.000000,842.705048
3974.203386,-9622.677246,148.041188,2068.457845
3974.203715,-9844.739029,296.082377,2757.943793
3974.204045,-10881.027347,370.102971,1991.848295
3974.204375,-10881.027347,592.164754,306.438199
3974.204704,-10732.986159,666.185348,-1225.752797
3974.205034,-9844.739029,518.144159,-1072.533697
3974.205364,-9548.656652,0.000000,-229.828649
3974.205693,-9326.594869,370.102971,153.219100
3974.206023,-9474.636058,222.061783,766.095498
3974.206353,-9622.677246,296.082377,-306.438199
3974.206682,-9696.697840,444.123565,-842.705048
3974.207012,-9696.697840,0.000000,-766.095498
3974.207342,-9548.656652,148.041188,536.266849
3974.207671,-9770.718434,-148.041188,1915.238745
3974.208001,-9770.718434,-74.020594,2528.115143
3974.208331,-10066.800811,-148.041188,1608.800546
3974.208660,-10288.862594,0.000000,76.609550
3974.208990,-9992.780217,0.000000,-1225.752797
3974.209320,-10066.800811,370.102971,-1072.533697
3974.209649,-9844.739029,296.082377,766.095498
3974.209979,-9918.759623,222.061783,1532.190996
3974.210309,-9548.656652,148.041188,1762.019645
3974.210638,-9326.594869,-666.185348,306.438199
3974.210968,-8808.450710,-370.102971,-1225.752797
3974.211298,-9030.512492,-666.185348,-1991.848295
3974.211627,-9252.574275,74.020594,-1378.971896
3974.211957,-9030.512492,74.020594,383.047749
3974.212287,-9844.739029,0.000000,1838.629195
3974.212616,-10362.883188,74.020594,2145.067394
3974.212946,-11029.068536,222.061783,1455.581446
3974.213276,-10436.903782,74.020594,-919.314598
3974.213605,-9918.759623,148.041188,-1762.019645
3974.213935,-9474.636058,296.082377,-766.095498
3974.214265,-9474.636058,0.000000,76.609550
3974.214594,-9400.615463,296.082377,612.876398
3974.214924,-9474.636058,0.000000,612.876398
3974.215254,-9992.780217,74.020594,-306.438199
3974.215583,-9696.697840,-74.020594,-1225.752797
3974.215913,-9918.759623,0.000000,-383.047749
3974.216243,-9696.697840,-296.082377,459.657299
3974.216572,-9992.780217,-444.123565,2374.896044
3974.216902,-9992.780217,-370.102971,2604.724693
3974.217231,-10288.862594,0.000000,1762.019645
3974.217561,-10584.944971,148.041188,0.000000
3974.217891,-10362.883188,296.082377,-995.924147
3974.218220,-10066.800811,444.123565,-766.095498
3974.218550,-9844.739029,0.000000,766.095498
3974.218880,-9770.718434,222.061783,1532.190996
3974.219209,-9104.533087,-74.020594,1608.800546
3974.219539,-8882.471304,-666.185348,153.219100
3974.219869,-9178.553681,-518.144159,-1378.971896
3974.220198,-9548.656652,-592.164754,-1685.410096
3974.220528,-9474.636058,0.000000,-1072.533697
3974.220858,-9400.615463,0.000000,1532.190996
3974.221187,-9696.697840,148.041188,2681.334243
3974.221517,-9844.739029,0.000000,2374.896044
3974.221847,-10436.903782,814.226536,1149.143247
3974.222176,-10658.965565,518.144159,-766.095498
3974.222506,-10066.800811,518.144159,-1991.848295
3974.222836,-9400.615463,592.164754,-1072.533697
3974.223165,-9252.574275,222.061783,-153.219100
3974.223495,-9474.636058,518.144159,612.876398
3974.223825,-9326.594869,148.041188,153.219100
3974.224154,-9474.636058,296.082377,-766.095498
3974.224484,-9400.615463,0.000000,-1302.362347
3974.224814,-9548.656652,0.000000,-536.266849
