#time,accel_x,accel_y,accel_z
4115.816599,-9844.739029,0.000000,0.000000
4115.816929,-9770.718434,74.020594,76.609550
4115.817259,-9622.677246,74.020594,229.828649
4115.817589,-9548.656652,0.000000,306.438199
4115.817919,-9696.697840,0.000000,459.657299
4115.818249,-9844.739029,0.000000,612.876398
4115.818579,-10066.800811,148.041188,536.266849
4115.818909,-9696.697840,0.000000,306.438199
4115.819239,-9548.656652,0.000000,459.657299
4115.819569,-9548.656652,74.020594,306.438199
4115.819899,-9918.759623,74.020594,0.000000
4115.820229,-9918.759623,222.061783,0.000000
4115.820559,-9770.718434,0.000000,153.219100
4115.820889,-9770.718434,74.020594,-306.438199
4115.821219,-9548.656652,74.020594,0.000000
4115.821549,-9622.677246,296.082377,153.219100
4115.821879,-9844.739029,148.041188,842.705048
4115.822208,-10066.800811,0.000000,153.219100
4115.822538,-9992.780217,0.000000,0.000000
4115.822868,-9770.718434,-74.020594,459.657299
4115.823198,-9548.656652,-592.164754,766.095498
4115.823528,-9622.677246,-296.082377,919.314598
4115.823858,-9474.636058,-74.020594,766.095498
4115.824188,-9622.677246,-222.061783,995.924147
4115.824518,-9474.636058,0.000000,842.705048
4115.824848,-9992.780217,222.061783,536.266849
4115.825178,-9992.780217,74.020594,229.828649
4115.825508,-10140.821405,370.102971,229.828649
4115.825838,-10066.800811,148.041188,612.876398
4115.826168,-9548.656652,296.082377,1225.752797
4115.826498,-10066.800811,-148.041188,1378.971896
4115.826828,-9844.739029,-518.144159,1762.019645
4115.827158,-9992.780217,-370.102971,1455.581446
4115.827488,-10140.821405,-148.041188,995.924147
4115.827818,-9622.677246,-222.061783,0.000000
4115.828148,-9400.615463,-592.164754,0.000000
4115.828478,-9548.656652,-592.164754,689.485948
4115.828808,-9844.739029,-222.061783,1455.581446
4115.829138,-9844.739029,-222.061783,2221.676944
4115.829468,-9474.636058,-666.185348,2221.676944
4115.829798,-9400.615463,-740.205942,1991.848295
4115.830128,-9622.677246,-666.185348,1532.190996
4115.830458,-10066.800811,-888.247130,2068.457845
4115.830787,-9844.739029,-740.205942,2528.115143
4115.831117,-10140.821405,-962.267725,2528.115143
4115.831447,-10214.842000,-962.267725,2834.553343
4115.831777,-10066.800811,-592.164754,3064.381992
4115.832107,-10584.944971,-592.164754,2221.676944
4115.832437,-10658.965565,-592.164754,1915.238745
4115.832767,-10288.862594,-814.226536,1455.581446
4115.833097,-9918.759623,-962.267725,1149.143247
4115.833427,-9622.677246,-1406.391290,2221.676944
4115.833757,-10066.800811,-1850.514855,2757.943793
4115.834087,-10066.800811,-2294.638420,2528.115143
4115.834417,-9844.739029,-2812.782580,2298.286494
4115.834747,-9474.636058,-2886.803174,2451.505594
4115.835077,-8882.471304,-3034.844362,3064.381992
4115.835407,-8882.471304,-3182.885551,3907.087040
4115.835737,-9474.636058,-2960.823768,4213.525239
4115.836067,-9918.759623,-2368.659014,4596.572988
4115.836397,-10658.965565,-2738.761985,3753.867940
4115.836727,-11177.109724,-2960.823768,2757.943793
4115.837057,-10881.027347,-2368.659014,2145.067394
4115.837387,-10214.842000,-3108.864956,1302.362347
4115.837717,-9696.697840,-2960.823768,1378.971896
4115.838047,-8660.409521,-3256.906145,2068.457845
4115.838377,-8734.430116,-3330.926739,2145.067394
4115.838707,-8586.388927,-3923.091493,2451.505594
4115.839037,-9178.553681,-4071.132681,2681.334243
4115.839366,-10066.800811,-4219.173869,3064.381992
4115.839696,-9548.656652,-4589.276840,3064.381992
4115.840026,-9326.594869,-4367.215058,2757.943793
4115.840356,-9474.636058,-3701.029710,3830.477490
4115.840686,-10436.903782,-3627.009116,4290.134789
4115.841016,-10362.883188,-3182.885551,3370.820191
4115.841346,-10510.924376,-2368.659014,2068.457845
4115.841676,-10288.862594,-2590.720797,919.314598
4115.842006,-10140.821405,-2664.741391,1072.533697
4115.842336,-9918.759623,-3182.885551,2221.676944
4115.842666,-10362.883188,-3034.844362,2987.772442
4115.842996,-9696.697840,-3330.926739,1838.629195
4115.843326,-9030.512492,-3552.988522,1149.143247
4115.843656,-9104.533087,-3108.864956,1225.752797
4115.843986,-10510.924376,-2590.720797,2757.943793
4115.844316,-11325.150913,-2960.823768,4290.134789
4115.844646,-10955.047942,-2072.576638,4519.963438
4115.844976,-10881.027347,-2072.576638,3064.381992
4115.845306,-10288.862594,-2368.659014,2528.115143
4115.845636,-9548.656652,-2664.741391,2298.286494
4115.845966,-10436.903782,-2442.679609,2528.115143
4115.846296,-10362.883188,-2664.741391,2911.162892
4115.846626,-9770.718434,-2294.638420,2987.772442
4115.846956,-9104.533087,-2220.617826,2987.772442
4115.847286,-9696.697840,-2072.576638,1991.848295
4115.847615,-10732.986159,-1480.411884,1608.800546
4115.847945,-10362.883188,-2294.638420,1455.581446
4115.848275,-9844.739029,-2072.576638,1915.238745
4115.848605,-9178.553681,-1924.535449,3600.648841
4115.848935,-9252.574275,-1332.370696,4060.306139
4115.849265,-9400.615463,-1554.432478,3447.429741
4115.849595,-10066.800811,-1258.350101,2068.457845
4115.849925,-10214.842000,-1406.391290,1685.410096
4115.850255,-9844.739029,-666.185348,2221.676944
4115.850585,-9474.636058,-962.267725,2681.334243
4115.850915,-9326.594869,-592.164754,2911.162892
4115.851245,-9548.656652,-740.205942,2221.676944
4115.851575,-9844.739029,-1036.288319,919.314598
4115.851905,-9622.677246,-370.102971,76.609550
4115.852235,-9030.512492,-518.144159,306.438199
4115.852565,-9326.594869,-296.082377,1685.410096
4115.852895,-9844.739029,-222.061783,2451.505594
4115.853225,-10066.800811,-518.144159,2911.162892
4115.853555,-10140.821405,-592.164754,2374.896044
4115.853885,-10066.800811,-740.205942,1762.019645
4115.854215,-10288.862594,-814.226536,1455.581446
4115.854545,-9918.759623,-740.205942,1608.800546
4115.854875,-9992.780217,-370.102971,2451.505594
4115.855205,-9918.759623,-370.102971,2681.334243
4115.855535,-10214.842000,-74.020594,1838.629195
4115.855865,-10214.842000,-518.144159,459.657299
4115.856194,-9474.636058,-1184.329507,306.438199
4115.856524,-10436.903782,-962.267725,2221.676944
4115.856854,-10510.924376,-1184.329507,3294.210641
4115.857184,-10214.842000,-2146.597232,2911.162892
4115.857514,-9326.594869,-2220.617826,2221.676944
4115.857844,-9030.512492,-2664.741391,1762.019645
4115.858174,-9548.656652,-2368.659014,2834.553343
4115.858504,-9844.739029,-2146.597232,3294.210641
4115.858834,-10066.800811,-2220.617826,3370.820191
4115.859164,-9992.780217,-2590.720797,4213.525239
4115.859494,-9548.656652,-2442.679609,2911.162892
4115.859824,-10066.800811,-2738.761985,2834.553343
4115.860154,-10510.924376,-2294.638420,2528.115143
4115.860484,-9622.677246,-2664.741391,1455.581446
4115.860814,-8586.388927,-2590.720797,1455.581446
4115.861144,-8956.491898,-2738.761985,2068.457845
4115.861474,-10362.883188,-2738.761985,2834.553343
4115.861804,-10658.965565,-2738.761985,2681.334243
4115.862134,-10214.842000,-3849.070898,1608.800546
4115.862464,-8586.388927,-3997.112087,3064.381992
4115.862794,-9030.512492,-4145.153275,4060.306139
4115.863124,-9696.697840,-3849.070898,4903.011187
4115.863454,-10066.800811,-3256.906145,4596.572988
4115.863784,-10140.821405,-3034.844362,2681.334243
4115.864114,-11029.068536,-2590.720797,1685.410096
4115.864444,-11695.253884,-1702.473667,1455.581446
4115.864773,-10658.965565,-2590.720797,919.314598
4115.865103,-9696.697840,-2146.597232,1762.019645
4115.865433,-9400.615463,-2590.720797,2451.505594
4115.865763,-9474.636058,-2664.741391,1225.752797
4115.866093,-9030.512492,-2590.720797,612.876398
4115.866423,-9104.533087,-2664.741391,766.095498
4115.866753,-9918.759623,-1850.514855,1149.143247
4115.867083,-10510.924376,-3478.967927,1225.752797
4115.867413,-9400.615463,-2738.761985,2221.676944
4115.867743,-9696.697840,-2220.617826,3753.867940
4115.868073,-10436.903782,-962.267725,3140.991542
4115.868403,-10807.006753,-2368.659014,1991.848295
4115.868733,-9622.677246,-740.205942,1072.533697
4115.869063,-8882.471304,-1184.329507,689.485948
4115.869393,-9696.697840,-814.226536,1608.800546
4115.869723,-10066.800811,-740.205942,2451.505594
4115.870053,-9326.594869,-1258.350101,3064.381992
4115.870383,-9474.636058,-962.267725,1915.238745
4115.870713,-10436.903782,-296.082377,459.657299
4115.871043,-10436.903782,-518.144159,612.876398
4115.871373,-9474.636058,-444.123565,-76.609550
4115.871703,-8956.491898,370.102971,-383.047749
4115.872033,-9696.697840,0.000000,536.266849
4115.872363,-11029.068536,592.164754,1302.362347
4115.872693,-10140.821405,444.123565,1072.533697
4115.873022,-8364.327145,-296.082377,-536.266849
4115.873352,-8438.347739,370.102971,-1532.190996
4115.873681,-8956.491898,296.082377,-76.609550
4115.874011,-9400.615463,296.082377,612.876398
4115.874341,-9104.533087,814.226536,153.219100
4115.874670,-9770.718434,666.185348,-76.609550
4115.875000,-10955.047942,1110.308913,-76.609550
4115.875330,-11029.068536,740.205942,-383.047749
4115.875659,-9252.574275,296.082377,-536.266849
4115.875989,-8808.450710,666.185348,612.876398
4115.876319,-9548.656652,1258.350101,689.485948
4115.876648,-9844.739029,1406.391290,153.219100
4115.876978,-9770.718434,1924.535449,-1532.190996
4115.877308,-10288.862594,2146.597232,-1302.362347
4115.877637,-10955.047942,2072.576638,-1072.533697
4115.877967,-11399.171507,2220.617826,-1149.143247
4115.878297,-10362.883188,1554.432478,-689.485948
4115.878626,-9252.574275,888.247130,-383.047749
4115.878956,-9178.553681,1184.329507,-842.705048
4115.879286,-9918.759623,1036.288319,-1072.533697
4115.879615,-9622.677246,1184.329507,-1072.533697
4115.879945,-9104.533087,1406.391290,-229.828649
4115.880275,-9622.677246,1406.391290,229.828649
4115.880604,-10140.821405,1332.370696,612.876398
4115.880934,-10881.027347,1406.391290,0.000000
4115.881264,-10288.862594,1258.350101,-383.047749
4115.881593,-9918.759623,1036.288319,-766.095498
4115.881923,-9844.739029,1036.288319,-306.438199
4115.882252,-10510.924376,814.226536,306.438199
4115.882582,-9844.739029,518.144159,76.609550
4115.882912,-8956.491898,592.164754,459.657299
4115.883241,-8734.430116,148.041188,-229.828649
4115.883571,-8734.430116,0.000000,-1072.533697
4115.883901,-8882.471304,296.082377,0.000000
4115.884230,-9992.780217,518.144159,919.314598
4115.884560,-9918.759623,222.061783,612.876398
4115.884890,-10140.821405,444.123565,383.047749
4115.885219,-9992.780217,518.144159,229.828649
4115.885549,-10658.965565,370.102971,-383.047749
4115.885879,-10140.821405,-222.061783,-306.438199
4115.886208,-9326.594869,-592.164754,612.876398
4115.886538,-9104.533087,-296.082377,1378.971896
4115.886868,-9326.594869,222.061783,1072.533697
4115.887197,-9918.759623,0.000000,536.266849
4115.887527,-10288.862594,296.082377,0.000000
4115.887857,-10362.883188,148.041188,-612.876398
4115.888186,-10214.842000,222.061783,-1225.752797
4115.888516,-9844.739029,0.000000,-306.438199
4115.888846,-9474.636058,222.061783,153.219100
4115.889175,-9696.697840,-296.082377,1149.143247
4115.889505,-10140.821405,0.000000,459.657299
4115.889835,-10066.800811,-962.267725,306.438199
4115.890164,-10362.883188,-888.247130,1072.533697
4115.890494,-10214.842000,-666.185348,1685.410096
4115.890823,-9844.739029,-1036.288319,1608.800546
4115.891153,-9178.553681,-1110.308913,1838.629195
4115.891483,-8882.471304,-518.144159,995.924147
4115.891812,-8956.491898,-518.144159,-383.047749
4115.892142,-9918.759623,-148.041188,-306.438199
4115.892472,-10807.006753,-370.102971,229.828649
4115.892801,-10288.862594,-888.247130,842.705048
4115.893131,-9474.636058,-1036.288319,383.047749
4115.893461,-9622.677246,-666.185348,766.095498
4115.893790,-9770.718434,-1332.370696,1149.143247
4115.894120,-8956.491898,-1480.411884,306.438199
4115.894450,-8438.347739,-1480.411884,612.876398
4115.894779,-8956.491898,-962.267725,1455.581446
4115.895109,-10288.862594,-370.102971,1991.848295
4115.895439,-10881.027347,-74.020594,1455.581446
4115.895768,-10510.924376,0.000000,766.095498
4115.896098,-10510.924376,-148.041188,-383.047749
4115.896428,-10066.800811,-740.205942,-229.828649
4115.896757,-9918.759623,-962.267725,383.047749
4115.897087,-9252.574275,-888.247130,536.266849
4115.897417,-9178.553681,-370.102971,536.266849
4115.897746,-8956.491898,-518.144159,-229.828649
4115.898076,-10066.800811,-148.041188,0.000000
4115.898406,-10584.944971,0.000000,766.095498
4115.898735,-10288.862594,-518.144159,612.876398
4115.899065,-9548.656652,-148.041188,612.876398
4115.899394,-9030.512492,0.000000,612.876398
4115.899724,-8882.471304,222.061783,0.000000
4115.900054,-9474.636058,444.123565,-842.705048
4115.900383,-10436.903782,888.247130,-1072.533697
4115.900713,-10881.027347,1036.288319,-459.657299
4115.901043,-10658.965565,740.205942,76.609550
4115.901372,-9992.780217,148.041188,153.219100
4115.901702,-9844.739029,444.123565,76.609550
4115.902032,-9252.574275,518.144159,-306.438199
4115.902361,-9104.533087,370.102971,-1072.533697
4115.902691,-9326.594869,444.123565,-536.266849
4115.903021,-9770.718434,1406.391290,0.000000
4115.903350,-10881.027347,1332.370696,0.000000
4115.903680,-10288.862594,962.267725,0.000000
4115.904010,-10140.821405,1184.329507,-612.876398
4115.904339,-10140.821405,740.205942,-842.705048
4115.904669,-9474.636058,222.061783,-536.266849
4115.904999,-8808.450710,740.205942,612.876398
4115.905328,-9104.533087,962.267725,1608.800546
4115.905658,-9992.780217,814.226536,995.924147
4115.905988,-10140.821405,1036.288319,0.000000
4115.906317,-10288.862594,1258.350101,-1072.533697
4115.906647,-10362.883188,1110.308913,-995.924147
4115.906977,-9474.636058,370.102971,-919.314598
4115.907306,-8956.491898,518.144159,383.047749
4115.907636,-8882.471304,518.144159,76.609550
4115.907965,-8660.409521,370.102971,-459.657299
4115.908295,-9474.636058,518.144159,-689.485948
4115.908625,-10140.821405,740.205942,-383.047749
4115.908954,-10214.842000,518.144159,306.438199
4115.909284,-10288.862594,666.185348,459.657299
4115.909614,-9992.780217,444.123565,842.705048
4115.909943,-9844.739029,74.020594,842.705048
4115.910273,-9178.553681,222.061783,153.219100
4115.910603,-9252.574275,0.000000,0.000000
4115.910932,-9844.739029,888.247130,459.657299
4115.911262,-9770.718434,296.082377,306.438199
4115.911592,-10510.924376,222.061783,0.000000
4115.911921,-9918.759623,74.020594,0.000000
4115.912251,-9548.656652,-296.082377,229.828649
4115.912581,-8956.491898,-148.041188,-766.095498
4115.912910,-8882.471304,-814.226536,-153.219100
4115.913240,-9696.697840,-592.164754,306.438199
4115.913570,-9770.718434,-222.061783,612.876398
4115.913899,-10362.883188,0.000000,612.876398
4115.914229,-9992.780217,0.000000,383.047749
4115.914559,-9844.739029,-444.123565,459.657299
4115.914888,-10584.944971,-74.020594,1149.143247
4115.915218,-10140.821405,-592.164754,306.438199
4115.915548,-10288.862594,-962.267725,76.609550
4115.915877,-9770.718434,-592.164754,229.828649
4115.916207,-10214.842000,-740.205942,229.828649
4115.916536,-10584.944971,-740.205942,995.924147
4115.916866,-10584.944971,-592.164754,689.485948
4115.917196,-10140.821405,-740.205942,459.657299
4115.917525,-9474.636058,-740.205942,-229.828649
4115.917855,-9696.697840,-814.226536,-306.438199
4115.918185,-10066.800811,-666.185348,-383.047749
4115.918514,-9992.780217,-1184.329507,766.095498
4115.918844,-9474.636058,-1258.350101,1302.362347
4115.919174,-9770.718434,-814.226536,1532.190996
4115.919503,-10288.862594,-1406.391290,1608.800546
4115.919833,-9770.718434,-1406.391290,383.047749
4115.920163,-9474.636058,-1480.411884,536.266849
4115.920492,-9252.574275,-888.247130,536.266849
4115.920822,-9326.594869,-1036.288319,612.876398
4115.921152,-9696.697840,-592.164754,995.924147
4115.921481,-9844.739029,-962.267725,459.657299
4115.921811,-9474.636058,-1036.288319,229.828649
4115.922141,-9770.718434,-962.267725,-383.047749
4115.922470,-9548.656652,-666.185348,-766.095498
4115.922800,-9178.553681,-666.185348,0.000000
4115.923130,-8512.368333,-370.102971,0.000000
4115.923459,-9104.533087,74.020594,842.705048
4115.923789,-10955.047942,222.061783,689.485948
4115.924119,-11177.109724,296.082377,383.047749
4115.924448,-10288.862594,0.000000,0.000000
4115.924778,-9622.677246,74.020594,-229.828649
4115.925107,-9400.615463,74.020594,383.047749
4115.925437,-9622.677246,148.041188,-76.609550
4115.925767,-8956.491898,0.000000,383.047749
4115.926096,-9770.718434,814.226536,229.828649
4115.926426,-10510.924376,592.164754,0.000000
4115.926756,-10584.944971,814.226536,-995.924147
4115.927085,-10584.944971,1332.370696,-383.047749
4115.927415,-9474.636058,740.205942,153.219100
4115.927745,-9474.636058,814.226536,0.000000
4115.928074,-9400.615463,888.247130,0.000000
4115.928404,-9474.636058,1110.308913,76.609550
4115.928734,-9918.759623,1036.288319,0.000000
4115.929063,-9992.780217,1184.329507,-229.828649
4115.929393,-10436.903782,1184.329507,0.000000
4115.929723,-10214.842000,1258.350101,306.438199
4115.930052,-9918.759623,888.247130,306.438199
4115.930382,-9326.594869,814.226536,229.828649
4115.930712,-9030.512492,592.164754,0.000000
4115.931041,-9696.697840,1036.288319,612.876398
4115.931371,-9770.718434,370.102971,229.828649
4115.931701,-9770.718434,1036.288319,0.000000
4115.932030,-10066.800811,888.247130,-766.095498
4115.932360,-9474.636058,888.247130,-1685.410096
4115.932690,-8956.491898,592.164754,-995.924147
4115.933019,-9992.780217,518.144159,153.219100
4115.933349,-9770.718434,370.102971,459.657299
4115.933678,-8808.450710,148.041188,76.609550
4115.934008,-9104.533087,814.226536,383.047749
4115.934338,-10807.006753,444.123565,459.657299
4115.934667,-11177.109724,888.247130,229.828649
4115.934997,-9844.739029,592.164754,459.657299
4115.935327,-9770.718434,1036.288319,459.657299
4115.935656,-9770.718434,740.205942,76.609550
4115.935986,-9474.636058,592.164754,-689.485948
4115.936316,-9770.718434,888.247130,-1072.533697
4115.936645,-9770.718434,888.247130,-536.266849
4115.936975,-10732.986159,666.185348,-536.266849
4115.937305,-10362.883188,222.061783,-76.609550
4115.937634,-9770.718434,0.000000,383.047749
4115.937964,-9104.533087,-296.082377,842.705048
4115.938294,-9104.533087,-444.123565,842.705048
4115.938623,-9918.759623,-296.082377,1225.752797
4115.938953,-10140.821405,-592.164754,1072.533697
4115.939283,-10066.800811,-74.020594,1149.143247
4115.939612,-10066.800811,-444.123565,1225.752797
4115.939942,-10436.903782,-222.061783,689.485948
4115.940272,-9474.636058,-666.185348,612.876398
4115.940601,-9104.533087,-1110.308913,0.000000
4115.940931,-8586.388927,-814.226536,0.000000
4115.941261,-9252.574275,-888.247130,766.095498
4115.941590,-9326.594869,-296.082377,306.438199
4115.941920,-9548.656652,-740.205942,459.657299
4115.942250,-10288.862594,-444.123565,612.876398
4115.942579,-10584.944971,-296.082377,1149.143247
4115.942909,-10362.883188,-1110.308913,76.609550
4115.943238,-10140.821405,-1036.288319,306.438199
4115.943568,-8956.491898,-1110.308913,0.000000
4115.943898,-8808.450710,-296.082377,76.609550
4115.944227,-9104.533087,-370.102971,0.000000
4115.944557,-10066.800811,-370.102971,-153.219100
4115.944887,-10066.800811,-222.061783,153.219100
4115.945216,-10362.883188,0.000000,0.000000
4115.945546,-10214.842000,-666.185348,612.876398
4115.945876,-9770.718434,-962.267725,919.314598
4115.946205,-9622.677246,-740.205942,459.657299
4115.946535,-9178.553681,-888.247130,0.000000
4115.946865,-9622.677246,-148.041188,766.095498
4115.947194,-9474.636058,-222.061783,0.000000
4115.947524,-9770.718434,0.000000,536.266849
4115.947854,-10214.842000,444.123565,1072.533697
4115.948183,-10807.006753,370.102971,842.705048
4115.948513,-10807.006753,222.061783,0.000000
4115.948843,-10140.821405,-296.082377,-153.219100
4115.949172,-10214.842000,74.020594,76.609550
4115.949502,-9622.677246,-518.144159,536.266849
4115.949832,-9400.615463,-148.041188,-229.828649
4115.950161,-9474.636058,518.144159,-612.876398
4115.950491,-9474.636058,370.102971,-459.657299
4115.950821,-9770.718434,370.102971,-459.657299
4115.951150,-10584.944971,296.082377,153.219100
4115.951480,-10288.862594,0.000000,1225.752797
4115.951809,-9474.636058,74.020594,1072.533697
4115.952139,-9474.636058,-296.082377,842.705048
4115.952469,-9844.739029,-370.102971,919.314598
4115.952798,-9400.615463,-296.082377,229.828649
4115.953128,-9696.697840,222.061783,306.438199
4115.953458,-10362.883188,740.205942,306.438199
4115.953787,-10066.800811,0.000000,0.000000
4115.954117,-9844.739029,296.082377,383.047749
4115.954447,-9400.615463,0.000000,-153.219100
4115.954776,-9474.636058,370.102971,229.828649
4115.955106,-9696.697840,444.123565,-612.876398
4115.955436,-9030.512492,296.082377,-995.924147
4115.955765,-9474.636058,74.020594,-689.485948
4115.956095,-9770.718434,592.164754,0.000000
4115.956425,-9918.759623,74.020594,-306.438199
4115.956754,-9400.615463,592.164754,383.047749
4115.957084,-9474.636058,0.000000,0.000000
4115.957414,-9548.656652,518.144159,153.219100
4115.957743,-9400.615463,592.164754,76.609550
4115.958073,-9844.739029,740.205942,0.000000
4115.958403,-10510.924376,888.247130,383.047749
4115.958732,-10214.842000,962.267725,306.438199
4115.959062,-9548.656652,740.205942,-459.657299
4115.959392,-9252.574275,1480.411884,-1072.533697
4115.959721,-9548.656652,962.267725,-1225.752797
4115.960051,-10288.862594,814.226536,-1149.143247
4115.960380,-10066.800811,666.185348,-1149.143247
4115.960710,-9326.594869,666.185348,-536.266849
4115.961040,-9474.636058,666.185348,0.000000
4115.961369,-9770.718434,740.205942,0.000000
4115.961699,-10288.862594,222.061783,153.219100
4115.962029,-10955.047942,518.144159,383.047749
4115.962358,-10732.986159,666.185348,229.828649
4115.962688,-9992.780217,370.102971,1072.533697
4115.963018,-9474.636058,148.041188,1302.362347
4115.963347,-9696.697840,0.000000,1378.971896
4115.963677,-9474.636058,0.000000,306.438199
4115.964007,-10214.842000,222.061783,0.000000
4115.964336,-9918.759623,0.000000,0.000000
4115.964666,-9326.594869,-74.020594,0.000000
4115.964996,-9326.594869,-148.041188,153.219100
4115.965325,-9696.697840,0.000000,1072.533697
4115.965655,-10140.821405,-148.041188,766.095498
4115.965985,-9844.739029,-370.102971,229.828649
4115.966314,-8956.491898,-518.144159,-229.828649
4115.966644,-9252.574275,-592.164754,0.000000
4115.966974,-9622.677246,-148.041188,383.047749
4115.967303,-9622.677246,-444.123565,306.438199
4115.967633,-9548.656652,-296.082377,306.438199
4115.967963,-9548.656652,-222.061783,459.657299
4115.968292,-10288.862594,0.000000,536.266849
4115.968622,-10214.842000,-444.123565,995.924147
4115.968951,-10140.821405,-444.123565,919.314598
4115.969281,-9030.512492,-592.164754,842.705048
4115.969611,-9030.512492,-370.102971,-306.438199
4115.969940,-9400.615463,74.020594,-459.657299
4115.970270,-10066.800811,148.041188,-306.438199
4115.970600,-9992.780217,0.000000,-612.876398
4115.970929,-9844.739029,0.000000,76.609550
4115.971259,-9696.697840,-148.041188,0.000000
4115.971589,-9474.636058,-444.123565,0.000000
4115.971918,-9548.656652,-888.247130,0.000000
4115.972248,-9696.697840,-518.144159,766.095498
4115.972578,-9992.780217,-444.123565,842.705048
4115.972907,-10214.842000,-370.102971,842.705048
4115.973237,-10140.821405,0.000000,1149.143247
4115.973567,-10658.965565,-148.041188,383.047749
4115.973896,-10288.862594,-444.123565,459.657299
4115.974226,-10066.800811,-444.123565,306.438199
4115.974556,-9030.512492,-370.102971,995.924147
4115.974885,-9622.677246,0.000000,995.924147
4115.975215,-9474.636058,-74.020594,76.609550
4115.975545,-9770.718434,0.000000,0.000000
4115.975874,-10214.842000,0.000000,383.047749
4115.976204,-10732.986159,0.000000,612.876398
4115.976534,-10214.842000,-666.185348,459.657299
4115.976863,-8882.471304,-518.144159,229.828649
4115.977193,-8438.347739,-222.061783,689.485948
4115.977522,-9178.553681,0.000000,689.485948
4115.977852,-10066.800811,-74.020594,536.266849
4115.978182,-9992.780217,222.061783,383.047749
4115.978511,-9696.697840,0.000000,536.266849
4115.978841,-9474.636058,-222.061783,0.000000
4115.979171,-9622.677246,0.000000,229.828649
4115.979500,-9474.636058,0.000000,995.924147
4115.979830,-9474.636058,222.061783,383.047749
4115.980160,-9030.512492,222.061783,0.000000
4115.980489,-9400.615463,296.082377,0.000000
4115.980819,-9696.697840,888.247130,0.000000
4115.981149,-10066.800811,740.205942,-536.266849
4115.981478,-10214.842000,592.164754,-689.485948
4115.981808,-10510.924376,592.164754,-766.095498
4115.982138,-10436.903782,518.144159,-536.266849
4115.982467,-9770.718434,444.123565,-383.047749
4115.982797,-9326.594869,592.164754,-383.047749
4115.983127,-9622.677246,592.164754,-153.219100
4115.983456,-10436.903782,518.144159,-306.438199
4115.983786,-10584.944971,888.247130,76.609550
4115.984116,-11029.068536,518.144159,0.000000
4115.984445,-10955.047942,148.041188,536.266849
4115.984775,-9696.697840,0.000000,306.438199
4115.985105,-9474.636058,74.020594,153.219100
4115.985434,-9252.574275,-370.102971,0.000000
4115.985764,-9252.574275,444.123565,0.000000
4115.986093,-9252.574275,0.000000,-306.438199
4115.986423,-10584.944971,888.247130,-306.438199
4115.986753,-10436.903782,444.123565,0.000000
4115.987082,-10140.821405,0.000000,153.219100
4115.987412,-9844.739029,296.082377,536.266849
4115.987742,-9622.677246,-222.061783,919.314598
4115.988071,-9326.594869,0.000000,459.657299
4115.988401,-9104.533087,148.041188,0.000000
4115.988731,-9030.512492,0.000000,0.000000
4115.989060,-9474.636058,370.102971,0.000000
4115.989390,-9696.697840,0.000000,229.828649
4115.989720,-9474.636058,0.000000,153.219100
4115.990049,-8660.409521,-666.185348,0.000000
4115.990379,-8364.327145,-148.041188,76.609550
4115.990709,-9252.574275,-148.041188,689.485948
4115.991038,-9992.780217,222.061783,612.876398
4115.991368,-9844.739029,-518.144159,229.828649
4115.991698,-9548.656652,0.000000,459.657299
4115.992027,-10214.842000,222.061783,536.266849
4115.992357,-10510.924376,370.102971,459.657299
4115.992687,-9992.780217,-148.041188,0.000000
4115.993016,-9178.553681,592.164754,76.609550
4115.993346,-9400.615463,592.164754,76.609550
4115.993676,-9844.739029,740.205942,0.000000
4115.994005,-10510.924376,518.144159,-459.657299
4115.994335,-10362.883188,814.226536,0.000000
4115.994664,-10510.924376,444.123565,0.000000
4115.994994,-10807.006753,148.041188,0.000000
4115.995324,-10140.821405,74.020594,229.828649
4115.995653,-9696.697840,0.000000,153.219100
4115.995983,-9104.533087,0.000000,76.609550
4115.996313,-9770.718434,74.020594,766.095498
4115.996642,-10584.944971,74.020594,1532.190996
4115.996972,-10288.862594,0.000000,1455.581446
4115.997302,-10436.903782,-296.082377,766.095498
4115.997631,-9992.780217,-888.247130,1149.143247
4115.997961,-9992.780217,-666.185348,995.924147
4115.998291,-9252.574275,-962.267725,306.438199
4115.998620,-8734.430116,-814.226536,306.438199
4115.998950,-9548.656652,0.000000,459.657299
4115.999280,-9844.739029,0.000000,612.876398
4115.999609,-9992.780217,-370.102971,766.095498
4115.999939,-10214.842000,-518.144159,766.095498
4116.000269,-9918.759623,-740.205942,536.266849
4116.000598,-9178.553681,-518.144159,153.219100
4116.000928,-7846.182985,-962.267725,-842.705048
4116.001258,-9252.574275,0.000000,-229.828649
4116.001587,-9770.718434,0.000000,76.609550
4116.001917,-10584.944971,0.000000,229.828649
4116.002247,-9696.697840,-592.164754,0.000000
4116.002576,-9548.656652,-592.164754,919.314598
4116.002906,-9622.677246,-518.144159,995.924147
4116.003235,-9326.594869,-962.267725,229.828649
4116.003565,-9400.615463,0.000000,1302.362347
4116.003895,-9622.677246,-296.082377,689.485948
4116.004224,-9992.780217,74.020594,766.095498
4116.004554,-9918.759623,0.000000,689.485948
4116.004884,-10658.965565,296.082377,612.876398
4116.005213,-9770.718434,148.041188,-229.828649
4116.005543,-9030.512492,0.000000,-689.485948
4116.005873,-9992.780217,222.061783,-612.876398
4116.006202,-10510.924376,148.041188,76.609550
4116.006532,-10436.903782,370.102971,383.047749
4116.006862,-10362.883188,444.123565,612.876398
4116.007191,-11029.068536,666.185348,0.000000
4116.007521,-10584.944971,444.123565,0.000000
4116.007851,-10140.821405,222.061783,-383.047749
4116.008180,-9992.780217,740.205942,-383.047749
4116.008510,-9844.739029,222.061783,76.609550
4116.008840,-9770.718434,444.123565,536.266849
4116.009169,-9474.636058,444.123565,1072.533697
4116.009499,-9548.656652,592.164754,-306.438199
4116.009829,-9844.739029,888.247130,-383.047749
4116.010158,-9844.739029,0.000000,-766.095498
4116.010488,-9474.636058,296.082377,-153.219100
4116.010818,-9992.780217,296.082377,689.485948
4116.011147,-9770.718434,148.041188,229.828649
4116.011477,-9030.512492,-74.020594,0.000000
4116.011806,-8956.491898,296.082377,153.219100
4116.012136,-9622.677246,444.123565,306.438199
4116.012466,-9844.739029,74.020594,0.000000
4116.012795,-9474.636058,666.185348,0.000000
4116.013125,-9178.553681,444.123565,383.047749
4116.013455,-10066.800811,962.267725,919.314598
4116.013784,-9548.656652,370.102971,0.000000
4116.014114,-9696.697840,222.061783,76.609550
4116.014444,-9844.739029,518.144159,0.000000
4116.014773,-9548.656652,222.061783,-76.609550
4116.015103,-10288.862594,444.123565,-612.876398
4116.015433,-9474.636058,592.164754,-536.266849
4116.015762,-9696.697840,1110.308913,-383.047749
4116.016092,-9622.677246,740.205942,-229.828649
4116.016422,-9474.636058,814.226536,0.000000
4116.016751,-9548.656652,962.267725,229.828649
4116.017081,-10362.883188,814.226536,-766.095498
4116.017411,-10362.883188,592.164754,-459.657299
4116.017740,-10732.986159,222.061783,229.828649
4116.018070,-10436.903782,74.020594,842.705048
4116.018400,-10510.924376,148.041188,1149.143247
4116.018729,-10436.903782,370.102971,689.485948
4116.019059,-9622.677246,74.020594,229.828649
4116.019389,-10066.800811,296.082377,0.000000
4116.019718,-10214.842000,296.082377,306.438199
4116.020048,-10140.821405,0.000000,383.047749
4116.020377,-10066.800811,148.041188,0.000000
4116.020707,-9474.636058,-148.041188,229.828649
4116.021037,-9474.636058,-962.267725,229.828649
4116.021366,-9696.697840,-444.123565,383.047749
4116.021696,-9696.697840,-962.267725,459.657299
4116.022026,-9844.739029,-740.205942,919.314598
4116.022355,-9252.574275,-740.205942,689.485948
4116.022685,-9918.759623,-444.123565,1455.581446
4116.023015,-9548.656652,-888.247130,1302.362347
4116.023344,-9770.718434,-962.267725,1378.971896
4116.023674,-9030.512492,-740.205942,842.705048
4116.024004,-8808.450710,-1110.308913,153.219100
4116.024333,-9696.697840,-666.185348,612.876398
4116.024663,-9918.759623,-888.247130,689.485948
4116.024993,-9252.574275,-222.061783,459.657299
4116.025322,-9030.512492,-518.144159,0.000000
4116.025652,-9474.636058,148.041188,0.000000
4116.025982,-10140.821405,-296.082377,383.047749
4116.026311,-10214.842000,74.020594,153.219100
4116.026641,-9548.656652,0.000000,383.047749
4116.026971,-10214.842000,0.000000,612.876398
4116.027300,-10066.800811,-296.082377,842.705048
4116.027630,-9770.718434,-444.123565,612.876398
4116.027960,-9548.656652,74.020594,689.485948
4116.028289,-9474.636058,0.000000,-306.438199
4116.028619,-10807.006753,740.205942,-306.438199
4116.028948,-11325.150913,222.061783,0.000000
4116.029278,-10807.006753,814.226536,306.438199
4116.029608,-9992.780217,444.123565,0.000000
4116.029937,-9326.594869,222.061783,0.000000
4116.030267,-9770.718434,222.061783,306.438199
4116.030597,-10362.883188,370.102971,766.095498
4116.030926,-10807.006753,222.061783,0.000000
4116.031256,-9992.780217,444.123565,-919.314598
4116.031586,-9548.656652,592.164754,-766.095498
4116.031915,-9252.574275,666.185348,76.609550
4116.032245,-9326.594869,74.020594,766.095498
4116.032575,-9992.780217,444.123565,689.485948
4116.032904,-10214.842000,370.102971,0.000000
4116.033234,-9844.739029,0.000000,-995.924147
4116.033564,-9696.697840,666.185348,-383.047749
4116.033893,-9474.636058,0.000000,229.828649
4116.034223,-9770.718434,592.164754,842.705048
4116.034553,-9474.636058,222.061783,153.219100
4116.034882,-9178.553681,296.082377,0.000000
4116.035212,-9104.533087,148.041188,229.828649
4116.035542,-9178.553681,518.144159,-153.219100
4116.035871,-9770.718434,592.164754,229.828649
4116.036201,-9474.636058,444.123565,0.000000
4116.036531,-9252.574275,222.061783,0.000000
4116.036860,-9696.697840,0.000000,-306.438199
4116.037190,-10288.862594,518.144159,536.266849
4116.037519,-9844.739029,0.000000,306.438199
4116.037849,-9030.512492,148.041188,0.000000
4116.038179,-9400.615463,666.185348,0.000000
4116.038508,-10140.821405,814.226536,0.000000
4116.038838,-10658.965565,814.226536,-383.047749
4116.039168,-10362.883188,296.082377,-689.485948
4116.039497,-9918.759623,888.247130,0.000000
4116.039827,-9770.718434,0.000000,-383.047749
4116.040157,-9844.739029,148.041188,-153.219100
4116.040486,-9622.677246,148.041188,76.609550
4116.040816,-10140.821405,518.144159,536.266849
4116.041146,-10362.883188,444.123565,306.438199
4116.041475,-10881.027347,74.020594,0.000000
4116.041805,-10140.821405,370.102971,76.609550
4116.042135,-9918.759623,370.102971,919.314598
4116.042464,-9918.759623,0.000000,0.000000
4116.042794,-9622.677246,-444.123565,536.266849
4116.043124,-9770.718434,-222.061783,995.924147
4116.043453,-9548.656652,0.000000,842.705048
4116.043783,-9992.780217,-518.144159,383.047749
4116.044113,-10362.883188,-592.164754,459.657299
4116.044442,-9992.780217,-592.164754,689.485948
4116.044772,-9400.615463,-444.123565,306.438199
4116.045102,-9178.553681,-370.102971,536.266849
4116.045431,-9252.574275,-666.185348,536.266849
4116.045761,-9104.533087,-518.144159,459.657299
4116.046090,-9696.697840,-666.185348,995.924147
4116.046420,-9992.780217,-592.164754,1149.143247
4116.046750,-10584.944971,-592.164754,1915.238745
4116.047079,-9992.780217,-370.102971,536.266849
4116.047409,-8882.471304,-1184.329507,-383.047749
4116.047739,-8808.450710,-814.226536,0.000000
4116.048068,-9252.574275,0.000000,0.000000
4116.048398,-10362.883188,0.000000,76.609550
4116.048728,-10066.800811,0.000000,919.314598
4116.049057,-9770.718434,-444.123565,536.266849
4116.049387,-9696.697840,0.000000,229.828649
4116.049717,-9770.718434,-296.082377,0.000000
4116.050046,-10436.903782,-370.102971,0.000000
4116.050376,-10510.924376,-148.041188,459.657299
4116.050706,-9622.677246,-444.123565,1149.143247
4116.051035,-9622.677246,-148.041188,1225.752797
4116.051365,-10288.862594,370.102971,612.876398
4116.051695,-10066.800811,148.041188,-536.266849
4116.052024,-9844.739029,370.102971,-612.876398
4116.052354,-10288.862594,444.123565,-1072.533697
4116.052684,-10066.800811,-222.061783,-306.438199
4116.053013,-10362.883188,0.000000,766.095498
4116.053343,-10288.862594,148.041188,1455.581446
4116.053673,-10140.821405,0.000000,766.095498
4116.054002,-9474.636058,0.000000,-766.095498
4116.054332,-9252.574275,-148.041188,-919.314598
4116.054661,-9918.759623,296.082377,0.000000
4116.054991,-9622.677246,-444.123565,689.485948
4116.055321,-9252.574275,-148.041188,842.705048
4116.055650,-8586.388927,0.000000,919.314598
4116.055980,-9400.615463,0.000000,153.219100
4116.056310,-9696.697840,0.000000,0.000000
4116.056639,-10140.821405,-148.041188,-689.485948
4116.056969,-10066.800811,148.041188,229.828649
4116.057299,-9696.697840,0.000000,919.314598
4116.057628,-9400.615463,0.000000,1072.533697
4116.057958,-9030.512492,-148.041188,689.485948
4116.058288,-8956.491898,74.020594,-383.047749
4116.058617,-8882.471304,296.082377,-1378.971896
4116.058947,-9178.553681,370.102971,-1072.533697
4116.059277,-10140.821405,444.123565,0.000000
4116.059606,-9918.759623,740.205942,612.876398
4116.059936,-9622.677246,666.185348,459.657299
4116.060266,-9548.656652,592.164754,0.000000
4116.060595,-10436.903782,814.226536,-383.047749
4116.060925,-10214.842000,592.164754,-459.657299
4116.061255,-9770.718434,592.164754,-766.095498
4116.061584,-9696.697840,888.247130,0.000000
4116.061914,-9548.656652,1184.329507,612.876398
4116.062244,-9770.718434,740.205942,459.657299
4116.062573,-9548.656652,1110.308913,459.657299
4116.062903,-10140.821405,1036.288319,-153.219100
4116.063232,-10436.903782,814.226536,-689.485948
4116.063562,-10510.924376,592.164754,-383.047749
4116.063892,-9992.780217,592.164754,612.876398
4116.064221,-10140.821405,814.226536,1225.752797
4116.064551,-10362.883188,962.267725,689.485948
4116.064881,-9622.677246,444.123565,536.266849
4116.065210,-9548.656652,518.144159,-459.657299
4116.065540,-9770.718434,592.164754,0.000000
4116.065870,-10066.800811,444.123565,536.266849
4116.066199,-10140.821405,592.164754,1225.752797
4116.066529,-9548.656652,0.000000,842.705048
4116.066859,-9474.636058,-148.041188,0.000000
4116.067188,-9474.636058,74.020594,153.219100
4116.067518,-9844.739029,-148.041188,0.000000
4116.067848,-9844.739029,-370.102971,536.266849
4116.068177,-9178.553681,-148.041188,995.924147
4116.068507,-9474.636058,0.000000,1378.971896
4116.068837,-9844.739029,0.000000,1685.410096
4116.069166,-9844.739029,222.061783,766.095498
4116.069496,-9400.615463,-444.123565,76.609550
4116.069826,-9474.636058,0.000000,-459.657299
4116.070155,-9548.656652,-518.144159,-306.438199
4116.070485,-9178.553681,-1332.370696,-459.657299
4116.070815,-8956.491898,-444.123565,536.266849
4116.071144,-9030.512492,-740.205942,536.266849
4116.071474,-9400.615463,-666.185348,76.609550
4116.071803,-9104.533087,-666.185348,0.000000
4116.072133,-10066.800811,0.000000,153.219100
4116.072463,-9770.718434,-296.082377,229.828649
4116.072792,-10658.965565,-222.061783,383.047749
4116.073122,-10955.047942,-370.102971,1072.533697
4116.073452,-9918.759623,-518.144159,612.876398
4116.073781,-8956.491898,-888.247130,306.438199
4116.074111,-9252.574275,-592.164754,229.828649
4116.074441,-10140.821405,-296.082377,76.609550
4116.074770,-10362.883188,-444.123565,612.876398
4116.075100,-9992.780217,-740.205942,383.047749
4116.075430,-10362.883188,-296.082377,306.438199
4116.075760,-9844.739029,-814.226536,229.828649
4116.076089,-8956.491898,-888.247130,0.000000
4116.076419,-9030.512492,-518.144159,-153.219100
4116.076749,-10362.883188,0.000000,383.047749
4116.077079,-11029.068536,74.020594,383.047749
4116.077408,-10955.047942,-814.226536,153.219100
4116.077738,-10066.800811,-222.061783,459.657299
4116.078068,-9696.697840,-888.247130,536.266849
4116.078398,-9696.697840,-1258.350101,536.266849
4116.078727,-9178.553681,-1332.370696,842.705048
4116.079057,-9326.594869,-1332.370696,995.924147
4116.079387,-9474.636058,-888.247130,1608.800546
4116.079717,-9474.636058,-888.247130,1149.143247
4116.080046,-9696.697840,-148.041188,153.219100
4116.080376,-9326.594869,-666.185348,383.047749
4116.080706,-10214.842000,0.000000,0.000000
4116.081036,-10214.842000,-444.123565,153.219100
4116.081365,-10140.821405,74.020594,612.876398
4116.081695,-9252.574275,0.000000,383.047749
4116.082025,-9104.533087,0.000000,76.609550
4116.082355,-9770.718434,518.144159,383.047749
4116.082684,-10288.862594,-888.247130,-306.438199
4116.083014,-9696.697840,-148.041188,306.438199
4116.083344,-9696.697840,222.061783,1455.581446
4116.083674,-10066.800811,296.082377,1149.143247
4116.084003,-9178.553681,74.020594,459.657299
4116.084333,-8956.491898,444.123565,-459.657299
4116.084663,-9548.656652,1036.288319,-536.266849
4116.084993,-10584.944971,814.226536,-306.438199
4116.085322,-10881.027347,518.144159,153.219100
4116.085652,-9696.697840,444.123565,689.485948
4116.085982,-9474.636058,962.267725,1608.800546
4116.086312,-9844.739029,666.185348,459.657299
4116.086641,-9844.739029,0.000000,-1608.800546
4116.086971,-9400.615463,962.267725,-1149.143247
4116.087301,-9622.677246,962.267725,76.609550
4116.087630,-10584.944971,1480.411884,612.876398
4116.087960,-10214.842000,1554.432478,306.438199
4116.088290,-10362.883188,1628.453072,-306.438199
4116.088620,-10214.842000,1110.308913,-1149.143247
4116.088949,-10362.883188,666.185348,-1225.752797
4116.089279,-9992.780217,518.144159,-919.314598
4116.089609,-9918.759623,888.247130,-229.828649
4116.089939,-9030.512492,0.000000,153.219100
4116.090268,-8660.409521,0.000000,995.924147
4116.090598,-9474.636058,148.041188,689.485948
4116.090928,-10066.800811,0.000000,306.438199
4116.091258,-10140.821405,148.041188,-459.657299
4116.091587,-9992.780217,296.082377,1072.533697
4116.091917,-8734.430116,148.041188,919.314598
4116.092247,-8808.450710,74.020594,1149.143247
4116.092577,-9474.636058,74.020594,612.876398
4116.092906,-10288.862594,74.020594,0.000000
4116.093236,-9178.553681,-296.082377,-1225.752797
4116.093566,-8808.450710,-518.144159,-1072.533697
4116.093896,-9252.574275,-148.041188,-306.438199
4116.094225,-8956.491898,-444.123565,536.266849
4116.094555,-8512.368333,0.000000,-306.438199
4116.094885,-9178.553681,0.000000,-612.876398
4116.095215,-9992.780217,740.205942,-842.705048
4116.095544,-10658.965565,296.082377,-612.876398
4116.095874,-10732.986159,518.144159,-995.924147
4116.096204,-10214.842000,148.041188,0.000000
4116.096534,-10140.821405,222.061783,383.047749
4116.096863,-9992.780217,0.000000,229.828649
4116.097193,-9474.636058,-666.185348,0.000000
4116.097523,-9474.636058,0.000000,153.219100
4116.097853,-9844.739029,-222.061783,306.438199
4116.098182,-10214.842000,0.000000,0.000000
4116.098512,-9844.739029,0.000000,612.876398
4116.098842,-10362.883188,370.102971,919.314598
4116.099172,-10955.047942,296.082377,229.828649
4116.099501,-10807.006753,-74.020594,229.828649
4116.099831,-10881.027347,0.000000,766.095498
4116.100161,-9770.718434,0.000000,612.876398
4116.100491,-9992.780217,-370.102971,229.828649
4116.100820,-9918.759623,-222.061783,306.438199
4116.101150,-10066.800811,-296.082377,383.047749
4116.101480,-9474.636058,-370.102971,306.438199
4116.101809,-9104.533087,-518.144159,229.828649
4116.102139,-9474.636058,-148.041188,459.657299
4116.102469,-9474.636058,-370.102971,842.705048
4116.102799,-9252.574275,-444.123565,919.314598
4116.103128,-10288.862594,-296.082377,1838.629195
4116.103458,-10362.883188,-592.164754,1685.410096
4116.103788,-9548.656652,-296.082377,842.705048
4116.104118,-8364.327145,-592.164754,0.000000
4116.104447,-9178.553681,-74.020594,612.876398
4116.104777,-10214.842000,74.020594,1149.143247
4116.105107,-9844.739029,148.041188,842.705048
4116.105437,-9178.553681,0.000000,76.609550
4116.105766,-9770.718434,370.102971,-459.657299
4116.106096,-9918.759623,74.020594,-689.485948
4116.106426,-9030.512492,148.041188,-766.095498
4116.106756,-8882.471304,444.123565,0.000000
4116.107085,-9548.656652,814.226536,153.219100
4116.107415,-10214.842000,962.267725,-689.485948
4116.107745,-9844.739029,370.102971,-383.047749
4116.108075,-10140.821405,518.144159,0.000000
4116.108404,-10066.800811,444.123565,-76.609550
4116.108734,-10214.842000,296.082377,-536.266849
4116.109064,-9844.739029,0.000000,306.438199
4116.109394,-9178.553681,0.000000,0.000000
4116.109723,-9474.636058,370.102971,153.219100
4116.110053,-9326.594869,296.082377,-153.219100
4116.110383,-10436.903782,518.144159,0.000000
4116.110713,-10362.883188,592.164754,306.438199
4116.111042,-10584.944971,74.020594,919.314598
4116.111372,-10658.965565,0.000000,1149.143247
4116.111702,-10288.862594,148.041188,612.876398
4116.112032,-9770.718434,0.000000,-383.047749
4116.112361,-9252.574275,-296.082377,-842.705048
4116.112691,-9326.594869,-444.123565,-536.266849
4116.113021,-9400.615463,-296.082377,536.266849
4116.113351,-9622.677246,-222.061783,612.876398
4116.113680,-10214.842000,-370.102971,1455.581446
4116.114010,-9696.697840,-592.164754,766.095498
4116.114340,-9400.615463,-518.144159,-459.657299
4116.114669,-9400.615463,-370.102971,-612.876398
4116.114999,-9844.739029,-444.123565,0.000000
4116.115329,-9474.636058,-444.123565,766.095498
4116.115659,-9030.512492,0.000000,383.047749
4116.115988,-9770.718434,296.082377,995.924147
4116.116318,-10362.883188,-74.020594,153.219100
4116.116648,-10066.800811,-370.102971,-766.095498
4116.116978,-9326.594869,-592.164754,-766.095498
4116.117307,-9104.533087,-296.082377,-612.876398
4116.117637,-9252.574275,0.000000,-76.609550
4116.117967,-8734.430116,-370.102971,153.219100
4116.118297,-9474.636058,0.000000,689.485948
4116.118626,-10510.924376,222.061783,766.095498
4116.118956,-11399.171507,296.082377,153.219100
4116.119286,-10584.944971,222.061783,76.609550
4116.119616,-9696.697840,0.000000,0.000000
4116.119945,-9252.574275,222.061783,76.609550
4116.120275,-9178.553681,-370.102971,612.876398
4116.120605,-9622.677246,0.000000,919.314598
4116.120935,-10214.842000,296.082377,689.485948
4116.121264,-11029.068536,444.123565,0.000000
4116.121594,-10658.965565,370.102971,383.047749
4116.121924,-10510.924376,296.082377,306.438199
4116.122254,-9770.718434,444.123565,689.485948
4116.122583,-9844.739029,518.144159,612.876398
4116.122913,-9918.759623,740.205942,919.314598
4116.123243,-9992.780217,518.144159,153.219100
4116.123573,-10288.862594,222.061783,153.219100
4116.123902,-10214.842000,74.020594,229.828649
4116.124232,-10288.862594,74.020594,383.047749
4116.124562,-9918.759623,148.041188,766.095498
4116.124892,-9252.574275,-592.164754,766.095498
4116.125221,-8956.491898,-296.082377,536.266849
4116.125551,-8586.388927,-518.144159,459.657299
4116.125881,-9400.615463,-148.041188,153.219100
4116.126211,-9474.636058,74.020594,0.000000
4116.126540,-9474.636058,-148.041188,229.828649
4116.126870,-9252.574275,-148.041188,459.657299
4116.127200,-8956.491898,-592.164754,153.219100
4116.127530,-9992.780217,74.020594,689.485948
4116.127859,-9918.759623,-148.041188,459.657299
4116.128189,-9030.512492,-148.041188,-229.828649
4116.128519,-8290.306550,-148.041188,-842.705048
4116.128848,-9770.718434,0.000000,0.000000
4116.129178,-9696.697840,-296.082377,-306.438199
4116.129508,-9252.574275,-296.082377,-612.876398
4116.129838,-9696.697840,74.020594,459.657299
4116.130167,-10066.800811,222.061783,459.657299
4116.130497,-10807.006753,148.041188,0.000000
4116.130827,-9770.718434,296.082377,-306.438199
4116.131157,-9770.718434,740.205942,-919.314598
4116.131486,-9844.739029,666.185348,-919.314598
4116.131816,-9992.780217,0.000000,-459.657299
4116.132146,-10140.821405,0.000000,76.609550
4116.132476,-10214.842000,518.144159,383.047749
4116.132805,-10881.027347,-296.082377,229.828649
4116.133135,-10436.903782,0.000000,0.000000
4116.133465,-9474.636058,0.000000,-689.485948
4116.133795,-9474.636058,148.041188,0.000000
4116.134124,-9844.739029,222.061783,229.828649
4116.134454,-10658.965565,444.123565,459.657299
4116.134784,-10732.986159,296.082377,842.705048
4116.135114,-9918.759623,148.041188,306.438199
4116.135443,-9992.780217,592.164754,0.000000
4116.135773,-10362.883188,222.061783,0.000000
4116.136103,-9770.718434,518.144159,0.000000
4116.136433,-9474.636058,74.020594,0.000000
4116.136762,-9844.739029,444.123565,1149.143247
4116.137092,-10584.944971,518.144159,1149.143247
4116.137422,-9770.718434,592.164754,536.266849
4116.137752,-9252.574275,74.020594,-536.266849
4116.138081,-9252.574275,148.041188,-383.047749
4116.138411,-9548.656652,740.205942,612.876398
4116.138741,-9918.759623,518.144159,1302.362347
4116.139071,-9474.636058,518.144159,766.095498
4116.139400,-9178.553681,814.226536,306.438199
4116.139730,-9474.636058,370.102971,-383.047749
4116.140060,-9622.677246,222.061783,-536.266849
4116.140390,-9326.594869,296.082377,-919.314598
4116.140719,-9178.553681,74.020594,0.000000
4116.141049,-9252.574275,518.144159,536.266849
4116.141379,-9326.594869,592.164754,842.705048
4116.141709,-9400.615463,814.226536,459.657299
4116.142038,-9326.594869,814.226536,-459.657299
4116.142368,-9548.656652,1110.308913,-995.924147
4116.142698,-10214.842000,74.020594,-383.047749
4116.143027,-10214.842000,740.205942,0.000000
4116.143357,-9474.636058,74.020594,0.000000
4116.143687,-8882.471304,296.082377,0.000000
4116.144017,-9400.615463,592.164754,-459.657299
4116.144346,-9844.739029,296.082377,-766.095498
4116.144676,-10066.800811,370.102971,-689.485948
4116.145006,-10288.862594,592.164754,76.609550
4116.145336,-10288.862594,444.123565,1455.581446
4116.145665,-10214.842000,0.000000,766.095498
4116.145995,-10362.883188,0.000000,689.485948
4116.146325,-10140.821405,-370.102971,459.657299
4116.146655,-10214.842000,-296.082377,76.609550
4116.146984,-9770.718434,-1110.308913,76.609550
4116.147314,-9622.677246,-444.123565,766.095498
4116.147644,-10066.800811,-888.247130,1762.019645
4116.147974,-10362.883188,-666.185348,842.705048
4116.148303,-9622.677246,-962.267725,383.047749
4116.148633,-9844.739029,-1036.288319,689.485948
4116.148963,-9252.574275,-1480.411884,536.266849
4116.149293,-9696.697840,-1406.391290,842.705048
4116.149622,-9474.636058,-1110.308913,1225.752797
4116.149952,-9104.533087,-1332.370696,995.924147
4116.150282,-9252.574275,-1036.288319,383.047749
4116.150612,-9400.615463,-1258.350101,383.047749
4116.150941,-9696.697840,-740.205942,306.438199
4116.151271,-9770.718434,-370.102971,-306.438199
4116.151601,-9400.615463,-1036.288319,-536.266849
4116.151931,-9992.780217,-666.185348,0.000000
4116.152260,-9844.739029,-740.205942,76.609550
4116.152590,-8956.491898,-518.144159,-306.438199
4116.152920,-9326.594869,-592.164754,-383.047749
4116.153250,-10436.903782,0.000000,-153.219100
4116.153579,-10510.924376,-148.041188,76.609550
4116.153909,-9770.718434,-444.123565,-536.266849
4116.154239,-10288.862594,-148.041188,229.828649
4116.154569,-10214.842000,0.000000,689.485948
4116.154898,-9992.780217,-444.123565,153.219100
4116.155228,-9104.533087,0.000000,-459.657299
4116.155558,-9474.636058,518.144159,0.000000
4116.155888,-10658.965565,222.061783,306.438199
4116.156217,-11029.068536,370.102971,689.485948
4116.156547,-10436.903782,444.123565,459.657299
4116.156877,-10214.842000,370.102971,-153.219100
4116.157206,-9918.759623,148.041188,229.828649
4116.157536,-10140.821405,0.000000,459.657299
4116.157866,-10066.800811,0.000000,689.485948
4116.158196,-9178.553681,518.144159,459.657299
4116.158525,-9400.615463,296.082377,1302.362347
4116.158855,-10140.821405,888.247130,1072.533697
4116.159185,-10066.800811,962.267725,-383.047749
4116.159515,-9622.677246,518.144159,-1302.362347
4116.159844,-9474.636058,666.185348,-459.657299
4116.160174,-9770.718434,518.144159,766.095498
4116.160504,-9178.553681,222.061783,766.095498
4116.160834,-8364.327145,444.123565,-383.047749
4116.161163,-8216.285956,592.164754,-1149.143247
4116.161493,-9252.574275,666.185348,-229.828649
4116.161823,-10140.821405,1184.329507,-153.219100
4116.162153,-9474.636058,518.144159,153.219100
4116.162482,-9622.677246,1332.370696,459.657299
4116.162812,-9622.677246,370.102971,919.314598
4116.163142,-9548.656652,0.000000,-306.438199
4116.163472,-9104.533087,-148.041188,-1302.362347
4116.163801,-9548.656652,0.000000,-536.266849
4116.164131,-9104.533087,-370.102971,-306.438199
4116.164461,-9178.553681,74.020594,842.705048
4116.164791,-9474.636058,444.123565,1455.581446
4116.165120,-9770.718434,814.226536,1225.752797
4116.165450,-10436.903782,962.267725,0.000000
4116.165780,-10436.903782,444.123565,-612.876398
4116.166110,-10436.903782,740.205942,-689.485948
4116.166439,-9992.780217,444.123565,-229.828649
4116.166769,-9844.739029,370.102971,76.609550
4116.167099,-9844.739029,0.000000,0.000000
4116.167429,-9918.759623,0.000000,-459.657299
4116.167758,-9844.739029,74.020594,-919.314598
4116.168088,-10362.883188,296.082377,0.000000
4116.168418,-10510.924376,222.061783,0.000000
4116.168748,-10140.821405,222.061783,383.047749
4116.169077,-9474.636058,74.020594,459.657299
4116.169407,-10436.903782,222.061783,995.924147
4116.169737,-10658.965565,296.082377,919.314598
4116.170066,-10510.924376,-740.205942,306.438199
4116.170396,-9252.574275,-370.102971,0.000000
4116.170726,-9474.636058,-444.123565,689.485948
4116.171056,-9696.697840,-222.061783,0.000000
4116.171385,-9178.553681,-592.164754,459.657299
4116.171715,-9030.512492,-296.082377,229.828649
4116.172045,-9622.677246,-222.061783,1072.533697
4116.172375,-10214.842000,0.000000,459.657299
4116.172704,-10732.986159,-222.061783,1225.752797
4116.173034,-9918.759623,-740.205942,536.266849
4116.173364,-9400.615463,-370.102971,153.219100
4116.173694,-9178.553681,-592.164754,76.609550
4116.174023,-9992.780217,0.000000,229.828649
4116.174353,-9844.739029,-962.267725,76.609550
4116.174683,-9622.677246,-296.082377,306.438199
4116.175013,-9178.553681,-518.144159,766.095498
4116.175342,-9326.594869,-444.123565,76.609550
4116.175672,-8882.471304,-518.144159,76.609550
4116.176002,-8734.430116,-962.267725,153.219100
4116.176332,-9326.594869,0.000000,229.828649
4116.176661,-9918.759623,592.164754,0.000000
4116.176991,-10140.821405,-296.082377,0.000000
4116.177321,-9548.656652,0.000000,229.828649
4116.177651,-9548.656652,296.082377,76.609550
4116.177981,-10066.800811,740.205942,-76.609550
4116.178310,-9844.739029,222.061783,-1149.143247
4116.178640,-10066.800811,222.061783,-459.657299
4116.178970,-9696.697840,0.000000,536.266849
4116.179300,-10214.842000,666.185348,459.657299
4116.179630,-9918.759623,518.144159,612.876398
4116.179960,-9622.677246,74.020594,306.438199
4116.180289,-9770.718434,666.185348,0.000000
4116.180619,-9992.780217,74.020594,-919.314598
4116.180949,-10584.944971,740.205942,-689.485948
4116.181279,-10732.986159,222.061783,919.314598
4116.181609,-9992.780217,0.000000,1225.752797
4116.181938,-9918.759623,0.000000,1149.143247
4116.182268,-9844.739029,296.082377,229.828649
4116.182598,-10066.800811,0.000000,-536.266849
4116.182928,-9400.615463,-296.082377,-153.219100
4116.183258,-10140.821405,0.000000,919.314598
4116.183587,-10140.821405,0.000000,2145.067394
4116.183917,-9992.780217,0.000000,1302.362347
4116.184247,-9696.697840,148.041188,76.609550
4116.184577,-9548.656652,0.000000,-919.314598
4116.184907,-9178.553681,370.102971,-1225.752797
4116.185237,-9030.512492,-148.041188,-689.485948
4116.185566,-10140.821405,370.102971,536.266849
4116.185896,-9696.697840,-74.020594,1378.971896
4116.186226,-9770.718434,-370.102971,612.876398
4116.186556,-9622.677246,-370.102971,153.219100
4116.186886,-9474.636058,-740.205942,76.609550
4116.187215,-9400.615463,-444.123565,306.438199
4116.187545,-9104.533087,-370.102971,306.438199
4116.187875,-9178.553681,592.164754,536.266849
4116.188205,-9474.636058,148.041188,612.876398
4116.188535,-11029.068536,518.144159,-1149.143247
4116.188864,-10066.800811,444.123565,-1455.581446
4116.189194,-9844.739029,592.164754,-459.657299
4116.189524,-9252.574275,518.144159,-306.438199
4116.189854,-9844.739029,444.123565,-76.609550
4116.190184,-10214.842000,444.123565,153.219100
4116.190514,-10066.800811,222.061783,-306.438199
4116.190843,-10140.821405,148.041188,-383.047749
4116.191173,-10140.821405,0.000000,-689.485948
4116.191503,-10584.944971,0.000000,229.828649
4116.191833,-9400.615463,0.000000,1072.533697
4116.192163,-9474.636058,148.041188,1149.143247
4116.192492,-10288.862594,0.000000,1378.971896
4116.192822,-10362.883188,222.061783,995.924147
4116.193152,-9844.739029,296.082377,919.314598
4116.193482,-9918.759623,0.000000,153.219100
4116.193812,-10214.842000,0.000000,0.000000
4116.194141,-9252.574275,-592.164754,689.485948
4116.194471,-8586.388927,0.000000,-76.609550
4116.194801,-8808.450710,-370.102971,-536.266849
4116.195131,-9326.594869,222.061783,153.219100
4116.195461,-9992.780217,0.000000,612.876398
4116.195791,-9992.780217,-296.082377,536.266849
4116.196120,-10140.821405,-74.020594,1455.581446
4116.196450,-9474.636058,-222.061783,612.876398
4116.196780,-8586.388927,-888.247130,229.828649
4116.197110,-8660.409521,0.000000,306.438199
4116.197440,-9548.656652,0.000000,536.266849
4116.197769,-10658.965565,0.000000,153.219100
4116.198099,-9918.759623,74.020594,229.828649
4116.198429,-9178.553681,0.000000,229.828649
4116.198759,-9326.594869,74.020594,-153.219100
4116.199089,-9474.636058,-444.123565,-536.266849
4116.199419,-9252.574275,0.000000,-76.609550
4116.199748,-8216.285956,0.000000,0.000000
4116.200078,-9474.636058,592.164754,0.000000
4116.200408,-10732.986159,296.082377,306.438199
4116.200738,-11251.130318,814.226536,842.705048
4116.201068,-10955.047942,296.082377,76.609550
4116.201397,-10732.986159,0.000000,-306.438199
4116.201727,-10288.862594,-296.082377,229.828649
4116.202057,-9326.594869,-518.144159,689.485948
4116.202387,-8808.450710,0.000000,689.485948
4116.202717,-9104.533087,148.041188,612.876398
4116.203046,-10807.006753,518.144159,-459.657299
4116.203376,-10807.006753,222.061783,-153.219100
4116.203706,-10510.924376,222.061783,-306.438199
4116.204036,-10584.944971,74.020594,689.485948
4116.204366,-10362.883188,-148.041188,612.876398
4116.204696,-9252.574275,-148.041188,229.828649
4116.205025,-8660.409521,-666.185348,0.000000
4116.205355,-10288.862594,222.061783,766.095498
4116.205685,-10732.986159,0.000000,306.438199
4116.206015,-9548.656652,-74.020594,0.000000
4116.206345,-9178.553681,-74.020594,536.266849
4116.206674,-9548.656652,0.000000,1225.752797
4116.207004,-10362.883188,-296.082377,842.705048
4116.207334,-9992.780217,0.000000,306.438199
4116.207664,-9548.656652,-74.020594,0.000000
4116.207994,-9696.697840,0.000000,0.000000
4116.208323,-9400.615463,-148.041188,76.609550
4116.208653,-9474.636058,0.000000,229.828649
4116.208983,-9030.512492,814.226536,153.219100
4116.209313,-8956.491898,0.000000,-383.047749
4116.209643,-9548.656652,0.000000,0.000000
4116.209973,-9696.697840,222.061783,153.219100
4116.210302,-9326.594869,518.144159,0.000000
4116.210632,-9178.553681,222.061783,-842.705048
4116.210962,-10288.862594,666.185348,-383.047749
4116.211292,-9992.780217,592.164754,0.000000
4116.211622,-9548.656652,518.144159,-536.266849
4116.211951,-9696.697840,370.102971,0.000000
4116.212281,-10658.965565,592.164754,536.266849
4116.212611,-10214.842000,592.164754,1225.752797
4116.212941,-10362.883188,148.041188,229.828649
4116.213271,-9474.636058,222.061783,0.000000
4116.213600,-9548.656652,222.061783,536.266849
4116.213930,-9178.553681,222.061783,-76.609550
4116.214260,-9474.636058,444.123565,306.438199
4116.214590,-10214.842000,740.205942,383.047749
4116.214920,-10510.924376,814.226536,0.000000
4116.215250,-9474.636058,0.000000,-153.219100
4116.215579,-9104.533087,222.061783,-536.266849
4116.215909,-9918.759623,0.000000,536.266849
4116.216239,-10584.944971,0.000000,1149.143247
4116.216569,-9918.759623,-222.061783,919.314598
4116.216899,-9696.697840,74.020594,229.828649
4116.217228,-9548.656652,-518.144159,536.266849
4116.217558,-9918.759623,-666.185348,459.657299
4116.217888,-9918.759623,-148.041188,1072.533697
4116.218218,-9104.533087,0.000000,919.314598
4116.218548,-9326.594869,-518.144159,689.485948
4116.218878,-9030.512492,-592.164754,0.000000
4116.219207,-9770.718434,-370.102971,383.047749
4116.219537,-9770.718434,-370.102971,306.438199
4116.219867,-9474.636058,-1036.288319,-229.828649
4116.220197,-9918.759623,-814.226536,0.000000
4116.220527,-8956.491898,-518.144159,612.876398
4116.220856,-8882.471304,-740.205942,536.266849
4116.221186,-9326.594869,-666.185348,0.000000
4116.221516,-9844.739029,-444.123565,153.219100
4116.221846,-9992.780217,-74.020594,383.047749
4116.222176,-9622.677246,-222.061783,-459.657299
4116.222505,-9474.636058,-370.102971,0.000000
4116.222835,-9622.677246,0.000000,612.876398
4116.223165,-10140.821405,74.020594,536.266849
4116.223495,-10362.883188,-296.082377,-459.657299
4116.223825,-10658.965565,370.102971,306.438199
4116.224155,-10732.986159,74.020594,536.266849
4116.224484,-10362.883188,74.020594,0.000000
4116.224814,-9474.636058,0.000000,-229.828649
4116.225144,-9844.739029,74.020594,-229.828649
4116.225474,-9844.739029,-222.061783,-689.485948
4116.225804,-9400.615463,-74.020594,-689.485948
4116.226133,-9844.739029,0.000000,0.000000
4116.226463,-10510.924376,0.000000,995.924147
4116.226793,-10066.800811,-148.041188,1149.143247
4116.227123,-9252.574275,74.020594,995.924147
4116.227453,-9992.780217,296.082377,842.705048
4116.227782,-10066.800811,-148.041188,306.438199
4116.228112,-9178.553681,-296.082377,306.438199
4116.228442,-10140.821405,370.102971,1225.752797
4116.228772,-9918.759623,370.102971,766.095498
4116.229102,-9326.594869,518.144159,0.000000
4116.229432,-8956.491898,296.082377,-306.438199
4116.229761,-9770.718434,814.226536,0.000000
4116.230091,-9696.697840,74.020594,0.000000
4116.230421,-9622.677246,0.000000,153.219100
4116.230751,-9696.697840,592.164754,612.876398
4116.231081,-8956.491898,370.102971,1072.533697
4116.231410,-9178.553681,74.020594,459.657299
4116.231740,-9400.615463,296.082377,383.047749
4116.232070,-10288.862594,888.247130,766.095498
4116.232400,-9770.718434,1184.329507,766.095498
4116.232730,-9622.677246,814.226536,0.000000
4116.233060,-9696.697840,962.267725,-383.047749
4116.233389,-9696.697840,518.144159,-229.828649
4116.233719,-9104.533087,222.061783,-306.438199
4116.234049,-9178.553681,0.000000,-459.657299
4116.234379,-9696.697840,518.144159,0.000000
4116.234709,-9326.594869,222.061783,153.219100
4116.235038,-9326.594869,444.123565,0.000000
4116.235368,-10140.821405,1258.350101,229.828649
4116.235698,-10732.986159,888.247130,306.438199
4116.236028,-10955.047942,666.185348,306.438199
4116.236358,-10066.800811,148.041188,0.000000
4116.236687,-10066.800811,592.164754,0.000000
4116.237017,-10066.800811,370.102971,0.000000
4116.237347,-9844.739029,148.041188,-229.828649
4116.237677,-9992.780217,592.164754,0.000000
4116.238007,-9178.553681,222.061783,229.828649
4116.238337,-9548.656652,0.000000,0.000000
4116.238666,-9992.780217,-296.082377,0.000000
4116.238996,-10955.047942,222.061783,306.438199
4116.239326,-9992.780217,-296.082377,76.609550
4116.239656,-9400.615463,-444.123565,76.609550
4116.239986,-9474.636058,-296.082377,306.438199
4116.240315,-9844.739029,-444.123565,612.876398
4116.240645,-9992.780217,0.000000,459.657299
4116.240975,-9326.594869,-444.123565,459.657299
4116.241305,-10362.883188,-296.082377,459.657299
4116.241635,-9696.697840,-740.205942,612.876398
4116.241964,-9770.718434,-666.185348,229.828649
4116.242294,-9474.636058,-592.164754,229.828649
4116.242624,-9400.615463,-814.226536,306.438199
4116.242954,-9252.574275,-666.185348,536.266849
4116.243284,-9474.636058,-444.123565,0.000000
4116.243614,-9696.697840,-222.061783,306.438199
4116.243943,-9622.677246,-518.144159,0.000000
4116.244273,-9844.739029,0.000000,-536.266849
4116.244603,-10436.903782,-444.123565,-76.609550
4116.244933,-9622.677246,-370.102971,306.438199
4116.245263,-9770.718434,-666.185348,612.876398
4116.245592,-8660.409521,0.000000,306.438199
4116.245922,-9474.636058,-296.082377,459.657299
4116.246252,-9696.697840,-148.041188,383.047749
4116.246582,-9474.636058,-74.020594,153.219100
4116.246912,-10066.800811,296.082377,-459.657299
4116.247241,-10436.903782,444.123565,0.000000
4116.247571,-10066.800811,0.000000,-229.828649
4116.247901,-9400.615463,444.123565,459.657299
4116.248231,-9400.615463,222.061783,229.828649
4116.248561,-9622.677246,148.041188,153.219100
4116.248891,-9770.718434,370.102971,-612.876398
4116.249220,-10362.883188,592.164754,-229.828649
4116.249550,-9918.759623,296.082377,76.609550
4116.249880,-9918.759623,518.144159,306.438199
4116.250210,-10436.903782,296.082377,459.657299
4116.250540,-10510.924376,148.041188,306.438199
4116.250869,-9622.677246,370.102971,459.657299
4116.251199,-8660.409521,0.000000,306.438199
4116.251529,-9474.636058,592.164754,306.438199
4116.251859,-10214.842000,444.123565,919.314598
4116.252189,-10214.842000,740.205942,1225.752797
4116.252519,-9770.718434,0.000000,995.924147
4116.252848,-10362.883188,740.205942,536.266849
4116.253178,-10066.800811,0.000000,76.609550
4116.253508,-9400.615463,222.061783,0.000000
4116.253838,-9104.533087,-222.061783,-612.876398
4116.254168,-9770.718434,0.000000,383.047749
4116.254497,-9622.677246,-148.041188,842.705048
4116.254827,-9104.533087,-592.164754,612.876398
4116.255157,-8734.430116,0.000000,153.219100
4116.255487,-9030.512492,-296.082377,76.609550
4116.255817,-9696.697840,74.020594,0.000000
4116.256146,-9992.780217,0.000000,153.219100
4116.256476,-10584.944971,370.102971,1072.533697
4116.256806,-9992.780217,0.000000,689.485948
4116.257136,-9844.739029,-222.061783,766.095498
4116.257466,-9918.759623,-222.061783,459.657299
4116.257796,-9844.739029,222.061783,766.095498
4116.258125,-9992.780217,74.020594,306.438199
4116.258455,-10214.842000,0.000000,76.609550
4116.258785,-10510.924376,518.144159,0.000000
4116.259115,-10066.800811,370.102971,153.219100
4116.259445,-10510.924376,74.020594,0.000000
4116.259774,-10066.800811,0.000000,-612.876398
4116.260104,-9104.533087,-296.082377,-842.705048
4116.260434,-9400.615463,-370.102971,-766.095498
4116.260764,-9696.697840,296.082377,0.000000
4116.261094,-10658.965565,148.041188,306.438199
4116.261423,-10214.842000,444.123565,306.438199
4116.261753,-9770.718434,-296.082377,76.609550
4116.262083,-10214.842000,74.020594,1072.533697
4116.262413,-10288.862594,-296.082377,766.095498
4116.262743,-9696.697840,0.000000,842.705048
4116.263073,-9400.615463,148.041188,229.828649
4116.263402,-9844.739029,0.000000,-459.657299
4116.263732,-9918.759623,0.000000,-306.438199
4116.264062,-9104.533087,-592.164754,-459.657299
4116.264392,-9178.553681,-148.041188,-306.438199
4116.264722,-9622.677246,-296.082377,536.266849
4116.265051,-9770.718434,-518.144159,76.609550
4116.265381,-9030.512492,-740.205942,229.828649
4116.265711,-9400.615463,0.000000,842.705048
4116.266041,-9770.718434,74.020594,766.095498
4116.266371,-10288.862594,74.020594,995.924147
4116.266700,-9918.759623,0.000000,1225.752797
4116.267030,-9770.718434,74.020594,536.266849
4116.267360,-9474.636058,0.000000,0.000000
4116.267690,-9326.594869,222.061783,-153.219100
4116.268020,-9400.615463,0.000000,-536.266849
4116.268350,-9178.553681,296.082377,0.000000
4116.268679,-9252.574275,296.082377,76.609550
4116.269009,-9918.759623,148.041188,612.876398
4116.269339,-9844.739029,444.123565,459.657299
4116.269669,-9696.697840,0.000000,-306.438199
4116.269999,-10288.862594,74.020594,-383.047749
4116.270328,-9992.780217,444.123565,536.266849
4116.270658,-9696.697840,962.267725,536.266849
4116.270988,-10066.800811,888.247130,689.485948
4116.271318,-10955.047942,1110.308913,0.000000
4116.271648,-11103.089130,814.226536,76.609550
4116.271978,-10436.903782,148.041188,-229.828649
4116.272307,-9474.636058,222.061783,-689.485948
4116.272637,-9474.636058,0.000000,459.657299
4116.272967,-9474.636058,148.041188,1225.752797
4116.273297,-9474.636058,148.041188,229.828649
4116.273627,-9474.636058,740.205942,-383.047749
4116.273956,-10066.800811,370.102971,-229.828649
4116.274286,-10436.903782,296.082377,-383.047749
4116.274616,-10510.924376,592.164754,306.438199
4116.274946,-9400.615463,-296.082377,612.876398
4116.275276,-9252.574275,-296.082377,536.266849
4116.275605,-9178.553681,-666.185348,76.609550
4116.275935,-9178.553681,-74.020594,0.000000
4116.276265,-9622.677246,-148.041188,153.219100
4116.276595,-9474.636058,296.082377,0.000000
4116.276924,-9696.697840,0.000000,383.047749
4116.277254,-10214.842000,592.164754,689.485948
4116.277584,-9548.656652,-296.082377,612.876398
4116.277914,-9474.636058,-592.164754,-153.219100
4116.278243,-9918.759623,-148.041188,383.047749
4116.278573,-10436.903782,74.020594,536.266849
4116.278903,-9548.656652,0.000000,0.000000
4116.279233,-8808.450710,0.000000,229.828649
4116.279562,-9474.636058,740.205942,995.924147
4116.279892,-10436.903782,1110.308913,1149.143247
4116.280222,-11103.089130,518.144159,-842.705048
4116.280551,-9178.553681,148.041188,-76.609550
4116.280881,-9178.553681,148.041188,-229.828649
4116.281211,-9696.697840,-148.041188,153.219100
4116.281541,-9918.759623,0.000000,153.219100
4116.281870,-8808.450710,222.061783,153.219100
4116.282200,-8660.409521,296.082377,-459.657299
4116.282530,-9696.697840,222.061783,-229.828649
4116.282860,-10955.047942,740.205942,689.485948
4116.283189,-10510.924376,666.185348,612.876398
4116.283519,-9918.759623,296.082377,459.657299
4116.283849,-10584.944971,296.082377,153.219100
4116.284179,-10510.924376,0.000000,153.219100
4116.284508,-9992.780217,0.000000,229.828649
4116.284838,-8438.347739,-592.164754,76.609550
4116.285168,-9844.739029,0.000000,766.095498
4116.285498,-11177.109724,592.164754,1072.533697
4116.285827,-9548.656652,0.000000,229.828649
4116.286157,-8956.491898,-444.123565,-153.219100
4116.286487,-10955.047942,518.144159,229.828649
4116.286816,-11325.150913,0.000000,919.314598
4116.287146,-9622.677246,-814.226536,766.095498
4116.287476,-8808.450710,-1110.308913,766.095498
4116.287806,-9770.718434,-296.082377,1532.190996
4116.288135,-9252.574275,-1036.288319,1225.752797
4116.288465,-8586.388927,-1036.288319,459.657299
4116.288795,-8734.430116,74.020594,842.705048
4116.289125,-9844.739029,0.000000,842.705048
4116.289454,-10955.047942,74.020594,766.095498
4116.289784,-10214.842000,0.000000,0.000000
4116.290114,-9474.636058,0.000000,0.000000
4116.290444,-9104.533087,0.000000,-459.657299
4116.290773,-9548.656652,-444.123565,-76.609550
4116.291103,-8808.450710,-888.247130,-689.485948
4116.291433,-8956.491898,-444.123565,-306.438199
4116.291763,-10510.924376,-148.041188,383.047749
4116.292092,-11325.150913,-444.123565,1072.533697
4116.292422,-10066.800811,0.000000,536.266849
4116.292752,-9252.574275,-296.082377,-229.828649
4116.293081,-8734.430116,-222.061783,-1302.362347
4116.293411,-9104.533087,0.000000,-612.876398
4116.293741,-10584.944971,0.000000,-383.047749
4116.294071,-11103.089130,74.020594,-383.047749
4116.294400,-11103.089130,0.000000,76.609550
4116.294730,-9992.780217,-296.082377,1149.143247
4116.295060,-10140.821405,-296.082377,383.047749
4116.295390,-9918.759623,0.000000,383.047749
4116.295719,-9622.677246,-296.082377,383.047749
4116.296049,-9326.594869,74.020594,766.095498
4116.296379,-9474.636058,0.000000,766.095498
4116.296709,-10658.965565,444.123565,1149.143247
4116.297038,-11325.150913,74.020594,995.924147
4116.297368,-10214.842000,74.020594,76.609550
4116.297698,-9178.553681,-148.041188,-689.485948
4116.298028,-9400.615463,0.000000,-306.438199
4116.298357,-9548.656652,74.020594,689.485948
4116.298687,-9030.512492,296.082377,689.485948
4116.299017,-9474.636058,814.226536,842.705048
4116.299346,-10288.862594,888.247130,229.828649
4116.299676,-10510.924376,592.164754,-383.047749
4116.300006,-9696.697840,148.041188,0.000000
4116.300336,-8364.327145,0.000000,-536.266849
4116.300665,-8660.409521,74.020594,306.438199
4116.300995,-8734.430116,222.061783,459.657299
4116.301325,-9400.615463,518.144159,612.876398
4116.301655,-10288.862594,1184.329507,76.609550
4116.301984,-10881.027347,592.164754,-229.828649
4116.302314,-10510.924376,592.164754,-766.095498
4116.302644,-9622.677246,370.102971,-383.047749
4116.302974,-8586.388927,0.000000,459.657299
4116.303303,-9104.533087,296.082377,536.266849
4116.303633,-9770.718434,444.123565,153.219100
4116.303963,-9844.739029,296.082377,-459.657299
4116.304292,-9696.697840,370.102971,-536.266849
4116.304622,-9844.739029,444.123565,306.438199
4116.304952,-10510.924376,444.123565,306.438199
4116.305282,-9770.718434,148.041188,0.000000
4116.305611,-9030.512492,-370.102971,0.000000
4116.305941,-9326.594869,222.061783,306.438199
4116.306271,-10658.965565,296.082377,689.485948
4116.306601,-9992.780217,222.061783,459.657299
4116.306930,-9104.533087,0.000000,0.000000
4116.307260,-9548.656652,296.082377,306.438199
4116.307590,-10510.924376,444.123565,766.095498
4116.307920,-10658.965565,0.000000,459.657299
4116.308249,-9770.718434,0.000000,0.000000
4116.308579,-9400.615463,0.000000,-306.438199
4116.308909,-9104.533087,148.041188,0.000000
4116.309239,-10140.821405,148.041188,0.000000
4116.309568,-10584.944971,222.061783,306.438199
4116.309898,-9918.759623,-74.020594,0.000000
4116.310228,-9696.697840,370.102971,-612.876398
4116.310557,-9474.636058,-222.061783,0.000000
4116.310887,-9474.636058,0.000000,689.485948
4116.311217,-9326.594869,-222.061783,536.266849
4116.311547,-9770.718434,-148.041188,0.000000
4116.311876,-10436.903782,74.020594,-383.047749
4116.312206,-10362.883188,-370.102971,459.657299
4116.312536,-10214.842000,-666.185348,689.485948
4116.312866,-9400.615463,-1110.308913,1302.362347
4116.313195,-9104.533087,-518.144159,1838.629195
4116.313525,-8734.430116,-1110.308913,536.266849
4116.313855,-9178.553681,-296.082377,-689.485948
4116.314185,-10288.862594,0.000000,0.000000
4116.314514,-10510.924376,74.020594,536.266849
4116.314844,-9918.759623,296.082377,383.047749
4116.315174,-9548.656652,0.000000,383.047749
4116.315504,-9844.739029,518.144159,459.657299
4116.315833,-8956.491898,0.000000,-229.828649
4116.316163,-10066.800811,222.061783,-1378.971896
4116.316493,-10881.027347,666.185348,-1378.971896
4116.316822,-10362.883188,296.082377,-536.266849
4116.317152,-9326.594869,592.164754,-306.438199
4116.317482,-9252.574275,370.102971,-229.828649
4116.317812,-9548.656652,370.102971,0.000000
4116.318141,-9252.574275,148.041188,153.219100
4116.318471,-9696.697840,296.082377,0.000000
4116.318801,-10214.842000,444.123565,459.657299
4116.319131,-9844.739029,222.061783,995.924147
4116.319460,-9844.739029,296.082377,612.876398
4116.319790,-10066.800811,0.000000,306.438199
4116.320120,-10362.883188,444.123565,612.876398
4116.320450,-9622.677246,74.020594,0.000000
4116.320779,-8956.491898,296.082377,-383.047749
4116.321109,-8660.409521,444.123565,0.000000
4116.321439,-9400.615463,666.185348,383.047749
4116.321769,-10584.944971,814.226536,229.828649
4116.322098,-10732.986159,296.082377,0.000000
4116.322428,-10066.800811,666.185348,-153.219100
4116.322758,-9400.615463,-444.123565,0.000000
4116.323087,-9178.553681,0.000000,383.047749
4116.323417,-9178.553681,0.000000,2068.457845
4116.323747,-9844.739029,444.123565,1608.800546
4116.324077,-9548.656652,-222.061783,612.876398
4116.324406,-10362.883188,222.061783,0.000000
4116.324736,-10658.965565,0.000000,612.876398
4116.325066,-9918.759623,-592.164754,306.438199
4116.325396,-9474.636058,-370.102971,0.000000
4116.325725,-9030.512492,-518.144159,383.047749
4116.326055,-9474.636058,-222.061783,229.828649
4116.326385,-9252.574275,-222.061783,229.828649
4116.326715,-9474.636058,-222.061783,612.876398
4116.327044,-10955.047942,0.000000,1149.143247
4116.327374,-10584.944971,-370.102971,536.266849
4116.327704,-10066.800811,0.000000,-306.438199
4116.328033,-9770.718434,-148.041188,0.000000
4116.328363,-10436.903782,74.020594,995.924147
4116.328693,-10510.924376,74.020594,842.705048
4116.329023,-10140.821405,74.020594,459.657299
4116.329352,-10066.800811,0.000000,229.828649
4116.329682,-10214.842000,0.000000,-153.219100
4116.330012,-9474.636058,0.000000,-995.924147
4116.330342,-9992.780217,-148.041188,-842.705048
4116.330671,-9696.697840,-148.041188,229.828649
4116.331001,-9918.759623,0.000000,306.438199
4116.331331,-9844.739029,0.000000,229.828649
4116.331661,-10510.924376,222.061783,383.047749
4116.331990,-10584.944971,222.061783,536.266849
4116.332320,-10658.965565,148.041188,-229.828649
4116.332650,-9474.636058,-666.185348,306.438199
4116.332980,-9622.677246,-370.102971,689.485948
4116.333309,-9252.574275,-148.041188,1378.971896
4116.333639,-9918.759623,-444.123565,842.705048
4116.333969,-10066.800811,-222.061783,1225.752797
4116.334298,-9622.677246,-592.164754,995.924147
4116.334628,-9400.615463,-222.061783,0.000000
4116.334958,-9548.656652,-222.061783,-153.219100
4116.335288,-9770.718434,222.061783,383.047749
4116.335617,-9400.615463,0.000000,76.609550
4116.335947,-9474.636058,74.020594,76.609550
4116.336277,-10436.903782,740.205942,919.314598
4116.336607,-10584.944971,222.061783,536.266849
4116.336936,-9252.574275,222.061783,-612.876398
4116.337266,-8734.430116,296.082377,-612.876398
4116.337596,-9770.718434,444.123565,0.000000
4116.337926,-10214.842000,814.226536,0.000000
4116.338255,-9548.656652,74.020594,229.828649
4116.338585,-9992.780217,222.061783,612.876398
4116.338915,-9622.677246,518.144159,1149.143247
4116.339245,-9844.739029,148.041188,229.828649
4116.339574,-9992.780217,222.061783,-689.485948
4116.339904,-9474.636058,296.082377,-612.876398
4116.340234,-9474.636058,666.185348,0.000000
4116.340563,-9178.553681,518.144159,0.000000
4116.340893,-9918.759623,592.164754,459.657299
4116.341223,-9844.739029,666.185348,842.705048
4116.341553,-10214.842000,444.123565,-76.609550
4116.341882,-10510.924376,592.164754,-306.438199
4116.342212,-10066.800811,0.000000,0.000000
4116.342542,-9252.574275,518.144159,459.657299
4116.342872,-9400.615463,0.000000,383.047749
4116.343201,-10807.006753,962.267725,689.485948
4116.343531,-10362.883188,74.020594,306.438199
4116.343861,-10436.903782,148.041188,-536.266849
4116.344191,-10066.800811,296.082377,0.000000
4116.344520,-9992.780217,0.000000,919.314598
4116.344850,-9992.780217,-222.061783,1149.143247
4116.345180,-10214.842000,0.000000,1072.533697
4116.345509,-10436.903782,0.000000,919.314598
4116.345839,-9844.739029,74.020594,383.047749
4116.346169,-9770.718434,0.000000,-459.657299
4116.346499,-9992.780217,0.000000,-229.828649
4116.346828,-10732.986159,814.226536,306.438199
4116.347158,-9918.759623,74.020594,842.705048
4116.347488,-9474.636058,-222.061783,536.266849
4116.347818,-9400.615463,0.000000,383.047749
4116.348147,-9844.739029,-222.061783,306.438199
4116.348477,-9622.677246,-370.102971,229.828649
4116.348807,-8882.471304,-444.123565,0.000000
4116.349137,-9400.615463,74.020594,0.000000
4116.349466,-9696.697840,74.020594,0.000000
4116.349796,-9918.759623,-74.020594,0.000000
4116.350126,-10066.800811,0.000000,0.000000
4116.350456,-9548.656652,222.061783,229.828649
4116.350785,-9400.615463,-296.082377,-153.219100
4116.351115,-8808.450710,-148.041188,-229.828649
4116.351445,-9474.636058,444.123565,-306.438199
4116.351774,-9770.718434,814.226536,153.219100
4116.352104,-10214.842000,222.061783,-612.876398
4116.352434,-10362.883188,518.144159,-536.266849
4116.352764,-10214.842000,222.061783,-383.047749
4116.353093,-10140.821405,0.000000,0.000000
4116.353423,-9696.697840,-370.102971,-383.047749
4116.353753,-9474.636058,-296.082377,383.047749
4116.354083,-8956.491898,-592.164754,536.266849
4116.354412,-9252.574275,-592.164754,1072.533697
4116.354742,-10288.862594,-222.061783,1455.581446
4116.355072,-10436.903782,74.020594,1762.019645
4116.355402,-10288.862594,-148.041188,1225.752797
4116.355731,-10436.903782,222.061783,612.876398
4116.356061,-10658.965565,148.041188,842.705048
4116.356391,-10066.800811,148.041188,919.314598
4116.356721,-10066.800811,-296.082377,-153.219100
4116.357050,-9992.780217,148.041188,229.828649
4116.357380,-10066.800811,518.144159,689.485948
4116.357710,-9474.636058,0.000000,459.657299
4116.358039,-9622.677246,222.061783,0.000000
4116.358369,-10140.821405,-222.061783,0.000000
4116.358699,-9918.759623,0.000000,306.438199
4116.359029,-9696.697840,-296.082377,76.609550
4116.359358,-9400.615463,0.000000,766.095498
4116.359688,-9548.656652,-222.061783,689.485948
4116.360018,-9548.656652,0.000000,153.219100
4116.360348,-9326.594869,-592.164754,0.000000
4116.360677,-10288.862594,740.205942,0.000000
4116.361007,-10214.842000,-222.061783,229.828649
4116.361337,-9548.656652,-296.082377,153.219100
4116.361667,-7846.182985,-370.102971,1072.533697
4116.361996,-8882.471304,222.061783,995.924147
4116.362326,-9918.759623,148.041188,-153.219100
4116.362656,-10584.944971,148.041188,-1838.629195
4116.362986,-9918.759623,74.020594,-1149.143247
4116.363315,-9918.759623,-370.102971,-919.314598
4116.363645,-9918.759623,0.000000,0.000000
4116.363975,-9474.636058,222.061783,766.095498
4116.364304,-9104.533087,444.123565,766.095498
4116.364634,-9548.656652,296.082377,-229.828649
4116.364964,-10955.047942,518.144159,-612.876398
4116.365294,-11769.274478,740.205942,76.609550
4116.365623,-10881.027347,222.061783,459.657299
4116.365953,-9696.697840,0.000000,306.438199
4116.366283,-9400.615463,74.020594,919.314598
4116.366613,-9474.636058,0.000000,536.266849
4116.366942,-8882.471304,-370.102971,-383.047749
4116.367272,-9252.574275,518.144159,-612.876398
4116.367602,-10288.862594,1110.308913,-229.828649
4116.367932,-10955.047942,962.267725,0.000000
4116.368261,-9400.615463,0.000000,383.047749
4116.368591,-9178.553681,0.000000,229.828649
4116.368921,-9770.718434,74.020594,153.219100
4116.369250,-10510.924376,-296.082377,76.609550
4116.369580,-9770.718434,-148.041188,0.000000
4116.369910,-8956.491898,0.000000,919.314598
4116.370240,-9178.553681,296.082377,1149.143247
4116.370569,-9548.656652,0.000000,766.095498
4116.370899,-9844.739029,0.000000,459.657299
4116.371229,-9400.615463,222.061783,229.828649
4116.371559,-9400.615463,-222.061783,153.219100
4116.371888,-9400.615463,0.000000,0.000000
4116.372218,-9474.636058,222.061783,383.047749
4116.372548,-9770.718434,444.123565,536.266849
4116.372878,-10066.800811,74.020594,536.266849
4116.373207,-10066.800811,222.061783,153.219100
4116.373537,-9770.718434,148.041188,153.219100
4116.373867,-9696.697840,0.000000,153.219100
4116.374197,-9548.656652,-222.061783,612.876398
4116.374526,-9918.759623,-518.144159,1149.143247
4116.374856,-9400.615463,-222.061783,766.095498
4116.375186,-9104.533087,-370.102971,153.219100
4116.375515,-9622.677246,0.000000,153.219100
4116.375845,-10140.821405,148.041188,0.000000
4116.376175,-9844.739029,-444.123565,0.000000
4116.376505,-9696.697840,222.061783,153.219100
4116.376834,-10066.800811,370.102971,-306.438199
4116.377164,-10362.883188,296.082377,459.657299
4116.377494,-9178.553681,0.000000,-459.657299
4116.377824,-9178.553681,222.061783,0.000000
4116.378153,-10658.965565,148.041188,689.485948
4116.378483,-11695.253884,-148.041188,536.266849
4116.378813,-10584.944971,-666.185348,0.000000
4116.379143,-9918.759623,-370.102971,383.047749
4116.379473,-10436.903782,0.000000,919.314598
4116.379802,-9918.759623,-518.144159,536.266849
4116.380132,-9326.594869,-444.123565,766.095498
4116.380462,-9548.656652,0.000000,1225.752797
4116.380792,-10807.006753,148.041188,919.314598
4116.381122,-10807.006753,-222.061783,689.485948
4116.381452,-9548.656652,-888.247130,459.657299
4116.381781,-8808.450710,-296.082377,0.000000
4116.382111,-8734.430116,-888.247130,-306.438199
4116.382441,-9622.677246,-518.144159,612.876398
4116.382771,-9696.697840,-370.102971,1072.533697
4116.383101,-9474.636058,-148.041188,612.876398
4116.383430,-10214.842000,74.020594,383.047749
4116.383760,-9992.780217,592.164754,153.219100
4116.384090,-9770.718434,222.061783,0.000000
4116.384420,-8808.450710,0.000000,-1072.533697
4116.384750,-9548.656652,148.041188,-995.924147
4116.385079,-9844.739029,444.123565,-383.047749
4116.385409,-9548.656652,0.000000,-842.705048
4116.385739,-8808.450710,-296.082377,-995.924147
4116.386069,-9474.636058,148.041188,0.000000
4116.386399,-9844.739029,296.082377,383.047749
4116.386728,-9326.594869,74.020594,-229.828649
4116.387058,-9474.636058,296.082377,76.609550
4116.387388,-9696.697840,666.185348,612.876398
4116.387718,-10288.862594,518.144159,459.657299
4116.388048,-10807.006753,518.144159,-536.266849
4116.388377,-10288.862594,444.123565,-612.876398
4116.388707,-9474.636058,370.102971,-153.219100
4116.389037,-8956.491898,222.061783,383.047749
4116.389367,-9400.615463,518.144159,842.705048
4116.389697,-10881.027347,888.247130,689.485948
4116.390027,-10584.944971,1036.288319,153.219100
4116.390356,-9770.718434,222.061783,-842.705048
4116.390686,-9918.759623,592.164754,-459.657299
4116.391016,-9992.780217,592.164754,766.095498
4116.391346,-9770.718434,74.020594,1149.143247
4116.391676,-9474.636058,-148.041188,995.924147
4116.392005,-9844.739029,444.123565,1378.971896
4116.392335,-10214.842000,222.061783,1149.143247
4116.392665,-10658.965565,148.041188,76.609550
4116.392995,-10140.821405,222.061783,383.047749
4116.393325,-9326.594869,222.061783,689.485948
4116.393654,-9326.594869,222.061783,689.485948
4116.393984,-9696.697840,148.041188,76.609550
4116.394314,-9622.677246,74.020594,766.095498
4116.394644,-9326.594869,-148.041188,306.438199
4116.394974,-9770.718434,-296.082377,0.000000
4116.395303,-10214.842000,296.082377,383.047749
4116.395633,-10436.903782,-222.061783,766.095498
4116.395963,-9030.512492,-74.020594,306.438199
4116.396293,-8956.491898,-518.144159,306.438199
4116.396623,-10510.924376,0.000000,612.876398
4116.396952,-10658.965565,-148.041188,842.705048
4116.397282,-9770.718434,0.000000,153.219100
4116.397612,-8512.368333,0.000000,-612.876398
4116.397942,-9844.739029,296.082377,-689.485948
4116.398272,-10288.862594,370.102971,-689.485948
4116.398602,-9474.636058,0.000000,-689.485948
4116.398931,-9844.739029,370.102971,-229.828649
4116.399261,-9844.739029,0.000000,-536.266849
4116.399591,-10288.862594,0.000000,-229.828649
4116.399921,-10288.862594,-518.144159,459.657299
4116.400251,-9770.718434,0.000000,459.657299
4116.400580,-9992.780217,-148.041188,536.266849
4116.400910,-10140.821405,-74.020594,153.219100
4116.401240,-9992.780217,0.000000,1302.362347
4116.401570,-9474.636058,0.000000,536.266849
4116.401900,-9992.780217,222.061783,0.000000
4116.402229,-10140.821405,0.000000,229.828649
4116.402559,-9696.697840,0.000000,229.828649
4116.402889,-9326.594869,370.102971,0.000000
4116.403219,-9326.594869,0.000000,153.219100
4116.403549,-10807.006753,222.061783,766.095498
4116.403878,-10362.883188,0.000000,842.705048
4116.404208,-10066.800811,74.020594,842.705048
4116.404538,-9252.574275,0.000000,919.314598
4116.404868,-9548.656652,0.000000,766.095498
4116.405198,-9178.553681,-296.082377,0.000000
4116.405528,-8956.491898,148.041188,383.047749
4116.405857,-10066.800811,666.185348,995.924147
4116.406187,-10140.821405,0.000000,1685.410096
4116.406517,-9474.636058,222.061783,383.047749
4116.406847,-8808.450710,0.000000,-229.828649
4116.407177,-9474.636058,296.082377,-383.047749
4116.407506,-10214.842000,74.020594,0.000000
4116.407836,-10066.800811,0.000000,-229.828649
4116.408166,-9400.615463,0.000000,612.876398
4116.408496,-9326.594869,-370.102971,612.876398
4116.408826,-9844.739029,0.000000,536.266849
4116.409155,-9548.656652,296.082377,383.047749
4116.409485,-9400.615463,296.082377,-612.876398
4116.409815,-9178.553681,740.205942,-383.047749
4116.410145,-9696.697840,296.082377,-689.485948
4116.410475,-9918.759623,518.144159,0.000000
4116.410804,-9992.780217,222.061783,536.266849
4116.411134,-10066.800811,222.061783,459.657299
4116.411464,-10510.924376,74.020594,306.438199
4116.411794,-10732.986159,296.082377,0.000000
4116.412124,-9474.636058,-222.061783,-229.828649
4116.412453,-9474.636058,-222.061783,536.266849
4116.412783,-10436.903782,444.123565,1762.019645
4116.413113,-10807.006753,148.041188,1455.581446
4116.413443,-10140.821405,296.082377,0.000000
4116.413773,-9474.636058,0.000000,-1072.533697
4116.414103,-10436.903782,666.185348,0.000000
4116.414432,-10140.821405,0.000000,0.000000
4116.414762,-9696.697840,-296.082377,0.000000
4116.415092,-9548.656652,-592.164754,919.314598
4116.415422,-9548.656652,-222.061783,1225.752797
4116.415752,-10214.842000,-296.082377,459.657299
4116.416081,-9918.759623,-74.020594,0.000000
4116.416411,-9622.677246,148.041188,229.828649
4116.416741,-9622.677246,74.020594,689.485948
4116.417071,-10066.800811,148.041188,1072.533697
4116.417401,-10584.944971,296.082377,842.705048
4116.417730,-9696.697840,-296.082377,153.219100
4116.418060,-9622.677246,-296.082377,-76.609550
4116.418390,-9548.656652,370.102971,-459.657299
4116.418720,-9622.677246,-222.061783,-153.219100
4116.419050,-9104.533087,74.020594,0.000000
4116.419379,-8956.491898,0.000000,689.485948
4116.419709,-9696.697840,222.061783,1455.581446
4116.420039,-10214.842000,296.082377,153.219100
4116.420369,-10214.842000,148.041188,-612.876398
4116.420699,-10066.800811,222.061783,-995.924147
4116.421028,-9770.718434,370.102971,-612.876398
4116.421358,-9252.574275,0.000000,-76.609550
4116.421688,-9104.533087,0.000000,76.609550
4116.422018,-9400.615463,0.000000,766.095498
4116.422348,-9622.677246,148.041188,536.266849
4116.422678,-10066.800811,0.000000,-459.657299
4116.423007,-9548.656652,0.000000,-459.657299
4116.423337,-9918.759623,74.020594,229.828649
4116.423667,-9622.677246,-74.020594,766.095498
4116.423997,-9474.636058,0.000000,1225.752797
4116.424327,-9622.677246,74.020594,153.219100
4116.424656,-10066.800811,0.000000,0.000000
4116.424986,-9696.697840,0.000000,-306.438199
4116.425316,-9548.656652,0.000000,459.657299
4116.425646,-10362.883188,296.082377,842.705048
4116.425976,-10288.862594,296.082377,689.485948
4116.426305,-9770.718434,-666.185348,0.000000
4116.426635,-9252.574275,-444.123565,-76.609550
4116.426965,-9178.553681,-74.020594,0.000000
4116.427295,-10140.821405,148.041188,229.828649
4116.427625,-10066.800811,-296.082377,612.876398
4116.427954,-10066.800811,444.123565,459.657299
4116.428284,-9474.636058,74.020594,-153.219100
4116.428614,-10584.944971,370.102971,153.219100
4116.428944,-11029.068536,0.000000,1072.533697
4116.429274,-10140.821405,-296.082377,612.876398
4116.429603,-9474.636058,-518.144159,306.438199
4116.429933,-9770.718434,-370.102971,-229.828649
4116.430263,-10066.800811,-74.020594,229.828649
4116.430593,-9400.615463,-222.061783,153.219100
4116.430923,-8660.409521,0.000000,-306.438199
4116.431253,-9400.615463,444.123565,306.438199
4116.431582,-10510.924376,518.144159,536.266849
4116.431912,-10955.047942,148.041188,153.219100
4116.432242,-10288.862594,0.000000,0.000000
4116.432572,-9770.718434,-444.123565,383.047749
4116.432902,-9474.636058,-444.123565,383.047749
4116.433231,-9178.553681,-370.102971,306.438199
4116.433561,-9178.553681,0.000000,995.924147
4116.433891,-9696.697840,74.020594,1302.362347
4116.434221,-9992.780217,296.082377,459.657299
4116.434551,-9992.780217,222.061783,-383.047749
4116.434880,-9400.615463,444.123565,0.000000
4116.435210,-9844.739029,222.061783,0.000000
4116.435540,-9696.697840,222.061783,-842.705048
4116.435870,-9992.780217,444.123565,-76.609550
4116.436200,-9104.533087,-148.041188,-153.219100
4116.436529,-9770.718434,148.041188,689.485948
4116.436859,-10066.800811,370.102971,459.657299
4116.437189,-10140.821405,0.000000,383.047749
4116.437519,-9252.574275,444.123565,383.047749
4116.437849,-9474.636058,0.000000,689.485948
4116.438179,-10732.986159,-222.061783,459.657299
4116.438508,-10288.862594,0.000000,459.657299
4116.438838,-9178.553681,0.000000,76.609550
4116.439168,-8512.368333,222.061783,-229.828649
4116.439498,-9326.594869,518.144159,459.657299
4116.439828,-10584.944971,592.164754,459.657299
4116.440157,-9844.739029,370.102971,-536.266849
4116.440487,-9992.780217,518.144159,-229.828649
4116.440817,-10362.883188,148.041188,153.219100
4116.441147,-10436.903782,148.041188,842.705048
4116.441477,-9252.574275,-444.123565,536.266849
4116.441806,-8586.388927,74.020594,153.219100
4116.442136,-9696.697840,296.082377,612.876398
4116.442466,-9918.759623,148.041188,383.047749
4116.442796,-9918.759623,148.041188,536.266849
4116.443126,-9696.697840,296.082377,842.705048
4116.443455,-9696.697840,296.082377,995.924147
4116.443785,-9474.636058,370.102971,459.657299
4116.444115,-9622.677246,-74.020594,-306.438199
4116.444445,-9030.512492,74.020594,-612.876398
4116.444775,-9622.677246,-296.082377,-383.047749
4116.445104,-10362.883188,222.061783,766.095498
4116.445434,-10362.883188,222.061783,689.485948
4116.445764,-9918.759623,-222.061783,459.657299
4116.446094,-9326.594869,74.020594,229.828649
4116.446424,-10436.903782,592.164754,459.657299
4116.446754,-11473.192101,518.144159,0.000000
4116.447083,-9992.780217,-222.061783,-842.705048
4116.447413,-9178.553681,370.102971,76.609550
4116.447743,-9844.739029,222.061783,153.219100
4116.448073,-10510.924376,0.000000,383.047749
4116.448403,-9770.718434,-222.061783,-919.314598
4116.448732,-8808.450710,-296.082377,-536.266849
4116.449062,-9252.574275,-740.205942,383.047749
4116.449392,-10140.821405,-814.226536,919.314598
4116.449722,-9992.780217,-1110.308913,1302.362347
4116.450052,-9548.656652,-296.082377,1532.190996
4116.450381,-9548.656652,-296.082377,919.314598
4116.450711,-9992.780217,0.000000,229.828649
4116.451041,-10288.862594,0.000000,383.047749
4116.451371,-10140.821405,0.000000,1378.971896
4116.451701,-9622.677246,-296.082377,1149.143247
4116.452030,-9918.759623,-222.061783,229.828649
4116.452360,-9918.759623,0.000000,-536.266849
4116.452690,-9104.533087,-222.061783,-1149.143247
4116.453020,-9030.512492,-222.061783,-1378.971896
4116.453350,-9548.656652,0.000000,0.000000
4116.453679,-9992.780217,0.000000,1378.971896
4116.454009,-9104.533087,-222.061783,459.657299
4116.454339,-9474.636058,0.000000,766.095498
4116.454669,-10436.903782,222.061783,153.219100
4116.454999,-10436.903782,222.061783,-229.828649
4116.455329,-9622.677246,222.061783,-229.828649
4116.455658,-9400.615463,74.020594,76.609550
4116.455988,-9918.759623,148.041188,919.314598
4116.456318,-9918.759623,-296.082377,536.266849
4116.456648,-10066.800811,-148.041188,842.705048
4116.456978,-9622.677246,0.000000,0.000000
4116.457307,-9252.574275,0.000000,-306.438199
4116.457637,-9474.636058,0.000000,-229.828649
4116.457967,-9474.636058,592.164754,1072.533697
4116.458297,-10140.821405,444.123565,766.095498
4116.458627,-10362.883188,518.144159,842.705048
4116.458956,-11029.068536,148.041188,153.219100
4116.459286,-11029.068536,518.144159,229.828649
4116.459616,-9770.718434,0.000000,0.000000
4116.459946,-9178.553681,-444.123565,766.095498
4116.460276,-9474.636058,-148.041188,1149.143247
4116.460605,-9918.759623,148.041188,1532.190996
4116.460935,-9474.636058,296.082377,0.000000
4116.461265,-9400.615463,148.041188,0.000000
4116.461595,-10140.821405,444.123565,766.095498
4116.461925,-10881.027347,592.164754,536.266849
4116.462254,-9844.739029,0.000000,76.609550
4116.462584,-9474.636058,0.000000,0.000000
4116.462914,-9400.615463,-518.144159,153.219100
4116.463244,-9104.533087,0.000000,-612.876398
4116.463574,-9030.512492,222.061783,-1225.752797
4116.463904,-8364.327145,444.123565,-919.314598
4116.464233,-9178.553681,0.000000,-306.438199
4116.464563,-9992.780217,-296.082377,153.219100
4116.464893,-10362.883188,-296.082377,842.705048
4116.465223,-10214.842000,-444.123565,1072.533697
4116.465553,-9252.574275,-444.123565,995.924147
4116.465882,-9844.739029,-296.082377,689.485948
4116.466212,-10510.924376,296.082377,689.485948
4116.466542,-9400.615463,-444.123565,0.000000
4116.466872,-9400.615463,666.185348,-689.485948
4116.467202,-9548.656652,592.164754,-689.485948
4116.467531,-10288.862594,444.123565,-766.095498
4116.467861,-9548.656652,296.082377,-612.876398
4116.468191,-9474.636058,222.061783,-842.705048
4116.468521,-10066.800811,296.082377,-689.485948
4116.468851,-9696.697840,-444.123565,-612.876398
4116.469180,-9474.636058,-296.082377,0.000000
4116.469510,-9474.636058,296.082377,995.924147
4116.469840,-11103.089130,814.226536,1149.143247
4116.470170,-10436.903782,0.000000,919.314598
4116.470500,-9178.553681,74.020594,76.609550
4116.470830,-9400.615463,148.041188,1149.143247
4116.471159,-10584.944971,444.123565,612.876398
4116.471489,-10214.842000,0.000000,-229.828649
4116.471819,-9030.512492,74.020594,0.000000
4116.472149,-8882.471304,-148.041188,0.000000
4116.472479,-10214.842000,0.000000,229.828649
4116.472808,-9844.739029,0.000000,842.705048
4116.473138,-8734.430116,148.041188,229.828649
4116.473468,-8142.265362,222.061783,-153.219100
4116.473798,-10066.800811,814.226536,0.000000
4116.474128,-10584.944971,222.061783,76.609550
4116.474457,-10510.924376,518.144159,76.609550
4116.474787,-9326.594869,370.102971,536.266849
4116.475117,-9844.739029,-74.020594,919.314598
4116.475447,-10807.006753,148.041188,1149.143247
4116.475777,-9326.594869,-740.205942,612.876398
4116.476106,-8956.491898,-148.041188,306.438199
4116.476436,-8808.450710,444.123565,76.609550
4116.476766,-10288.862594,296.082377,383.047749
4116.477096,-9696.697840,222.061783,306.438199
4116.477426,-9548.656652,74.020594,229.828649
4116.477755,-10807.006753,444.123565,-536.266849
4116.478085,-10510.924376,-592.164754,-306.438199
4116.478415,-9992.780217,0.000000,-536.266849
4116.478745,-8734.430116,-444.123565,306.438199
4116.479075,-9770.718434,0.000000,689.485948
4116.479405,-9918.759623,0.000000,689.485948
4116.479734,-9696.697840,0.000000,612.876398
4116.480064,-9918.759623,148.041188,459.657299
4116.480394,-9992.780217,0.000000,0.000000
4116.480724,-10732.986159,444.123565,-459.657299
4116.481054,-9992.780217,-74.020594,-612.876398
4116.481383,-9252.574275,0.000000,0.000000
4116.481713,-8882.471304,-296.082377,0.000000
4116.482043,-9992.780217,148.041188,76.609550
4116.482373,-10510.924376,0.000000,383.047749
4116.482703,-9992.780217,-370.102971,-536.266849
4116.483033,-9548.656652,-444.123565,-153.219100
4116.483362,-9696.697840,-148.041188,689.485948
4116.483692,-9844.739029,-444.123565,1608.800546
4116.484022,-8882.471304,-296.082377,1225.752797
4116.484352,-9474.636058,74.020594,842.705048
4116.484682,-10214.842000,74.020594,306.438199
4116.485012,-10510.924376,0.000000,229.828649
4116.485341,-10140.821405,0.000000,-612.876398
4116.485671,-9548.656652,-222.061783,-306.438199
4116.486001,-9770.718434,0.000000,536.266849
4116.486331,-8586.388927,-296.082377,459.657299
4116.486661,-8808.450710,-518.144159,0.000000
4116.486991,-9770.718434,0.000000,459.657299
4116.487320,-9918.759623,-296.082377,919.314598
4116.487650,-9474.636058,-74.020594,536.266849
4116.487980,-9104.533087,222.061783,766.095498
4116.488310,-10066.800811,222.061783,919.314598
4116.488640,-10584.944971,370.102971,536.266849
4116.488970,-10362.883188,518.144159,-153.219100
4116.489299,-9770.718434,1036.288319,-306.438199
4116.489629,-9474.636058,444.123565,0.000000
4116.489959,-9548.656652,222.061783,0.000000
4116.490289,-9844.739029,148.041188,153.219100
4116.490619,-9844.739029,888.247130,0.000000
4116.490948,-9844.739029,148.041188,-459.657299
4116.491278,-9474.636058,222.061783,-306.438199
4116.491608,-9548.656652,592.164754,306.438199
4116.491938,-10362.883188,1036.288319,383.047749
4116.492268,-10362.883188,740.205942,0.000000
4116.492598,-9992.780217,74.020594,-536.266849
4116.492927,-9844.739029,0.000000,76.609550
4116.493257,-9178.553681,0.000000,-76.609550
4116.493587,-9548.656652,0.000000,766.095498
4116.493917,-9992.780217,666.185348,306.438199
4116.494247,-9104.533087,222.061783,76.609550
4116.494577,-9178.553681,444.123565,-306.438199
4116.494906,-9474.636058,74.020594,229.828649
4116.495236,-10510.924376,296.082377,612.876398
4116.495566,-10362.883188,592.164754,459.657299
4116.495896,-9548.656652,0.000000,689.485948
4116.496226,-10214.842000,148.041188,1225.752797
4116.496556,-10362.883188,0.000000,919.314598
4116.496885,-10214.842000,222.061783,0.000000
4116.497215,-9474.636058,74.020594,-766.095498
4116.497545,-8808.450710,518.144159,76.609550
4116.497875,-9622.677246,296.082377,919.314598
4116.498205,-10066.800811,296.082377,689.485948
4116.498535,-9844.739029,74.020594,229.828649
4116.498864,-9474.636058,-222.061783,-842.705048
4116.499194,-9474.636058,296.082377,-612.876398
4116.499524,-10140.821405,-296.082377,229.828649
4116.499854,-9474.636058,0.000000,689.485948
4116.500184,-8882.471304,0.000000,919.314598
4116.500514,-9474.636058,0.000000,842.705048
4116.500843,-10510.924376,74.020594,766.095498
4116.501173,-10807.006753,0.000000,306.438199
4116.501503,-9844.739029,-444.123565,0.000000
4116.501833,-9622.677246,-518.144159,153.219100
4116.502163,-9622.677246,-444.123565,766.095498
4116.502492,-9326.594869,-296.082377,383.047749
4116.502822,-9252.574275,0.000000,-306.438199
4116.503152,-9474.636058,296.082377,-76.609550
4116.503482,-9992.780217,222.061783,0.000000
4116.503812,-10436.903782,444.123565,-229.828649
4116.504142,-10140.821405,148.041188,-153.219100
4116.504471,-10214.842000,74.020594,153.219100
4116.504801,-9548.656652,-518.144159,153.219100
4116.505131,-9548.656652,-888.247130,306.438199
4116.505461,-9622.677246,-518.144159,383.047749
4116.505791,-10140.821405,-148.041188,995.924147
4116.506121,-10362.883188,74.020594,842.705048
4116.506450,-9400.615463,-370.102971,766.095498
4116.506780,-9326.594869,0.000000,689.485948
4116.507110,-10140.821405,-74.020594,766.095498
4116.507440,-10362.883188,-592.164754,995.924147
4116.507770,-10140.821405,-370.102971,842.705048
4116.508100,-9622.677246,-518.144159,689.485948
4116.508429,-9622.677246,0.000000,153.219100
4116.508759,-9770.718434,-518.144159,229.828649
4116.509089,-9844.739029,222.061783,766.095498
4116.509419,-9474.636058,0.000000,536.266849
4116.509749,-9178.553681,-222.061783,0.000000
4116.510079,-9696.697840,0.000000,536.266849
4116.510408,-9918.759623,296.082377,229.828649
4116.510738,-9770.718434,148.041188,306.438199
4116.511068,-9918.759623,74.020594,-76.609550
4116.511398,-9696.697840,0.000000,229.828649
4116.511728,-9252.574275,-222.061783,383.047749
4116.512058,-9252.574275,-222.061783,383.047749
4116.512387,-9770.718434,370.102971,536.266849
4116.512717,-10140.821405,0.000000,383.047749
4116.513047,-9696.697840,222.061783,-612.876398
4116.513377,-9622.677246,148.041188,-153.219100
4116.513707,-10362.883188,592.164754,306.438199
4116.514036,-9400.615463,444.123565,229.828649
4116.514366,-9474.636058,-74.020594,76.609550
4116.514696,-10362.883188,666.185348,459.657299
4116.515026,-10584.944971,-74.020594,689.485948
4116.515356,-10584.944971,0.000000,-153.219100
4116.515686,-8956.491898,-74.020594,-459.657299
4116.516015,-8956.491898,0.000000,612.876398
4116.516345,-9918.759623,370.102971,153.219100
4116.516675,-9992.780217,592.164754,0.000000
4116.517005,-10807.006753,814.226536,689.485948
4116.517335,-10288.862594,518.144159,153.219100
4116.517665,-10066.800811,0.000000,-153.219100
4116.517994,-9400.615463,0.000000,995.924147
4116.518324,-9918.759623,148.041188,1225.752797
4116.518654,-10436.903782,148.041188,229.828649
4116.518984,-9770.718434,-370.102971,-536.266849
4116.519314,-9400.615463,74.020594,0.000000
4116.519644,-9326.594869,148.041188,306.438199
4116.519973,-9918.759623,962.267725,536.266849
4116.520303,-10288.862594,296.082377,229.828649
4116.520633,-9918.759623,296.082377,-383.047749
4116.520963,-9622.677246,74.020594,-612.876398
4116.521293,-9918.759623,370.102971,-536.266849
4116.521623,-9992.780217,74.020594,919.314598
4116.521952,-9622.677246,74.020594,1455.581446
4116.522282,-8734.430116,0.000000,306.438199
4116.522612,-9030.512492,74.020594,-383.047749
4116.522942,-9844.739029,148.041188,-76.609550
4116.523272,-10288.862594,370.102971,306.438199
4116.523602,-9622.677246,0.000000,0.000000
4116.523931,-9696.697840,444.123565,689.485948
4116.524261,-9696.697840,222.061783,306.438199
4116.524591,-10732.986159,518.144159,0.000000
4116.524921,-9326.594869,-74.020594,-689.485948
4116.525251,-9696.697840,222.061783,76.609550
4116.525580,-10066.800811,592.164754,536.266849
4116.525910,-9400.615463,518.144159,766.095498
4116.526240,-10140.821405,666.185348,229.828649
4116.526570,-9770.718434,370.102971,-536.266849
4116.526900,-9992.780217,0.000000,-995.924147
4116.527230,-10732.986159,0.000000,0.000000
4116.527559,-10436.903782,444.123565,306.438199
4116.527889,-9178.553681,74.020594,995.924147
4116.528219,-9400.615463,0.000000,689.485948
4116.528549,-10214.842000,148.041188,1072.533697
4116.528879,-10658.965565,148.041188,689.485948
4116.529209,-10140.821405,-740.205942,612.876398
4116.529538,-9622.677246,0.000000,0.000000
4116.529868,-9770.718434,222.061783,612.876398
4116.530198,-10066.800811,222.061783,689.485948
4116.530528,-9548.656652,0.000000,0.000000
4116.530858,-9474.636058,-296.082377,0.000000
4116.531188,-9992.780217,-370.102971,306.438199
4116.531517,-10214.842000,-666.185348,0.000000
4116.531847,-9252.574275,-444.123565,306.438199
4116.532177,-9178.553681,-814.226536,766.095498
4116.532507,-9770.718434,-444.123565,1378.971896
4116.532837,-9992.780217,-666.185348,612.876398
4116.533167,-9770.718434,-74.020594,612.876398
4116.533496,-9918.759623,222.061783,1072.533697
4116.533826,-10214.842000,148.041188,153.219100
4116.534156,-9992.780217,148.041188,76.609550
4116.534486,-10436.903782,148.041188,-612.876398
4116.534816,-9104.533087,-1110.308913,-612.876398
4116.535146,-9252.574275,-888.247130,-459.657299
4116.535475,-9548.656652,-962.267725,306.438199
4116.535805,-9178.553681,0.000000,-536.266849
4116.536135,-8364.327145,0.000000,0.000000
4116.536465,-9474.636058,74.020594,76.609550
4116.536795,-10510.924376,444.123565,383.047749
4116.537124,-10436.903782,444.123565,536.266849
4116.537454,-10658.965565,148.041188,153.219100
4116.537784,-11029.068536,74.020594,919.314598
4116.538114,-10214.842000,370.102971,1072.533697
4116.538444,-9992.780217,-74.020594,153.219100
4116.538774,-9474.636058,0.000000,0.000000
4116.539103,-9474.636058,222.061783,612.876398
4116.539433,-9548.656652,518.144159,0.000000
4116.539763,-9696.697840,0.000000,-306.438199
4116.540093,-9622.677246,222.061783,459.657299
4116.540423,-10214.842000,1036.288319,1072.533697
4116.540753,-10288.862594,74.020594,459.657299
4116.541082,-9918.759623,222.061783,229.828649
4116.541412,-9474.636058,0.000000,0.000000
4116.541742,-9622.677246,0.000000,-229.828649
4116.542072,-9844.739029,-148.041188,383.047749
4116.542402,-9326.594869,-666.185348,459.657299
4116.542732,-9400.615463,0.000000,1149.143247
4116.543061,-8808.450710,-666.185348,766.095498
4116.543391,-9474.636058,74.020594,1378.971896
4116.543721,-10362.883188,0.000000,536.266849
4116.544051,-10066.800811,148.041188,0.000000
4116.544381,-9400.615463,-444.123565,-536.266849
4116.544711,-9474.636058,592.164754,0.000000
4116.545040,-9918.759623,74.020594,0.000000
4116.545370,-9918.759623,222.061783,-306.438199
4116.545700,-9622.677246,222.061783,-383.047749
4116.546030,-9770.718434,518.144159,-229.828649
4116.546360,-9400.615463,444.123565,383.047749
4116.546690,-10214.842000,518.144159,306.438199
4116.547019,-10140.821405,74.020594,0.000000
4116.547349,-9770.718434,518.144159,-229.828649
4116.547679,-9474.636058,0.000000,0.000000
4116.548009,-9030.512492,370.102971,0.000000
4116.548339,-10066.800811,740.205942,76.609550
4116.548668,-10807.006753,1258.350101,842.705048
4116.548998,-10881.027347,518.144159,0.000000
4116.549328,-10584.944971,592.164754,153.219100
4116.549658,-9992.780217,518.144159,76.609550
4116.549988,-9030.512492,-296.082377,383.047749
4116.550318,-8956.491898,148.041188,-153.219100
4116.550647,-9400.615463,518.144159,306.438199
4116.550977,-10436.903782,740.205942,0.000000
4116.551307,-10214.842000,666.185348,0.000000
4116.551637,-10288.862594,370.102971,229.828649
4116.551967,-10436.903782,518.144159,1149.143247
4116.552297,-9770.718434,148.041188,1072.533697
4116.552626,-9474.636058,-74.020594,459.657299
4116.552956,-9548.656652,-296.082377,536.266849
4116.553286,-9992.780217,-666.185348,842.705048
4116.553616,-9622.677246,0.000000,0.000000
4116.553946,-9474.636058,0.000000,536.266849
4116.554276,-9844.739029,-518.144159,842.705048
4116.554605,-9252.574275,-518.144159,842.705048
4116.554935,-8956.491898,-592.164754,459.657299
4116.555265,-9400.615463,-296.082377,229.828649
4116.555595,-9474.636058,-370.102971,536.266849
4116.555925,-10066.800811,-148.041188,306.438199
4116.556255,-9474.636058,-592.164754,459.657299
4116.556584,-10288.862594,148.041188,842.705048
4116.556914,-10658.965565,-666.185348,612.876398
4116.557244,-9918.759623,-592.164754,229.828649
4116.557574,-9178.553681,-1110.308913,229.828649
4116.557904,-9104.533087,-518.144159,536.266849
4116.558234,-9400.615463,-518.144159,612.876398
4116.558563,-10658.965565,0.000000,0.000000
4116.558893,-10807.006753,222.061783,229.828649
4116.559223,-10066.800811,-518.144159,0.000000
4116.559553,-9844.739029,-222.061783,-1072.533697
4116.559883,-9400.615463,-740.205942,-536.266849
4116.560212,-9252.574275,-296.082377,76.609550
4116.560542,-9104.533087,0.000000,383.047749
4116.560872,-9844.739029,222.061783,612.876398
4116.561202,-11251.130318,518.144159,842.705048
4116.561532,-10955.047942,-444.123565,0.000000
4116.561862,-9992.780217,-592.164754,0.000000
4116.562191,-9252.574275,-814.226536,76.609550
4116.562521,-9696.697840,-444.123565,612.876398
4116.562851,-9104.533087,-592.164754,536.266849
4116.563181,-9030.512492,-592.164754,153.219100
4116.563511,-9992.780217,148.041188,229.828649
4116.563841,-10362.883188,222.061783,383.047749
4116.564170,-9992.780217,0.000000,153.219100
4116.564500,-9474.636058,370.102971,306.438199
4116.564830,-10214.842000,592.164754,229.828649
4116.565160,-9844.739029,-222.061783,-306.438199
4116.565490,-9918.759623,-74.020594,-689.485948
4116.565820,-9918.759623,296.082377,0.000000
4116.566149,-9178.553681,-296.082377,76.609550
4116.566479,-9474.636058,0.000000,459.657299
4116.566809,-9104.533087,74.020594,306.438199
4116.567139,-9474.636058,222.061783,536.266849
4116.567469,-9770.718434,444.123565,459.657299
4116.567799,-10362.883188,148.041188,0.000000
4116.568128,-10288.862594,740.205942,459.657299
4116.568458,-9474.636058,74.020594,842.705048
4116.568788,-9252.574275,666.185348,0.000000
4116.569118,-9622.677246,370.102971,-153.219100
4116.569448,-10288.862594,740.205942,-459.657299
4116.569778,-9030.512492,148.041188,-1532.190996
4116.570107,-8364.327145,518.144159,-1225.752797
4116.570437,-9474.636058,1036.288319,766.095498
4116.570767,-10732.986159,1184.329507,919.314598
4116.571097,-10214.842000,1110.308913,0.000000
4116.571427,-9918.759623,888.247130,-919.314598
4116.571756,-9918.759623,518.144159,-995.924147
4116.572086,-10436.903782,592.164754,76.609550
4116.572416,-10140.821405,740.205942,0.000000
4116.572746,-9770.718434,666.185348,536.266849
4116.573076,-9474.636058,1036.288319,-306.438199
4116.573406,-9696.697840,592.164754,-995.924147
4116.573735,-10362.883188,592.164754,-383.047749
4116.574065,-9474.636058,518.144159,383.047749
4116.574395,-9474.636058,370.102971,995.924147
4116.574725,-10732.986159,296.082377,1149.143247
4116.575055,-10436.903782,296.082377,1072.533697
4116.575385,-9622.677246,-370.102971,229.828649
4116.575714,-9326.594869,0.000000,-383.047749
4116.576044,-9474.636058,370.102971,0.000000
4116.576374,-10066.800811,222.061783,1072.533697
4116.576704,-9474.636058,0.000000,919.314598
4116.577034,-9474.636058,74.020594,383.047749
4116.577364,-9770.718434,518.144159,459.657299
4116.577693,-10214.842000,0.000000,0.000000
4116.578023,-10436.903782,0.000000,-306.438199
4116.578353,-9474.636058,-444.123565,229.828649
4116.578683,-9474.636058,-148.041188,612.876398
4116.579013,-9252.574275,-74.020594,1072.533697
4116.579343,-9400.615463,0.000000,689.485948
4116.579672,-10214.842000,148.041188,1072.533697
4116.580002,-10510.924376,0.000000,842.705048
4116.580332,-10510.924376,0.000000,0.000000
4116.580662,-9992.780217,-592.164754,0.000000
4116.580992,-9326.594869,-740.205942,0.000000
4116.581321,-8734.430116,-592.164754,612.876398
4116.581651,-8956.491898,-592.164754,153.219100
4116.581981,-9992.780217,-148.041188,612.876398
4116.582311,-10214.842000,-740.205942,229.828649
4116.582641,-9622.677246,-592.164754,0.000000
4116.582971,-9696.697840,0.000000,612.876398
4116.583300,-10214.842000,-148.041188,919.314598
4116.583630,-9770.718434,-370.102971,-306.438199
4116.583960,-9474.636058,-666.185348,-306.438199
4116.584290,-9548.656652,-370.102971,76.609550
4116.584620,-10510.924376,0.000000,0.000000
4116.584949,-10140.821405,-740.205942,766.095498
4116.585279,-9548.656652,-444.123565,919.314598
4116.585609,-10362.883188,-222.061783,612.876398
4116.585939,-10288.862594,-1036.288319,1072.533697
4116.586269,-9548.656652,-1184.329507,383.047749
4116.586599,-9400.615463,-518.144159,995.924147
4116.586928,-9474.636058,-148.041188,1149.143247
4116.587258,-9844.739029,0.000000,842.705048
4116.587588,-9992.780217,-370.102971,153.219100
4116.587918,-10066.800811,74.020594,229.828649
4116.588248,-10140.821405,222.061783,0.000000
4116.588577,-10140.821405,-222.061783,-459.657299
4116.588907,-9770.718434,0.000000,536.266849
4116.589237,-9474.636058,0.000000,1378.971896
4116.589567,-9548.656652,-740.205942,612.876398
4116.589897,-9844.739029,-444.123565,76.609550
4116.590227,-9104.533087,-74.020594,612.876398
4116.590556,-9400.615463,-148.041188,306.438199
4116.590886,-9622.677246,222.061783,76.609550
4116.591216,-10214.842000,296.082377,1072.533697
4116.591546,-9770.718434,370.102971,153.219100
4116.591876,-9178.553681,222.061783,-459.657299
4116.592205,-9474.636058,74.020594,-689.485948
4116.592535,-10140.821405,222.061783,-306.438199
4116.592865,-9474.636058,-148.041188,-459.657299
4116.593195,-8808.450710,0.000000,-383.047749
4116.593525,-9400.615463,222.061783,766.095498
4116.593855,-10214.842000,592.164754,383.047749
4116.594184,-10066.800811,148.041188,-459.657299
4116.594514,-8956.491898,666.185348,-919.314598
4116.594844,-9696.697840,888.247130,0.000000
4116.595174,-10807.006753,1258.350101,383.047749
4116.595504,-11029.068536,1036.288319,229.828649
4116.595833,-9548.656652,814.226536,-306.438199
4116.596163,-9548.656652,148.041188,-306.438199
4116.596493,-10288.862594,592.164754,-306.438199
4116.596823,-9844.739029,0.000000,-383.047749
4116.597153,-9400.615463,444.123565,-153.219100
4116.597483,-8586.388927,444.123565,-383.047749
4116.597812,-9696.697840,814.226536,459.657299
4116.598142,-10732.986159,888.247130,536.266849
4116.598472,-10288.862594,814.226536,153.219100
4116.598802,-9548.656652,592.164754,-229.828649
4116.599132,-10214.842000,592.164754,229.828649
4116.599462,-10140.821405,222.061783,306.438199
4116.599791,-9622.677246,148.041188,842.705048
4116.600121,-9030.512492,518.144159,612.876398
4116.600451,-9326.594869,0.000000,1225.752797
4116.600781,-10362.883188,296.082377,919.314598
4116.601111,-9992.780217,-222.061783,153.219100
4116.601440,-9252.574275,-518.144159,-383.047749
4116.601770,-9252.574275,222.061783,689.485948
4116.602100,-10066.800811,740.205942,995.924147
4116.602430,-10214.842000,74.020594,153.219100
4116.602760,-9622.677246,0.000000,-229.828649
4116.603090,-9400.615463,74.020594,-153.219100
4116.603419,-9696.697840,-74.020594,0.000000
4116.603749,-10066.800811,-296.082377,-306.438199
4116.604079,-9178.553681,-518.144159,0.000000
4116.604409,-8660.409521,0.000000,-153.219100
4116.604739,-9474.636058,-148.041188,842.705048
4116.605068,-10362.883188,74.020594,842.705048
4116.605398,-10881.027347,222.061783,306.438199
4116.605728,-10140.821405,0.000000,-766.095498
4116.606058,-10066.800811,0.000000,0.000000
4116.606388,-9918.759623,74.020594,-306.438199
4116.606718,-10066.800811,-518.144159,-459.657299
4116.607047,-9030.512492,-296.082377,-383.047749
4116.607377,-8882.471304,74.020594,306.438199
4116.607707,-10214.842000,444.123565,995.924147
4116.608037,-11103.089130,0.000000,995.924147
4116.608367,-11029.068536,148.041188,0.000000
4116.608696,-9844.739029,0.000000,-153.219100
4116.609026,-10214.842000,-222.061783,-153.219100
4116.609356,-9548.656652,-518.144159,229.828649
4116.609686,-8956.491898,-814.226536,919.314598
4116.610016,-8438.347739,-444.123565,612.876398
4116.610346,-8882.471304,-296.082377,995.924147
4116.610675,-9622.677246,222.061783,536.266849
4116.611005,-10955.047942,518.144159,306.438199
4116.611335,-11325.150913,296.082377,536.266849
4116.611665,-11177.109724,-592.164754,-536.266849
4116.611995,-10066.800811,-592.164754,-153.219100
4116.612324,-8956.491898,-518.144159,612.876398
4116.612654,-8438.347739,-666.185348,536.266849
4116.612984,-9104.533087,-518.144159,842.705048
4116.613314,-9548.656652,222.061783,689.485948
4116.613644,-10658.965565,518.144159,0.000000
4116.613974,-9474.636058,0.000000,-689.485948
4116.614303,-9326.594869,222.061783,0.000000
4116.614633,-9992.780217,222.061783,995.924147
4116.614963,-10140.821405,0.000000,612.876398
4116.615293,-9474.636058,0.000000,-229.828649
4116.615623,-8882.471304,-222.061783,0.000000
4116.615952,-9548.656652,296.082377,-459.657299
4116.616282,-9548.656652,296.082377,306.438199
4116.616612,-9844.739029,518.144159,919.314598
4116.616942,-9844.739029,814.226536,612.876398
4116.617272,-9992.780217,740.205942,-229.828649
4116.617602,-10140.821405,370.102971,-1072.533697
4116.617931,-10214.842000,740.205942,-689.485948
4116.618261,-9992.780217,518.144159,-766.095498
4116.618591,-9844.739029,666.185348,459.657299
4116.618921,-9696.697840,666.185348,842.705048
4116.619251,-9918.759623,296.082377,689.485948
4116.619580,-9696.697840,370.102971,459.657299
4116.619910,-10214.842000,370.102971,459.657299
4116.620240,-10436.903782,74.020594,536.266849
4116.620570,-9696.697840,0.000000,766.095498
4116.620900,-8364.327145,74.020594,1762.019645
4116.621230,-9252.574275,444.123565,1455.581446
4116.621559,-10140.821405,814.226536,229.828649
4116.621889,-10436.903782,0.000000,-383.047749
4116.622219,-9992.780217,74.020594,-1072.533697
4116.622549,-9548.656652,222.061783,0.000000
4116.622879,-9918.759623,222.061783,689.485948
4116.623208,-9474.636058,-296.082377,229.828649
4116.623538,-8438.347739,0.000000,0.000000
4116.623868,-9326.594869,370.102971,612.876398
4116.624198,-10955.047942,518.144159,0.000000
4116.624528,-11325.150913,0.000000,153.219100
4116.624858,-9104.533087,0.000000,0.000000
4116.625187,-8808.450710,296.082377,-383.047749
4116.625517,-9696.697840,370.102971,-229.828649
4116.625847,-10807.006753,0.000000,0.000000
4116.626177,-10436.903782,370.102971,0.000000
4116.626507,-9252.574275,-370.102971,-459.657299
4116.626836,-10066.800811,74.020594,-383.047749
4116.627166,-9622.677246,-148.041188,459.657299
4116.627496,-9474.636058,-444.123565,689.485948
4116.627826,-8882.471304,0.000000,-766.095498
4116.628156,-9252.574275,0.000000,0.000000
4116.628486,-10288.862594,444.123565,306.438199
4116.628815,-10214.842000,0.000000,0.000000
4116.629145,-9992.780217,0.000000,0.000000
4116.629475,-10362.883188,-222.061783,153.219100
4116.629805,-10436.903782,0.000000,383.047749
4116.630135,-9474.636058,-296.082377,0.000000
4116.630465,-8734.430116,-518.144159,0.000000
4116.630794,-9474.636058,148.041188,536.266849
4116.631124,-10066.800811,148.041188,766.095498
4116.631454,-9992.780217,74.020594,0.000000
4116.631784,-9844.739029,-148.041188,0.000000
4116.632114,-9918.759623,0.000000,229.828649
4116.632443,-10140.821405,0.000000,612.876398
4116.632773,-10436.903782,-222.061783,1149.143247
4116.633103,-9474.636058,0.000000,1225.752797
4116.633433,-9326.594869,148.041188,612.876398
4116.633763,-9770.718434,296.082377,-153.219100
4116.634093,-9696.697840,148.041188,229.828649
4116.634422,-10214.842000,0.000000,0.000000
4116.634752,-9400.615463,74.020594,76.609550
4116.635082,-9252.574275,-370.102971,689.485948
4116.635412,-9474.636058,370.102971,536.266849
4116.635742,-9622.677246,-370.102971,153.219100
4116.636071,-9696.697840,-148.041188,0.000000
4116.636401,-9844.739029,-592.164754,919.314598
4116.636731,-10288.862594,74.020594,1608.800546
4116.637061,-9252.574275,296.082377,1072.533697
4116.637391,-9474.636058,444.123565,689.485948
4116.637721,-10140.821405,888.247130,766.095498
4116.638050,-10658.965565,444.123565,0.000000
4116.638380,-10288.862594,296.082377,-995.924147
4116.638710,-9400.615463,0.000000,-306.438199
4116.639040,-9844.739029,222.061783,383.047749
4116.639370,-9474.636058,0.000000,0.000000
4116.639699,-8882.471304,-148.041188,-76.609550
4116.640029,-9326.594869,222.061783,612.876398
4116.640359,-9844.739029,222.061783,689.485948
4116.640689,-10658.965565,148.041188,995.924147
4116.641019,-10214.842000,148.041188,766.095498
4116.641349,-9770.718434,592.164754,612.876398
4116.641678,-10066.800811,296.082377,0.000000
4116.642008,-10066.800811,0.000000,-459.657299
4116.642338,-9474.636058,0.000000,76.609550
4116.642668,-8364.327145,-444.123565,229.828649
4116.642998,-9252.574275,518.144159,306.438199
4116.643327,-10140.821405,296.082377,-153.219100
4116.643657,-10807.006753,888.247130,-689.485948
4116.643987,-9474.636058,148.041188,-766.095498
4116.644317,-9178.553681,-74.020594,-1455.581446
4116.644647,-9770.718434,370.102971,76.609550
4116.644977,-9622.677246,0.000000,459.657299
4116.645306,-9326.594869,148.041188,-612.876398
4116.645636,-9474.636058,370.102971,-1378.971896
4116.645966,-10140.821405,888.247130,-766.095498
4116.646296,-10288.862594,518.144159,-919.314598
4116.646626,-9474.636058,592.164754,-842.705048
4116.646955,-9400.615463,888.247130,0.000000
4116.647285,-9622.677246,740.205942,0.000000
4116.647615,-10214.842000,1110.308913,-995.924147
4116.647945,-10140.821405,814.226536,-2145.067394
4116.648275,-10214.842000,888.247130,-2451.505594
4116.648605,-9622.677246,888.247130,-1991.848295
4116.648934,-9474.636058,1332.370696,-1991.848295
4116.649264,-9474.636058,1406.391290,-1608.800546
4116.649594,-9918.759623,1480.411884,-1991.848295
4116.649924,-9474.636058,1110.308913,-1608.800546
4116.650254,-9696.697840,1184.329507,-1225.752797
4116.650583,-10066.800811,1924.535449,-689.485948
4116.650913,-9844.739029,1850.514855,-612.876398
4116.651243,-9622.677246,1998.556043,-1532.190996
