#time,accel_x,accel_y,accel_z
3636.033854,-10732.986159,-592.164754,-2068.457845
3636.034184,-11399.171507,-592.164754,-2068.457845
3636.034514,-10510.924376,-518.144159,-383.047749
3636.034845,-10584.944971,-666.185348,459.657299
3636.035175,-10436.903782,-814.226536,-383.047749
3636.035505,-9252.574275,-962.267725,-2221.676944
3636.035835,-8660.409521,592.164754,-2068.457845
3636.036166,-8068.244768,740.205942,-842.705048
3636.036496,-9770.718434,518.144159,-1225.752797
3636.036826,-10140.821405,666.185348,-1455.581446
3636.037156,-7994.224174,814.226536,-766.095498
3636.037487,-9030.512492,1036.288319,-1532.190996
3636.037817,-11103.089130,888.247130,-1455.581446
3636.038147,-10362.883188,1258.350101,-1762.019645
3636.038477,-9326.594869,814.226536,-2451.505594
3636.038808,-9400.615463,666.185348,-2604.724693
3636.039138,-9992.780217,518.144159,-612.876398
3636.039468,-9696.697840,888.247130,-306.438199
3636.039799,-9548.656652,148.041188,-1915.238745
3636.040129,-9030.512492,296.082377,-2451.505594
3636.040459,-9030.512492,296.082377,-919.314598
3636.040789,-9548.656652,814.226536,306.438199
3636.041120,-9992.780217,888.247130,153.219100
3636.041450,-9770.718434,1110.308913,-1455.581446
3636.041780,-10066.800811,1036.288319,-2451.505594
3636.042110,-10436.903782,740.205942,-3447.429741
3636.042441,-11177.109724,148.041188,-3217.601092
3636.042771,-10732.986159,0.000000,-2911.162892
3636.043101,-9400.615463,-888.247130,-3140.991542
3636.043432,-8660.409521,-1406.391290,-3524.039291
3636.043762,-8660.409521,-1850.514855,-2298.286494
3636.044092,-8808.450710,-1998.556043,-383.047749
3636.044422,-9030.512492,-1554.432478,1302.362347
3636.044753,-9770.718434,-1110.308913,536.266849
3636.045083,-9992.780217,-740.205942,229.828649
3636.045413,-10436.903782,-666.185348,-1072.533697
3636.045743,-12065.356855,-444.123565,-1762.019645
3636.046074,-11843.295072,-1258.350101,-3830.477490
3636.046404,-11177.109724,-2072.576638,-5592.497135
3636.046734,-9548.656652,-2442.679609,-5209.449386
3636.047064,-9104.533087,-2886.803174,-4290.134789
3636.047395,-9252.574275,-2590.720797,-3447.429741
3636.047725,-9326.594869,-2812.782580,-4060.306139
3636.048055,-8882.471304,-2886.803174,-4136.915689
3636.048386,-9178.553681,-3108.864956,-2834.553343
3636.048716,-9252.574275,-3182.885551,-306.438199
3636.049046,-10955.047942,-2738.761985,1225.752797
3636.049376,-12065.356855,-3627.009116,0.000000
3636.049707,-10807.006753,-3627.009116,-1991.848295
3636.050037,-10214.842000,-4515.256246,-2451.505594
3636.050367,-10584.944971,-3923.091493,-1532.190996
3636.050697,-10066.800811,-4219.173869,-306.438199
3636.051028,-10066.800811,-3182.885551,-306.438199
3636.051358,-9844.739029,-2960.823768,-1685.410096
3636.051688,-9474.636058,-3256.906145,-4290.134789
3636.052018,-9400.615463,-3923.091493,-4826.401637
3636.052349,-9326.594869,-3923.091493,-3677.258390
3636.052679,-9992.780217,-4293.194464,-766.095498
3636.053009,-9252.574275,-4515.256246,995.924147
3636.053340,-8142.265362,-4589.276840,1225.752797
3636.053670,-8364.327145,-4515.256246,766.095498
3636.054000,-8956.491898,-4145.153275,1532.190996
3636.054330,-11621.233289,-3478.967927,1378.971896
3636.054661,-11991.336260,-3256.906145,1072.533697
3636.054991,-10436.903782,-3330.926739,153.219100
3636.055321,-9030.512492,-3849.070898,-1072.533697
3636.055651,-8586.388927,-4441.235652,-2221.676944
3636.055982,-8808.450710,-4737.318029,-2451.505594
3636.056312,-8068.244768,-4515.256246,-2374.896044
3636.056642,-6809.894666,-4145.153275,-459.657299
3636.056972,-6513.812290,-2886.803174,1072.533697
3636.057302,-8438.347739,-1702.473667,1838.629195
3636.057632,-11473.192101,-814.226536,1225.752797
3636.057962,-12435.459826,-962.267725,0.000000
3636.058292,-11991.336260,-1628.453072,153.219100
3636.058622,-11547.212695,-2368.659014,1225.752797
3636.058952,-11177.109724,-2886.803174,2374.896044
3636.059282,-9400.615463,-3182.885551,1762.019645
3636.059612,-7402.059420,-2738.761985,459.657299
3636.059942,-6735.874072,-1628.453072,0.000000
3636.060272,-8956.491898,-222.061783,0.000000
3636.060602,-10214.842000,1110.308913,-76.609550
3636.060933,-10510.924376,1110.308913,383.047749
3636.061263,-10140.821405,1036.288319,459.657299
3636.061593,-11769.274478,518.144159,1378.971896
3636.061923,-12657.521608,0.000000,1532.190996
3636.062253,-11695.253884,-666.185348,1149.143247
3636.062583,-8882.471304,-814.226536,1838.629195
3636.062913,-8216.285956,-518.144159,1838.629195
3636.063243,-9770.718434,1332.370696,2374.896044
3636.063573,-10732.986159,1702.473667,1915.238745
3636.063903,-10807.006753,2738.761985,689.485948
3636.064233,-9844.739029,2368.659014,-76.609550
3636.064563,-10140.821405,2442.679609,-459.657299
3636.064893,-9918.759623,2220.617826,0.000000
3636.065223,-9030.512492,1850.514855,536.266849
3636.065553,-8660.409521,2442.679609,-383.047749
3636.065884,-9326.594869,2590.720797,-1685.410096
3636.066214,-10658.965565,2812.782580,-2221.676944
3636.066544,-10362.883188,2664.741391,-1072.533697
3636.066874,-10732.986159,2664.741391,536.266849
3636.067204,-10362.883188,2738.761985,919.314598
3636.067534,-9030.512492,2442.679609,153.219100
3636.067864,-8142.265362,3034.844362,153.219100
3636.068194,-8142.265362,3552.988522,766.095498
3636.068524,-9548.656652,3849.070898,306.438199
3636.068854,-10066.800811,3997.112087,-1455.581446
3636.069184,-9918.759623,4071.132681,-2068.457845
3636.069514,-9992.780217,3478.967927,-1991.848295
3636.069844,-10955.047942,3775.050304,-766.095498
3636.070174,-11029.068536,2886.803174,-1302.362347
3636.070505,-9178.553681,2516.700203,-1838.629195
3636.070835,-7328.038826,2886.803174,-1455.581446
3636.071165,-8882.471304,3552.988522,-459.657299
3636.071495,-10510.924376,3849.070898,-306.438199
3636.071825,-10732.986159,3478.967927,-766.095498
3636.072155,-10584.944971,2886.803174,-153.219100
3636.072485,-10955.047942,2294.638420,0.000000
3636.072815,-11251.130318,1332.370696,383.047749
3636.073145,-9474.636058,666.185348,919.314598
3636.073475,-8142.265362,222.061783,1455.581446
3636.073805,-8216.285956,518.144159,1762.019645
3636.074135,-9474.636058,592.164754,536.266849
3636.074465,-10510.924376,592.164754,-842.705048
3636.074795,-10214.842000,0.000000,-766.095498
3636.075125,-10214.842000,-592.164754,229.828649
3636.075456,-9992.780217,-1258.350101,842.705048
3636.075786,-8512.368333,-2368.659014,1685.410096
3636.076116,-7328.038826,-2368.659014,2451.505594
3636.076446,-7624.121203,-2146.597232,2145.067394
3636.076776,-9696.697840,-1258.350101,0.000000
3636.077106,-10436.903782,-1850.514855,-689.485948
3636.077436,-10214.842000,-1924.535449,0.000000
3636.077766,-11029.068536,-1554.432478,2221.676944
3636.078096,-11251.130318,-2590.720797,1685.410096
3636.078426,-10140.821405,-3404.947333,383.047749
3636.078756,-8364.327145,-3404.947333,229.828649
3636.079086,-8216.285956,-2590.720797,995.924147
3636.079416,-9844.739029,-2294.638420,995.924147
3636.079746,-11029.068536,-2146.597232,76.609550
3636.080077,-10658.965565,-2294.638420,0.000000
3636.080407,-10881.027347,-2294.638420,919.314598
3636.080737,-11251.130318,-2886.803174,1225.752797
3636.081067,-10807.006753,-3478.967927,766.095498
3636.081397,-9474.636058,-3478.967927,766.095498
3636.081727,-9252.574275,-2812.782580,1532.190996
3636.082057,-9992.780217,-2220.617826,2145.067394
3636.082387,-10732.986159,-1776.494261,689.485948
3636.082717,-10732.986159,-1924.535449,-383.047749
3636.083047,-10955.047942,-1628.453072,76.609550
3636.083377,-9992.780217,-2220.617826,919.314598
3636.083707,-10436.903782,-1924.535449,1378.971896
3636.084037,-9400.615463,-1628.453072,1915.238745
3636.084367,-9030.512492,-1184.329507,1608.800546
3636.084697,-9474.636058,-296.082377,1225.752797
3636.085028,-10362.883188,222.061783,0.000000
3636.085358,-10510.924376,0.000000,-1072.533697
3636.085688,-10881.027347,296.082377,-306.438199
3636.086018,-10955.047942,296.082377,536.266849
3636.086348,-9474.636058,-444.123565,0.000000
3636.086678,-8142.265362,-592.164754,-153.219100
3636.087008,-7476.080014,0.000000,459.657299
3636.087338,-8586.388927,444.123565,612.876398
3636.087668,-8586.388927,1258.350101,-995.924147
3636.087998,-9474.636058,1406.391290,-1685.410096
3636.088328,-9770.718434,1628.453072,-612.876398
3636.088658,-10436.903782,1702.473667,383.047749
3636.088988,-9622.677246,1036.288319,-919.314598
3636.089318,-9030.512492,740.205942,-766.095498
3636.089649,-8586.388927,1110.308913,-612.876398
3636.089979,-8216.285956,1850.514855,766.095498
3636.090309,-8660.409521,2368.659014,0.000000
3636.090639,-9548.656652,2812.782580,-1685.410096
3636.090969,-10066.800811,2590.720797,-1532.190996
3636.091299,-10732.986159,3182.885551,-1149.143247
3636.091629,-10288.862594,2516.700203,-1378.971896
3636.091959,-9030.512492,2294.638420,-1608.800546
3636.092289,-8512.368333,1702.473667,-536.266849
3636.092619,-8808.450710,1924.535449,612.876398
3636.092949,-9548.656652,2590.720797,76.609550
3636.093279,-9992.780217,3108.864956,-2068.457845
3636.093609,-10658.965565,2368.659014,-1838.629195
3636.093939,-11325.150913,2294.638420,-612.876398
3636.094269,-11325.150913,1850.514855,995.924147
3636.094600,-9992.780217,962.267725,1149.143247
3636.094930,-8734.430116,1036.288319,1532.190996
3636.095260,-8512.368333,1110.308913,1762.019645
3636.095590,-9474.636058,1924.535449,1149.143247
3636.095920,-10658.965565,1998.556043,-459.657299
3636.096250,-11177.109724,1924.535449,-1072.533697
3636.096580,-11547.212695,1628.453072,0.000000
3636.096910,-11473.192101,1110.308913,459.657299
3636.097240,-10510.924376,74.020594,306.438199
3636.097570,-8956.491898,-666.185348,76.609550
3636.097900,-7994.224174,-740.205942,1072.533697
3636.098230,-8808.450710,0.000000,919.314598
3636.098560,-9474.636058,444.123565,383.047749
3636.098890,-10510.924376,222.061783,-383.047749
3636.099220,-10807.006753,0.000000,766.095498
3636.099551,-10955.047942,-518.144159,1455.581446
3636.099881,-10658.965565,-1406.391290,1608.800546
3636.100211,-9622.677246,-2072.576638,1072.533697
3636.100541,-8512.368333,-2072.576638,1991.848295
3636.100871,-8808.450710,-1628.453072,2145.067394
3636.101201,-9548.656652,-814.226536,1149.143247
3636.101531,-10658.965565,-888.247130,0.000000
3636.101861,-10288.862594,-962.267725,0.000000
3636.102191,-10807.006753,-1184.329507,536.266849
3636.102521,-10510.924376,-1332.370696,536.266849
3636.102851,-9844.739029,-2368.659014,383.047749
3636.103181,-8216.285956,-2294.638420,1072.533697
3636.103511,-8660.409521,-1554.432478,1455.581446
3636.103841,-9474.636058,-814.226536,306.438199
3636.104172,-10214.842000,-888.247130,-919.314598
3636.104502,-10214.842000,-888.247130,-995.924147
3636.104832,-10288.862594,-740.205942,153.219100
3636.105162,-10732.986159,-1110.308913,459.657299
3636.105492,-9918.759623,-1850.514855,689.485948
3636.105822,-9104.533087,-1924.535449,919.314598
3636.106152,-8216.285956,-1184.329507,1762.019645
3636.106482,-9104.533087,-814.226536,536.266849
3636.106812,-9548.656652,-592.164754,-383.047749
3636.107142,-10362.883188,-444.123565,-766.095498
3636.107472,-10732.986159,-370.102971,76.609550
3636.107802,-10955.047942,-592.164754,1072.533697
3636.108132,-10362.883188,-1258.350101,229.828649
3636.108462,-8216.285956,-1850.514855,-459.657299
3636.108792,-7624.121203,-1184.329507,612.876398
3636.109123,-8512.368333,-592.164754,536.266849
3636.109453,-9622.677246,74.020594,0.000000
3636.109783,-10362.883188,296.082377,-1149.143247
3636.110113,-10140.821405,0.000000,-612.876398
3636.110443,-10584.944971,296.082377,76.609550
3636.110773,-10140.821405,-518.144159,383.047749
3636.111103,-8882.471304,-1036.288319,0.000000
3636.111433,-7772.162391,-888.247130,995.924147
3636.111763,-8512.368333,518.144159,919.314598
3636.112093,-9474.636058,1036.288319,536.266849
3636.112423,-10510.924376,962.267725,-842.705048
3636.112753,-11399.171507,1332.370696,-1149.143247
3636.113083,-11547.212695,1110.308913,-842.705048
3636.113413,-11177.109724,814.226536,0.000000
3636.113744,-9918.759623,0.000000,-306.438199
3636.114074,-8586.388927,-222.061783,459.657299
3636.114404,-8142.265362,74.020594,842.705048
3636.114734,-9326.594869,888.247130,-153.219100
3636.115064,-10584.944971,1332.370696,-1225.752797
3636.115394,-11029.068536,1332.370696,-766.095498
3636.115724,-11029.068536,1332.370696,0.000000
3636.116054,-10510.924376,666.185348,0.000000
3636.116384,-9992.780217,148.041188,76.609550
3636.116714,-9104.533087,-148.041188,536.266849
3636.117044,-8882.471304,518.144159,1225.752797
3636.117374,-8808.450710,1110.308913,1455.581446
3636.117704,-9622.677246,1554.432478,-689.485948
3636.118034,-10510.924376,1702.473667,-1225.752797
3636.118364,-11029.068536,1702.473667,0.000000
3636.118695,-11103.089130,1554.432478,612.876398
3636.119025,-10288.862594,888.247130,0.000000
3636.119355,-9030.512492,74.020594,0.000000
3636.119685,-8512.368333,444.123565,995.924147
3636.120015,-9252.574275,1258.350101,1072.533697
3636.120345,-9622.677246,1554.432478,-459.657299
3636.120675,-10214.842000,1332.370696,-1149.143247
3636.121005,-10436.903782,1406.391290,-766.095498
3636.121335,-10658.965565,1036.288319,766.095498
3636.121665,-9844.739029,148.041188,1378.971896
3636.121995,-9104.533087,-444.123565,1685.410096
3636.122325,-7994.224174,-518.144159,1608.800546
3636.122655,-8290.306550,148.041188,1991.848295
3636.122985,-9178.553681,814.226536,766.095498
3636.123315,-10658.965565,1406.391290,-459.657299
3636.123646,-11251.130318,1110.308913,536.266849
3636.123976,-11251.130318,740.205942,1149.143247
3636.124306,-10881.027347,222.061783,842.705048
3636.124636,-9696.697840,-592.164754,0.000000
3636.124966,-8586.388927,-740.205942,306.438199
3636.125296,-8512.368333,0.000000,842.705048
3636.125626,-9030.512492,148.041188,153.219100
3636.125956,-9400.615463,888.247130,-995.924147
3636.126286,-10214.842000,444.123565,-995.924147
3636.126616,-10510.924376,370.102971,-306.438199
3636.126946,-10584.944971,-222.061783,0.000000
3636.127276,-9844.739029,-962.267725,0.000000
3636.127606,-8734.430116,-1332.370696,842.705048
3636.127936,-8512.368333,-962.267725,1532.190996
3636.128267,-9178.553681,-518.144159,995.924147
3636.128597,-10362.883188,-296.082377,0.000000
3636.128927,-10732.986159,-518.144159,-689.485948
3636.129257,-11251.130318,-592.164754,0.000000
3636.129587,-10881.027347,-1332.370696,612.876398
3636.129917,-9918.759623,-1480.411884,0.000000
3636.130247,-8216.285956,-2146.597232,153.219100
3636.130577,-8068.244768,-1406.391290,536.266849
3636.130907,-9178.553681,-666.185348,153.219100
3636.131237,-10362.883188,-370.102971,-1302.362347
3636.131567,-10584.944971,-296.082377,-2068.457845
3636.131897,-10510.924376,-592.164754,-1608.800546
3636.132227,-10584.944971,-1184.329507,0.000000
3636.132557,-9992.780217,-1924.535449,306.438199
3636.132887,-9030.512492,-2516.700203,612.876398
3636.133218,-8364.327145,-1776.494261,1378.971896
3636.133548,-8586.388927,-1184.329507,1072.533697
3636.133878,-9622.677246,-370.102971,459.657299
3636.134208,-10510.924376,-222.061783,306.438199
3636.134538,-11103.089130,-444.123565,1149.143247
3636.134868,-11621.233289,-444.123565,1072.533697
3636.135198,-10881.027347,-592.164754,459.657299
3636.135528,-9474.636058,-1406.391290,76.609550
3636.135858,-8142.265362,-1110.308913,1072.533697
3636.136188,-8882.471304,-444.123565,1378.971896
3636.136518,-9622.677246,222.061783,306.438199
3636.136848,-10066.800811,296.082377,-1455.581446
3636.137178,-10066.800811,592.164754,-1455.581446
3636.137508,-10288.862594,370.102971,0.000000
3636.137839,-10214.842000,74.020594,995.924147
3636.138169,-9474.636058,-518.144159,1225.752797
3636.138499,-8364.327145,-740.205942,1532.190996
3636.138829,-8142.265362,0.000000,1762.019645
3636.139159,-9400.615463,666.185348,1455.581446
3636.139489,-10584.944971,1110.308913,229.828649
3636.139819,-10881.027347,888.247130,0.000000
3636.140149,-10288.862594,666.185348,1608.800546
3636.140479,-10510.924376,888.247130,1149.143247
3636.140809,-9696.697840,370.102971,383.047749
3636.141139,-8586.388927,296.082377,229.828649
3636.141469,-8364.327145,296.082377,919.314598
3636.141799,-9030.512492,1702.473667,306.438199
3636.142129,-10140.821405,2146.597232,-1225.752797
3636.142459,-10584.944971,2220.617826,-1991.848295
3636.142790,-10658.965565,1998.556043,-1072.533697
3636.143120,-10732.986159,888.247130,383.047749
3636.143450,-10066.800811,518.144159,153.219100
3636.143780,-8660.409521,0.000000,919.314598
3636.144110,-7920.203579,370.102971,1455.581446
3636.144440,-8290.306550,1110.308913,1225.752797
3636.144770,-9474.636058,1998.556043,153.219100
3636.145100,-10436.903782,1702.473667,-766.095498
3636.145430,-10955.047942,1702.473667,-459.657299
3636.145760,-10955.047942,1702.473667,229.828649
3636.146090,-10362.883188,1110.308913,153.219100
3636.146420,-9252.574275,444.123565,-306.438199
3636.146750,-8586.388927,148.041188,-229.828649
3636.147080,-8734.430116,1036.288319,-383.047749
3636.147410,-9474.636058,1480.411884,-689.485948
3636.147741,-10288.862594,1406.391290,-1991.848295
3636.148071,-10362.883188,962.267725,-1608.800546
3636.148401,-10955.047942,888.247130,0.000000
3636.148731,-10436.903782,0.000000,919.314598
3636.149061,-9918.759623,-740.205942,612.876398
3636.149391,-8364.327145,-1406.391290,1149.143247
3636.149721,-8068.244768,-592.164754,1685.410096
3636.150051,-8512.368333,0.000000,1302.362347
3636.150381,-10066.800811,370.102971,0.000000
3636.150711,-10732.986159,74.020594,-229.828649
3636.151041,-11399.171507,0.000000,0.000000
3636.151371,-10881.027347,-444.123565,536.266849
3636.151701,-9918.759623,-1258.350101,0.000000
3636.152031,-8586.388927,-1480.411884,153.219100
3636.152362,-7846.182985,-1110.308913,612.876398
3636.152692,-8808.450710,-666.185348,536.266849
3636.153022,-10066.800811,0.000000,-689.485948
3636.153352,-11103.089130,0.000000,-2068.457845
3636.153682,-11399.171507,-148.041188,-1072.533697
3636.154012,-11029.068536,-1184.329507,459.657299
3636.154342,-9918.759623,-2072.576638,842.705048
3636.154672,-8808.450710,-2146.597232,995.924147
3636.155002,-8142.265362,-1702.473667,1608.800546
3636.155331,-8586.388927,-962.267725,1455.581446
3636.155661,-9844.739029,-74.020594,76.609550
3636.155991,-10658.965565,-444.123565,-842.705048
3636.156321,-11399.171507,-370.102971,0.000000
3636.156650,-11547.212695,-222.061783,612.876398
3636.156980,-10288.862594,-1110.308913,0.000000
3636.157310,-8734.430116,-1406.391290,-306.438199
3636.157639,-8438.347739,-1258.350101,0.000000
3636.157969,-8808.450710,-666.185348,995.924147
3636.158299,-10214.842000,222.061783,229.828649
3636.158629,-10584.944971,370.102971,-1378.971896
3636.158958,-10732.986159,0.000000,-1302.362347
3636.159288,-10807.006753,-222.061783,-76.609550
3636.159618,-10362.883188,-1036.288319,229.828649
3636.159947,-9030.512492,-2368.659014,536.266849
3636.160277,-7920.203579,-1628.453072,1302.362347
3636.160607,-7550.100608,-1258.350101,1915.238745
3636.160937,-8586.388927,0.000000,1378.971896
3636.161266,-9770.718434,444.123565,0.000000
3636.161596,-10510.924376,592.164754,-383.047749
3636.161926,-11103.089130,592.164754,689.485948
3636.162255,-11029.068536,518.144159,1072.533697
3636.162585,-9548.656652,-370.102971,536.266849
3636.162915,-8512.368333,-592.164754,0.000000
3636.163245,-8364.327145,148.041188,229.828649
3636.163574,-9178.553681,740.205942,153.219100
3636.163904,-10066.800811,1036.288319,-1149.143247
3636.164234,-10140.821405,888.247130,-842.705048
3636.164563,-10362.883188,1036.288319,-76.609550
3636.164893,-10584.944971,740.205942,1378.971896
3636.165223,-9992.780217,0.000000,919.314598
3636.165553,-8956.491898,-148.041188,1532.190996
3636.165882,-8290.306550,222.061783,1225.752797
3636.166212,-8734.430116,962.267725,1149.143247
3636.166542,-9696.697840,1406.391290,229.828649
3636.166871,-10658.965565,1554.432478,-306.438199
3636.167201,-10955.047942,1850.514855,0.000000
3636.167531,-11103.089130,1036.288319,612.876398
3636.167861,-10510.924376,666.185348,536.266849
3636.168190,-9178.553681,148.041188,-153.219100
3636.168520,-8512.368333,888.247130,536.266849
3636.168850,-8956.491898,888.247130,766.095498
3636.169179,-9770.718434,1554.432478,-459.657299
3636.169509,-10584.944971,1258.350101,-1608.800546
3636.169839,-10807.006753,1480.411884,-2374.896044
3636.170169,-11177.109724,1036.288319,-153.219100
3636.170498,-10436.903782,370.102971,766.095498
3636.170828,-9252.574275,-148.041188,536.266849
3636.171158,-7994.224174,-296.082377,919.314598
3636.171488,-7624.121203,74.020594,1072.533697
3636.171817,-8882.471304,814.226536,306.438199
3636.172147,-9918.759623,814.226536,-766.095498
3636.172477,-11103.089130,740.205942,-306.438199
3636.172806,-11251.130318,370.102971,995.924147
3636.173136,-11251.130318,296.082377,842.705048
3636.173466,-9548.656652,-518.144159,459.657299
3636.173796,-8586.388927,-814.226536,0.000000
3636.174125,-8142.265362,0.000000,766.095498
3636.174455,-9252.574275,296.082377,1072.533697
3636.174785,-10140.821405,814.226536,-306.438199
3636.175114,-10955.047942,1110.308913,-1608.800546
3636.175444,-11325.150913,740.205942,0.000000
3636.175774,-10955.047942,-74.020594,76.609550
3636.176104,-10140.821405,-962.267725,536.266849
3636.176433,-8364.327145,-1554.432478,612.876398
3636.176763,-7698.141797,-1184.329507,995.924147
3636.177093,-7994.224174,-518.144159,1378.971896
3636.177422,-9622.677246,0.000000,383.047749
3636.177752,-10510.924376,74.020594,-612.876398
3636.178082,-11029.068536,0.000000,0.000000
3636.178412,-10807.006753,0.000000,919.314598
3636.178741,-10362.883188,-666.185348,383.047749
3636.179071,-9178.553681,-1480.411884,-306.438199
3636.179401,-8808.450710,-1184.329507,0.000000
3636.179730,-8438.347739,-740.205942,0.000000
3636.180060,-9400.615463,0.000000,0.000000
3636.180390,-10436.903782,222.061783,-1302.362347
3636.180720,-10955.047942,148.041188,-919.314598
3636.181049,-11103.089130,0.000000,-383.047749
3636.181379,-10436.903782,-962.267725,-229.828649
3636.181709,-9622.677246,-1628.453072,153.219100
3636.182038,-8512.368333,-1776.494261,842.705048
3636.182368,-8216.285956,-1110.308913,1685.410096
3636.182698,-9030.512492,-592.164754,919.314598
3636.183028,-9918.759623,-296.082377,0.000000
3636.183357,-11103.089130,-222.061783,0.000000
3636.183687,-11325.150913,-74.020594,766.095498
3636.184017,-10807.006753,-518.144159,1455.581446
3636.184346,-9474.636058,-666.185348,689.485948
3636.184676,-8586.388927,-1036.288319,306.438199
3636.185006,-8808.450710,-592.164754,842.705048
3636.185336,-9844.739029,0.000000,229.828649
3636.185665,-9844.739029,148.041188,-1608.800546
3636.185995,-10214.842000,296.082377,-2068.457845
3636.186325,-10214.842000,0.000000,-1072.533697
3636.186654,-10436.903782,-370.102971,229.828649
3636.186984,-9770.718434,-666.185348,612.876398
3636.187314,-8808.450710,-1184.329507,229.828649
3636.187644,-8438.347739,-1184.329507,842.705048
3636.187973,-8586.388927,-222.061783,919.314598
3636.188303,-9474.636058,296.082377,306.438199
3636.188633,-10584.944971,222.061783,383.047749
3636.188962,-10658.965565,518.144159,1149.143247
3636.189292,-10732.986159,148.041188,1915.238745
3636.189622,-9696.697840,0.000000,229.828649
3636.189952,-9178.553681,0.000000,0.000000
3636.190281,-8660.409521,0.000000,766.095498
3636.190611,-9178.553681,814.226536,919.314598
3636.190941,-10066.800811,1702.473667,-459.657299
3636.191270,-10362.883188,1776.494261,-1532.190996
3636.191600,-10510.924376,1184.329507,-1608.800546
3636.191930,-10584.944971,962.267725,-383.047749
3636.192260,-10140.821405,370.102971,459.657299
3636.192589,-9474.636058,0.000000,919.314598
3636.192919,-8660.409521,0.000000,1762.019645
3636.193249,-8364.327145,296.082377,2374.896044
3636.193578,-9252.574275,962.267725,1838.629195
3636.193908,-9918.759623,1110.308913,995.924147
3636.194238,-10807.006753,888.247130,612.876398
3636.194568,-10881.027347,1036.288319,1225.752797
3636.194897,-10436.903782,888.247130,766.095498
3636.195227,-9696.697840,370.102971,153.219100
3636.195557,-8956.491898,296.082377,306.438199
3636.195886,-8956.491898,814.226536,1378.971896
3636.196216,-9696.697840,1406.391290,459.657299
3636.196546,-9992.780217,1480.411884,-1225.752797
3636.196876,-9918.759623,1332.370696,-2068.457845
3636.197205,-10362.883188,1036.288319,-995.924147
3636.197535,-10510.924376,666.185348,153.219100
3636.197865,-9992.780217,74.020594,766.095498
3636.198194,-8660.409521,0.000000,76.609550
3636.198524,-8142.265362,-222.061783,1072.533697
3636.198854,-8512.368333,296.082377,1149.143247
3636.199184,-9770.718434,666.185348,842.705048
3636.199513,-10510.924376,518.144159,-153.219100
3636.199843,-10658.965565,592.164754,995.924147
3636.200173,-10955.047942,666.185348,1225.752797
3636.200502,-9992.780217,0.000000,1072.533697
3636.200832,-9474.636058,-296.082377,-76.609550
3636.201162,-8586.388927,-222.061783,76.609550
3636.201492,-8734.430116,444.123565,766.095498
3636.201821,-9696.697840,740.205942,-383.047749
3636.202151,-10214.842000,740.205942,-2145.067394
3636.202481,-10066.800811,740.205942,-1762.019645
3636.202810,-10510.924376,0.000000,-919.314598
3636.203140,-10658.965565,-296.082377,-536.266849
3636.203470,-9548.656652,-1184.329507,-229.828649
3636.203800,-7846.182985,-1480.411884,612.876398
3636.204129,-8290.306550,-814.226536,1762.019645
3636.204459,-9252.574275,-74.020594,995.924147
3636.204789,-10066.800811,-222.061783,76.609550
3636.205119,-10807.006753,-370.102971,229.828649
3636.205448,-11325.150913,74.020594,919.314598
3636.205778,-10732.986159,-296.082377,1225.752797
3636.206108,-10288.862594,-1036.288319,383.047749
3636.206437,-8882.471304,-1554.432478,-153.219100
3636.206767,-9104.533087,-296.082377,612.876398
3636.207097,-9548.656652,-148.041188,153.219100
3636.207427,-9992.780217,222.061783,-1072.533697
3636.207756,-10066.800811,148.041188,-1915.238745
3636.208086,-10362.883188,444.123565,0.000000
3636.208416,-10732.986159,0.000000,0.000000
3636.208745,-10288.862594,-962.267725,153.219100
3636.209075,-9252.574275,-1554.432478,612.876398
3636.209405,-8364.327145,-1554.432478,1225.752797
3636.209735,-8586.388927,-962.267725,1378.971896
3636.210064,-9474.636058,-740.205942,766.095498
3636.210394,-9992.780217,-592.164754,306.438199
3636.210724,-10288.862594,-296.082377,76.609550
3636.211053,-10732.986159,-518.144159,995.924147
3636.211383,-9770.718434,-888.247130,689.485948
3636.211713,-9104.533087,-1184.329507,0.000000
3636.212043,-8586.388927,-1036.288319,995.924147
3636.212372,-9030.512492,-518.144159,1149.143247
3636.212702,-10140.821405,444.123565,153.219100
3636.213032,-10140.821405,518.144159,-1915.238745
3636.213361,-10214.842000,592.164754,-1532.190996
3636.213691,-10658.965565,0.000000,-536.266849
3636.214021,-10510.924376,-444.123565,0.000000
3636.214351,-9326.594869,-740.205942,0.000000
3636.214680,-8586.388927,-814.226536,995.924147
3636.215010,-8216.285956,-222.061783,1685.410096
3636.215340,-9104.533087,296.082377,1072.533697
3636.215669,-9844.739029,370.102971,-153.219100
3636.215999,-10732.986159,518.144159,0.000000
3636.216329,-11325.150913,814.226536,842.705048
3636.216659,-10584.944971,518.144159,1149.143247
3636.216988,-9622.677246,148.041188,612.876398
3636.217318,-8586.388927,0.000000,383.047749
3636.217648,-8586.388927,74.020594,1378.971896
3636.217977,-9770.718434,1332.370696,995.924147
3636.218307,-10214.842000,1628.453072,-995.924147
3636.218637,-10510.924376,1702.473667,-1685.410096
3636.218967,-10510.924376,1480.411884,-842.705048
3636.219296,-10881.027347,1110.308913,459.657299
3636.219626,-10288.862594,370.102971,1072.533697
3636.219956,-9178.553681,-222.061783,536.266849
3636.220285,-8734.430116,0.000000,1455.581446
3636.220615,-8956.491898,518.144159,1225.752797
3636.220945,-9400.615463,740.205942,536.266849
3636.221275,-9622.677246,1110.308913,0.000000
3636.221604,-10362.883188,1036.288319,1149.143247
3636.221934,-10955.047942,888.247130,1378.971896
3636.222264,-10066.800811,518.144159,1072.533697
3636.222593,-9474.636058,0.000000,459.657299
3636.222923,-8734.430116,148.041188,995.924147
3636.223253,-9474.636058,740.205942,1608.800546
3636.223583,-10214.842000,1184.329507,229.828649
3636.223912,-10510.924376,1628.453072,-1302.362347
3636.224242,-10436.903782,1332.370696,-1838.629195
3636.224572,-10658.965565,1110.308913,-459.657299
3636.224901,-10658.965565,444.123565,0.000000
3636.225231,-9918.759623,-370.102971,0.000000
3636.225561,-8364.327145,-740.205942,459.657299
3636.225891,-8142.265362,-296.082377,1532.190996
3636.226220,-9104.533087,222.061783,1072.533697
3636.226550,-9992.780217,296.082377,-383.047749
3636.226880,-10066.800811,0.000000,76.609550
3636.227209,-10140.821405,222.061783,842.705048
3636.227539,-10288.862594,222.061783,995.924147
3636.227869,-9844.739029,-666.185348,0.000000
3636.228199,-9104.533087,-888.247130,383.047749
3636.228528,-9030.512492,-296.082377,995.924147
3636.228858,-9474.636058,148.041188,612.876398
3636.229188,-10288.862594,888.247130,-1685.410096
3636.229517,-10288.862594,666.185348,-2681.334243
3636.229847,-9844.739029,888.247130,-2374.896044
3636.230177,-10584.944971,370.102971,-612.876398
3636.230507,-10732.986159,-370.102971,-306.438199
3636.230836,-9474.636058,-814.226536,0.000000
3636.231166,-8068.244768,-666.185348,536.266849
3636.231496,-8512.368333,-148.041188,842.705048
3636.231825,-9696.697840,-296.082377,-76.609550
3636.232155,-10214.842000,-222.061783,-766.095498
3636.232485,-10807.006753,-296.082377,536.266849
3636.232815,-10807.006753,-370.102971,1532.190996
3636.233144,-10436.903782,-814.226536,1455.581446
3636.233474,-9474.636058,-1406.391290,842.705048
3636.233804,-8734.430116,-1258.350101,1072.533697
3636.234133,-8882.471304,-518.144159,1915.238745
3636.234463,-9918.759623,0.000000,0.000000
3636.234793,-10288.862594,74.020594,-1072.533697
3636.235123,-10436.903782,0.000000,-995.924147
3636.235452,-10436.903782,0.000000,0.000000
3636.235782,-10881.027347,-518.144159,536.266849
3636.236112,-9844.739029,-1628.453072,0.000000
3636.236441,-8734.430116,-1702.473667,766.095498
3636.236771,-8142.265362,-1110.308913,1608.800546
3636.237101,-8660.409521,-296.082377,919.314598
3636.237431,-9474.636058,-370.102971,0.000000
3636.237760,-10510.924376,0.000000,-229.828649
3636.238090,-11103.089130,-222.061783,383.047749
3636.238420,-10658.965565,-740.205942,306.438199
3636.238750,-9622.677246,-888.247130,0.000000
3636.239079,-8586.388927,-1554.432478,229.828649
3636.239409,-8438.347739,-666.185348,1608.800546
3636.239739,-9030.512492,296.082377,1072.533697
3636.240068,-10362.883188,1332.370696,-995.924147
3636.240398,-10658.965565,962.267725,-2374.896044
3636.240728,-10955.047942,962.267725,-1225.752797
3636.241058,-10955.047942,370.102971,76.609550
3636.241387,-10510.924376,-444.123565,0.000000
3636.241717,-8882.471304,-962.267725,76.609550
3636.242047,-7846.182985,-740.205942,459.657299
3636.242376,-8068.244768,0.000000,1072.533697
3636.242706,-9178.553681,444.123565,0.000000
3636.243036,-10288.862594,666.185348,-612.876398
3636.243366,-10955.047942,814.226536,306.438199
3636.243695,-11177.109724,740.205942,1225.752797
3636.244025,-10510.924376,0.000000,766.095498
3636.244355,-9400.615463,-148.041188,153.219100
3636.244684,-8438.347739,-444.123565,919.314598
3636.245014,-8734.430116,814.226536,1608.800546
3636.245344,-9474.636058,814.226536,766.095498
3636.245674,-10288.862594,1480.411884,-766.095498
3636.246003,-10955.047942,1406.391290,-919.314598
3636.246333,-11325.150913,1332.370696,76.609550
3636.246663,-10881.027347,666.185348,383.047749
3636.246992,-9548.656652,-222.061783,536.266849
3636.247322,-8290.306550,0.000000,1378.971896
3636.247652,-8068.244768,444.123565,1762.019645
3636.247982,-8808.450710,1332.370696,612.876398
3636.248311,-9696.697840,1184.329507,-766.095498
3636.248641,-10584.944971,1258.350101,-842.705048
3636.248971,-11325.150913,1554.432478,612.876398
3636.249300,-11251.130318,1258.350101,1072.533697
3636.249630,-9622.677246,0.000000,919.314598
3636.249960,-8290.306550,-148.041188,766.095498
3636.250290,-8660.409521,444.123565,1608.800546
3636.250619,-9474.636058,1184.329507,1072.533697
3636.250949,-9918.759623,1110.308913,-689.485948
3636.251279,-10658.965565,1480.411884,-1608.800546
3636.251608,-10955.047942,1258.350101,-1225.752797
3636.251938,-11621.233289,592.164754,306.438199
3636.252268,-10362.883188,-518.144159,229.828649
3636.252598,-8956.491898,-1110.308913,76.609550
3636.252927,-7624.121203,-888.247130,919.314598
3636.253257,-7994.224174,222.061783,1225.752797
3636.253587,-9548.656652,444.123565,76.609550
3636.253916,-10881.027347,444.123565,-229.828649
3636.254246,-11251.130318,296.082377,0.000000
3636.254576,-11103.089130,-148.041188,383.047749
3636.254906,-10066.800811,-740.205942,383.047749
3636.255236,-8216.285956,-1776.494261,306.438199
3636.255565,-8068.244768,-962.267725,919.314598
3636.255895,-8364.327145,-296.082377,1378.971896
3636.256225,-9696.697840,592.164754,-536.266849
3636.256555,-10658.965565,1110.308913,-2451.505594
3636.256884,-11399.171507,814.226536,-1991.848295
3636.257214,-11547.212695,296.082377,-536.266849
3636.257544,-10658.965565,-666.185348,0.000000
3636.257874,-9474.636058,-1258.350101,-306.438199
3636.258204,-8512.368333,-1554.432478,612.876398
3636.258533,-8586.388927,-666.185348,1302.362347
3636.258863,-8956.491898,0.000000,229.828649
3636.259193,-9844.739029,0.000000,-1225.752797
3636.259523,-11399.171507,0.000000,0.000000
3636.259852,-11695.253884,-370.102971,1225.752797
3636.260182,-10955.047942,-814.226536,1149.143247
3636.260512,-9178.553681,-1480.411884,842.705048
3636.260842,-8512.368333,-1998.556043,1532.190996
3636.261171,-8586.388927,-1258.350101,1915.238745
3636.261501,-9252.574275,-148.041188,1532.190996
3636.261831,-10288.862594,0.000000,-306.438199
3636.262161,-10436.903782,0.000000,-1608.800546
3636.262491,-10955.047942,148.041188,-459.657299
3636.262820,-11325.150913,-370.102971,612.876398
3636.263150,-9992.780217,-1110.308913,536.266849
3636.263480,-8512.368333,-1702.473667,383.047749
3636.263810,-7994.224174,-1110.308913,1072.533697
3636.264139,-8364.327145,-444.123565,842.705048
3636.264469,-9548.656652,-148.041188,76.609550
3636.264799,-10288.862594,0.000000,-689.485948
3636.265129,-11843.295072,518.144159,229.828649
3636.265459,-11103.089130,-444.123565,689.485948
3636.265788,-9548.656652,-888.247130,459.657299
3636.266118,-8586.388927,-1184.329507,0.000000
3636.266448,-8068.244768,-1332.370696,1225.752797
3636.266778,-8734.430116,0.000000,1072.533697
3636.267107,-9622.677246,814.226536,-229.828649
3636.267437,-10436.903782,1332.370696,-1685.410096
3636.267767,-11177.109724,1036.288319,-1685.410096
3636.268097,-11473.192101,740.205942,-1149.143247
3636.268426,-10732.986159,0.000000,-229.828649
3636.268756,-9548.656652,-740.205942,0.000000
3636.269086,-8364.327145,-518.144159,459.657299
3636.269416,-8512.368333,296.082377,1072.533697
3636.269746,-9104.533087,740.205942,-153.219100
3636.270075,-10288.862594,740.205942,-1072.533697
3636.270405,-11473.192101,962.267725,-153.219100
3636.270735,-11399.171507,814.226536,919.314598
3636.271065,-10510.924376,222.061783,1378.971896
3636.271394,-8808.450710,-222.061783,383.047749
3636.271724,-8216.285956,-370.102971,612.876398
3636.272054,-8734.430116,444.123565,1838.629195
3636.272384,-9474.636058,1036.288319,1149.143247
3636.272714,-10436.903782,1480.411884,-459.657299
3636.273043,-10732.986159,1480.411884,-995.924147
3636.273373,-10807.006753,1258.350101,0.000000
3636.273703,-10436.903782,1184.329507,919.314598
3636.274033,-9770.718434,0.000000,1149.143247
3636.274362,-8512.368333,0.000000,766.095498
3636.274692,-7920.203579,296.082377,1225.752797
3636.275022,-8586.388927,1258.350101,842.705048
3636.275352,-9770.718434,1702.473667,-459.657299
3636.275681,-10807.006753,1554.432478,-383.047749
3636.276011,-11473.192101,1184.329507,0.000000
3636.276341,-10732.986159,740.205942,689.485948
3636.276671,-9104.533087,148.041188,919.314598
3636.277001,-8364.327145,-296.082377,919.314598
3636.277330,-8512.368333,74.020594,1608.800546
3636.277660,-9326.594869,814.226536,1762.019645
3636.277990,-10140.821405,1554.432478,306.438199
3636.278320,-10732.986159,1480.411884,-1072.533697
3636.278649,-10881.027347,740.205942,-1149.143247
3636.278979,-10732.986159,518.144159,0.000000
3636.279309,-10584.944971,370.102971,919.314598
3636.279639,-9030.512492,-74.020594,383.047749
3636.279969,-8660.409521,-222.061783,306.438199
3636.280298,-8364.327145,444.123565,612.876398
3636.280628,-9178.553681,888.247130,-229.828649
3636.280958,-10436.903782,962.267725,-995.924147
3636.281288,-11251.130318,592.164754,-689.485948
3636.281617,-11177.109724,370.102971,842.705048
3636.281947,-10510.924376,-148.041188,306.438199
3636.282277,-8956.491898,-1036.288319,229.828649
3636.282607,-8216.285956,-1258.350101,766.095498
3636.282936,-8364.327145,-148.041188,1838.629195
3636.283266,-9474.636058,370.102971,842.705048
3636.283596,-10436.903782,1332.370696,-1072.533697
3636.283926,-10807.006753,370.102971,-1915.238745
3636.284256,-11621.233289,444.123565,-536.266849
3636.284585,-11177.109724,-518.144159,76.609550
3636.284915,-9770.718434,-1184.329507,919.314598
3636.285245,-8364.327145,-1850.514855,689.485948
3636.285575,-8068.244768,-1332.370696,766.095498
3636.285904,-8734.430116,-444.123565,612.876398
3636.286234,-9918.759623,0.000000,-842.705048
3636.286564,-10807.006753,-222.061783,-229.828649
3636.286894,-11325.150913,-518.144159,1072.533697
3636.287223,-11177.109724,-666.185348,1915.238745
3636.287553,-10066.800811,-1628.453072,1378.971896
3636.287883,-8808.450710,-1850.514855,1072.533697
3636.288213,-8216.285956,-1480.411884,1149.143247
3636.288543,-9252.574275,-740.205942,1608.800546
3636.288872,-9992.780217,0.000000,0.000000
3636.289202,-10732.986159,518.144159,-459.657299
3636.289532,-11029.068536,0.000000,-766.095498
3636.289862,-10807.006753,-222.061783,-383.047749
3636.290191,-10584.944971,-1184.329507,0.000000
3636.290521,-9030.512492,-1924.535449,-229.828649
3636.290851,-8068.244768,-1628.453072,0.000000
3636.291181,-7846.182985,-740.205942,306.438199
3636.291511,-8660.409521,0.000000,-689.485948
3636.291840,-10140.821405,0.000000,-1532.190996
3636.292170,-11029.068536,0.000000,-766.095498
3636.292500,-10807.006753,-148.041188,0.000000
3636.292830,-10140.821405,-814.226536,459.657299
3636.293159,-9474.636058,-1332.370696,536.266849
3636.293489,-8882.471304,-1406.391290,1149.143247
3636.293819,-8660.409521,-444.123565,919.314598
3636.294149,-9252.574275,74.020594,612.876398
3636.294478,-10362.883188,518.144159,-1455.581446
3636.294808,-10881.027347,814.226536,-1302.362347
3636.295138,-11399.171507,370.102971,-229.828649
3636.295468,-10436.903782,148.041188,919.314598
3636.295798,-9918.759623,-444.123565,0.000000
3636.296127,-8808.450710,-740.205942,76.609550
3636.296457,-8586.388927,0.000000,612.876398
3636.296787,-8438.347739,370.102971,153.219100
3636.297117,-9400.615463,666.185348,-766.095498
3636.297446,-10658.965565,814.226536,-766.095498
3636.297776,-11177.109724,518.144159,306.438199
3636.298106,-11103.089130,370.102971,1762.019645
3636.298436,-9548.656652,-296.082377,919.314598
3636.298766,-8364.327145,-592.164754,459.657299
3636.299095,-8142.265362,-296.082377,1378.971896
3636.299425,-8956.491898,296.082377,1762.019645
3636.299755,-9844.739029,1480.411884,383.047749
3636.300085,-10510.924376,1776.494261,-995.924147
3636.300414,-10732.986159,1332.370696,-612.876398
3636.300744,-10658.965565,1110.308913,153.219100
3636.301074,-10362.883188,444.123565,459.657299
3636.301404,-9104.533087,0.000000,919.314598
3636.301733,-8216.285956,0.000000,1225.752797
3636.302063,-8216.285956,814.226536,919.314598
3636.302393,-9178.553681,1258.350101,153.219100
3636.302723,-10436.903782,1554.432478,-229.828649
3636.303053,-11029.068536,1406.391290,76.609550
3636.303382,-10807.006753,1406.391290,1378.971896
3636.303712,-10658.965565,962.267725,995.924147
3636.304042,-9622.677246,370.102971,459.657299
3636.304372,-8660.409521,0.000000,383.047749
3636.304701,-8956.491898,518.144159,919.314598
3636.305031,-9474.636058,1332.370696,842.705048
3636.305361,-10066.800811,1110.308913,-612.876398
3636.305691,-10066.800811,740.205942,-995.924147
3636.306021,-10362.883188,814.226536,76.609550
3636.306350,-10362.883188,444.123565,1685.410096
3636.306680,-10436.903782,0.000000,1225.752797
3636.307010,-9622.677246,-148.041188,1532.190996
3636.307340,-8660.409521,74.020594,1302.362347
3636.307669,-8956.491898,888.247130,153.219100
3636.307999,-10140.821405,666.185348,-689.485948
3636.308329,-10584.944971,592.164754,-1072.533697
3636.308659,-10658.965565,370.102971,0.000000
3636.308988,-10362.883188,0.000000,153.219100
3636.309318,-9770.718434,-74.020594,0.000000
3636.309648,-9030.512492,-888.247130,-612.876398
3636.309978,-8512.368333,-444.123565,612.876398
3636.310308,-9104.533087,74.020594,995.924147
3636.310637,-9474.636058,740.205942,-229.828649
3636.310967,-10658.965565,296.082377,-1149.143247
3636.311297,-10881.027347,0.000000,-689.485948
3636.311627,-10807.006753,-370.102971,229.828649
3636.311956,-10584.944971,-1110.308913,0.000000
3636.312286,-9104.533087,-1480.411884,76.609550
3636.312616,-8142.265362,-1258.350101,229.828649
3636.312946,-8216.285956,-370.102971,459.657299
3636.313276,-9178.553681,74.020594,-306.438199
3636.313605,-10436.903782,0.000000,-842.705048
3636.313935,-11029.068536,0.000000,-612.876398
3636.314265,-11251.130318,-296.082377,0.000000
3636.314595,-10732.986159,-740.205942,0.000000
3636.314924,-8882.471304,-1702.473667,-306.438199
3636.315254,-8512.368333,-1776.494261,383.047749
3636.315584,-8216.285956,-1110.308913,1149.143247
3636.315914,-9326.594869,-296.082377,842.705048
3636.316243,-9992.780217,296.082377,153.219100
3636.316573,-10658.965565,0.000000,-612.876398
3636.316903,-10955.047942,-148.041188,-229.828649
3636.317233,-10955.047942,-666.185348,306.438199
3636.317563,-9918.759623,-1480.411884,0.000000
3636.317892,-8956.491898,-1924.535449,76.609550
3636.318222,-8142.265362,-962.267725,306.438199
3636.318552,-8438.347739,-444.123565,229.828649
3636.318882,-9622.677246,0.000000,-766.095498
3636.319211,-10658.965565,0.000000,-689.485948
3636.319541,-11325.150913,0.000000,76.609550
3636.319871,-10955.047942,-518.144159,459.657299
3636.320201,-9992.780217,-1036.288319,383.047749
3636.320531,-9104.533087,-1628.453072,612.876398
3636.320860,-8364.327145,-1480.411884,1302.362347
3636.321190,-8882.471304,-444.123565,1225.752797
3636.321520,-9326.594869,0.000000,-459.657299
3636.321850,-10140.821405,444.123565,-2068.457845
3636.322179,-10658.965565,74.020594,0.000000
3636.322509,-10584.944971,148.041188,842.705048
3636.322839,-10214.842000,-296.082377,842.705048
3636.323169,-9474.636058,-444.123565,459.657299
3636.323498,-8882.471304,-592.164754,383.047749
3636.323828,-8808.450710,0.000000,536.266849
3636.324158,-9030.512492,666.185348,0.000000
3636.324488,-9770.718434,1036.288319,-1072.533697
3636.324818,-10288.862594,962.267725,-536.266849
3636.325147,-10658.965565,814.226536,612.876398
3636.325477,-10362.883188,740.205942,766.095498
3636.325807,-9474.636058,148.041188,0.000000
3636.326137,-8882.471304,296.082377,-306.438199
3636.326466,-9178.553681,740.205942,1455.581446
3636.326796,-9474.636058,1332.370696,995.924147
3636.327126,-9770.718434,1628.453072,0.000000
3636.327456,-10214.842000,1850.514855,-536.266849
3636.327786,-10807.006753,1036.288319,612.876398
3636.328115,-11103.089130,888.247130,1762.019645
3636.328445,-10510.924376,370.102971,1378.971896
3636.328775,-9474.636058,0.000000,1532.190996
3636.329105,-8660.409521,518.144159,1455.581446
3636.329434,-9030.512492,814.226536,1378.971896
3636.329764,-9548.656652,1036.288319,306.438199
3636.330094,-10288.862594,1406.391290,0.000000
3636.330424,-10510.924376,1406.391290,612.876398
3636.330753,-10436.903782,888.247130,536.266849
3636.331083,-9548.656652,814.226536,153.219100
3636.331413,-8586.388927,222.061783,0.000000
3636.331743,-8290.306550,592.164754,1302.362347
3636.332073,-9326.594869,888.247130,1302.362347
3636.332402,-9992.780217,1480.411884,0.000000
3636.332732,-10584.944971,1258.350101,-1225.752797
3636.333062,-10955.047942,740.205942,-306.438199
3636.333392,-10881.027347,740.205942,842.705048
3636.333721,-10288.862594,0.000000,1072.533697
3636.334051,-9252.574275,-518.144159,536.266849
3636.334381,-8068.244768,-296.082377,995.924147
3636.334711,-8068.244768,74.020594,766.095498
3636.335041,-9030.512492,740.205942,-459.657299
3636.335370,-10288.862594,962.267725,-1608.800546
3636.335700,-10955.047942,814.226536,-1302.362347
3636.336030,-10955.047942,518.144159,-459.657299
3636.336360,-10288.862594,0.000000,-76.609550
3636.336689,-9030.512492,-962.267725,-766.095498
3636.337019,-8142.265362,-1258.350101,229.828649
3636.337349,-8734.430116,-370.102971,995.924147
3636.337679,-9992.780217,370.102971,995.924147
3636.338008,-10066.800811,370.102971,-919.314598
3636.338338,-10881.027347,148.041188,-1149.143247
3636.338668,-11399.171507,74.020594,0.000000
3636.338998,-11103.089130,-444.123565,766.095498
3636.339328,-10214.842000,-1258.350101,-153.219100
3636.339657,-8660.409521,-1628.453072,229.828649
3636.339987,-8512.368333,-1036.288319,919.314598
3636.340317,-8956.491898,-592.164754,383.047749
3636.340647,-9770.718434,-518.144159,-766.095498
3636.340976,-10584.944971,-296.082377,-536.266849
3636.341306,-11103.089130,74.020594,0.000000
3636.341636,-11029.068536,-518.144159,383.047749
3636.341966,-10436.903782,-888.247130,842.705048
3636.342295,-8808.450710,-1924.535449,229.828649
3636.342625,-8660.409521,-1406.391290,1225.752797
3636.342955,-9326.594869,-740.205942,1072.533697
3636.343285,-9696.697840,0.000000,229.828649
3636.343615,-10436.903782,-370.102971,-842.705048
3636.343944,-10436.903782,-444.123565,-153.219100
3636.344274,-10362.883188,-666.185348,612.876398
3636.344604,-9992.780217,-1258.350101,919.314598
3636.344934,-9178.553681,-1776.494261,689.485948
3636.345263,-8734.430116,-1480.411884,842.705048
3636.345593,-8586.388927,-962.267725,842.705048
3636.345923,-9104.533087,-222.061783,0.000000
3636.346253,-9622.677246,148.041188,-919.314598
3636.346583,-10362.883188,0.000000,-306.438199
3636.346912,-10658.965565,222.061783,229.828649
3636.347242,-10288.862594,-296.082377,153.219100
3636.347572,-9844.739029,-518.144159,-306.438199
3636.347902,-9178.553681,-740.205942,612.876398
3636.348231,-9104.533087,-444.123565,1378.971896
3636.348561,-9474.636058,370.102971,459.657299
3636.348891,-9770.718434,592.164754,-1302.362347
3636.349221,-10140.821405,740.205942,-1302.362347
3636.349550,-10584.944971,592.164754,-153.219100
3636.349880,-10732.986159,296.082377,459.657299
3636.350210,-10362.883188,-222.061783,0.000000
3636.350540,-9474.636058,0.000000,919.314598
3636.350870,-8586.388927,0.000000,919.314598
3636.351199,-8660.409521,592.164754,1072.533697
3636.351529,-9548.656652,814.226536,-306.438199
3636.351859,-10362.883188,814.226536,0.000000
3636.352189,-11103.089130,962.267725,842.705048
3636.352518,-10881.027347,962.267725,1378.971896
3636.352848,-10066.800811,148.041188,842.705048
3636.353178,-8956.491898,0.000000,919.314598
3636.353508,-8586.388927,222.061783,1455.581446
3636.353838,-9104.533087,888.247130,1532.190996
3636.354167,-9770.718434,1628.453072,229.828649
3636.354497,-9992.780217,1406.391290,-612.876398
3636.354827,-10140.821405,1924.535449,-153.219100
3636.355157,-10807.006753,1554.432478,459.657299
3636.355486,-10140.821405,1110.308913,229.828649
3636.355816,-9178.553681,148.041188,229.828649
3636.356146,-8216.285956,740.205942,1072.533697
3636.356476,-8808.450710,888.247130,995.924147
3636.356805,-9474.636058,1332.370696,459.657299
3636.357135,-10066.800811,1184.329507,-689.485948
3636.357465,-10732.986159,1480.411884,-612.876398
3636.357794,-11029.068536,1110.308913,536.266849
3636.358124,-10214.842000,962.267725,76.609550
3636.358454,-9326.594869,74.020594,76.609550
3636.358784,-9030.512492,148.041188,919.314598
3636.359113,-9252.574275,518.144159,1302.362347
3636.359443,-9770.718434,962.267725,383.047749
3636.359773,-10066.800811,1036.288319,-1532.190996
3636.360102,-10214.842000,962.267725,-1838.629195
3636.360432,-10658.965565,666.185348,-1072.533697
3636.360762,-10732.986159,296.082377,459.657299
3636.361092,-9696.697840,-592.164754,153.219100
3636.361421,-8882.471304,-740.205942,536.266849
3636.361751,-8660.409521,370.102971,766.095498
3636.362081,-9178.553681,518.144159,459.657299
3636.362410,-10140.821405,666.185348,-766.095498
3636.362740,-10881.027347,370.102971,-766.095498
3636.363070,-11029.068536,222.061783,0.000000
3636.363399,-11325.150913,0.000000,229.828649
3636.363729,-9992.780217,-666.185348,0.000000
3636.364059,-9104.533087,-1332.370696,0.000000
3636.364389,-8808.450710,-1110.308913,1225.752797
3636.364718,-8734.430116,-296.082377,612.876398
3636.365048,-9474.636058,-222.061783,-842.705048
3636.365378,-9622.677246,0.000000,-995.924147
3636.365707,-10362.883188,0.000000,0.000000
3636.366037,-10436.903782,-444.123565,0.000000
3636.366367,-10066.800811,-1258.350101,153.219100
3636.366697,-8956.491898,-1628.453072,383.047749
3636.367026,-9030.512492,-1628.453072,1149.143247
3636.367356,-9400.615463,-444.123565,1302.362347
3636.367686,-9770.718434,-518.144159,229.828649
3636.368015,-10436.903782,-370.102971,-842.705048
3636.368345,-10807.006753,-444.123565,-459.657299
3636.368675,-10732.986159,-740.205942,153.219100
3636.369005,-10436.903782,-740.205942,153.219100
3636.369334,-9326.594869,-2072.576638,153.219100
3636.369664,-8364.327145,-1776.494261,689.485948
3636.369994,-8586.388927,-1110.308913,919.314598
3636.370323,-8808.450710,-148.041188,-306.438199
3636.370653,-9918.759623,0.000000,-1455.581446
3636.370983,-10881.027347,-296.082377,-1072.533697
3636.371313,-10807.006753,-370.102971,76.609550
3636.371642,-10881.027347,-444.123565,995.924147
3636.371972,-9770.718434,-1850.514855,766.095498
3636.372302,-8438.347739,-1850.514855,995.924147
3636.372631,-8068.244768,-1406.391290,1225.752797
3636.372961,-8882.471304,-74.020594,459.657299
3636.373291,-9844.739029,148.041188,-689.485948
3636.373620,-10732.986159,296.082377,-766.095498
3636.373950,-11399.171507,296.082377,-306.438199
3636.374280,-10658.965565,0.000000,0.000000
3636.374610,-9326.594869,-444.123565,-842.705048
3636.374939,-8512.368333,-1110.308913,0.000000
3636.375269,-8734.430116,-518.144159,536.266849
3636.375599,-9030.512492,0.000000,612.876398
3636.375928,-9770.718434,740.205942,-1608.800546
3636.376258,-10066.800811,592.164754,-1225.752797
3636.376588,-10881.027347,592.164754,0.000000
3636.376918,-10584.944971,74.020594,1608.800546
3636.377247,-10214.842000,-370.102971,995.924147
3636.377577,-8586.388927,-370.102971,612.876398
3636.377907,-8068.244768,0.000000,1149.143247
3636.378236,-8438.347739,814.226536,1225.752797
3636.378566,-9548.656652,1258.350101,306.438199
3636.378896,-10214.842000,1332.370696,-995.924147
3636.379226,-11251.130318,1332.370696,-383.047749
3636.379555,-10955.047942,1036.288319,153.219100
3636.379885,-10288.862594,962.267725,459.657299
3636.380215,-8956.491898,296.082377,-229.828649
3636.380544,-8142.265362,518.144159,1532.190996
3636.380874,-8660.409521,1258.350101,1762.019645
3636.381204,-9992.780217,2368.659014,612.876398
3636.381534,-10881.027347,2368.659014,-1149.143247
3636.381863,-11103.089130,2072.576638,-1225.752797
3636.382193,-10955.047942,1406.391290,459.657299
3636.382523,-10436.903782,592.164754,995.924147
3636.382852,-9548.656652,0.000000,995.924147
3636.383182,-7994.224174,148.041188,1149.143247
3636.383512,-7994.224174,666.185348,1685.410096
3636.383841,-8808.450710,1702.473667,1149.143247
3636.384171,-10066.800811,1998.556043,-383.047749
3636.384501,-10510.924376,1702.473667,-919.314598
3636.384831,-11029.068536,1332.370696,612.876398
3636.385160,-10955.047942,888.247130,1378.971896
3636.385490,-9844.739029,296.082377,689.485948
3636.385820,-8364.327145,-370.102971,383.047749
3636.386149,-8438.347739,222.061783,1378.971896
3636.386479,-9252.574275,888.247130,995.924147
3636.386809,-10066.800811,1480.411884,-689.485948
3636.387139,-10436.903782,1406.391290,-1762.019645
3636.387468,-10658.965565,1110.308913,-995.924147
3636.387798,-10881.027347,814.226536,459.657299
3636.388128,-9918.759623,-222.061783,536.266849
3636.388457,-8734.430116,-740.205942,536.266849
3636.388787,-8364.327145,-222.061783,1532.190996
3636.389117,-8956.491898,148.041188,1225.752797
3636.389447,-9918.759623,518.144159,-383.047749
3636.389776,-10807.006753,592.164754,-1838.629195
3636.390106,-11029.068536,148.041188,-153.219100
3636.390436,-11251.130318,222.061783,919.314598
3636.390765,-10066.800811,-666.185348,842.705048
3636.391095,-8882.471304,-1628.453072,0.000000
3636.391425,-8216.285956,-1480.411884,306.438199
3636.391755,-9178.553681,-518.144159,995.924147
3636.392084,-9548.656652,0.000000,0.000000
3636.392414,-10214.842000,296.082377,-1762.019645
3636.392744,-10436.903782,148.041188,-1455.581446
3636.393073,-10807.006753,222.061783,-383.047749
3636.393403,-10955.047942,-1036.288319,383.047749
3636.393733,-9844.739029,-2146.597232,383.047749
3636.394062,-8142.265362,-2368.659014,919.314598
3636.394392,-8068.244768,-1480.411884,1149.143247
3636.394722,-8586.388927,-1036.288319,842.705048
3636.395052,-9400.615463,-814.226536,-459.657299
3636.395381,-10140.821405,-444.123565,-536.266849
3636.395711,-11029.068536,-296.082377,-76.609550
3636.396041,-11177.109724,-518.144159,536.266849
3636.396370,-9770.718434,-1554.432478,0.000000
3636.396700,-8512.368333,-2072.576638,306.438199
3636.397030,-8364.327145,-1110.308913,919.314598
3636.397360,-9178.553681,-740.205942,536.266849
3636.397689,-10066.800811,0.000000,-842.705048
3636.398019,-10436.903782,-296.082377,-1532.190996
3636.398349,-10658.965565,-222.061783,-459.657299
3636.398678,-10881.027347,-296.082377,306.438199
3636.399008,-9918.759623,-962.267725,919.314598
3636.399338,-8956.491898,-1332.370696,919.314598
3636.399668,-8586.388927,-962.267725,1608.800546
3636.399997,-9030.512492,296.082377,766.095498
3636.400327,-9918.759623,148.041188,0.000000
3636.400657,-10732.986159,740.205942,-919.314598
3636.400986,-11621.233289,296.082377,-383.047749
3636.401316,-11325.150913,148.041188,612.876398
3636.401646,-9548.656652,-518.144159,153.219100
3636.401976,-8364.327145,-1184.329507,76.609550
3636.402305,-8142.265362,-888.247130,995.924147
3636.402635,-8808.450710,222.061783,1378.971896
3636.402965,-9474.636058,1332.370696,-383.047749
3636.403294,-10362.883188,1332.370696,-1991.848295
3636.403624,-11029.068536,1184.329507,-1302.362347
3636.403954,-10955.047942,592.164754,229.828649
3636.404283,-10214.842000,0.000000,1455.581446
3636.404613,-9030.512492,-444.123565,1225.752797
3636.404943,-7846.182985,-370.102971,1225.752797
3636.405273,-8142.265362,444.123565,1455.581446
3636.405602,-8956.491898,1184.329507,995.924147
3636.405932,-10288.862594,1776.494261,-229.828649
3636.406262,-10955.047942,1554.432478,-306.438199
3636.406591,-11103.089130,1332.370696,842.705048
3636.406921,-10436.903782,888.247130,919.314598
3636.407251,-9400.615463,814.226536,383.047749
3636.407581,-8586.388927,148.041188,229.828649
3636.407910,-8734.430116,814.226536,1532.190996
3636.408240,-8956.491898,1554.432478,689.485948
3636.408570,-9474.636058,2146.597232,-536.266849
3636.408899,-10362.883188,1924.535449,-1455.581446
3636.409229,-10732.986159,1702.473667,-76.609550
3636.409559,-10658.965565,1184.329507,459.657299
3636.409889,-9474.636058,444.123565,689.485948
3636.410218,-8734.430116,74.020594,919.314598
3636.410548,-8660.409521,444.123565,1915.238745
3636.410878,-9178.553681,1258.350101,1838.629195
3636.411207,-9770.718434,1480.411884,153.219100
3636.411537,-10658.965565,1702.473667,-1378.971896
3636.411867,-11843.295072,1628.453072,-306.438199
3636.412197,-11251.130318,814.226536,766.095498
3636.412526,-10140.821405,222.061783,1149.143247
3636.412856,-8956.491898,-296.082377,306.438199
3636.413186,-8216.285956,-666.185348,1072.533697
3636.413515,-8586.388927,148.041188,1072.533697
3636.413845,-9400.615463,592.164754,76.609550
3636.414175,-10658.965565,1258.350101,-1685.410096
3636.414504,-11177.109724,888.247130,-766.095498
3636.414834,-11251.130318,222.061783,536.266849
3636.415164,-10584.944971,-592.164754,612.876398
3636.415494,-9178.553681,-1702.473667,306.438199
3636.415823,-8364.327145,-1628.453072,536.266849
3636.416153,-8142.265362,-814.226536,842.705048
3636.416483,-8882.471304,222.061783,383.047749
3636.416812,-9992.780217,222.061783,-919.314598
3636.417142,-10510.924376,-444.123565,-1225.752797
3636.417472,-11251.130318,-444.123565,-306.438199
3636.417802,-10510.924376,-888.247130,76.609550
3636.418131,-9474.636058,-1628.453072,-229.828649
3636.418461,-8364.327145,-1776.494261,-76.609550
3636.418791,-8216.285956,-1702.473667,1225.752797
3636.419120,-9178.553681,-592.164754,536.266849
3636.419450,-10140.821405,-222.061783,-842.705048
3636.419780,-10732.986159,296.082377,-2374.896044
3636.420110,-11325.150913,-370.102971,-766.095498
3636.420439,-10881.027347,-888.247130,76.609550
3636.420769,-9770.718434,-1924.535449,0.000000
3636.421099,-8364.327145,-2294.638420,153.219100
3636.421428,-8364.327145,-1480.411884,1072.533697
3636.421758,-9030.512492,-370.102971,1149.143247
3636.422088,-9622.677246,-74.020594,-306.438199
3636.422418,-10362.883188,0.000000,-1149.143247
3636.422747,-11399.171507,0.000000,-612.876398
3636.423077,-11399.171507,-444.123565,1149.143247
3636.423407,-10881.027347,-1036.288319,995.924147
3636.423736,-9400.615463,-1776.494261,766.095498
3636.424066,-8734.430116,-1776.494261,1532.190996
3636.424396,-8660.409521,-962.267725,1225.752797
3636.424725,-9178.553681,-370.102971,-383.047749
3636.425055,-9696.697840,296.082377,-1685.410096
3636.425385,-10510.924376,296.082377,-842.705048
3636.425715,-10807.006753,444.123565,229.828649
3636.426044,-10362.883188,-444.123565,612.876398
3636.426374,-9696.697840,-1406.391290,459.657299
3636.426704,-9030.512492,-1184.329507,995.924147
3636.427033,-8660.409521,-1184.329507,1455.581446
3636.427363,-9326.594869,0.000000,1072.533697
3636.427693,-9622.677246,74.020594,-153.219100
3636.428023,-10140.821405,592.164754,-306.438199
3636.428352,-10288.862594,814.226536,995.924147
3636.428682,-10510.924376,592.164754,229.828649
3636.429012,-9400.615463,74.020594,-383.047749
3636.429341,-8734.430116,74.020594,0.000000
3636.429671,-8808.450710,666.185348,919.314598
3636.430001,-9474.636058,1332.370696,306.438199
3636.430331,-9918.759623,1702.473667,-1762.019645
3636.430660,-10436.903782,1480.411884,-2681.334243
3636.430990,-10658.965565,888.247130,-1378.971896
3636.431320,-10658.965565,814.226536,229.828649
3636.431649,-10140.821405,370.102971,1072.533697
3636.431979,-8734.430116,0.000000,1225.752797
3636.432309,-8512.368333,222.061783,1685.410096
3636.432639,-8882.471304,1258.350101,995.924147
3636.432968,-9918.759623,1628.453072,-536.266849
3636.433298,-10436.903782,1184.329507,-919.314598
3636.433628,-11103.089130,1480.411884,612.876398
3636.433957,-11103.089130,1110.308913,1915.238745
3636.434287,-9622.677246,148.041188,1225.752797
3636.434617,-8290.306550,0.000000,306.438199
3636.434946,-8438.347739,148.041188,689.485948
3636.435276,-9400.615463,1110.308913,1455.581446
3636.435606,-10362.883188,1998.556043,0.000000
3636.435936,-10584.944971,1554.432478,-995.924147
3636.436265,-10807.006753,1480.411884,-306.438199
3636.436595,-10510.924376,888.247130,842.705048
3636.436925,-10214.842000,370.102971,842.705048
3636.437254,-9030.512492,-518.144159,0.000000
3636.437584,-8290.306550,-296.082377,995.924147
3636.437914,-8956.491898,518.144159,1838.629195
3636.438244,-10066.800811,1702.473667,766.095498
3636.438573,-10288.862594,1184.329507,76.609550
3636.438903,-10658.965565,962.267725,0.000000
3636.439233,-11325.150913,814.226536,459.657299
3636.439562,-10881.027347,0.000000,919.314598
3636.439892,-9326.594869,-740.205942,229.828649
3636.440222,-8438.347739,-592.164754,842.705048
3636.440552,-8882.471304,148.041188,1762.019645
3636.440881,-9992.780217,888.247130,612.876398
3636.441211,-10214.842000,592.164754,-1455.581446
3636.441541,-10288.862594,296.082377,-2221.676944
3636.441870,-10362.883188,148.041188,-459.657299
3636.442200,-10658.965565,-370.102971,766.095498
3636.442530,-9770.718434,-814.226536,536.266849
3636.442859,-8808.450710,-1184.329507,919.314598
3636.443189,-8438.347739,-666.185348,689.485948
3636.443519,-8734.430116,-74.020594,536.266849
3636.443849,-9326.594869,296.082377,-306.438199
3636.444178,-10066.800811,0.000000,-306.438199
3636.444508,-10881.027347,296.082377,919.314598
3636.444838,-10881.027347,-296.082377,1149.143247
3636.445167,-10140.821405,-592.164754,306.438199
3636.445497,-8808.450710,-1184.329507,-995.924147
3636.445827,-9104.533087,-1184.329507,153.219100
3636.446157,-9474.636058,-296.082377,689.485948
3636.446486,-10066.800811,148.041188,76.609550
3636.446816,-10140.821405,0.000000,-842.705048
3636.447146,-10584.944971,0.000000,-1532.190996
3636.447475,-10732.986159,-296.082377,-383.047749
3636.447805,-10436.903782,-740.205942,76.609550
3636.448135,-9178.553681,-1702.473667,306.438199
3636.448465,-8290.306550,-1850.514855,1455.581446
3636.448794,-8438.347739,-1110.308913,2221.676944
3636.449124,-9474.636058,-518.144159,1302.362347
3636.449454,-10140.821405,-370.102971,-536.266849
3636.449783,-10732.986159,-296.082377,-1072.533697
3636.450113,-11325.150913,-370.102971,76.609550
3636.450443,-10955.047942,-592.164754,842.705048
3636.450773,-9548.656652,-1184.329507,612.876398
3636.451102,-8216.285956,-1554.432478,306.438199
3636.451432,-8586.388927,-740.205942,229.828649
3636.451762,-9178.553681,370.102971,-229.828649
3636.452091,-10288.862594,444.123565,-1991.848295
3636.452421,-10436.903782,592.164754,-1455.581446
3636.452751,-10955.047942,370.102971,-536.266849
3636.453080,-10510.924376,0.000000,306.438199
3636.453410,-10140.821405,-740.205942,0.000000
3636.453740,-9178.553681,-1406.391290,-306.438199
3636.454070,-8290.306550,-888.247130,383.047749
3636.454399,-8660.409521,0.000000,1149.143247
3636.454729,-9326.594869,74.020594,459.657299
3636.455058,-10584.944971,222.061783,153.219100
3636.455387,-11399.171507,518.144159,536.266849
3636.455717,-11251.130318,222.061783,766.095498
3636.456047,-9770.718434,-370.102971,-306.438199
3636.456377,-8586.388927,-888.247130,0.000000
3636.456707,-8068.244768,0.000000,1225.752797
3636.457037,-8586.388927,444.123565,919.314598
3636.457366,-9918.759623,1184.329507,-229.828649
3636.457696,-10362.883188,1332.370696,-1991.848295
3636.458026,-11103.089130,1406.391290,-1072.533697
3636.458356,-11399.171507,740.205942,306.438199
3636.458686,-10362.883188,74.020594,1072.533697
3636.459015,-8956.491898,-296.082377,766.095498
3636.459345,-8068.244768,-444.123565,1072.533697
3636.459675,-8512.368333,148.041188,1762.019645
3636.460005,-9252.574275,888.247130,1072.533697
3636.460335,-10288.862594,1332.370696,-383.047749
3636.460665,-10658.965565,1406.391290,229.828649
3636.460994,-11029.068536,1110.308913,1149.143247
3636.461324,-10658.965565,666.185348,1762.019645
3636.461654,-9474.636058,148.041188,153.219100
3636.461984,-8734.430116,0.000000,536.266849
3636.462314,-8808.450710,370.102971,1302.362347
3636.462643,-9474.636058,1480.411884,1072.533697
3636.462973,-9992.780217,1628.453072,-383.047749
3636.463303,-10584.944971,1554.432478,-1302.362347
3636.463633,-10658.965565,1184.329507,-383.047749
3636.463963,-10807.006753,962.267725,153.219100
3636.464293,-9844.739029,296.082377,536.266849
3636.464622,-9178.553681,0.000000,842.705048
3636.464952,-8956.491898,0.000000,1762.019645
3636.465282,-8808.450710,222.061783,1532.190996
3636.465612,-9474.636058,518.144159,153.219100
3636.465942,-10140.821405,592.164754,0.000000
3636.466271,-11251.130318,814.226536,919.314598
3636.466601,-11399.171507,370.102971,1455.581446
3636.466931,-10288.862594,-74.020594,1685.410096
3636.467261,-9104.533087,-518.144159,306.438199
3636.467591,-8660.409521,-592.164754,919.314598
3636.467921,-8956.491898,222.061783,995.924147
3636.468250,-9400.615463,666.185348,-229.828649
3636.468580,-9992.780217,962.267725,-2145.067394
3636.468910,-10732.986159,592.164754,-1685.410096
3636.469240,-11029.068536,222.061783,-383.047749
3636.469570,-10807.006753,0.000000,0.000000
3636.469900,-9548.656652,-888.247130,0.000000
3636.470229,-8734.430116,-1036.288319,459.657299
3636.470559,-8512.368333,-592.164754,1532.190996
3636.470889,-8956.491898,0.000000,612.876398
3636.471219,-9696.697840,148.041188,-383.047749
3636.471549,-10584.944971,148.041188,-306.438199
3636.471878,-11251.130318,296.082377,536.266849
3636.472208,-11029.068536,-148.041188,306.438199
3636.472538,-9474.636058,-962.267725,-306.438199
3636.472868,-8808.450710,-1850.514855,0.000000
3636.473198,-8734.430116,-814.226536,612.876398
3636.473528,-9400.615463,-296.082377,383.047749
3636.473857,-9992.780217,222.061783,-1225.752797
3636.474187,-10436.903782,296.082377,-1302.362347
3636.474517,-11177.109724,222.061783,-612.876398
3636.474847,-11177.109724,74.020594,-153.219100
3636.475177,-10288.862594,-814.226536,-306.438199
3636.475506,-9030.512492,-1406.391290,76.609550
3636.475836,-8586.388927,-1110.308913,612.876398
3636.476166,-8734.430116,-592.164754,995.924147
3636.476496,-9474.636058,-296.082377,0.000000
3636.476826,-10362.883188,-74.020594,-689.485948
3636.477156,-10732.986159,0.000000,383.047749
3636.477485,-11177.109724,-370.102971,995.924147
3636.477815,-10140.821405,-666.185348,919.314598
3636.478145,-9252.574275,-1332.370696,536.266849
3636.478475,-8364.327145,-1184.329507,1532.190996
3636.478805,-8660.409521,-518.144159,1532.190996
3636.479134,-9622.677246,0.000000,0.000000
3636.479464,-10288.862594,370.102971,-1685.410096
3636.479794,-11177.109724,444.123565,-919.314598
3636.480124,-10881.027347,222.061783,-229.828649
3636.480454,-10140.821405,-444.123565,-383.047749
3636.480784,-9178.553681,-1036.288319,-459.657299
3636.481113,-8586.388927,-814.226536,1072.533697
3636.481443,-8586.388927,0.000000,1378.971896
3636.481773,-9030.512492,0.000000,689.485948
3636.482103,-9918.759623,370.102971,-459.657299
3636.482433,-10658.965565,148.041188,0.000000
3636.482762,-11695.253884,518.144159,689.485948
3636.483092,-10955.047942,148.041188,689.485948
3636.483422,-9770.718434,-592.164754,306.438199
3636.483752,-9178.553681,-592.164754,766.095498
3636.484082,-9326.594869,-296.082377,1685.410096
3636.484412,-9252.574275,222.061783,1302.362347
3636.484741,-9252.574275,1036.288319,-689.485948
3636.485071,-9992.780217,888.247130,-1302.362347
3636.485401,-10510.924376,666.185348,0.000000
3636.485731,-10955.047942,814.226536,229.828649
3636.486061,-10066.800811,370.102971,0.000000
3636.486391,-9252.574275,0.000000,153.219100
3636.486720,-8808.450710,148.041188,919.314598
3636.487050,-9030.512492,592.164754,1072.533697
3636.487380,-9474.636058,1110.308913,0.000000
3636.487710,-10214.842000,814.226536,-612.876398
3636.488040,-10807.006753,1184.329507,919.314598
3636.488369,-10288.862594,666.185348,1149.143247
3636.488699,-10140.821405,296.082377,1149.143247
3636.489029,-9030.512492,0.000000,459.657299
3636.489359,-8586.388927,-148.041188,1455.581446
3636.489689,-8734.430116,444.123565,1991.848295
3636.490019,-9548.656652,1036.288319,229.828649
3636.490348,-10510.924376,1184.329507,-842.705048
3636.490678,-10881.027347,962.267725,-306.438199
3636.491008,-11177.109724,888.247130,306.438199
3636.491338,-10140.821405,148.041188,536.266849
3636.491668,-9474.636058,-222.061783,612.876398
3636.491997,-8586.388927,-444.123565,1302.362347
3636.492327,-8586.388927,148.041188,1915.238745
3636.492657,-9252.574275,814.226536,919.314598
3636.492987,-9918.759623,592.164754,-76.609550
3636.493317,-10732.986159,592.164754,76.609550
3636.493647,-11399.171507,666.185348,1149.143247
3636.493976,-10584.944971,0.000000,1685.410096
3636.494306,-9400.615463,-666.185348,383.047749
3636.494636,-8586.388927,-666.185348,536.266849
3636.494966,-8956.491898,-74.020594,1608.800546
3636.495296,-9918.759623,222.061783,1378.971896
3636.495625,-10510.924376,1036.288319,-689.485948
3636.495955,-10436.903782,962.267725,-1915.238745
3636.496285,-10658.965565,592.164754,-1455.581446
3636.496615,-10732.986159,0.000000,-536.266849
3636.496945,-9696.697840,-518.144159,0.000000
3636.497275,-8882.471304,-592.164754,459.657299
3636.497604,-8586.388927,-518.144159,842.705048
3636.497934,-8808.450710,0.000000,612.876398
3636.498264,-9474.636058,0.000000,-689.485948
3636.498594,-10658.965565,370.102971,-842.705048
3636.498924,-11177.109724,148.041188,383.047749
3636.499253,-10658.965565,296.082377,919.314598
3636.499583,-9844.739029,-222.061783,306.438199
3636.499913,-8882.471304,-814.226536,229.828649
3636.500243,-9030.512492,-814.226536,842.705048
3636.500573,-9252.574275,0.000000,919.314598
3636.500903,-9696.697840,222.061783,-536.266849
3636.501232,-9770.718434,444.123565,-1991.848295
3636.501562,-10658.965565,296.082377,-1378.971896
3636.501892,-10955.047942,0.000000,0.000000
3636.502222,-10436.903782,-518.144159,76.609550
3636.502552,-9178.553681,-1480.411884,-306.438199
3636.502881,-8586.388927,-1258.350101,536.266849
3636.503211,-8586.388927,-592.164754,2068.457845
3636.503541,-9030.512492,-370.102971,1149.143247
3636.503871,-9548.656652,-296.082377,-76.609550
3636.504201,-10732.986159,0.000000,-383.047749
3636.504531,-10807.006753,-296.082377,459.657299
3636.504860,-10510.924376,-370.102971,1072.533697
3636.505190,-9252.574275,-1406.391290,612.876398
3636.505520,-8586.388927,-1480.411884,766.095498
3636.505850,-8734.430116,-814.226536,1532.190996
3636.506180,-9474.636058,-74.020594,689.485948
3636.506510,-10140.821405,148.041188,-995.924147
3636.506839,-10436.903782,296.082377,-1915.238745
3636.507169,-10510.924376,296.082377,-766.095498
3636.507499,-10658.965565,0.000000,0.000000
3636.507829,-9918.759623,-740.205942,0.000000
3636.508159,-8660.409521,-962.267725,-153.219100
3636.508488,-8808.450710,-370.102971,689.485948
3636.508818,-8808.450710,222.061783,689.485948
3636.509148,-9918.759623,444.123565,-383.047749
3636.509478,-10881.027347,814.226536,-995.924147
3636.509808,-10955.047942,814.226536,-766.095498
3636.510138,-10732.986159,222.061783,306.438199
3636.510467,-9622.677246,-370.102971,459.657299
3636.510797,-9252.574275,-370.102971,766.095498
3636.511127,-8882.471304,-222.061783,1762.019645
3636.511457,-9030.512492,518.144159,1378.971896
3636.511787,-9474.636058,1184.329507,0.000000
3636.512116,-10436.903782,1184.329507,-1149.143247
3636.512446,-10955.047942,592.164754,-995.924147
3636.512776,-11547.212695,888.247130,383.047749
3636.513106,-10362.883188,0.000000,612.876398
3636.513436,-9178.553681,-444.123565,383.047749
3636.513766,-8512.368333,-518.144159,1685.410096
3636.514095,-8734.430116,370.102971,1225.752797
3636.514425,-9104.533087,962.267725,383.047749
3636.514755,-9770.718434,1110.308913,-612.876398
3636.515085,-10362.883188,962.267725,153.219100
3636.515415,-10881.027347,1406.391290,1608.800546
3636.515744,-10658.965565,814.226536,1225.752797
3636.516074,-9622.677246,0.000000,459.657299
3636.516404,-9030.512492,-370.102971,842.705048
3636.516734,-9252.574275,370.102971,2298.286494
3636.517064,-9474.636058,740.205942,1762.019645
3636.517394,-9844.739029,1332.370696,0.000000
3636.517723,-10658.965565,1036.288319,-919.314598
3636.518053,-10584.944971,1332.370696,0.000000
3636.518383,-10732.986159,148.041188,306.438199
3636.518713,-9696.697840,-666.185348,306.438199
3636.519043,-8586.388927,-592.164754,612.876398
3636.519372,-8290.306550,0.000000,1685.410096
3636.519702,-8364.327145,444.123565,1225.752797
3636.520032,-9474.636058,666.185348,-459.657299
3636.520362,-10510.924376,814.226536,-1149.143247
3636.520692,-11103.089130,666.185348,0.000000
3636.521022,-10881.027347,444.123565,919.314598
3636.521351,-9844.739029,0.000000,1149.143247
3636.521681,-9104.533087,-1184.329507,1072.533697
3636.522011,-8956.491898,-592.164754,995.924147
3636.522341,-9548.656652,296.082377,842.705048
3636.522671,-9770.718434,518.144159,-1072.533697
3636.523001,-10510.924376,814.226536,-1838.629195
3636.523330,-10955.047942,370.102971,-919.314598
3636.523660,-10436.903782,370.102971,766.095498
3636.523990,-9918.759623,-74.020594,0.000000
3636.524320,-9474.636058,-962.267725,-689.485948
3636.524650,-9326.594869,-1332.370696,383.047749
3636.524979,-9326.594869,-592.164754,1225.752797
3636.525309,-9548.656652,-296.082377,612.876398
3636.525639,-10140.821405,0.000000,-766.095498
3636.525969,-10510.924376,-74.020594,-842.705048
3636.526299,-10658.965565,-370.102971,153.219100
3636.526629,-10658.965565,-370.102971,383.047749
3636.526958,-9474.636058,-1258.350101,153.219100
3636.527288,-8660.409521,-1406.391290,995.924147
3636.527618,-8660.409521,-666.185348,1455.581446
3636.527948,-9326.594869,0.000000,1225.752797
3636.528278,-10140.821405,592.164754,-1378.971896
3636.528607,-10955.047942,148.041188,-1915.238745
3636.528937,-11103.089130,74.020594,-919.314598
3636.529267,-10732.986159,-148.041188,383.047749
3636.529597,-9770.718434,-1332.370696,153.219100
3636.529927,-8512.368333,-1406.391290,229.828649
3636.530257,-8364.327145,-814.226536,919.314598
3636.530586,-8512.368333,0.000000,689.485948
3636.530916,-9622.677246,148.041188,-919.314598
3636.531246,-10584.944971,222.061783,-766.095498
3636.531576,-11029.068536,222.061783,306.438199
3636.531906,-10955.047942,0.000000,919.314598
3636.532235,-9770.718434,-370.102971,995.924147
3636.532565,-8734.430116,-962.267725,383.047749
3636.532895,-8734.430116,-666.185348,1378.971896
3636.533225,-9030.512492,0.000000,1302.362347
3636.533555,-10066.800811,814.226536,0.000000
3636.533885,-10807.006753,962.267725,-1378.971896
3636.534214,-11177.109724,592.164754,-842.705048
3636.534544,-10584.944971,222.061783,229.828649
3636.534874,-9474.636058,-370.102971,0.000000
3636.535204,-8512.368333,-814.226536,76.609550
3636.535534,-8660.409521,-444.123565,766.095498
3636.535863,-9104.533087,0.000000,1225.752797
3636.536193,-9474.636058,518.144159,612.876398
3636.536523,-10362.883188,592.164754,-459.657299
3636.536853,-10807.006753,74.020594,-383.047749
3636.537183,-10732.986159,0.000000,766.095498
3636.537513,-9992.780217,-148.041188,919.314598
3636.537842,-9030.512492,-518.144159,689.485948
3636.538172,-8364.327145,-592.164754,1225.752797
3636.538502,-8734.430116,296.082377,1532.190996
3636.538832,-9400.615463,1332.370696,842.705048
3636.539162,-10436.903782,1628.453072,-1455.581446
3636.539492,-11325.150913,1258.350101,-1838.629195
3636.539821,-11177.109724,814.226536,-459.657299
3636.540151,-10584.944971,222.061783,306.438199
3636.540481,-9844.739029,-296.082377,153.219100
3636.540811,-8660.409521,-666.185348,689.485948
3636.541141,-8512.368333,0.000000,919.314598
3636.541470,-8882.471304,518.144159,766.095498
3636.541800,-9474.636058,962.267725,-612.876398
3636.542130,-10510.924376,962.267725,-766.095498
3636.542460,-11251.130318,814.226536,766.095498
3636.542790,-10658.965565,444.123565,1685.410096
3636.543120,-9400.615463,-222.061783,1302.362347
3636.543449,-8956.491898,-592.164754,842.705048
3636.543779,-8438.347739,-296.082377,1608.800546
3636.544109,-9178.553681,592.164754,1455.581446
3636.544439,-9844.739029,1258.350101,76.609550
3636.544769,-10584.944971,1702.473667,-1072.533697
3636.545098,-11399.171507,1554.432478,-689.485948
3636.545428,-11251.130318,962.267725,153.219100
3636.545758,-10362.883188,0.000000,383.047749
3636.546088,-9252.574275,-444.123565,0.000000
3636.546418,-8660.409521,148.041188,1608.800546
3636.546748,-8512.368333,444.123565,1608.800546
3636.547077,-9400.615463,1036.288319,766.095498
3636.547407,-10658.965565,1036.288319,-766.095498
3636.547737,-11399.171507,1110.308913,153.219100
3636.548067,-11547.212695,814.226536,842.705048
3636.548397,-10288.862594,0.000000,1225.752797
3636.548726,-9252.574275,-814.226536,1378.971896
3636.549056,-8660.409521,-814.226536,1455.581446
3636.549386,-8142.265362,-222.061783,1915.238745
3636.549716,-9030.512492,740.205942,536.266849
3636.550046,-9622.677246,888.247130,-1532.190996
3636.550376,-10732.986159,740.205942,-1991.848295
3636.550705,-10955.047942,740.205942,0.000000
3636.551035,-10510.924376,222.061783,459.657299
3636.551365,-9548.656652,-444.123565,-76.609550
3636.551695,-9030.512492,-814.226536,0.000000
3636.552025,-8734.430116,-740.205942,306.438199
3636.552354,-9252.574275,148.041188,0.000000
3636.552684,-9918.759623,296.082377,-1302.362347
3636.553014,-10732.986159,444.123565,-1302.362347
3636.553344,-11177.109724,74.020594,0.000000
3636.553674,-10658.965565,-296.082377,842.705048
3636.554004,-9548.656652,-740.205942,383.047749
3636.554333,-8586.388927,-1554.432478,153.219100
3636.554663,-8364.327145,-962.267725,919.314598
3636.554993,-9104.533087,0.000000,766.095498
3636.555323,-9622.677246,222.061783,-306.438199
3636.555653,-10732.986159,148.041188,-1302.362347
3636.555982,-11177.109724,0.000000,-536.266849
3636.556312,-10584.944971,-666.185348,0.000000
3636.556642,-9696.697840,-1110.308913,153.219100
3636.556972,-8882.471304,-1702.473667,0.000000
3636.557302,-8364.327145,-1036.288319,689.485948
3636.557632,-8882.471304,-740.205942,995.924147
3636.557961,-9474.636058,0.000000,76.609550
3636.558291,-10066.800811,222.061783,-995.924147
3636.558621,-11177.109724,0.000000,0.000000
3636.558951,-11473.192101,-444.123565,995.924147
3636.559280,-10436.903782,-962.267725,1378.971896
3636.559610,-9252.574275,-1702.473667,842.705048
3636.559940,-8364.327145,-1554.432478,1378.971896
3636.560270,-8660.409521,-888.247130,1762.019645
3636.560600,-9696.697840,0.000000,995.924147
3636.560929,-10288.862594,0.000000,-1302.362347
3636.561259,-10881.027347,148.041188,-1225.752797
3636.561589,-10955.047942,0.000000,-229.828649
3636.561919,-10362.883188,-370.102971,842.705048
3636.562248,-9474.636058,-888.247130,689.485948
3636.562578,-8438.347739,-1184.329507,766.095498
3636.562908,-8438.347739,-296.082377,1072.533697
3636.563238,-9252.574275,444.123565,153.219100
3636.563568,-9918.759623,518.144159,-995.924147
3636.563897,-11029.068536,444.123565,-1608.800546
3636.564227,-11029.068536,148.041188,-76.609550
3636.564557,-10658.965565,0.000000,919.314598
3636.564887,-9622.677246,-1036.288319,842.705048
3636.565217,-8586.388927,-888.247130,459.657299
3636.565546,-7920.203579,-370.102971,1072.533697
3636.565876,-9104.533087,444.123565,842.705048
3636.566206,-10510.924376,1184.329507,0.000000
3636.566536,-10955.047942,1110.308913,-842.705048
3636.566865,-11029.068536,1184.329507,-383.047749
3636.567195,-10807.006753,444.123565,766.095498
3636.567525,-9548.656652,0.000000,1532.190996
3636.567855,-8734.430116,-592.164754,306.438199
3636.568185,-8438.347739,0.000000,995.924147
3636.568514,-8586.388927,592.164754,1149.143247
3636.568844,-9474.636058,1480.411884,0.000000
3636.569174,-10362.883188,1332.370696,-995.924147
3636.569504,-11251.130318,1406.391290,-536.266849
3636.569834,-10955.047942,1036.288319,995.924147
3636.570163,-9992.780217,444.123565,689.485948
3636.570493,-8956.491898,444.123565,459.657299
3636.570823,-8660.409521,-74.020594,1149.143247
3636.571153,-9104.533087,814.226536,2374.896044
3636.571482,-9770.718434,1332.370696,1915.238745
3636.571812,-10436.903782,1776.494261,0.000000
3636.572142,-10436.903782,1628.453072,-995.924147
3636.572472,-10732.986159,1036.288319,76.609550
3636.572802,-10584.944971,592.164754,766.095498
3636.573131,-9474.636058,74.020594,842.705048
3636.573461,-8586.388927,0.000000,919.314598
3636.573791,-7920.203579,666.185348,1378.971896
3636.574121,-8882.471304,1110.308913,766.095498
3636.574450,-9992.780217,1332.370696,-689.485948
3636.574780,-11251.130318,1332.370696,-689.485948
3636.575110,-11325.150913,962.267725,612.876398
3636.575440,-10955.047942,370.102971,1455.581446
3636.575770,-9844.739029,0.000000,1378.971896
3636.576099,-8660.409521,0.000000,995.924147
3636.576429,-8882.471304,-296.082377,1149.143247
3636.576759,-9030.512492,666.185348,689.485948
3636.577089,-9992.780217,888.247130,-919.314598
3636.577419,-10436.903782,1036.288319,-995.924147
3636.577748,-11029.068536,666.185348,-383.047749
3636.578078,-10955.047942,444.123565,689.485948
3636.578408,-9844.739029,-444.123565,306.438199
3636.578738,-9104.533087,-1036.288319,-459.657299
3636.579067,-8734.430116,-518.144159,459.657299
3636.579397,-9030.512492,-296.082377,766.095498
3636.579727,-9696.697840,0.000000,0.000000
3636.580057,-10214.842000,74.020594,-995.924147
3636.580387,-10732.986159,0.000000,-919.314598
3636.580716,-10584.944971,-444.123565,-229.828649
3636.581046,-9696.697840,-1036.288319,-76.609550
3636.581376,-8734.430116,-1776.494261,-536.266849
3636.581706,-7920.203579,-1110.308913,1072.533697
3636.582036,-8734.430116,-740.205942,1838.629195
3636.582365,-9326.594869,0.000000,383.047749
3636.582695,-10362.883188,0.000000,-1762.019645
3636.583025,-10881.027347,0.000000,-1608.800546
3636.583355,-11547.212695,0.000000,0.000000
3636.583684,-10732.986159,-518.144159,919.314598
3636.584014,-9770.718434,-1110.308913,536.266849
3636.584344,-8660.409521,-1110.308913,153.219100
3636.584674,-8734.430116,-666.185348,459.657299
3636.585004,-9030.512492,0.000000,76.609550
3636.585333,-9696.697840,74.020594,-919.314598
3636.585663,-10807.006753,296.082377,-459.657299
3636.585993,-11029.068536,222.061783,842.705048
3636.586323,-10510.924376,-518.144159,1225.752797
3636.586652,-9844.739029,-1110.308913,766.095498
3636.586982,-9104.533087,-1628.453072,1149.143247
3636.587312,-9030.512492,-1184.329507,1608.800546
3636.587642,-9252.574275,-814.226536,1532.190996
3636.587972,-9918.759623,74.020594,-229.828649
3636.588301,-10140.821405,0.000000,-612.876398
3636.588631,-10362.883188,0.000000,76.609550
3636.588961,-10658.965565,74.020594,919.314598
3636.589291,-9770.718434,0.000000,0.000000
3636.589621,-9400.615463,-814.226536,229.828649
3636.589950,-9104.533087,-370.102971,536.266849
3636.590280,-8882.471304,-148.041188,1072.533697
3636.590610,-9326.594869,1110.308913,306.438199
3636.590940,-10807.006753,370.102971,-995.924147
3636.591269,-10881.027347,370.102971,-612.876398
3636.591599,-10362.883188,0.000000,-536.266849
3636.591929,-9696.697840,74.020594,-383.047749
3636.592259,-9252.574275,-444.123565,0.000000
3636.592589,-8438.347739,-518.144159,383.047749
3636.592918,-8290.306550,0.000000,612.876398
3636.593248,-8956.491898,666.185348,76.609550
3636.593578,-9548.656652,666.185348,-995.924147
3636.593908,-10436.903782,740.205942,-1149.143247
3636.594238,-10807.006753,962.267725,0.000000
3636.594567,-10362.883188,592.164754,612.876398
3636.594897,-10140.821405,370.102971,612.876398
3636.595227,-9474.636058,0.000000,689.485948
3636.595557,-8956.491898,370.102971,919.314598
3636.595886,-9104.533087,666.185348,689.485948
3636.596216,-9992.780217,962.267725,-459.657299
3636.596546,-10436.903782,1036.288319,-689.485948
3636.596876,-10510.924376,1110.308913,383.047749
3636.597206,-10436.903782,1406.391290,766.095498
3636.597535,-10140.821405,666.185348,536.266849
3636.597865,-9326.594869,148.041188,919.314598
3636.598195,-9326.594869,518.144159,1378.971896
3636.598525,-9622.677246,740.205942,1762.019645
3636.598854,-9844.739029,1036.288319,612.876398
3636.599184,-9474.636058,962.267725,-306.438199
3636.599514,-10362.883188,888.247130,76.609550
3636.599844,-10584.944971,814.226536,766.095498
3636.600174,-9992.780217,222.061783,1302.362347
3636.600503,-9252.574275,0.000000,919.314598
3636.600833,-8364.327145,0.000000,1608.800546
3636.601163,-8660.409521,592.164754,1378.971896
3636.601493,-9474.636058,1036.288319,842.705048
3636.601823,-10362.883188,814.226536,-383.047749
3636.602152,-10807.006753,592.164754,76.609550
3636.602482,-10881.027347,592.164754,842.705048
3636.602812,-10214.842000,0.000000,1072.533697
3636.603142,-9104.533087,-518.144159,536.266849
3636.603471,-8512.368333,-148.041188,306.438199
3636.603801,-8734.430116,0.000000,1455.581446
3636.604131,-9326.594869,740.205942,229.828649
3636.604461,-10288.862594,1110.308913,-1608.800546
3636.604791,-10584.944971,1110.308913,-1608.800546
3636.605120,-10881.027347,666.185348,-919.314598
3636.605450,-10510.924376,0.000000,-229.828649
3636.605780,-9844.739029,-666.185348,-306.438199
3636.606110,-9252.574275,-962.267725,0.000000
3636.606440,-9104.533087,-444.123565,1149.143247
3636.606769,-9474.636058,0.000000,1149.143247
3636.607099,-9918.759623,148.041188,-383.047749
3636.607429,-10658.965565,148.041188,-919.314598
3636.607759,-11399.171507,222.061783,0.000000
3636.608088,-11029.068536,-148.041188,842.705048
3636.608418,-9918.759623,-814.226536,0.000000
3636.608748,-8808.450710,-1554.432478,-459.657299
3636.609078,-8586.388927,-740.205942,0.000000
3636.609408,-9178.553681,-666.185348,689.485948
3636.609737,-9770.718434,0.000000,-383.047749
3636.610067,-10214.842000,74.020594,-1302.362347
3636.610397,-10584.944971,0.000000,-612.876398
3636.610727,-10510.924376,-444.123565,459.657299
3636.611056,-10066.800811,-962.267725,995.924147
3636.611386,-9104.533087,-1554.432478,842.705048
3636.611716,-8882.471304,-1554.432478,1532.190996
3636.612046,-8660.409521,-518.144159,2068.457845
3636.612376,-9548.656652,-296.082377,842.705048
3636.612705,-10288.862594,-74.020594,-919.314598
3636.613035,-10807.006753,-222.061783,-536.266849
3636.613365,-11029.068536,148.041188,-459.657299
3636.613695,-10584.944971,-518.144159,459.657299
3636.614025,-9548.656652,-1480.411884,229.828649
3636.614354,-8512.368333,-1628.453072,919.314598
3636.614684,-8808.450710,-888.247130,1608.800546
3636.615014,-9474.636058,-296.082377,842.705048
3636.615344,-9770.718434,0.000000,-1378.971896
3636.615673,-9918.759623,-296.082377,-1532.190996
3636.616003,-10066.800811,0.000000,-153.219100
3636.616333,-9992.780217,-222.061783,536.266849
3636.616663,-9696.697840,-888.247130,-76.609550
3636.616993,-9178.553681,-962.267725,0.000000
3636.617322,-9178.553681,-592.164754,459.657299
3636.617652,-9326.594869,370.102971,229.828649
3636.617982,-9844.739029,148.041188,-536.266849
3636.618312,-10510.924376,296.082377,-766.095498
3636.618642,-10955.047942,444.123565,-76.609550
3636.618971,-10436.903782,148.041188,306.438199
3636.619301,-9770.718434,0.000000,-612.876398
3636.619631,-8956.491898,-592.164754,-536.266849
3636.619961,-8882.471304,0.000000,612.876398
3636.620290,-9104.533087,666.185348,689.485948
3636.620620,-9474.636058,1036.288319,-612.876398
3636.620950,-9918.759623,1110.308913,-2068.457845
3636.621280,-10658.965565,888.247130,-689.485948
3636.621610,-10955.047942,740.205942,306.438199
3636.621939,-10362.883188,222.061783,536.266849
3636.622269,-9400.615463,-370.102971,1149.143247
3636.622599,-8882.471304,0.000000,1532.190996
3636.622929,-8956.491898,888.247130,2068.457845
3636.623258,-9622.677246,1332.370696,1378.971896
3636.623588,-10214.842000,1776.494261,-459.657299
3636.623918,-10807.006753,1628.453072,153.219100
3636.624248,-11103.089130,1628.453072,842.705048
3636.624578,-10881.027347,1258.350101,995.924147
3636.624907,-9696.697840,592.164754,229.828649
3636.625237,-9030.512492,0.000000,919.314598
3636.625567,-8956.491898,444.123565,1378.971896
3636.625897,-9474.636058,962.267725,1149.143247
3636.626227,-9104.533087,1036.288319,76.609550
3636.626556,-9622.677246,1110.308913,0.000000
3636.626886,-10214.842000,1258.350101,1149.143247
3636.627216,-10362.883188,962.267725,1762.019645
3636.627546,-9918.759623,222.061783,1991.848295
3636.627875,-9252.574275,74.020594,1608.800546
3636.628205,-9474.636058,814.226536,1762.019645
3636.628535,-9178.553681,962.267725,1378.971896
3636.628865,-9474.636058,666.185348,0.000000
3636.629195,-10288.862594,1036.288319,-689.485948
3636.629524,-11103.089130,1110.308913,-306.438199
3636.629854,-10881.027347,1036.288319,229.828649
3636.630184,-9844.739029,222.061783,-689.485948
3636.630514,-8734.430116,-296.082377,-306.438199
3636.630844,-8660.409521,0.000000,689.485948
3636.631173,-9326.594869,222.061783,689.485948
3636.631503,-9770.718434,814.226536,-536.266849
3636.631833,-9992.780217,740.205942,-2221.676944
3636.632163,-11103.089130,444.123565,-766.095498
3636.632492,-11177.109724,0.000000,306.438199
3636.632822,-10362.883188,-592.164754,689.485948
3636.633152,-9400.615463,-962.267725,383.047749
3636.633482,-8734.430116,-962.267725,1302.362347
3636.633812,-8882.471304,-518.144159,1225.752797
3636.634141,-9474.636058,74.020594,76.609550
3636.634471,-10288.862594,296.082377,-1302.362347
3636.634801,-10732.986159,74.020594,-995.924147
3636.635131,-11029.068536,0.000000,306.438199
3636.635460,-10732.986159,-444.123565,383.047749
3636.635790,-9918.759623,-1184.329507,-459.657299
3636.636120,-8808.450710,-1554.432478,153.219100
3636.636450,-8586.388927,-1332.370696,842.705048
3636.636780,-9474.636058,-296.082377,459.657299
3636.637109,-9770.718434,-222.061783,-995.924147
3636.637439,-10066.800811,-370.102971,-995.924147
3636.637769,-10584.944971,-370.102971,76.609550
3636.638099,-10436.903782,-814.226536,766.095498
3636.638429,-9696.697840,-1628.453072,383.047749
3636.638758,-9178.553681,-1776.494261,995.924147
3636.639088,-9178.553681,-1110.308913,1838.629195
3636.639418,-9400.615463,-592.164754,1225.752797
3636.639748,-9696.697840,-444.123565,-766.095498
3636.640077,-10658.965565,-592.164754,-1072.533697
3636.640407,-11103.089130,-444.123565,0.000000
3636.640737,-10881.027347,-296.082377,383.047749
3636.641067,-9548.656652,-1036.288319,0.000000
3636.641397,-8586.388927,-1480.411884,0.000000
3636.641726,-8364.327145,-1406.391290,612.876398
3636.642056,-8956.491898,0.000000,842.705048
3636.642386,-9400.615463,0.000000,-766.095498
3636.642716,-10362.883188,222.061783,-1685.410096
3636.643046,-10955.047942,370.102971,-459.657299
3636.643375,-10955.047942,-148.041188,689.485948
3636.643705,-10436.903782,-962.267725,459.657299
3636.644035,-9252.574275,-1332.370696,536.266849
3636.644365,-8364.327145,-1258.350101,766.095498
3636.644694,-8364.327145,-518.144159,1378.971896
3636.645024,-8882.471304,518.144159,842.705048
3636.645354,-9992.780217,444.123565,-612.876398
3636.645684,-11399.171507,666.185348,-459.657299
3636.646014,-11473.192101,296.082377,0.000000
3636.646343,-10140.821405,74.020594,-995.924147
3636.646673,-9326.594869,-666.185348,-612.876398
3636.647003,-8660.409521,-518.144159,689.485948
3636.647333,-8956.491898,0.000000,1532.190996
3636.647662,-9474.636058,592.164754,153.219100
3636.647992,-9992.780217,1036.288319,-1302.362347
3636.648322,-10584.944971,740.205942,-1685.410096
3636.648652,-10658.965565,814.226536,306.438199
3636.648982,-10288.862594,222.061783,766.095498
3636.649311,-8660.409521,-370.102971,1072.533697
3636.649641,-8216.285956,-370.102971,1225.752797
3636.649971,-8364.327145,370.102971,1532.190996
3636.650301,-9252.574275,962.267725,1149.143247
3636.650631,-9770.718434,1184.329507,-689.485948
3636.650960,-10658.965565,1406.391290,-383.047749
3636.651290,-11399.171507,1332.370696,612.876398
3636.651620,-11103.089130,1110.308913,1302.362347
3636.651950,-9474.636058,888.247130,229.828649
3636.652279,-8660.409521,222.061783,612.876398
3636.652609,-8734.430116,592.164754,1149.143247
3636.652939,-9548.656652,1332.370696,1378.971896
3636.653269,-10288.862594,1776.494261,-612.876398
3636.653599,-10214.842000,1776.494261,-1149.143247
3636.653928,-10732.986159,1406.391290,-153.219100
3636.654258,-10732.986159,888.247130,1455.581446
3636.654588,-9992.780217,296.082377,1685.410096
3636.654918,-8586.388927,-148.041188,1608.800546
3636.655248,-8216.285956,-296.082377,2145.067394
3636.655577,-8808.450710,444.123565,1991.848295
3636.655907,-9548.656652,888.247130,842.705048
3636.656237,-9918.759623,1628.453072,-1149.143247
3636.656567,-11029.068536,1332.370696,0.000000
3636.656897,-11325.150913,1258.350101,919.314598
3636.657227,-10288.862594,592.164754,153.219100
3636.657556,-9326.594869,148.041188,0.000000
3636.657886,-8882.471304,0.000000,612.876398
3636.658216,-9400.615463,370.102971,995.924147
3636.658546,-9918.759623,1110.308913,0.000000
3636.658876,-10066.800811,1110.308913,-2068.457845
3636.659206,-10140.821405,888.247130,-1991.848295
3636.659536,-11029.068536,592.164754,-383.047749
3636.659866,-10732.986159,-74.020594,612.876398
3636.660195,-9400.615463,-1036.288319,459.657299
3636.660525,-7772.162391,-962.267725,1378.971896
3636.660855,-8364.327145,-296.082377,1991.848295
3636.661185,-8882.471304,0.000000,842.705048
3636.661515,-9918.759623,74.020594,-1072.533697
3636.661845,-10436.903782,518.144159,-1991.848295
3636.662175,-11251.130318,0.000000,-689.485948
3636.662505,-10807.006753,-370.102971,306.438199
3636.662834,-9548.656652,-1184.329507,-306.438199
3636.663164,-8364.327145,-1406.391290,229.828649
3636.663494,-8660.409521,-962.267725,842.705048
3636.663824,-9178.553681,-444.123565,612.876398
3636.664154,-9696.697840,-444.123565,-1149.143247
3636.664484,-10140.821405,0.000000,-1532.190996
3636.664814,-10807.006753,-370.102971,-153.219100
3636.665144,-11029.068536,-666.185348,612.876398
3636.665473,-10066.800811,-1332.370696,383.047749
3636.665803,-8512.368333,-1850.514855,0.000000
3636.666133,-8216.285956,-962.267725,766.095498
3636.666463,-8586.388927,-888.247130,1225.752797
3636.666793,-9696.697840,0.000000,153.219100
3636.667123,-10362.883188,148.041188,-1149.143247
3636.667453,-11251.130318,0.000000,-1455.581446
3636.667783,-11103.089130,0.000000,0.000000
3636.668112,-10140.821405,-740.205942,0.000000
3636.668442,-8882.471304,-1406.391290,0.000000
3636.668772,-8512.368333,-962.267725,766.095498
3636.669102,-9178.553681,-444.123565,995.924147
3636.669432,-10066.800811,148.041188,306.438199
3636.669762,-10807.006753,370.102971,-1532.190996
3636.670092,-10955.047942,-222.061783,-1225.752797
3636.670422,-10288.862594,-444.123565,383.047749
3636.670751,-9918.759623,-1184.329507,1225.752797
3636.671081,-8512.368333,-1702.473667,1149.143247
3636.671411,-8068.244768,-1258.350101,1302.362347
3636.671741,-8216.285956,-444.123565,612.876398
3636.672071,-9400.615463,370.102971,842.705048
3636.672401,-10288.862594,666.185348,-842.705048
3636.672731,-11177.109724,962.267725,-842.705048
3636.673061,-11325.150913,444.123565,459.657299
3636.673390,-11029.068536,74.020594,612.876398
3636.673720,-9326.594869,-888.247130,0.000000
3636.674050,-8438.347739,-888.247130,0.000000
3636.674380,-8512.368333,74.020594,919.314598
3636.674710,-8882.471304,444.123565,306.438199
3636.675040,-9400.615463,1110.308913,-1532.190996
3636.675370,-10066.800811,1184.329507,-2221.676944
3636.675700,-10881.027347,1258.350101,-689.485948
3636.676029,-10584.944971,740.205942,689.485948
3636.676359,-9844.739029,0.000000,383.047749
3636.676689,-8734.430116,-444.123565,383.047749
3636.677019,-8586.388927,0.000000,1608.800546
3636.677349,-9104.533087,666.185348,1915.238745
3636.677679,-9622.677246,1184.329507,536.266849
3636.678009,-10214.842000,1480.411884,-306.438199
3636.678339,-11103.089130,1406.391290,0.000000
3636.678668,-11547.212695,1406.391290,995.924147
3636.678998,-10584.944971,888.247130,919.314598
3636.679328,-9326.594869,370.102971,612.876398
3636.679658,-8808.450710,148.041188,1225.752797
3636.679988,-8808.450710,592.164754,1302.362347
3636.680318,-9178.553681,1554.432478,-383.047749
3636.680648,-9918.759623,1480.411884,-1608.800546
3636.680978,-10214.842000,1258.350101,-1225.752797
3636.681307,-10584.944971,962.267725,612.876398
3636.681637,-10436.903782,148.041188,1685.410096
3636.681967,-9326.594869,-518.144159,1762.019645
3636.682297,-8364.327145,-888.247130,2221.676944
3636.682627,-8956.491898,0.000000,2451.505594
3636.682957,-9400.615463,518.144159,1608.800546
3636.683287,-10066.800811,740.205942,-306.438199
3636.683617,-10807.006753,666.185348,0.000000
3636.683946,-11325.150913,666.185348,1455.581446
3636.684276,-10732.986159,222.061783,1225.752797
3636.684606,-9104.533087,-296.082377,153.219100
3636.684936,-8660.409521,-444.123565,-76.609550
3636.685266,-8882.471304,0.000000,0.000000
3636.685596,-9770.718434,148.041188,0.000000
3636.685926,-9992.780217,814.226536,-1915.238745
3636.686256,-10436.903782,222.061783,-2451.505594
3636.686585,-10881.027347,0.000000,-1072.533697
3636.686915,-10658.965565,-592.164754,306.438199
3636.687245,-9474.636058,-1184.329507,612.876398
3636.687575,-8512.368333,-1184.329507,536.266849
3636.687905,-8660.409521,-962.267725,1532.190996
3636.688235,-9474.636058,-370.102971,1685.410096
3636.688565,-10140.821405,222.061783,229.828649
3636.688895,-10362.883188,-148.041188,-1378.971896
3636.689224,-11103.089130,0.000000,-306.438199
3636.689554,-10955.047942,-296.082377,229.828649
3636.689884,-9992.780217,-814.226536,-76.609550
3636.690214,-8512.368333,-1184.329507,-766.095498
3636.690544,-8586.388927,-1184.329507,153.219100
3636.690874,-9252.574275,-444.123565,459.657299
3636.691204,-9918.759623,444.123565,-229.828649
3636.691534,-10807.006753,518.144159,-1915.238745
3636.691863,-10658.965565,222.061783,-1685.410096
3636.692193,-11029.068536,-296.082377,0.000000
3636.692523,-10214.842000,-740.205942,842.705048
3636.692853,-8808.450710,-1702.473667,612.876398
3636.693183,-8142.265362,-1332.370696,1225.752797
3636.693513,-8808.450710,-666.185348,1762.019645
3636.693843,-9326.594869,370.102971,995.924147
3636.694173,-9844.739029,222.061783,-766.095498
3636.694502,-10510.924376,0.000000,-306.438199
3636.694832,-11177.109724,0.000000,1072.533697
3636.695162,-10807.006753,0.000000,1149.143247
3636.695492,-9622.677246,-592.164754,306.438199
3636.695822,-8734.430116,-1406.391290,766.095498
3636.696152,-8734.430116,-148.041188,1302.362347
3636.696482,-9622.677246,444.123565,919.314598
3636.696812,-10140.821405,888.247130,-842.705048
3636.697141,-10584.944971,740.205942,-1608.800546
3636.697471,-10584.944971,370.102971,-383.047749
3636.697801,-10288.862594,0.000000,612.876398
3636.698131,-9770.718434,-592.164754,459.657299
3636.698461,-8512.368333,-888.247130,306.438199
3636.698791,-8068.244768,-814.226536,1225.752797
3636.699121,-8364.327145,222.061783,1149.143247
3636.699451,-9326.594869,814.226536,-459.657299
3636.699780,-10362.883188,666.185348,-1225.752797
3636.700110,-11325.150913,370.102971,0.000000
3636.700440,-11473.192101,518.144159,612.876398
3636.700770,-10066.800811,-296.082377,153.219100
3636.701100,-9030.512492,-962.267725,-229.828649
3636.701430,-8364.327145,-888.247130,459.657299
3636.701760,-8512.368333,148.041188,1072.533697
3636.702090,-9252.574275,740.205942,-306.438199
3636.702419,-10436.903782,1036.288319,-2298.286494
3636.702749,-10881.027347,814.226536,-1532.190996
3636.703079,-10584.944971,518.144159,0.000000
3636.703409,-10214.842000,-222.061783,383.047749
3636.703739,-9030.512492,-1110.308913,76.609550
3636.704069,-8290.306550,-1184.329507,995.924147
3636.704399,-8808.450710,-296.082377,2374.896044
3636.704729,-8808.450710,74.020594,1685.410096
3636.705058,-9992.780217,518.144159,459.657299
3636.705388,-11251.130318,666.185348,689.485948
3636.705718,-11621.233289,1110.308913,2298.286494
3636.706048,-10807.006753,740.205942,1762.019645
3636.706378,-9844.739029,0.000000,612.876398
3636.706708,-8808.450710,-222.061783,612.876398
3636.707038,-9104.533087,740.205942,1225.752797
3636.707368,-10214.842000,1554.432478,995.924147
3636.707697,-10436.903782,1554.432478,-612.876398
3636.708027,-10584.944971,1184.329507,-1915.238745
3636.708357,-10658.965565,592.164754,-612.876398
3636.708687,-10807.006753,518.144159,919.314598
3636.709017,-9474.636058,-592.164754,689.485948
3636.709347,-8734.430116,-518.144159,1685.410096
3636.709677,-8364.327145,-74.020594,2528.115143
3636.710007,-8882.471304,740.205942,2911.162892
3636.710336,-9474.636058,740.205942,842.705048
3636.710666,-10584.944971,666.185348,-153.219100
3636.710996,-11103.089130,666.185348,383.047749
3636.711326,-11029.068536,592.164754,1455.581446
3636.711656,-10140.821405,222.061783,1302.362347
3636.711986,-9104.533087,-222.061783,76.609550
3636.712316,-8586.388927,-74.020594,0.000000
3636.712646,-9104.533087,592.164754,0.000000
3636.712975,-9770.718434,1036.288319,-1149.143247
3636.713305,-10140.821405,1110.308913,-2374.896044
3636.713635,-10140.821405,1184.329507,-1685.410096
3636.713965,-10658.965565,740.205942,-306.438199
3636.714295,-10510.924376,148.041188,153.219100
3636.714625,-9770.718434,-518.144159,-383.047749
3636.714955,-9104.533087,-518.144159,153.219100
3636.715285,-8808.450710,0.000000,1378.971896
3636.715614,-9104.533087,222.061783,1225.752797
3636.715944,-10066.800811,370.102971,-536.266849
3636.716274,-10510.924376,222.061783,-612.876398
3636.716604,-10881.027347,74.020594,536.266849
3636.716934,-10732.986159,-296.082377,689.485948
3636.717264,-9548.656652,-444.123565,0.000000
3636.717594,-8734.430116,-1332.370696,153.219100
3636.717924,-9030.512492,-740.205942,1378.971896
3636.718253,-9622.677246,-148.041188,689.485948
3636.718583,-9918.759623,740.205942,-995.924147
3636.718913,-10140.821405,222.061783,-2298.286494
3636.719243,-10881.027347,148.041188,-1302.362347
3636.719573,-10807.006753,-222.061783,383.047749
3636.719903,-9696.697840,-814.226536,1072.533697
3636.720233,-8808.450710,-1776.494261,995.924147
3636.720563,-8364.327145,-1554.432478,1378.971896
3636.720892,-8364.327145,-1184.329507,1378.971896
3636.721222,-8808.450710,-592.164754,0.000000
3636.721552,-9844.739029,-222.061783,-919.314598
3636.721882,-10510.924376,-592.164754,229.828649
3636.722212,-11103.089130,-222.061783,1302.362347
3636.722542,-10288.862594,-592.164754,612.876398
3636.722872,-9474.636058,-814.226536,76.609550
3636.723202,-9178.553681,-1110.308913,306.438199
3636.723531,-9252.574275,-444.123565,1532.190996
3636.723861,-9548.656652,0.000000,0.000000
3636.724191,-10214.842000,888.247130,-1149.143247
3636.724521,-10658.965565,444.123565,-1225.752797
3636.724851,-11029.068536,370.102971,-383.047749
3636.725181,-10584.944971,-74.020594,0.000000
3636.725511,-9918.759623,-962.267725,-153.219100
3636.725841,-9474.636058,-962.267725,229.828649
3636.726170,-9252.574275,-370.102971,1378.971896
3636.726500,-9326.594869,148.041188,842.705048
3636.726830,-9992.780217,518.144159,-689.485948
3636.727160,-10510.924376,222.061783,-612.876398
3636.727490,-11325.150913,370.102971,612.876398
3636.727820,-10881.027347,0.000000,1149.143247
3636.728150,-9400.615463,-592.164754,766.095498
3636.728480,-9104.533087,-444.123565,1762.019645
3636.728809,-8660.409521,0.000000,1838.629195
3636.729139,-9622.677246,444.123565,689.485948
3636.729469,-10066.800811,814.226536,-1455.581446
3636.729799,-10362.883188,888.247130,-2451.505594
3636.730129,-10584.944971,666.185348,-1302.362347
3636.730459,-10510.924376,296.082377,229.828649
3636.730789,-9548.656652,-444.123565,459.657299
3636.731119,-8734.430116,-1110.308913,766.095498
3636.731448,-8512.368333,-592.164754,1608.800546
3636.731778,-8882.471304,222.061783,1838.629195
3636.732108,-9178.553681,296.082377,842.705048
3636.732438,-9770.718434,444.123565,536.266849
3636.732768,-10140.821405,148.041188,1532.190996
3636.733098,-10881.027347,370.102971,2068.457845
3636.733428,-9844.739029,74.020594,766.095498
3636.733758,-8364.327145,-444.123565,0.000000
3636.734087,-8438.347739,296.082377,612.876398
3636.734417,-9030.512492,888.247130,919.314598
3636.734747,-10140.821405,1480.411884,-306.438199
3636.735077,-10066.800811,1480.411884,-2145.067394
3636.735407,-10362.883188,1258.350101,-2221.676944
3636.735737,-10288.862594,1110.308913,-842.705048
3636.736067,-10140.821405,444.123565,0.000000
3636.736397,-9474.636058,0.000000,306.438199
3636.736726,-8660.409521,0.000000,995.924147
3636.737056,-8660.409521,888.247130,1991.848295
3636.737386,-9252.574275,962.267725,1225.752797
3636.737716,-10140.821405,1110.308913,459.657299
3636.738046,-11695.253884,1184.329507,459.657299
3636.738376,-11991.336260,1554.432478,1915.238745
3636.738706,-11103.089130,222.061783,1455.581446
3636.739036,-9252.574275,-592.164754,153.219100
3636.739365,-8734.430116,-444.123565,612.876398
3636.739695,-9030.512492,0.000000,1608.800546
3636.740025,-9770.718434,740.205942,842.705048
3636.740355,-10066.800811,1332.370696,-1149.143247
3636.740685,-10584.944971,1332.370696,-2298.286494
3636.741015,-11399.171507,1110.308913,-766.095498
3636.741345,-11325.150913,592.164754,76.609550
3636.741675,-9918.759623,-370.102971,0.000000
3636.742004,-8364.327145,-1258.350101,-153.219100
3636.742334,-7994.224174,-962.267725,766.095498
3636.742664,-8586.388927,74.020594,1455.581446
3636.742994,-9252.574275,370.102971,383.047749
3636.743324,-9770.718434,148.041188,-612.876398
3636.743654,-11029.068536,370.102971,919.314598
3636.743984,-11251.130318,148.041188,1532.190996
3636.744314,-10140.821405,-444.123565,842.705048
3636.744643,-8808.450710,-962.267725,0.000000
3636.744973,-8586.388927,-666.185348,459.657299
3636.745303,-9178.553681,0.000000,383.047749
3636.745633,-9770.718434,740.205942,-383.047749
3636.745963,-10214.842000,1184.329507,-1991.848295
3636.746293,-10658.965565,1036.288319,-2298.286494
3636.746623,-10881.027347,370.102971,-995.924147
3636.746953,-10436.903782,0.000000,-229.828649
3636.747282,-9696.697840,-740.205942,-306.438199
3636.747612,-8660.409521,-1258.350101,612.876398
3636.747942,-8660.409521,-592.164754,1532.190996
3636.748272,-9030.512492,0.000000,1149.143247
3636.748602,-10214.842000,0.000000,0.000000
3636.748932,-10881.027347,0.000000,612.876398
3636.749262,-11695.253884,-148.041188,1762.019645
3636.749592,-10584.944971,-592.164754,1455.581446
3636.749921,-9696.697840,-1036.288319,1072.533697
3636.750251,-8660.409521,-1332.370696,689.485948
3636.750581,-8660.409521,-1110.308913,1685.410096
3636.750911,-8882.471304,0.000000,383.047749
3636.751241,-9400.615463,148.041188,-1685.410096
3636.751571,-9918.759623,444.123565,-2451.505594
3636.751901,-10881.027347,0.000000,-1072.533697
3636.752231,-10510.924376,-222.061783,-306.438199
3636.752560,-9622.677246,-1258.350101,0.000000
3636.752890,-8956.491898,-1776.494261,153.219100
3636.753220,-8068.244768,-1554.432478,919.314598
3636.753550,-8512.368333,-740.205942,1532.190996
3636.753880,-8734.430116,-518.144159,76.609550
3636.754210,-9844.739029,0.000000,-459.657299
3636.754540,-10732.986159,74.020594,536.266849
3636.754870,-10955.047942,0.000000,995.924147
3636.755199,-10214.842000,-592.164754,76.609550
3636.755529,-9104.533087,-1110.308913,-306.438199
3636.755859,-8808.450710,-1110.308913,459.657299
3636.756189,-9770.718434,0.000000,842.705048
3636.756519,-10066.800811,740.205942,-383.047749
3636.756848,-10140.821405,814.226536,-1378.971896
3636.757178,-10436.903782,740.205942,-1608.800546
3636.757508,-10436.903782,740.205942,-153.219100
3636.757838,-10362.883188,444.123565,306.438199
3636.758168,-9548.656652,-444.123565,689.485948
3636.758497,-9696.697840,370.102971,1608.800546
3636.758827,-9770.718434,518.144159,1838.629195
3636.759157,-9918.759623,518.144159,842.705048
3636.759487,-10584.944971,518.144159,-459.657299
3636.759817,-10658.965565,888.247130,229.828649
3636.760146,-10955.047942,592.164754,1149.143247
3636.760476,-10658.965565,444.123565,1455.581446
3636.760806,-9622.677246,0.000000,1072.533697
3636.761136,-8882.471304,0.000000,1532.190996
3636.761466,-9178.553681,222.061783,2374.896044
3636.761795,-9696.697840,1036.288319,1762.019645
3636.762125,-9696.697840,1184.329507,-459.657299
3636.762455,-9622.677246,962.267725,-1608.800546
3636.762785,-10288.862594,888.247130,-459.657299
3636.763115,-10510.924376,592.164754,459.657299
3636.763444,-9474.636058,74.020594,0.000000
3636.763774,-8364.327145,-370.102971,76.609550
3636.764104,-8438.347739,148.041188,1378.971896
3636.764434,-8364.327145,740.205942,1762.019645
3636.764764,-9326.594869,1110.308913,766.095498
3636.765094,-10288.862594,1258.350101,153.219100
3636.765423,-10732.986159,1036.288319,1225.752797
3636.765753,-10807.006753,1184.329507,1378.971896
3636.766083,-10214.842000,444.123565,153.219100
3636.766413,-9104.533087,74.020594,-229.828649
3636.766743,-8956.491898,148.041188,306.438199
3636.767072,-9474.636058,888.247130,919.314598
3636.767402,-9918.759623,962.267725,-689.485948
3636.767732,-10140.821405,1036.288319,-2068.457845
3636.768062,-10362.883188,888.247130,-1378.971896
3636.768392,-10584.944971,592.164754,229.828649
3636.768721,-10436.903782,222.061783,842.705048
3636.769051,-9474.636058,-444.123565,383.047749
3636.769381,-9030.512492,-518.144159,536.266849
3636.769711,-9030.512492,-370.102971,842.705048
3636.770041,-9548.656652,370.102971,153.219100
3636.770370,-9770.718434,0.000000,-995.924147
3636.770700,-10362.883188,296.082377,-536.266849
3636.771030,-10807.006753,222.061783,995.924147
3636.771360,-10214.842000,-74.020594,842.705048
3636.771690,-9474.636058,-740.205942,0.000000
3636.772019,-9178.553681,-1110.308913,536.266849
3636.772349,-9474.636058,-518.144159,1455.581446
3636.772679,-9622.677246,0.000000,1532.190996
3636.773009,-9992.780217,0.000000,-612.876398
3636.773339,-10066.800811,-74.020594,-1608.800546
3636.773668,-10214.842000,-296.082377,-766.095498
3636.773998,-10362.883188,-518.144159,0.000000
3636.774328,-9992.780217,-1184.329507,0.000000
3636.774658,-9178.553681,-1406.391290,0.000000
3636.774988,-8808.450710,-1406.391290,766.095498
3636.775317,-9030.512492,-888.247130,919.314598
3636.775647,-9474.636058,-962.267725,-383.047749
3636.775977,-9918.759623,-962.267725,-1378.971896
3636.776307,-10584.944971,-666.185348,229.828649
3636.776637,-10807.006753,-518.144159,1302.362347
3636.776967,-10066.800811,-814.226536,995.924147
3636.777296,-9326.594869,-1036.288319,383.047749
3636.777626,-9548.656652,-1184.329507,1532.190996
3636.777956,-9992.780217,-592.164754,1608.800546
3636.778286,-10288.862594,74.020594,76.609550
3636.778616,-10066.800811,74.020594,-1608.800546
3636.778945,-9918.759623,0.000000,-1685.410096
3636.779275,-10214.842000,74.020594,-536.266849
3636.779605,-10362.883188,-296.082377,-612.876398
3636.779935,-9622.677246,-888.247130,-842.705048
3636.780265,-8956.491898,-1110.308913,536.266849
3636.780594,-8660.409521,-74.020594,1455.581446
3636.780924,-8956.491898,370.102971,995.924147
3636.781254,-9622.677246,74.020594,-306.438199
3636.781584,-10584.944971,0.000000,-383.047749
3636.781914,-11325.150913,296.082377,842.705048
3636.782243,-11177.109724,74.020594,1225.752797
3636.782573,-10362.883188,-518.144159,1378.971896
3636.782903,-8364.327145,-1110.308913,1378.971896
3636.783233,-8290.306550,-518.144159,1532.190996
3636.783563,-8512.368333,518.144159,1072.533697
3636.783892,-9178.553681,1110.308913,-1149.143247
3636.784222,-9992.780217,1036.288319,-1991.848295
3636.784552,-10732.986159,888.247130,-612.876398
3636.784882,-10510.924376,444.123565,459.657299
3636.785212,-10214.842000,148.041188,0.000000
3636.785541,-9104.533087,-444.123565,153.219100
3636.785871,-8438.347739,-74.020594,842.705048
3636.786201,-8216.285956,444.123565,1149.143247
3636.786531,-9104.533087,888.247130,76.609550
3636.786861,-10066.800811,1628.453072,0.000000
3636.787190,-11177.109724,1332.370696,1378.971896
3636.787520,-11399.171507,1036.288319,1838.629195
3636.787850,-10214.842000,444.123565,842.705048
3636.788180,-9474.636058,148.041188,842.705048
3636.788510,-9178.553681,148.041188,1532.190996
3636.788840,-9548.656652,888.247130,2145.067394
3636.789169,-9992.780217,1776.494261,306.438199
3636.789499,-10140.821405,1850.514855,-1302.362347
3636.789829,-10881.027347,1776.494261,-1378.971896
3636.790159,-11473.192101,1406.391290,-76.609550
3636.790489,-10732.986159,518.144159,306.438199
3636.790818,-9178.553681,0.000000,383.047749
3636.791148,-8216.285956,-296.082377,1378.971896
3636.791478,-8586.388927,148.041188,1762.019645
3636.791808,-9252.574275,592.164754,1149.143247
3636.792138,-9992.780217,592.164754,-536.266849
3636.792467,-10807.006753,592.164754,76.609550
3636.792797,-11251.130318,740.205942,919.314598
3636.793127,-10584.944971,222.061783,1685.410096
3636.793457,-9252.574275,-814.226536,919.314598
3636.793787,-7994.224174,-814.226536,919.314598
3636.794116,-8660.409521,0.000000,1532.190996
3636.794446,-9770.718434,962.267725,612.876398
3636.794776,-10436.903782,888.247130,-1608.800546
3636.795106,-10732.986159,888.247130,-2221.676944
3636.795436,-10732.986159,296.082377,-1378.971896
3636.795765,-10510.924376,0.000000,-153.219100
3636.796095,-9474.636058,-888.247130,-689.485948
3636.796425,-8438.347739,-1184.329507,-459.657299
3636.796755,-7920.203579,-518.144159,306.438199
3636.797085,-8068.244768,-444.123565,229.828649
3636.797414,-9252.574275,148.041188,-612.876398
3636.797744,-10658.965565,148.041188,-1149.143247
3636.798074,-11695.253884,148.041188,0.000000
3636.798404,-10658.965565,-814.226536,612.876398
3636.798734,-9178.553681,-1258.350101,0.000000
3636.799063,-8364.327145,-1702.473667,612.876398
3636.799393,-8734.430116,-962.267725,1608.800546
3636.799723,-9252.574275,0.000000,1685.410096
3636.800053,-9770.718434,592.164754,-459.657299
3636.800383,-10436.903782,592.164754,-2451.505594
3636.800712,-11325.150913,222.061783,-1608.800546
3636.801042,-11547.212695,222.061783,0.000000
3636.801372,-10658.965565,-444.123565,306.438199
3636.801702,-9178.553681,-1332.370696,76.609550
3636.802032,-8660.409521,-1110.308913,229.828649
3636.802362,-8808.450710,-666.185348,1072.533697
3636.802691,-9252.574275,148.041188,766.095498
3636.803021,-10214.842000,0.000000,-689.485948
3636.803351,-10807.006753,0.000000,0.000000
3636.803681,-11473.192101,-148.041188,1302.362347
3636.804011,-10658.965565,-666.185348,2451.505594
3636.804340,-9400.615463,-1850.514855,1149.143247
3636.804670,-8660.409521,-1702.473667,1455.581446
3636.805000,-8438.347739,-1480.411884,2298.286494
3636.805330,-9252.574275,0.000000,1225.752797
3636.805660,-9992.780217,148.041188,-612.876398
3636.805989,-10584.944971,0.000000,-1455.581446
3636.806319,-10658.965565,148.041188,-536.266849
3636.806649,-10584.944971,-296.082377,229.828649
3636.806979,-9696.697840,-1184.329507,0.000000
3636.807309,-8734.430116,-1332.370696,0.000000
3636.807638,-7846.182985,-962.267725,995.924147
3636.807968,-8438.347739,148.041188,459.657299
3636.808298,-9326.594869,296.082377,-76.609550
3636.808628,-10510.924376,444.123565,-766.095498
3636.808958,-11621.233289,666.185348,76.609550
3636.809287,-11399.171507,518.144159,766.095498
3636.809617,-9844.739029,0.000000,459.657299
3636.809947,-8586.388927,-740.205942,306.438199
3636.810277,-8512.368333,-296.082377,1225.752797
3636.810607,-9104.533087,444.123565,1225.752797
3636.810936,-9696.697840,1258.350101,-766.095498
3636.811266,-10807.006753,1480.411884,-2068.457845
3636.811596,-11399.171507,1480.411884,-1302.362347
3636.811926,-11399.171507,1036.288319,536.266849
3636.812256,-10066.800811,0.000000,612.876398
3636.812585,-9030.512492,0.000000,919.314598
3636.812915,-8290.306550,74.020594,919.314598
3636.813245,-8586.388927,592.164754,1378.971896
3636.813575,-9400.615463,1110.308913,766.095498
3636.813905,-10807.006753,1332.370696,-459.657299
3636.814235,-11251.130318,1110.308913,0.000000
3636.814564,-11177.109724,518.144159,2068.457845
3636.814894,-10066.800811,296.082377,1838.629195
3636.815224,-8734.430116,-296.082377,1302.362347
3636.815554,-8438.347739,-370.102971,1991.848295
3636.815884,-8734.430116,370.102971,2528.115143
3636.816213,-9548.656652,1332.370696,1685.410096
3636.816543,-10436.903782,1702.473667,-459.657299
3636.816873,-10510.924376,1480.411884,-842.705048
3636.817203,-11029.068536,1110.308913,0.000000
3636.817533,-10436.903782,370.102971,689.485948
3636.817862,-9474.636058,0.000000,536.266849
3636.818192,-7994.224174,-592.164754,842.705048
3636.818522,-8290.306550,74.020594,1072.533697
3636.818852,-8882.471304,962.267725,766.095498
3636.819182,-9770.718434,1332.370696,-995.924147
3636.819511,-10807.006753,962.267725,-1302.362347
3636.819841,-11399.171507,740.205942,0.000000
3636.820171,-10955.047942,592.164754,536.266849
3636.820501,-9474.636058,0.000000,76.609550
3636.820831,-8364.327145,-666.185348,0.000000
3636.821160,-8290.306550,-296.082377,1072.533697
3636.821490,-9474.636058,740.205942,1225.752797
3636.821820,-10066.800811,962.267725,-766.095498
3636.822150,-10807.006753,1110.308913,-2757.943793
3636.822480,-11325.150913,740.205942,-2451.505594
3636.822809,-11325.150913,74.020594,-459.657299
3636.823139,-10510.924376,-518.144159,153.219100
3636.823469,-9474.636058,-1184.329507,-383.047749
3636.823799,-8364.327145,-888.247130,229.828649
3636.824129,-8216.285956,-518.144159,459.657299
3636.824458,-9104.533087,592.164754,-612.876398
3636.824788,-10066.800811,74.020594,-1762.019645
3636.825118,-11251.130318,148.041188,-766.095498
3636.825448,-11103.089130,0.000000,842.705048
3636.825778,-10362.883188,-1110.308913,995.924147
3636.826108,-8882.471304,-1776.494261,306.438199
3636.826437,-8364.327145,-1924.535449,1149.143247
3636.826767,-8734.430116,-740.205942,1072.533697
3636.827097,-9474.636058,-222.061783,842.705048
3636.827427,-9992.780217,0.000000,-995.924147
3636.827757,-10658.965565,296.082377,-1072.533697
3636.828086,-11029.068536,444.123565,306.438199
3636.828416,-10881.027347,-518.144159,766.095498
3636.828746,-9918.759623,-1258.350101,842.705048
3636.829076,-8734.430116,-1332.370696,612.876398
3636.829406,-8586.388927,-814.226536,1072.533697
3636.829735,-9400.615463,-74.020594,919.314598
3636.830065,-10066.800811,0.000000,-383.047749
3636.830395,-10955.047942,0.000000,-689.485948
3636.830725,-11621.233289,0.000000,536.266849
3636.831055,-10584.944971,-592.164754,1532.190996
3636.831384,-9400.615463,-814.226536,689.485948
3636.831714,-8364.327145,-1258.350101,995.924147
3636.832044,-8734.430116,-814.226536,1915.238745
3636.832374,-8882.471304,74.020594,1915.238745
3636.832704,-9992.780217,814.226536,0.000000
3636.833033,-10881.027347,962.267725,-2068.457845
3636.833363,-11547.212695,740.205942,-1225.752797
3636.833693,-11103.089130,370.102971,459.657299
3636.834023,-10362.883188,-444.123565,0.000000
3636.834353,-9252.574275,-1110.308913,-306.438199
3636.834682,-8438.347739,-888.247130,76.609550
3636.835012,-8290.306550,0.000000,766.095498
3636.835342,-8734.430116,148.041188,229.828649
3636.835672,-9474.636058,666.185348,-1072.533697
3636.836002,-10807.006753,592.164754,-842.705048
3636.836331,-11399.171507,740.205942,612.876398
3636.836661,-10066.800811,148.041188,919.314598
3636.836991,-8956.491898,-740.205942,0.000000
3636.837321,-8512.368333,-592.164754,842.705048
3636.837651,-9104.533087,0.000000,1915.238745
3636.837980,-9474.636058,518.144159,612.876398
3636.838310,-9548.656652,592.164754,-1685.410096
3636.838640,-10436.903782,962.267725,-1302.362347
3636.838970,-11251.130318,814.226536,459.657299
3636.839300,-11251.130318,814.226536,995.924147
3636.839630,-9622.677246,74.020594,689.485948
3636.839959,-8734.430116,0.000000,229.828649
3636.840289,-8808.450710,222.061783,842.705048
3636.840619,-9548.656652,814.226536,612.876398
3636.840949,-9696.697840,1332.370696,-612.876398
3636.841279,-10658.965565,1110.308913,-153.219100
3636.841608,-11695.253884,1036.288319,689.485948
3636.841938,-11399.171507,518.144159,1072.533697
3636.842268,-9696.697840,0.000000,1225.752797
3636.842598,-8216.285956,-962.267725,995.924147
3636.842928,-8364.327145,-370.102971,1991.848295
3636.843257,-9030.512492,370.102971,1915.238745
3636.843587,-9326.594869,740.205942,306.438199
3636.843917,-9844.739029,888.247130,-1378.971896
3636.844247,-10955.047942,962.267725,-383.047749
3636.844577,-11473.192101,666.185348,459.657299
3636.844906,-10584.944971,0.000000,995.924147
3636.845236,-8660.409521,-740.205942,153.219100
3636.845566,-8068.244768,-518.144159,766.095498
3636.845896,-8216.285956,370.102971,766.095498
3636.846226,-9030.512492,962.267725,-383.047749
3636.846555,-9770.718434,962.267725,-2221.676944
3636.846885,-11251.130318,1110.308913,-995.924147
3636.847215,-11547.212695,814.226536,842.705048
3636.847545,-10510.924376,0.000000,842.705048
3636.847875,-9104.533087,0.000000,229.828649
3636.848204,-8956.491898,-740.205942,1149.143247
3636.848534,-9326.594869,0.000000,1378.971896
3636.848864,-9548.656652,370.102971,612.876398
3636.849194,-10066.800811,1036.288319,-1072.533697
3636.849524,-10510.924376,888.247130,-1072.533697
3636.849853,-11399.171507,444.123565,76.609550
3636.850183,-11029.068536,74.020594,842.705048
3636.850513,-9400.615463,-1036.288319,-536.266849
3636.850843,-8068.244768,-888.247130,0.000000
3636.851173,-8512.368333,-444.123565,612.876398
3636.851503,-9178.553681,296.082377,383.047749
3636.851832,-9548.656652,296.082377,-766.095498
3636.852162,-10510.924376,592.164754,-1225.752797
3636.852492,-11621.233289,518.144159,0.000000
