#time,accel_x,accel_y,accel_z
4019.149522,-10288.862594,-296.082377,2374.896044
4019.149852,-9918.759623,-296.082377,1991.848295
4019.150183,-10066.800811,0.000000,766.095498
4019.150513,-9844.739029,-666.185348,153.219100
4019.150843,-8512.368333,-888.247130,766.095498
4019.151173,-7772.162391,-962.267725,1838.629195
4019.151503,-8068.244768,-962.267725,2528.115143
4019.151834,-8512.368333,-222.061783,2145.067394
4019.152164,-9548.656652,0.000000,1225.752797
4019.152494,-10140.821405,0.000000,459.657299
4019.152824,-10732.986159,370.102971,459.657299
4019.153155,-11029.068536,1110.308913,1762.019645
4019.153485,-10881.027347,592.164754,2528.115143
4019.153815,-10362.883188,222.061783,2145.067394
4019.154145,-9770.718434,370.102971,1149.143247
4019.154475,-10066.800811,148.041188,459.657299
4019.154806,-9918.759623,0.000000,229.828649
4019.155136,-9474.636058,-222.061783,842.705048
4019.155466,-9696.697840,0.000000,1838.629195
4019.155796,-9992.780217,222.061783,2221.676944
4019.156127,-10658.965565,518.144159,1838.629195
4019.156457,-10807.006753,148.041188,689.485948
4019.156787,-10584.944971,0.000000,1225.752797
4019.157117,-11325.150913,0.000000,2911.162892
4019.157447,-11029.068536,74.020594,4366.744339
4019.157778,-10066.800811,-592.164754,3064.381992
4019.158108,-9178.553681,-1036.288319,1762.019645
4019.158438,-9548.656652,-1332.370696,1762.019645
4019.158768,-10214.842000,-1702.473667,2145.067394
4019.159099,-9696.697840,-1850.514855,2145.067394
4019.159429,-9104.533087,-1702.473667,2374.896044
4019.159759,-9104.533087,-1924.535449,2451.505594
4019.160089,-8956.491898,-2294.638420,2528.115143
4019.160419,-9844.739029,-2516.700203,2681.334243
4019.160750,-9252.574275,-2738.761985,4596.572988
4019.161080,-11325.150913,-2812.782580,4290.134789
4019.161410,-9992.780217,-2886.803174,4290.134789
4019.161740,-8438.347739,-3701.029710,2987.772442
4019.162070,-8808.450710,-4515.256246,2068.457845
4019.162401,-9030.512492,-5107.421000,2987.772442
4019.162731,-9474.636058,-5033.400406,4903.011187
4019.163061,-9474.636058,-4515.256246,5286.058936
4019.163391,-8734.430116,-4293.194464,4366.744339
4019.163722,-9548.656652,-4367.215058,2987.772442
4019.164052,-10214.842000,-4515.256246,1685.410096
4019.164382,-9622.677246,-5107.421000,2374.896044
4019.164712,-9844.739029,-5033.400406,4290.134789
4019.165042,-9548.656652,-4885.359217,5745.716235
4019.165373,-10436.903782,-4885.359217,5362.668486
4019.165703,-10362.883188,-5033.400406,2987.772442
4019.166033,-9918.759623,-4885.359217,1149.143247
4019.166363,-9770.718434,-5033.400406,612.876398
4019.166694,-9770.718434,-5329.482782,2145.067394
4019.167024,-9622.677246,-5181.441594,4060.306139
4019.167354,-8364.327145,-4737.318029,4060.306139
4019.167684,-8364.327145,-4811.338623,2451.505594
4019.168014,-9548.656652,-4441.235652,2145.067394
4019.168345,-10584.944971,-4589.276840,1302.362347
4019.168675,-11251.130318,-3849.070898,1149.143247
4019.169005,-10436.903782,-4219.173869,1762.019645
4019.169335,-9696.697840,-3627.009116,2757.943793
4019.169665,-9326.594869,-3552.988522,3064.381992
4019.169996,-9918.759623,-3108.864956,1378.971896
4019.170326,-10140.821405,-2516.700203,-612.876398
4019.170656,-9844.739029,-2664.741391,-612.876398
4019.170986,-9548.656652,-2368.659014,919.314598
4019.171317,-9992.780217,-2442.679609,3294.210641
4019.171647,-9474.636058,-2368.659014,3983.696590
4019.171977,-9548.656652,-2146.597232,1532.190996
4019.172307,-9622.677246,-1332.370696,-383.047749
4019.172637,-9918.759623,-962.267725,-612.876398
4019.172967,-11029.068536,0.000000,1838.629195
4019.173298,-11177.109724,666.185348,2834.553343
4019.173628,-10807.006753,1184.329507,2451.505594
4019.173958,-10362.883188,1258.350101,-383.047749
4019.174288,-9992.780217,740.205942,-1532.190996
4019.174618,-9770.718434,740.205942,-2068.457845
4019.174948,-8660.409521,1036.288319,-1685.410096
4019.175278,-8512.368333,1184.329507,76.609550
4019.175609,-8142.265362,1628.453072,229.828649
4019.175939,-9326.594869,2146.597232,0.000000
4019.176269,-9400.615463,2368.659014,-766.095498
4019.176599,-10140.821405,2664.741391,-1072.533697
4019.176929,-10436.903782,3034.844362,-995.924147
4019.177259,-10066.800811,2368.659014,-229.828649
4019.177589,-9844.739029,2960.823768,76.609550
4019.177919,-9326.594869,2738.761985,766.095498
4019.178250,-9252.574275,2738.761985,612.876398
4019.178580,-9474.636058,2812.782580,153.219100
4019.178910,-9474.636058,3108.864956,-306.438199
4019.179240,-9770.718434,3034.844362,-383.047749
4019.179570,-9474.636058,3923.091493,-689.485948
4019.179900,-9474.636058,3404.947333,-1302.362347
4019.180230,-10288.862594,3627.009116,-2528.115143
4019.180560,-10214.842000,3478.967927,-2298.286494
4019.180891,-10584.944971,3404.947333,-1532.190996
4019.181221,-10214.842000,3256.906145,-842.705048
4019.181551,-9844.739029,3552.988522,-306.438199
4019.181881,-9696.697840,2738.761985,-1302.362347
4019.182211,-9696.697840,2960.823768,-1455.581446
4019.182541,-9548.656652,2368.659014,-995.924147
4019.182871,-9696.697840,2516.700203,-153.219100
4019.183201,-9400.615463,1998.556043,0.000000
4019.183532,-9844.739029,1554.432478,689.485948
4019.183862,-10214.842000,1406.391290,766.095498
4019.184192,-9918.759623,1036.288319,76.609550
4019.184522,-9474.636058,518.144159,-459.657299
4019.184852,-9400.615463,74.020594,-612.876398
4019.185182,-8956.491898,0.000000,229.828649
4019.185512,-9030.512492,222.061783,919.314598
4019.185842,-9474.636058,74.020594,1378.971896
4019.186173,-10362.883188,0.000000,1608.800546
4019.186503,-10732.986159,-370.102971,1378.971896
4019.186833,-10510.924376,-814.226536,306.438199
4019.187163,-10066.800811,-1184.329507,459.657299
4019.187493,-9992.780217,-1776.494261,536.266849
4019.187823,-9770.718434,-1998.556043,1302.362347
4019.188153,-9252.574275,-2368.659014,1302.362347
4019.188483,-9252.574275,-2072.576638,1455.581446
4019.188814,-9918.759623,-1480.411884,1302.362347
4019.189144,-10732.986159,-1924.535449,536.266849
4019.189474,-10881.027347,-1998.556043,689.485948
4019.189804,-10807.006753,-2368.659014,1455.581446
4019.190134,-9844.739029,-2590.720797,2145.067394
4019.190464,-9770.718434,-2812.782580,1762.019645
4019.190794,-9770.718434,-2886.803174,1608.800546
4019.191124,-9992.780217,-2738.761985,1915.238745
4019.191455,-10214.842000,-3330.926739,2298.286494
4019.191785,-9918.759623,-3034.844362,1225.752797
4019.192115,-9326.594869,-2590.720797,689.485948
4019.192445,-9474.636058,-2442.679609,766.095498
4019.192775,-9548.656652,-2368.659014,1072.533697
4019.193105,-9622.677246,-1924.535449,1225.752797
4019.193435,-10140.821405,-1850.514855,995.924147
4019.193765,-9770.718434,-1628.453072,229.828649
4019.194096,-10584.944971,-1924.535449,0.000000
4019.194426,-11103.089130,-1850.514855,229.828649
4019.194756,-10066.800811,-1776.494261,919.314598
4019.195086,-9252.574275,-1628.453072,1302.362347
4019.195416,-8956.491898,-1406.391290,689.485948
4019.195746,-9548.656652,-1406.391290,1915.238745
4019.196076,-10066.800811,-592.164754,1685.410096
4019.196406,-9622.677246,-962.267725,689.485948
4019.196737,-9400.615463,74.020594,-306.438199
4019.197067,-9474.636058,148.041188,-612.876398
4019.197397,-9770.718434,296.082377,-689.485948
4019.197727,-9696.697840,370.102971,76.609550
4019.198057,-9918.759623,444.123565,766.095498
4019.198387,-9992.780217,222.061783,842.705048
4019.198717,-9548.656652,444.123565,-76.609550
4019.199047,-8882.471304,518.144159,-689.485948
4019.199378,-8882.471304,1258.350101,-383.047749
4019.199708,-8882.471304,1332.370696,0.000000
4019.200038,-9178.553681,1554.432478,229.828649
4019.200368,-9326.594869,1628.453072,-383.047749
4019.200698,-10066.800811,1554.432478,153.219100
4019.201028,-10362.883188,2072.576638,383.047749
4019.201358,-10066.800811,1776.494261,689.485948
4019.201688,-9474.636058,1702.473667,-1225.752797
4019.202019,-9474.636058,1924.535449,-1532.190996
4019.202349,-9474.636058,2294.638420,-689.485948
4019.202679,-9474.636058,2146.597232,-76.609550
4019.203009,-9474.636058,2294.638420,-153.219100
4019.203339,-9474.636058,2294.638420,-459.657299
4019.203669,-9622.677246,2516.700203,-689.485948
4019.203999,-10066.800811,2368.659014,-1225.752797
4019.204329,-9992.780217,2146.597232,-1378.971896
4019.204660,-9844.739029,2368.659014,-995.924147
4019.204990,-9770.718434,2220.617826,-1225.752797
4019.205320,-9992.780217,2294.638420,-995.924147
4019.205650,-10436.903782,1924.535449,76.609550
4019.205980,-10584.944971,2220.617826,459.657299
4019.206310,-10214.842000,1924.535449,-383.047749
4019.206640,-9918.759623,1628.453072,-842.705048
4019.206970,-9548.656652,1480.411884,-1225.752797
4019.207301,-9992.780217,1332.370696,-536.266849
4019.207631,-9844.739029,1036.288319,-153.219100
4019.207961,-9770.718434,1332.370696,153.219100
4019.208291,-10066.800811,962.267725,-459.657299
4019.208621,-9696.697840,666.185348,-919.314598
4019.208951,-10436.903782,888.247130,-229.828649
4019.209281,-9992.780217,444.123565,306.438199
4019.209612,-9474.636058,74.020594,689.485948
4019.209942,-8808.450710,-444.123565,1149.143247
4019.210272,-9474.636058,-370.102971,383.047749
4019.210602,-9992.780217,-444.123565,766.095498
4019.210932,-10140.821405,-814.226536,612.876398
4019.211262,-9548.656652,-962.267725,536.266849
4019.211592,-9474.636058,-814.226536,-229.828649
4019.211922,-9252.574275,-814.226536,153.219100
4019.212253,-9474.636058,-814.226536,842.705048
4019.212583,-9548.656652,-814.226536,1149.143247
4019.212913,-9770.718434,-666.185348,842.705048
4019.213243,-9770.718434,-888.247130,229.828649
4019.213573,-9696.697840,-962.267725,-689.485948
4019.213903,-10214.842000,-888.247130,-229.828649
4019.214233,-10510.924376,-1036.288319,536.266849
4019.214563,-9696.697840,-1332.370696,689.485948
4019.214894,-9474.636058,-1258.350101,612.876398
4019.215224,-9548.656652,-1184.329507,766.095498
4019.215554,-10140.821405,-1036.288319,2298.286494
4019.215884,-10732.986159,-1406.391290,1302.362347
4019.216214,-10510.924376,-814.226536,766.095498
4019.216544,-9918.759623,-1036.288319,612.876398
4019.216874,-9844.739029,-962.267725,536.266849
4019.217204,-9770.718434,-1184.329507,842.705048
4019.217535,-9770.718434,-1184.329507,1149.143247
4019.217865,-9622.677246,-1480.411884,995.924147
4019.218195,-9696.697840,-1332.370696,689.485948
4019.218525,-9992.780217,-740.205942,0.000000
4019.218855,-9622.677246,-888.247130,459.657299
4019.219185,-9918.759623,-666.185348,1225.752797
4019.219515,-9622.677246,-666.185348,1072.533697
4019.219845,-9400.615463,-518.144159,689.485948
4019.220176,-9918.759623,-666.185348,995.924147
4019.220506,-10436.903782,-518.144159,1378.971896
4019.220836,-10362.883188,-962.267725,1149.143247
4019.221166,-9696.697840,-888.247130,76.609550
4019.221496,-9178.553681,-962.267725,-306.438199
4019.221826,-9178.553681,-666.185348,0.000000
4019.222156,-9030.512492,-1184.329507,689.485948
4019.222486,-9474.636058,-814.226536,1378.971896
4019.222817,-9474.636058,-814.226536,1608.800546
4019.223147,-9548.656652,-666.185348,612.876398
4019.223477,-9844.739029,-370.102971,383.047749
4019.223807,-10362.883188,-222.061783,153.219100
4019.224137,-10140.821405,148.041188,919.314598
4019.224467,-9622.677246,0.000000,612.876398
4019.224797,-10066.800811,296.082377,459.657299
4019.225127,-10214.842000,296.082377,612.876398
4019.225458,-10066.800811,592.164754,536.266849
4019.225788,-9400.615463,148.041188,-153.219100
4019.226118,-9474.636058,740.205942,-1149.143247
4019.226448,-9548.656652,740.205942,-995.924147
4019.226778,-9548.656652,740.205942,-689.485948
4019.227108,-9548.656652,1036.288319,-383.047749
4019.227438,-9918.759623,888.247130,0.000000
4019.227768,-9696.697840,962.267725,-612.876398
4019.228099,-9696.697840,814.226536,-842.705048
4019.228429,-9474.636058,1036.288319,-1455.581446
4019.228759,-9548.656652,1406.391290,-306.438199
4019.229089,-9844.739029,1480.411884,153.219100
4019.229419,-9918.759623,1332.370696,0.000000
4019.229749,-9474.636058,1702.473667,-766.095498
4019.230079,-10140.821405,1776.494261,-459.657299
4019.230409,-10214.842000,1406.391290,0.000000
4019.230740,-9918.759623,1258.350101,-689.485948
4019.231070,-9252.574275,1406.391290,-1378.971896
4019.231400,-9178.553681,1480.411884,-1378.971896
4019.231730,-9696.697840,1406.391290,-306.438199
4019.232060,-9844.739029,1406.391290,0.000000
4019.232390,-9992.780217,1332.370696,383.047749
4019.232720,-9548.656652,888.247130,0.000000
4019.233050,-9474.636058,740.205942,-229.828649
4019.233381,-9548.656652,592.164754,-306.438199
4019.233711,-9696.697840,444.123565,459.657299
4019.234041,-9474.636058,370.102971,1149.143247
4019.234371,-9474.636058,370.102971,689.485948
4019.234701,-9622.677246,148.041188,536.266849
4019.235031,-10066.800811,296.082377,766.095498
4019.235361,-9696.697840,222.061783,842.705048
4019.235691,-9326.594869,222.061783,306.438199
4019.236022,-9474.636058,444.123565,-536.266849
4019.236352,-9770.718434,518.144159,-459.657299
4019.236682,-9696.697840,296.082377,-229.828649
4019.237012,-9548.656652,0.000000,459.657299
4019.237342,-9696.697840,0.000000,459.657299
4019.237672,-9622.677246,0.000000,383.047749
4019.238002,-9474.636058,-296.082377,153.219100
4019.238332,-9548.656652,74.020594,229.828649
4019.238663,-10288.862594,-444.123565,842.705048
4019.238993,-10288.862594,-370.102971,1225.752797
4019.239323,-9474.636058,-370.102971,229.828649
4019.239653,-9474.636058,-222.061783,-306.438199
4019.239983,-10066.800811,-518.144159,919.314598
4019.240313,-10362.883188,-740.205942,1302.362347
4019.240643,-10066.800811,-740.205942,306.438199
4019.240973,-9622.677246,-962.267725,76.609550
4019.241304,-9474.636058,-740.205942,76.609550
4019.241634,-9548.656652,-1480.411884,842.705048
4019.241964,-9844.739029,-1332.370696,1225.752797
4019.242294,-10066.800811,-1554.432478,1762.019645
4019.242624,-9548.656652,-1480.411884,1225.752797
4019.242954,-9844.739029,-1554.432478,1455.581446
4019.243284,-10732.986159,-1184.329507,1455.581446
4019.243615,-10658.965565,-1036.288319,1378.971896
4019.243945,-9918.759623,-1480.411884,842.705048
4019.244275,-9474.636058,-592.164754,842.705048
4019.244605,-9770.718434,-962.267725,306.438199
4019.244935,-10140.821405,-814.226536,766.095498
4019.245265,-10362.883188,-740.205942,229.828649
4019.245595,-9844.739029,-962.267725,0.000000
4019.245925,-9326.594869,-962.267725,0.000000
4019.246256,-9326.594869,-814.226536,153.219100
4019.246586,-9252.574275,-1406.391290,919.314598
4019.246916,-9474.636058,-888.247130,1302.362347
4019.247246,-9548.656652,-1036.288319,1302.362347
4019.247576,-9622.677246,-370.102971,689.485948
4019.247906,-9992.780217,-370.102971,76.609550
4019.248236,-9992.780217,74.020594,459.657299
4019.248566,-9992.780217,0.000000,689.485948
4019.248897,-8956.491898,0.000000,536.266849
4019.249227,-8734.430116,0.000000,-383.047749
4019.249557,-9548.656652,296.082377,-766.095498
4019.249887,-10140.821405,444.123565,153.219100
4019.250217,-10436.903782,296.082377,0.000000
4019.250547,-9918.759623,518.144159,-383.047749
4019.250877,-9622.677246,370.102971,-1225.752797
4019.251207,-9548.656652,962.267725,-919.314598
4019.251538,-9548.656652,666.185348,-306.438199
4019.251868,-9474.636058,814.226536,0.000000
4019.252198,-9992.780217,740.205942,76.609550
4019.252528,-9548.656652,1184.329507,-306.438199
4019.252858,-9918.759623,888.247130,-383.047749
4019.253188,-10066.800811,1184.329507,0.000000
4019.253518,-9770.718434,1184.329507,0.000000
4019.253848,-9844.739029,1036.288319,-842.705048
4019.254179,-9474.636058,962.267725,-459.657299
4019.254509,-9844.739029,666.185348,612.876398
4019.254839,-10066.800811,1258.350101,842.705048
4019.255169,-9918.759623,1258.350101,229.828649
4019.255499,-9474.636058,1110.308913,-919.314598
4019.255829,-9696.697840,1110.308913,-1532.190996
4019.256159,-9918.759623,1110.308913,-612.876398
4019.256489,-9918.759623,1036.288319,76.609550
4019.256820,-9918.759623,814.226536,766.095498
4019.257150,-9474.636058,888.247130,459.657299
4019.257480,-9326.594869,592.164754,0.000000
4019.257810,-9992.780217,962.267725,0.000000
4019.258140,-10140.821405,888.247130,-306.438199
4019.258470,-9696.697840,814.226536,383.047749
4019.258800,-9030.512492,592.164754,459.657299
4019.259130,-9474.636058,666.185348,689.485948
4019.259461,-10288.862594,814.226536,536.266849
4019.259791,-10288.862594,1110.308913,306.438199
4019.260121,-9844.739029,518.144159,-766.095498
4019.260451,-9474.636058,1036.288319,-1762.019645
4019.260781,-9400.615463,592.164754,-1072.533697
4019.261111,-9844.739029,740.205942,0.000000
4019.261441,-9844.739029,222.061783,459.657299
4019.261771,-9770.718434,444.123565,842.705048
4019.262102,-9474.636058,0.000000,536.266849
4019.262432,-9918.759623,370.102971,-612.876398
4019.262762,-10288.862594,0.000000,306.438199
4019.263092,-10066.800811,0.000000,842.705048
4019.263422,-9918.759623,148.041188,689.485948
4019.263752,-9622.677246,74.020594,0.000000
4019.264082,-10214.842000,148.041188,536.266849
4019.264412,-10658.965565,-518.144159,842.705048
4019.264743,-10362.883188,-444.123565,842.705048
4019.265073,-9548.656652,-518.144159,306.438199
4019.265403,-9104.533087,-370.102971,-383.047749
4019.265733,-9400.615463,-592.164754,-306.438199
4019.266063,-9770.718434,-888.247130,689.485948
4019.266393,-10584.944971,-962.267725,995.924147
4019.266723,-9992.780217,-1406.391290,1149.143247
4019.267053,-9548.656652,-1184.329507,1072.533697
4019.267384,-9474.636058,-1332.370696,919.314598
4019.267714,-10066.800811,-1332.370696,536.266849
4019.268044,-9474.636058,-370.102971,612.876398
4019.268374,-9622.677246,-740.205942,995.924147
4019.268704,-9696.697840,-1110.308913,536.266849
4019.269034,-9844.739029,-666.185348,1072.533697
4019.269364,-10288.862594,-666.185348,1378.971896
4019.269694,-9918.759623,-1480.411884,612.876398
4019.270025,-9474.636058,-888.247130,0.000000
4019.270355,-9326.594869,-740.205942,-689.485948
4019.270685,-9474.636058,-814.226536,-306.438199
4019.271015,-9030.512492,-666.185348,306.438199
4019.271345,-9474.636058,-296.082377,842.705048
4019.271675,-9696.697840,-74.020594,919.314598
4019.272005,-9992.780217,-296.082377,383.047749
4019.272335,-10140.821405,-296.082377,-229.828649
4019.272665,-10362.883188,-222.061783,459.657299
4019.272995,-9844.739029,-370.102971,536.266849
4019.273325,-9252.574275,-518.144159,689.485948
4019.273655,-9326.594869,0.000000,612.876398
4019.273985,-9992.780217,148.041188,536.266849
4019.274315,-10510.924376,0.000000,842.705048
4019.274645,-10362.883188,74.020594,229.828649
4019.274975,-9696.697840,222.061783,-689.485948
4019.275305,-9696.697840,444.123565,-766.095498
4019.275635,-9696.697840,222.061783,0.000000
4019.275965,-9770.718434,0.000000,1225.752797
4019.276295,-9770.718434,0.000000,459.657299
4019.276624,-9548.656652,296.082377,689.485948
4019.276954,-9844.739029,444.123565,0.000000
4019.277284,-9918.759623,370.102971,612.876398
4019.277614,-10214.842000,518.144159,383.047749
4019.277944,-9548.656652,518.144159,76.609550
4019.278274,-9400.615463,666.185348,-383.047749
4019.278604,-9474.636058,666.185348,153.219100
4019.278934,-10362.883188,888.247130,1072.533697
4019.279264,-10584.944971,1036.288319,1225.752797
4019.279594,-9770.718434,740.205942,-229.828649
4019.279924,-9474.636058,814.226536,-1378.971896
4019.280254,-9474.636058,814.226536,-1608.800546
4019.280584,-9696.697840,518.144159,-766.095498
4019.280914,-9622.677246,888.247130,229.828649
4019.281244,-9844.739029,592.164754,919.314598
4019.281574,-9400.615463,666.185348,229.828649
4019.281904,-9474.636058,666.185348,-306.438199
4019.282234,-9844.739029,1110.308913,-306.438199
4019.282564,-10214.842000,592.164754,-306.438199
4019.282894,-9622.677246,814.226536,0.000000
4019.283224,-9030.512492,222.061783,0.000000
4019.283554,-9474.636058,518.144159,766.095498
4019.283884,-10140.821405,592.164754,1378.971896
4019.284214,-10807.006753,740.205942,919.314598
4019.284544,-10066.800811,592.164754,0.000000
4019.284874,-9326.594869,592.164754,-1378.971896
4019.285203,-9030.512492,518.144159,-1149.143247
4019.285533,-9400.615463,370.102971,-306.438199
4019.285863,-9622.677246,666.185348,0.000000
4019.286193,-9622.677246,444.123565,0.000000
4019.286523,-9696.697840,0.000000,-383.047749
4019.286853,-9844.739029,148.041188,-919.314598
4019.287183,-10288.862594,518.144159,-76.609550
4019.287513,-10362.883188,370.102971,383.047749
4019.287843,-9770.718434,296.082377,-459.657299
4019.288173,-9474.636058,370.102971,0.000000
4019.288503,-10436.903782,444.123565,995.924147
4019.288833,-10658.965565,296.082377,1455.581446
4019.289163,-10214.842000,-74.020594,995.924147
4019.289493,-9696.697840,-444.123565,-612.876398
4019.289823,-9252.574275,-592.164754,-766.095498
4019.290153,-9918.759623,-296.082377,-229.828649
4019.290483,-9770.718434,-222.061783,536.266849
4019.290813,-9548.656652,-1110.308913,766.095498
4019.291143,-9252.574275,-814.226536,1302.362347
4019.291473,-9548.656652,-666.185348,842.705048
4019.291803,-10140.821405,-370.102971,842.705048
4019.292133,-10436.903782,-444.123565,153.219100
4019.292463,-10214.842000,-370.102971,689.485948
4019.292793,-9104.533087,-888.247130,459.657299
4019.293123,-9252.574275,-814.226536,383.047749
4019.293453,-9696.697840,-962.267725,1225.752797
4019.293782,-9918.759623,-962.267725,1455.581446
4019.294112,-9622.677246,-1036.288319,689.485948
4019.294442,-9474.636058,-1110.308913,0.000000
4019.294772,-9474.636058,-1110.308913,0.000000
4019.295102,-9622.677246,-888.247130,153.219100
4019.295432,-9992.780217,-666.185348,919.314598
4019.295762,-9770.718434,-814.226536,1149.143247
4019.296092,-9474.636058,-666.185348,1149.143247
4019.296422,-9770.718434,-814.226536,0.000000
4019.296752,-9770.718434,-740.205942,0.000000
4019.297082,-10288.862594,-666.185348,383.047749
4019.297412,-9770.718434,-740.205942,766.095498
4019.297742,-9326.594869,-518.144159,-1072.533697
4019.298072,-9178.553681,-370.102971,0.000000
4019.298402,-9918.759623,0.000000,612.876398
4019.298732,-10362.883188,-296.082377,766.095498
4019.299062,-9992.780217,0.000000,0.000000
4019.299392,-10140.821405,148.041188,-1455.581446
4019.299722,-10066.800811,0.000000,-689.485948
4019.300052,-10066.800811,74.020594,0.000000
4019.300382,-10066.800811,0.000000,1149.143247
4019.300712,-9696.697840,0.000000,995.924147
4019.301042,-9548.656652,0.000000,766.095498
4019.301372,-9844.739029,148.041188,229.828649
4019.301702,-9770.718434,0.000000,0.000000
4019.302031,-9918.759623,296.082377,0.000000
4019.302361,-9622.677246,518.144159,459.657299
4019.302691,-9030.512492,222.061783,153.219100
4019.303021,-9400.615463,444.123565,383.047749
4019.303351,-10140.821405,444.123565,306.438199
4019.303681,-10140.821405,740.205942,0.000000
4019.304011,-9696.697840,740.205942,-766.095498
4019.304341,-9326.594869,814.226536,-1532.190996
4019.304671,-9992.780217,1184.329507,-766.095498
4019.305001,-9474.636058,1110.308913,-229.828649
4019.305331,-9474.636058,814.226536,229.828649
4019.305661,-9326.594869,296.082377,995.924147
4019.305991,-9400.615463,740.205942,459.657299
4019.306321,-9770.718434,666.185348,-459.657299
4019.306651,-10362.883188,518.144159,0.000000
4019.306981,-9918.759623,370.102971,459.657299
4019.307311,-9696.697840,740.205942,536.266849
4019.307641,-9030.512492,666.185348,0.000000
4019.307971,-9474.636058,814.226536,153.219100
4019.308301,-9844.739029,1036.288319,459.657299
4019.308631,-9992.780217,740.205942,0.000000
4019.308961,-9474.636058,518.144159,-919.314598
4019.309291,-9252.574275,592.164754,-1072.533697
4019.309621,-9474.636058,814.226536,-459.657299
4019.309951,-9400.615463,148.041188,383.047749
4019.310281,-9400.615463,370.102971,459.657299
4019.310610,-9252.574275,444.123565,919.314598
4019.310940,-9548.656652,444.123565,-153.219100
4019.311270,-9992.780217,296.082377,-153.219100
4019.311600,-10584.944971,518.144159,536.266849
4019.311930,-10362.883188,444.123565,766.095498
4019.312260,-10140.821405,444.123565,536.266849
4019.312590,-9622.677246,74.020594,153.219100
4019.312920,-9992.780217,0.000000,153.219100
4019.313250,-10214.842000,0.000000,842.705048
4019.313580,-10140.821405,0.000000,612.876398
4019.313910,-9400.615463,0.000000,-306.438199
4019.314240,-9252.574275,-370.102971,-919.314598
4019.314570,-9474.636058,-296.082377,0.000000
4019.314900,-9474.636058,0.000000,612.876398
4019.315230,-10140.821405,-444.123565,1532.190996
4019.315560,-10214.842000,-444.123565,1378.971896
4019.315890,-9770.718434,-666.185348,459.657299
4019.316220,-10214.842000,-592.164754,612.876398
4019.316550,-10362.883188,-740.205942,689.485948
4019.316880,-9844.739029,-888.247130,1149.143247
4019.317210,-9326.594869,-888.247130,536.266849
4019.317540,-9326.594869,-666.185348,383.047749
4019.317870,-9992.780217,-518.144159,1378.971896
4019.318200,-10436.903782,-296.082377,842.705048
4019.318530,-9918.759623,-444.123565,0.000000
4019.318860,-9474.636058,-518.144159,-1149.143247
4019.319189,-9178.553681,-962.267725,-842.705048
4019.319519,-9474.636058,-740.205942,0.000000
4019.319849,-9474.636058,-666.185348,1149.143247
4019.320179,-9770.718434,-666.185348,1072.533697
4019.320509,-9696.697840,-1036.288319,1225.752797
4019.320839,-9918.759623,-1184.329507,306.438199
4019.321169,-10214.842000,-666.185348,536.266849
4019.321499,-9844.739029,-666.185348,842.705048
4019.321829,-8956.491898,-518.144159,919.314598
4019.322159,-9104.533087,-592.164754,383.047749
4019.322489,-9400.615463,0.000000,153.219100
4019.322819,-10510.924376,74.020594,612.876398
4019.323149,-10881.027347,0.000000,153.219100
4019.323479,-10510.924376,74.020594,153.219100
4019.323809,-9548.656652,222.061783,-383.047749
4019.324139,-9474.636058,222.061783,-306.438199
4019.324469,-9696.697840,0.000000,383.047749
4019.324799,-9770.718434,-296.082377,1302.362347
4019.325129,-9622.677246,74.020594,1455.581446
4019.325459,-9548.656652,0.000000,383.047749
4019.325789,-9770.718434,444.123565,-153.219100
4019.326119,-9918.759623,518.144159,612.876398
4019.326449,-10214.842000,444.123565,766.095498
4019.326779,-9548.656652,518.144159,0.000000
4019.327109,-9474.636058,518.144159,-459.657299
4019.327439,-10066.800811,370.102971,0.000000
4019.327768,-10140.821405,592.164754,919.314598
4019.328098,-9844.739029,444.123565,612.876398
4019.328428,-9548.656652,296.082377,-459.657299
4019.328758,-9696.697840,518.144159,-995.924147
4019.329088,-9622.677246,1184.329507,-842.705048
4019.329418,-9696.697840,592.164754,0.000000
4019.329748,-9918.759623,814.226536,766.095498
4019.330078,-9770.718434,740.205942,612.876398
4019.330408,-8882.471304,666.185348,0.000000
4019.330738,-9696.697840,518.144159,-383.047749
4019.331068,-10288.862594,518.144159,76.609550
4019.331398,-10288.862594,444.123565,153.219100
4019.331728,-9696.697840,666.185348,0.000000
4019.332058,-9252.574275,370.102971,0.000000
4019.332388,-9918.759623,666.185348,76.609550
4019.332718,-10881.027347,444.123565,689.485948
4019.333048,-10362.883188,444.123565,383.047749
4019.333378,-9548.656652,370.102971,-919.314598
4019.333708,-9252.574275,518.144159,-1225.752797
4019.334038,-9548.656652,444.123565,306.438199
4019.334368,-9844.739029,0.000000,536.266849
4019.334698,-9548.656652,222.061783,766.095498
4019.335028,-9918.759623,74.020594,842.705048
4019.335358,-9844.739029,148.041188,229.828649
4019.335688,-9770.718434,0.000000,-229.828649
4019.336017,-10066.800811,0.000000,459.657299
4019.336347,-10066.800811,148.041188,1302.362347
4019.336677,-9474.636058,74.020594,766.095498
4019.337007,-9696.697840,0.000000,229.828649
4019.337337,-10214.842000,296.082377,459.657299
4019.337667,-10658.965565,222.061783,536.266849
4019.337997,-10214.842000,0.000000,306.438199
4019.338327,-9548.656652,0.000000,-612.876398
4019.338657,-9252.574275,0.000000,-842.705048
4019.338987,-9326.594869,0.000000,153.219100
4019.339317,-9474.636058,-370.102971,766.095498
4019.339647,-9992.780217,-222.061783,1149.143247
4019.339977,-9918.759623,-222.061783,612.876398
4019.340307,-9918.759623,-296.082377,0.000000
4019.340637,-10288.862594,-296.082377,536.266849
4019.340967,-10510.924376,-518.144159,1149.143247
4019.341297,-9474.636058,-592.164754,1455.581446
4019.341627,-9178.553681,-740.205942,383.047749
4019.341957,-9474.636058,-222.061783,153.219100
4019.342287,-9770.718434,-296.082377,383.047749
4019.342617,-10066.800811,0.000000,536.266849
4019.342947,-10214.842000,222.061783,-383.047749
4019.343277,-9622.677246,-222.061783,-919.314598
4019.343607,-9548.656652,0.000000,-459.657299
4019.343937,-9770.718434,-370.102971,0.000000
4019.344267,-9622.677246,-518.144159,306.438199
4019.344596,-9696.697840,-888.247130,612.876398
4019.344926,-9326.594869,-740.205942,229.828649
4019.345256,-9474.636058,-592.164754,459.657299
4019.345586,-9992.780217,-370.102971,842.705048
4019.345916,-10140.821405,0.000000,1532.190996
4019.346246,-9918.759623,0.000000,1149.143247
4019.346576,-9622.677246,0.000000,76.609550
4019.346906,-10066.800811,74.020594,-689.485948
4019.347236,-10955.047942,74.020594,-383.047749
4019.347566,-10510.924376,0.000000,0.000000
4019.347896,-9992.780217,296.082377,-229.828649
4019.348226,-9474.636058,-74.020594,-995.924147
4019.348556,-9474.636058,0.000000,-306.438199
4019.348886,-9696.697840,-222.061783,306.438199
4019.349216,-9992.780217,296.082377,1302.362347
4019.349546,-9622.677246,-74.020594,1072.533697
4019.349876,-9622.677246,222.061783,1072.533697
4019.350206,-10140.821405,0.000000,459.657299
4019.350536,-10658.965565,222.061783,612.876398
4019.350866,-10658.965565,222.061783,612.876398
4019.351196,-9992.780217,370.102971,459.657299
4019.351526,-9326.594869,370.102971,0.000000
4019.351856,-9770.718434,444.123565,-383.047749
4019.352186,-9696.697840,222.061783,229.828649
4019.352516,-9844.739029,592.164754,536.266849
4019.352846,-9474.636058,148.041188,-383.047749
4019.353175,-9252.574275,222.061783,-1225.752797
4019.353505,-9474.636058,148.041188,-689.485948
4019.353835,-9696.697840,296.082377,306.438199
4019.354165,-9548.656652,370.102971,229.828649
4019.354495,-9622.677246,370.102971,536.266849
4019.354825,-9030.512492,444.123565,0.000000
4019.355155,-9696.697840,592.164754,0.000000
4019.355485,-10214.842000,740.205942,383.047749
4019.355815,-10214.842000,444.123565,536.266849
4019.356145,-9548.656652,444.123565,383.047749
4019.356475,-9030.512492,444.123565,-536.266849
4019.356805,-9696.697840,518.144159,0.000000
4019.357135,-10140.821405,666.185348,459.657299
4019.357465,-10066.800811,666.185348,-306.438199
4019.357795,-9474.636058,444.123565,-1225.752797
4019.358125,-9474.636058,814.226536,-1149.143247
4019.358455,-10066.800811,1036.288319,-383.047749
4019.358785,-10214.842000,444.123565,306.438199
4019.359115,-9992.780217,0.000000,919.314598
4019.359445,-9770.718434,74.020594,612.876398
4019.359775,-9770.718434,148.041188,306.438199
4019.360105,-10066.800811,148.041188,76.609550
4019.360435,-10140.821405,0.000000,766.095498
4019.360765,-9770.718434,0.000000,1149.143247
4019.361095,-9474.636058,0.000000,383.047749
4019.361424,-9400.615463,-222.061783,76.609550
4019.361754,-9918.759623,-296.082377,459.657299
4019.362084,-9622.677246,0.000000,612.876398
4019.362414,-9918.759623,0.000000,306.438199
4019.362744,-9252.574275,0.000000,-1225.752797
4019.363074,-9474.636058,0.000000,-842.705048
4019.363404,-9696.697840,-148.041188,612.876398
4019.363734,-10140.821405,-370.102971,1149.143247
4019.364064,-10140.821405,-518.144159,1072.533697
4019.364394,-9548.656652,-888.247130,383.047749
4019.364724,-9104.533087,-666.185348,0.000000
4019.365054,-9622.677246,-740.205942,76.609550
4019.365384,-9770.718434,-518.144159,612.876398
4019.365714,-9326.594869,-592.164754,919.314598
4019.366044,-9252.574275,-740.205942,153.219100
4019.366374,-9770.718434,-740.205942,76.609550
4019.366704,-10436.903782,-296.082377,766.095498
4019.367034,-10066.800811,-592.164754,1072.533697
4019.367364,-9622.677246,-518.144159,612.876398
4019.367694,-9252.574275,-444.123565,153.219100
4019.368024,-9474.636058,-370.102971,-612.876398
4019.368354,-9622.677246,0.000000,0.000000
4019.368684,-10288.862594,-148.041188,306.438199
4019.369014,-10288.862594,296.082377,536.266849
4019.369344,-9696.697840,0.000000,229.828649
4019.369674,-9178.553681,-222.061783,-383.047749
4019.370003,-9844.739029,0.000000,-153.219100
4019.370333,-10510.924376,0.000000,536.266849
4019.370663,-9918.759623,-370.102971,1302.362347
4019.370993,-9918.759623,-370.102971,612.876398
4019.371323,-10140.821405,74.020594,766.095498
4019.371653,-10288.862594,0.000000,1532.190996
4019.371983,-10214.842000,0.000000,1225.752797
4019.372313,-9622.677246,0.000000,76.609550
4019.372643,-9252.574275,0.000000,-459.657299
4019.372973,-9030.512492,74.020594,-536.266849
4019.373303,-9548.656652,370.102971,306.438199
4019.373633,-9696.697840,296.082377,306.438199
4019.373963,-9696.697840,0.000000,153.219100
4019.374293,-9474.636058,74.020594,0.000000
4019.374623,-9918.759623,-148.041188,-229.828649
4019.374952,-10140.821405,0.000000,459.657299
4019.375282,-9844.739029,-74.020594,1378.971896
4019.375612,-9326.594869,148.041188,1149.143247
4019.375942,-9030.512492,74.020594,76.609550
4019.376272,-9474.636058,296.082377,0.000000
4019.376602,-10658.965565,592.164754,919.314598
4019.376931,-10214.842000,444.123565,153.219100
4019.377261,-9844.739029,814.226536,-76.609550
4019.377591,-9474.636058,296.082377,-1149.143247
4019.377921,-9696.697840,740.205942,-919.314598
4019.378251,-9696.697840,592.164754,-689.485948
4019.378581,-9696.697840,296.082377,-612.876398
4019.378910,-9548.656652,518.144159,-229.828649
4019.379240,-9326.594869,592.164754,-229.828649
4019.379570,-9770.718434,592.164754,76.609550
4019.379900,-10436.903782,592.164754,919.314598
4019.380230,-9844.739029,444.123565,536.266849
4019.380560,-9696.697840,518.144159,-153.219100
4019.380890,-9400.615463,592.164754,-229.828649
4019.381219,-9992.780217,592.164754,689.485948
4019.381549,-10510.924376,444.123565,1608.800546
4019.381879,-9844.739029,518.144159,306.438199
4019.382209,-9696.697840,222.061783,-766.095498
4019.382539,-9696.697840,296.082377,-766.095498
4019.382869,-10066.800811,370.102971,-459.657299
4019.383198,-9622.677246,370.102971,536.266849
4019.383528,-9548.656652,222.061783,766.095498
4019.383858,-9474.636058,296.082377,766.095498
4019.384188,-9622.677246,222.061783,153.219100
4019.384518,-10066.800811,296.082377,0.000000
4019.384848,-10955.047942,370.102971,153.219100
4019.385177,-10066.800811,222.061783,459.657299
4019.385507,-9178.553681,-296.082377,-229.828649
4019.385837,-9104.533087,74.020594,536.266849
4019.386167,-9770.718434,0.000000,1225.752797
4019.386497,-10214.842000,74.020594,766.095498
4019.386827,-9696.697840,-222.061783,-153.219100
4019.387156,-9474.636058,0.000000,-1072.533697
4019.387486,-9622.677246,0.000000,0.000000
4019.387816,-9844.739029,-74.020594,536.266849
4019.388146,-9918.759623,-296.082377,1149.143247
4019.388476,-9918.759623,-518.144159,1149.143247
4019.388806,-9770.718434,-370.102971,612.876398
4019.389136,-9326.594869,-666.185348,229.828649
4019.389465,-9844.739029,-592.164754,766.095498
4019.389795,-10066.800811,-296.082377,1072.533697
4019.390125,-9844.739029,0.000000,842.705048
4019.390455,-9918.759623,-444.123565,-229.828649
4019.390785,-9474.636058,-370.102971,-306.438199
4019.391115,-10288.862594,-148.041188,306.438199
4019.391444,-10362.883188,-370.102971,842.705048
4019.391774,-10066.800811,-666.185348,306.438199
4019.392104,-9400.615463,-740.205942,-153.219100
4019.392434,-9252.574275,-444.123565,-536.266849
4019.392764,-9918.759623,-444.123565,153.219100
4019.393094,-9844.739029,-444.123565,383.047749
4019.393423,-9844.739029,-296.082377,766.095498
4019.393753,-9474.636058,-148.041188,689.485948
4019.394083,-9548.656652,-444.123565,766.095498
4019.394413,-10362.883188,-148.041188,536.266849
4019.394743,-10510.924376,-222.061783,689.485948
4019.395073,-9474.636058,-444.123565,0.000000
4019.395402,-9400.615463,-518.144159,153.219100
4019.395732,-9992.780217,0.000000,459.657299
4019.396062,-10436.903782,0.000000,1149.143247
4019.396392,-10066.800811,-148.041188,1072.533697
4019.396722,-9770.718434,0.000000,0.000000
4019.397052,-9326.594869,0.000000,-1225.752797
4019.397382,-9178.553681,74.020594,-1378.971896
4019.397711,-9474.636058,222.061783,0.000000
4019.398041,-9474.636058,74.020594,842.705048
4019.398371,-9622.677246,74.020594,1149.143247
4019.398701,-9548.656652,148.041188,383.047749
4019.399031,-9918.759623,518.144159,0.000000
4019.399361,-10436.903782,296.082377,0.000000
4019.399690,-9918.759623,0.000000,459.657299
4019.400020,-9178.553681,296.082377,612.876398
4019.400350,-8364.327145,0.000000,306.438199
4019.400680,-9622.677246,592.164754,306.438199
4019.401010,-10584.944971,592.164754,1149.143247
4019.401340,-9992.780217,296.082377,0.000000
4019.401669,-9474.636058,518.144159,-383.047749
4019.401999,-9918.759623,740.205942,-1149.143247
4019.402329,-10214.842000,888.247130,-536.266849
4019.402659,-9622.677246,444.123565,76.609550
4019.402989,-9326.594869,296.082377,612.876398
4019.403319,-9474.636058,74.020594,766.095498
4019.403648,-9622.677246,222.061783,306.438199
4019.403978,-10140.821405,296.082377,76.609550
4019.404308,-10510.924376,222.061783,459.657299
4019.404638,-9770.718434,-148.041188,459.657299
4019.404968,-9326.594869,296.082377,76.609550
4019.405298,-9178.553681,444.123565,0.000000
4019.405627,-9844.739029,444.123565,383.047749
4019.405957,-10436.903782,740.205942,536.266849
4019.406287,-10140.821405,222.061783,229.828649
4019.406617,-9770.718434,444.123565,-766.095498
4019.406947,-9474.636058,222.061783,-689.485948
4019.407277,-9622.677246,592.164754,-766.095498
4019.407607,-9696.697840,0.000000,153.219100
4019.407936,-9844.739029,-370.102971,919.314598
4019.408266,-9548.656652,-74.020594,689.485948
4019.408596,-9548.656652,-296.082377,229.828649
4019.408926,-9918.759623,222.061783,383.047749
4019.409256,-10436.903782,0.000000,383.047749
4019.409586,-10288.862594,222.061783,689.485948
4019.409915,-9696.697840,-444.123565,842.705048
4019.410245,-9770.718434,0.000000,612.876398
4019.410575,-10214.842000,-148.041188,1762.019645
4019.410905,-10140.821405,-222.061783,1762.019645
4019.411235,-9844.739029,-148.041188,459.657299
4019.411565,-9178.553681,0.000000,-995.924147
4019.411894,-9770.718434,0.000000,-1149.143247
4019.412224,-9548.656652,74.020594,-383.047749
4019.412554,-9844.739029,0.000000,-153.219100
4019.412884,-9696.697840,-444.123565,383.047749
4019.413214,-9474.636058,0.000000,76.609550
4019.413544,-9548.656652,-444.123565,-229.828649
4019.413873,-10288.862594,-518.144159,0.000000
4019.414203,-10066.800811,-592.164754,459.657299
4019.414533,-9400.615463,-370.102971,459.657299
4019.414863,-8956.491898,-518.144159,842.705048
4019.415193,-9474.636058,-222.061783,689.485948
4019.415523,-10732.986159,148.041188,1378.971896
4019.415853,-10066.800811,0.000000,306.438199
4019.416182,-10510.924376,148.041188,-76.609550
4019.416512,-9770.718434,0.000000,-995.924147
4019.416842,-9400.615463,0.000000,-766.095498
4019.417172,-9474.636058,-74.020594,229.828649
4019.417502,-9474.636058,0.000000,612.876398
4019.417832,-9844.739029,0.000000,919.314598
4019.418161,-9844.739029,0.000000,536.266849
4019.418491,-9992.780217,74.020594,153.219100
4019.418821,-10214.842000,74.020594,536.266849
4019.419151,-10362.883188,0.000000,919.314598
4019.419481,-10140.821405,74.020594,919.314598
4019.419811,-9844.739029,-148.041188,229.828649
4019.420140,-10288.862594,148.041188,153.219100
4019.420470,-10140.821405,-74.020594,1378.971896
4019.420800,-9992.780217,0.000000,995.924147
4019.421130,-9918.759623,0.000000,76.609550
4019.421460,-9696.697840,296.082377,-459.657299
4019.421790,-9770.718434,222.061783,-612.876398
4019.422119,-9548.656652,0.000000,76.609550
4019.422449,-9622.677246,-296.082377,536.266849
4019.422779,-9696.697840,-222.061783,536.266849
4019.423109,-9474.636058,-148.041188,383.047749
4019.423439,-9178.553681,-740.205942,0.000000
4019.423769,-9474.636058,-296.082377,76.609550
4019.424099,-9770.718434,-222.061783,536.266849
4019.424428,-9400.615463,370.102971,153.219100
4019.424758,-9030.512492,222.061783,306.438199
4019.425088,-9622.677246,518.144159,766.095498
4019.425418,-10362.883188,814.226536,1302.362347
4019.425748,-10510.924376,814.226536,-153.219100
4019.426078,-10214.842000,518.144159,-995.924147
4019.426407,-9548.656652,296.082377,-1685.410096
4019.426737,-9548.656652,296.082377,-1072.533697
4019.427067,-9622.677246,370.102971,0.000000
4019.427397,-9622.677246,370.102971,229.828649
4019.427727,-9474.636058,518.144159,76.609550
4019.428057,-9696.697840,518.144159,0.000000
4019.428386,-10214.842000,444.123565,-306.438199
4019.428716,-10288.862594,666.185348,995.924147
4019.429046,-10362.883188,370.102971,1532.190996
4019.429376,-9770.718434,370.102971,919.314598
4019.429706,-9844.739029,0.000000,766.095498
4019.430036,-9918.759623,444.123565,919.314598
4019.430365,-10436.903782,222.061783,1149.143247
4019.430695,-10066.800811,518.144159,0.000000
4019.431025,-9548.656652,0.000000,-1149.143247
4019.431355,-9474.636058,296.082377,-995.924147
4019.431685,-9474.636058,444.123565,0.000000
4019.432015,-9844.739029,0.000000,689.485948
4019.432345,-9696.697840,0.000000,689.485948
4019.432674,-9474.636058,0.000000,306.438199
4019.433004,-9326.594869,0.000000,0.000000
4019.433334,-10436.903782,222.061783,0.000000
4019.433664,-10214.842000,0.000000,689.485948
4019.433994,-9622.677246,74.020594,612.876398
4019.434324,-8660.409521,-148.041188,0.000000
4019.434653,-9326.594869,0.000000,0.000000
4019.434983,-10214.842000,0.000000,842.705048
4019.435313,-10066.800811,0.000000,612.876398
4019.435643,-9252.574275,-370.102971,229.828649
4019.435973,-9400.615463,-296.082377,-459.657299
4019.436303,-9548.656652,-148.041188,-459.657299
4019.436632,-9844.739029,-148.041188,306.438199
4019.436962,-9696.697840,0.000000,76.609550
4019.437292,-9918.759623,0.000000,459.657299
4019.437622,-9474.636058,-148.041188,76.609550
4019.437952,-9474.636058,-74.020594,0.000000
4019.438282,-10140.821405,148.041188,383.047749
4019.438611,-10510.924376,0.000000,536.266849
4019.438941,-9918.759623,370.102971,229.828649
4019.439271,-9474.636058,148.041188,153.219100
4019.439601,-9918.759623,0.000000,229.828649
4019.439931,-10658.965565,222.061783,919.314598
4019.440261,-10436.903782,296.082377,1072.533697
4019.440590,-10066.800811,296.082377,-306.438199
4019.440920,-9696.697840,148.041188,-1225.752797
4019.441250,-9622.677246,148.041188,-383.047749
4019.441580,-9844.739029,74.020594,766.095498
4019.441910,-10066.800811,0.000000,919.314598
4019.442240,-9918.759623,0.000000,1072.533697
4019.442570,-9474.636058,-444.123565,383.047749
4019.442899,-9400.615463,0.000000,-76.609550
4019.443229,-10140.821405,-222.061783,306.438199
4019.443559,-10140.821405,-296.082377,766.095498
4019.443889,-9104.533087,-592.164754,1072.533697
4019.444219,-8438.347739,-370.102971,766.095498
4019.444549,-9548.656652,0.000000,1378.971896
4019.444878,-10066.800811,148.041188,1608.800546
4019.445208,-10140.821405,-148.041188,536.266849
4019.445538,-9770.718434,74.020594,-383.047749
4019.445868,-9474.636058,0.000000,-1149.143247
4019.446198,-9548.656652,0.000000,-612.876398
4019.446528,-9548.656652,0.000000,383.047749
4019.446857,-9548.656652,74.020594,459.657299
4019.447187,-9252.574275,-296.082377,0.000000
4019.447517,-9474.636058,-222.061783,-306.438199
4019.447847,-9844.739029,0.000000,-229.828649
4019.448177,-9844.739029,148.041188,76.609550
4019.448507,-9548.656652,370.102971,153.219100
4019.448836,-9178.553681,74.020594,153.219100
4019.449166,-9400.615463,222.061783,0.000000
4019.449496,-10214.842000,74.020594,229.828649
4019.449826,-10807.006753,740.205942,0.000000
4019.450156,-10807.006753,296.082377,-153.219100
4019.450486,-9770.718434,148.041188,-612.876398
4019.450816,-9918.759623,148.041188,-383.047749
4019.451145,-9918.759623,222.061783,153.219100
4019.451475,-9844.739029,74.020594,306.438199
4019.451805,-9844.739029,148.041188,383.047749
4019.452135,-9474.636058,0.000000,459.657299
4019.452465,-9548.656652,0.000000,-383.047749
4019.452795,-10436.903782,518.144159,-383.047749
4019.453124,-10362.883188,222.061783,383.047749
4019.453454,-9622.677246,0.000000,536.266849
4019.453784,-9104.533087,0.000000,153.219100
4019.454114,-9400.615463,222.061783,-536.266849
4019.454444,-10288.862594,296.082377,1149.143247
4019.454774,-10214.842000,148.041188,1072.533697
4019.455103,-9918.759623,296.082377,0.000000
4019.455433,-9474.636058,148.041188,-842.705048
4019.455763,-9030.512492,74.020594,-536.266849
4019.456093,-9400.615463,0.000000,459.657299
4019.456423,-9548.656652,0.000000,919.314598
4019.456753,-9844.739029,148.041188,995.924147
4019.457082,-9104.533087,0.000000,0.000000
4019.457412,-9474.636058,0.000000,0.000000
4019.457742,-9696.697840,0.000000,0.000000
4019.458072,-9844.739029,0.000000,459.657299
4019.458402,-9400.615463,518.144159,536.266849
4019.458732,-9030.512492,0.000000,689.485948
4019.459062,-9844.739029,444.123565,842.705048
4019.459391,-10436.903782,296.082377,766.095498
4019.459721,-10658.965565,518.144159,766.095498
4019.460051,-10214.842000,148.041188,-536.266849
4019.460381,-9548.656652,148.041188,-766.095498
4019.460711,-9770.718434,148.041188,-689.485948
4019.461041,-9548.656652,0.000000,306.438199
4019.461370,-9770.718434,666.185348,842.705048
4019.461700,-10140.821405,592.164754,842.705048
4019.462030,-10214.842000,296.082377,0.000000
4019.462360,-10510.924376,222.061783,-383.047749
4019.462690,-10288.862594,296.082377,-76.609550
4019.463020,-9918.759623,-148.041188,842.705048
4019.463349,-9548.656652,0.000000,1149.143247
4019.463679,-9474.636058,-518.144159,153.219100
4019.464009,-9844.739029,74.020594,383.047749
4019.464339,-10066.800811,296.082377,612.876398
4019.464669,-9992.780217,0.000000,766.095498
4019.464999,-9696.697840,296.082377,0.000000
4019.465328,-9622.677246,0.000000,-76.609550
4019.465658,-9992.780217,0.000000,76.609550
4019.465988,-9770.718434,-148.041188,383.047749
4019.466318,-9992.780217,-148.041188,306.438199
4019.466648,-9770.718434,-370.102971,-153.219100
4019.466978,-9178.553681,-296.082377,0.000000
4019.467307,-9400.615463,-370.102971,153.219100
4019.467637,-9622.677246,-222.061783,536.266849
4019.467967,-9696.697840,-222.061783,689.485948
4019.468297,-9030.512492,-148.041188,612.876398
4019.468627,-9326.594869,0.000000,153.219100
4019.468957,-10066.800811,0.000000,612.876398
4019.469287,-10732.986159,74.020594,842.705048
4019.469616,-10214.842000,-222.061783,153.219100
4019.469946,-9622.677246,-370.102971,-842.705048
4019.470276,-8956.491898,-370.102971,-1302.362347
4019.470606,-9326.594869,74.020594,-459.657299
4019.470936,-9992.780217,0.000000,612.876398
4019.471266,-9918.759623,0.000000,919.314598
4019.471595,-10066.800811,296.082377,842.705048
4019.471925,-9844.739029,222.061783,0.000000
4019.472255,-9844.739029,-296.082377,-76.609550
4019.472585,-9918.759623,74.020594,0.000000
4019.472915,-9548.656652,-370.102971,612.876398
4019.473245,-8882.471304,0.000000,229.828649
4019.473574,-9252.574275,148.041188,0.000000
4019.473904,-9844.739029,148.041188,383.047749
4019.474234,-10066.800811,518.144159,306.438199
4019.474564,-10214.842000,444.123565,0.000000
4019.474894,-10140.821405,222.061783,-919.314598
4019.475224,-9992.780217,444.123565,-459.657299
4019.475553,-9474.636058,222.061783,306.438199
4019.475883,-9178.553681,0.000000,536.266849
4019.476213,-9474.636058,0.000000,306.438199
4019.476543,-9474.636058,0.000000,76.609550
4019.476873,-8956.491898,0.000000,153.219100
4019.477202,-9992.780217,370.102971,229.828649
4019.477532,-10362.883188,222.061783,1072.533697
4019.477862,-10214.842000,296.082377,766.095498
4019.478192,-9104.533087,444.123565,0.000000
4019.478522,-9474.636058,518.144159,-306.438199
4019.478851,-10140.821405,148.041188,229.828649
4019.479181,-10362.883188,370.102971,306.438199
4019.479511,-9696.697840,444.123565,-383.047749
4019.479841,-9548.656652,370.102971,-459.657299
4019.480170,-9548.656652,370.102971,-536.266849
4019.480500,-9622.677246,0.000000,153.219100
4019.480830,-9400.615463,0.000000,0.000000
4019.481160,-9252.574275,148.041188,306.438199
4019.481490,-9400.615463,-296.082377,612.876398
4019.481819,-9474.636058,-444.123565,536.266849
4019.482149,-9696.697840,-222.061783,766.095498
4019.482479,-9770.718434,74.020594,689.485948
4019.482809,-9918.759623,74.020594,1455.581446
4019.483138,-9844.739029,0.000000,919.314598
4019.483468,-10214.842000,148.041188,536.266849
4019.483798,-10214.842000,666.185348,995.924147
4019.484128,-10510.924376,148.041188,766.095498
4019.484458,-10140.821405,-296.082377,-306.438199
4019.484787,-9474.636058,-222.061783,-1225.752797
4019.485117,-9326.594869,0.000000,-1072.533697
4019.485447,-9326.594869,-444.123565,0.000000
4019.485777,-9474.636058,0.000000,76.609550
4019.486106,-9474.636058,0.000000,306.438199
4019.486436,-9474.636058,0.000000,459.657299
4019.486766,-9918.759623,0.000000,0.000000
4019.487096,-10658.965565,-444.123565,919.314598
4019.487426,-10436.903782,0.000000,1685.410096
4019.487755,-9474.636058,-148.041188,919.314598
4019.488085,-9030.512492,0.000000,-229.828649
4019.488415,-9770.718434,74.020594,689.485948
4019.488745,-10658.965565,222.061783,612.876398
4019.489074,-10214.842000,0.000000,0.000000
4019.489404,-9844.739029,296.082377,-919.314598
4019.489734,-9548.656652,148.041188,-1302.362347
4019.490064,-9252.574275,74.020594,-1072.533697
4019.490394,-9252.574275,0.000000,-306.438199
4019.490723,-9548.656652,74.020594,76.609550
4019.491053,-9918.759623,296.082377,153.219100
4019.491383,-9548.656652,222.061783,612.876398
4019.491713,-10140.821405,0.000000,0.000000
4019.492042,-10436.903782,0.000000,153.219100
4019.492372,-10288.862594,74.020594,306.438199
4019.492702,-9400.615463,-296.082377,536.266849
4019.493032,-9178.553681,-74.020594,459.657299
4019.493362,-9622.677246,0.000000,766.095498
4019.493691,-9992.780217,444.123565,842.705048
4019.494021,-10066.800811,518.144159,229.828649
4019.494351,-9770.718434,222.061783,-766.095498
4019.494681,-9918.759623,370.102971,-995.924147
4019.495010,-9992.780217,370.102971,-306.438199
4019.495340,-10066.800811,148.041188,229.828649
4019.495670,-9548.656652,-148.041188,766.095498
4019.496000,-9400.615463,-222.061783,306.438199
4019.496330,-8808.450710,-518.144159,229.828649
4019.496659,-9178.553681,222.061783,-612.876398
4019.496989,-10066.800811,296.082377,306.438199
4019.497319,-10288.862594,0.000000,995.924147
4019.497649,-9474.636058,0.000000,612.876398
4019.497978,-9104.533087,0.000000,383.047749
4019.498308,-10288.862594,148.041188,842.705048
4019.498638,-10066.800811,370.102971,995.924147
4019.498968,-10140.821405,296.082377,229.828649
4019.499298,-9918.759623,592.164754,-766.095498
4019.499627,-10066.800811,518.144159,-919.314598
4019.499957,-10066.800811,740.205942,-459.657299
4019.500287,-9992.780217,0.000000,153.219100
4019.500617,-9844.739029,296.082377,689.485948
4019.500946,-9326.594869,148.041188,689.485948
4019.501276,-9400.615463,-518.144159,0.000000
4019.501606,-9548.656652,-148.041188,0.000000
4019.501936,-9844.739029,0.000000,842.705048
4019.502266,-9696.697840,0.000000,1225.752797
4019.502595,-9548.656652,0.000000,612.876398
4019.502925,-9622.677246,0.000000,383.047749
4019.503255,-10214.842000,74.020594,995.924147
4019.503585,-10214.842000,0.000000,842.705048
4019.503914,-10066.800811,296.082377,0.000000
4019.504244,-9400.615463,0.000000,-919.314598
4019.504574,-9326.594869,370.102971,-1302.362347
4019.504904,-9770.718434,222.061783,-459.657299
4019.505234,-9178.553681,296.082377,-612.876398
4019.505563,-9474.636058,-222.061783,76.609550
4019.505893,-9400.615463,-370.102971,0.000000
4019.506223,-9770.718434,-296.082377,229.828649
4019.506553,-9918.759623,0.000000,229.828649
4019.506882,-9770.718434,0.000000,612.876398
4019.507212,-9326.594869,74.020594,459.657299
4019.507542,-8956.491898,-518.144159,306.438199
4019.507872,-9918.759623,148.041188,766.095498
4019.508202,-10436.903782,148.041188,1149.143247
4019.508531,-10510.924376,592.164754,766.095498
4019.508861,-9918.759623,444.123565,-229.828649
4019.509191,-9548.656652,296.082377,-919.314598
4019.509521,-9548.656652,370.102971,-689.485948
4019.509850,-10140.821405,148.041188,-306.438199
4019.510180,-10214.842000,74.020594,76.609550
4019.510510,-9918.759623,0.000000,689.485948
4019.510840,-9474.636058,370.102971,-153.219100
4019.511170,-9400.615463,0.000000,229.828649
4019.511499,-9696.697840,0.000000,153.219100
4019.511829,-10066.800811,0.000000,689.485948
4019.512159,-9622.677246,296.082377,612.876398
4019.512489,-9252.574275,-222.061783,459.657299
4019.512818,-9992.780217,0.000000,766.095498
4019.513148,-10214.842000,74.020594,1532.190996
4019.513478,-9918.759623,0.000000,995.924147
4019.513808,-9400.615463,296.082377,-383.047749
4019.514138,-9474.636058,296.082377,-1149.143247
4019.514467,-9622.677246,518.144159,-995.924147
4019.514797,-9548.656652,222.061783,0.000000
4019.515127,-9548.656652,592.164754,-76.609550
4019.515457,-9918.759623,370.102971,689.485948
4019.515786,-9992.780217,148.041188,306.438199
4019.516116,-9696.697840,-296.082377,0.000000
4019.516446,-10066.800811,0.000000,842.705048
4019.516776,-9992.780217,-222.061783,459.657299
4019.517106,-9326.594869,-518.144159,766.095498
4019.517435,-9326.594869,0.000000,1072.533697
4019.517765,-9992.780217,0.000000,1149.143247
4019.518095,-10066.800811,74.020594,1302.362347
4019.518425,-10510.924376,74.020594,919.314598
4019.518754,-10436.903782,148.041188,-612.876398
4019.519084,-9770.718434,74.020594,-842.705048
4019.519414,-9474.636058,296.082377,-383.047749
4019.519744,-9696.697840,0.000000,153.219100
4019.520074,-9770.718434,0.000000,689.485948
4019.520403,-9474.636058,0.000000,76.609550
4019.520733,-9326.594869,296.082377,-459.657299
4019.521063,-9844.739029,148.041188,-229.828649
4019.521393,-10288.862594,222.061783,0.000000
4019.521722,-9992.780217,222.061783,306.438199
4019.522052,-9178.553681,-74.020594,76.609550
4019.522382,-9474.636058,0.000000,0.000000
4019.522712,-10288.862594,-222.061783,766.095498
4019.523042,-10288.862594,0.000000,1072.533697
4019.523371,-10140.821405,-222.061783,229.828649
4019.523701,-9548.656652,0.000000,-383.047749
4019.524031,-9400.615463,74.020594,-1072.533697
4019.524361,-9474.636058,370.102971,-536.266849
4019.524690,-9548.656652,148.041188,-306.438199
4019.525020,-9992.780217,222.061783,995.924147
4019.525350,-9622.677246,0.000000,612.876398
4019.525680,-9770.718434,74.020594,0.000000
4019.526010,-10066.800811,0.000000,0.000000
4019.526339,-10510.924376,0.000000,766.095498
4019.526669,-9992.780217,0.000000,689.485948
4019.526999,-9252.574275,-148.041188,229.828649
4019.527329,-9178.553681,0.000000,306.438199
4019.527658,-9992.780217,296.082377,1225.752797
4019.527988,-10288.862594,148.041188,1378.971896
4019.528318,-10140.821405,148.041188,76.609550
4019.528648,-9918.759623,222.061783,-536.266849
4019.528978,-9696.697840,518.144159,-689.485948
4019.529307,-9918.759623,592.164754,306.438199
4019.529637,-9622.677246,74.020594,842.705048
4019.529967,-9622.677246,74.020594,1225.752797
4019.530297,-9548.656652,222.061783,536.266849
4019.530626,-10066.800811,444.123565,-306.438199
4019.530956,-9770.718434,370.102971,-306.438199
4019.531286,-10140.821405,0.000000,0.000000
4019.531616,-9918.759623,222.061783,459.657299
4019.531946,-9178.553681,0.000000,306.438199
4019.532275,-9474.636058,0.000000,689.485948
4019.532605,-9844.739029,74.020594,1608.800546
4019.532935,-10288.862594,222.061783,1225.752797
4019.533265,-9992.780217,296.082377,76.609550
4019.533594,-9696.697840,592.164754,-689.485948
4019.533924,-9770.718434,518.144159,-766.095498
4019.534254,-9992.780217,296.082377,0.000000
4019.534584,-9770.718434,296.082377,0.000000
4019.534914,-9178.553681,222.061783,153.219100
4019.535243,-8882.471304,0.000000,-919.314598
4019.535573,-9326.594869,222.061783,-1149.143247
4019.535903,-9992.780217,296.082377,-383.047749
4019.536233,-10288.862594,222.061783,536.266849
4019.536562,-9770.718434,74.020594,612.876398
4019.536892,-9252.574275,0.000000,459.657299
4019.537222,-9918.759623,0.000000,689.485948
4019.537552,-10140.821405,74.020594,1302.362347
4019.537882,-10584.944971,-148.041188,1072.533697
4019.538211,-10066.800811,148.041188,0.000000
4019.538541,-9696.697840,0.000000,-536.266849
4019.538871,-9474.636058,74.020594,0.000000
4019.539201,-9844.739029,148.041188,1072.533697
4019.539530,-10066.800811,222.061783,766.095498
4019.539860,-9770.718434,74.020594,536.266849
4019.540190,-9696.697840,148.041188,-76.609550
4019.540520,-10214.842000,296.082377,0.000000
4019.540850,-10436.903782,-370.102971,76.609550
4019.541179,-9992.780217,-222.061783,459.657299
4019.541509,-9474.636058,-592.164754,689.485948
4019.541839,-9178.553681,-592.164754,536.266849
4019.542169,-9992.780217,-370.102971,1762.019645
4019.542498,-10214.842000,-148.041188,2068.457845
4019.542828,-9622.677246,-222.061783,1072.533697
4019.543158,-9918.759623,0.000000,0.000000
4019.543488,-9992.780217,444.123565,-306.438199
4019.543818,-10066.800811,444.123565,-459.657299
4019.544147,-10066.800811,74.020594,0.000000
4019.544477,-9474.636058,0.000000,306.438199
4019.544807,-9104.533087,-296.082377,76.609550
4019.545137,-9030.512492,-148.041188,-842.705048
4019.545466,-9474.636058,0.000000,-842.705048
4019.545796,-9992.780217,0.000000,0.000000
4019.546126,-9992.780217,74.020594,536.266849
4019.546456,-9844.739029,148.041188,459.657299
4019.546786,-9844.739029,0.000000,229.828649
4019.547115,-10214.842000,222.061783,1149.143247
4019.547445,-10584.944971,444.123565,1302.362347
4019.547775,-10436.903782,592.164754,459.657299
4019.548105,-9696.697840,444.123565,-766.095498
4019.548434,-9770.718434,444.123565,-1072.533697
4019.548764,-9770.718434,518.144159,-536.266849
4019.549094,-10362.883188,740.205942,612.876398
4019.549424,-9548.656652,74.020594,689.485948
4019.549754,-9474.636058,222.061783,0.000000
4019.550083,-9474.636058,222.061783,-612.876398
4019.550413,-10140.821405,222.061783,0.000000
4019.550743,-10658.965565,148.041188,536.266849
4019.551073,-9770.718434,444.123565,1072.533697
4019.551402,-9400.615463,0.000000,919.314598
4019.551732,-9696.697840,0.000000,995.924147
4019.552062,-10288.862594,148.041188,1608.800546
4019.552392,-10510.924376,370.102971,1455.581446
4019.552722,-9770.718434,0.000000,0.000000
4019.553051,-9696.697840,518.144159,-995.924147
4019.553381,-9844.739029,296.082377,-689.485948
4019.553711,-9696.697840,74.020594,306.438199
4019.554041,-9770.718434,0.000000,766.095498
4019.554370,-9400.615463,-370.102971,689.485948
4019.554700,-9104.533087,-814.226536,612.876398
4019.555030,-9030.512492,-518.144159,229.828649
4019.555360,-9844.739029,0.000000,306.438199
4019.555690,-9918.759623,74.020594,689.485948
4019.556019,-9474.636058,0.000000,459.657299
4019.556349,-9252.574275,148.041188,306.438199
4019.556679,-9844.739029,444.123565,766.095498
4019.557009,-10362.883188,74.020594,689.485948
4019.557338,-10288.862594,148.041188,76.609550
4019.557668,-9474.636058,222.061783,-1378.971896
4019.557998,-9474.636058,296.082377,-995.924147
4019.558328,-9622.677246,296.082377,-766.095498
4019.558658,-9844.739029,370.102971,76.609550
4019.558987,-10658.965565,666.185348,612.876398
4019.559317,-10436.903782,592.164754,1072.533697
4019.559647,-10066.800811,0.000000,0.000000
4019.559977,-9992.780217,74.020594,-766.095498
4019.560306,-10066.800811,222.061783,-459.657299
4019.560636,-9992.780217,222.061783,229.828649
4019.560966,-9326.594869,0.000000,536.266849
4019.561296,-9474.636058,-148.041188,306.438199
4019.561626,-10140.821405,0.000000,919.314598
4019.561955,-10732.986159,0.000000,1685.410096
4019.562285,-10288.862594,-148.041188,1149.143247
4019.562615,-9992.780217,0.000000,153.219100
4019.562945,-9400.615463,0.000000,-306.438199
4019.563274,-9548.656652,74.020594,229.828649
4019.563604,-10140.821405,0.000000,995.924147
4019.563934,-10214.842000,0.000000,766.095498
4019.564264,-9696.697840,-222.061783,536.266849
4019.564594,-9326.594869,-518.144159,76.609550
4019.564923,-9104.533087,-444.123565,0.000000
4019.565253,-9548.656652,-444.123565,766.095498
4019.565583,-9548.656652,-296.082377,842.705048
4019.565913,-9178.553681,-296.082377,306.438199
4019.566242,-9030.512492,-296.082377,306.438199
4019.566572,-9696.697840,-370.102971,1149.143247
4019.566902,-10288.862594,0.000000,1225.752797
4019.567232,-9918.759623,0.000000,612.876398
4019.567562,-9696.697840,-74.020594,-536.266849
4019.567891,-9252.574275,0.000000,0.000000
4019.568221,-9252.574275,74.020594,153.219100
4019.568551,-9252.574275,0.000000,689.485948
4019.568881,-9548.656652,148.041188,766.095498
4019.569210,-9696.697840,222.061783,0.000000
4019.569540,-9622.677246,148.041188,-995.924147
4019.569870,-10362.883188,296.082377,-995.924147
4019.570200,-10584.944971,0.000000,76.609550
4019.570530,-10066.800811,148.041188,383.047749
4019.570859,-9178.553681,-814.226536,0.000000
4019.571189,-9252.574275,0.000000,306.438199
4019.571519,-9844.739029,0.000000,842.705048
4019.571849,-10362.883188,74.020594,919.314598
4019.572178,-10066.800811,148.041188,612.876398
4019.572508,-10066.800811,296.082377,-229.828649
4019.572838,-10436.903782,518.144159,-536.266849
4019.573168,-10140.821405,0.000000,536.266849
4019.573498,-9918.759623,-592.164754,1991.848295
4019.573827,-9844.739029,0.000000,383.047749
4019.574157,-9474.636058,222.061783,-76.609550
4019.574487,-9178.553681,0.000000,-842.705048
4019.574817,-9474.636058,0.000000,-306.438199
4019.575146,-9992.780217,0.000000,536.266849
4019.575476,-9918.759623,0.000000,1149.143247
4019.575806,-9474.636058,0.000000,1072.533697
4019.576136,-9696.697840,-296.082377,842.705048
4019.576465,-10510.924376,0.000000,1532.190996
4019.576795,-10140.821405,-518.144159,1149.143247
4019.577125,-9548.656652,-296.082377,383.047749
4019.577454,-9400.615463,-518.144159,76.609550
4019.577784,-9400.615463,370.102971,766.095498
4019.578114,-9548.656652,0.000000,612.876398
4019.578444,-9548.656652,74.020594,459.657299
4019.578773,-9474.636058,222.061783,0.000000
4019.579103,-9400.615463,148.041188,-995.924147
4019.579433,-9252.574275,74.020594,-1072.533697
4019.579762,-10140.821405,148.041188,0.000000
4019.580092,-10288.862594,296.082377,536.266849
4019.580422,-9696.697840,370.102971,612.876398
4019.580752,-10066.800811,518.144159,-153.219100
4019.581081,-10066.800811,222.061783,536.266849
4019.581411,-10658.965565,444.123565,1149.143247
4019.581741,-10140.821405,222.061783,919.314598
4019.582070,-9696.697840,370.102971,766.095498
4019.582400,-9548.656652,592.164754,-689.485948
4019.582730,-10066.800811,666.185348,-612.876398
4019.583059,-10214.842000,740.205942,0.000000
4019.583389,-9992.780217,592.164754,229.828649
4019.583719,-9548.656652,592.164754,229.828649
4019.584049,-9474.636058,74.020594,0.000000
4019.584378,-9622.677246,74.020594,0.000000
4019.584708,-9992.780217,0.000000,766.095498
4019.585038,-9918.759623,74.020594,1149.143247
4019.585367,-9326.594869,0.000000,842.705048
4019.585697,-9326.594869,0.000000,306.438199
4019.586027,-10066.800811,0.000000,1072.533697
4019.586357,-10362.883188,592.164754,1838.629195
4019.586686,-9992.780217,148.041188,995.924147
4019.587016,-9474.636058,74.020594,-689.485948
4019.587346,-9400.615463,222.061783,-1072.533697
4019.587675,-9474.636058,74.020594,-306.438199
4019.588005,-9770.718434,0.000000,306.438199
4019.588335,-9400.615463,-370.102971,612.876398
4019.588665,-9474.636058,-148.041188,689.485948
4019.588994,-9474.636058,-74.020594,229.828649
4019.589324,-9548.656652,0.000000,0.000000
4019.589654,-10214.842000,0.000000,229.828649
4019.589983,-9770.718434,0.000000,306.438199
4019.590313,-9252.574275,-296.082377,306.438199
4019.590643,-9474.636058,0.000000,229.828649
4019.590973,-10436.903782,148.041188,842.705048
4019.591302,-10658.965565,148.041188,842.705048
4019.591632,-9992.780217,0.000000,-229.828649
4019.591962,-9474.636058,0.000000,-995.924147
4019.592291,-9474.636058,0.000000,-995.924147
4019.592621,-9918.759623,222.061783,-383.047749
4019.592951,-9770.718434,74.020594,689.485948
4019.593281,-9992.780217,0.000000,919.314598
4019.593610,-9992.780217,-148.041188,306.438199
4019.593940,-9548.656652,-148.041188,-612.876398
4019.594270,-9770.718434,74.020594,-306.438199
4019.594599,-9844.739029,-592.164754,383.047749
4019.594929,-9844.739029,-296.082377,1072.533697
4019.595259,-9326.594869,0.000000,919.314598
4019.595588,-9548.656652,0.000000,459.657299
4019.595918,-9696.697840,-148.041188,919.314598
4019.596248,-9844.739029,-222.061783,766.095498
4019.596578,-9548.656652,0.000000,536.266849
4019.596907,-9696.697840,148.041188,153.219100
4019.597237,-9992.780217,296.082377,0.000000
4019.597567,-9696.697840,518.144159,306.438199
4019.597896,-9622.677246,444.123565,612.876398
4019.598226,-9622.677246,0.000000,459.657299
4019.598556,-9770.718434,148.041188,76.609550
4019.598886,-9548.656652,0.000000,-153.219100
4019.599215,-10066.800811,148.041188,0.000000
4019.599545,-9844.739029,0.000000,0.000000
4019.599875,-9104.533087,148.041188,153.219100
4019.600204,-8734.430116,-296.082377,0.000000
4019.600534,-9474.636058,370.102971,536.266849
4019.600864,-10436.903782,222.061783,1685.410096
4019.601194,-10436.903782,370.102971,1302.362347
4019.601523,-10066.800811,370.102971,229.828649
4019.601853,-9844.739029,148.041188,-306.438199
4019.602183,-9918.759623,444.123565,-459.657299
4019.602512,-9770.718434,222.061783,76.609550
4019.602842,-9474.636058,74.020594,612.876398
4019.603172,-9474.636058,296.082377,689.485948
4019.603502,-9474.636058,222.061783,229.828649
4019.603831,-9548.656652,74.020594,-306.438199
4019.604161,-10510.924376,444.123565,0.000000
4019.604491,-10214.842000,370.102971,306.438199
4019.604820,-9548.656652,74.020594,383.047749
4019.605150,-8586.388927,-370.102971,153.219100
4019.605480,-9400.615463,0.000000,153.219100
4019.605810,-9918.759623,296.082377,612.876398
4019.606139,-9696.697840,0.000000,459.657299
4019.606469,-9770.718434,74.020594,459.657299
4019.606799,-9548.656652,148.041188,-383.047749
4019.607128,-9770.718434,148.041188,-459.657299
4019.607458,-9770.718434,0.000000,0.000000
4019.607788,-10214.842000,0.000000,689.485948
4019.608118,-9844.739029,-370.102971,995.924147
4019.608447,-9252.574275,-296.082377,383.047749
4019.608777,-9474.636058,-148.041188,76.609550
4019.609107,-10362.883188,0.000000,612.876398
4019.609436,-9992.780217,-148.041188,306.438199
4019.609766,-9770.718434,0.000000,0.000000
4019.610096,-9474.636058,0.000000,-153.219100
4019.610425,-10140.821405,0.000000,383.047749
4019.610755,-10362.883188,0.000000,536.266849
4019.611085,-9992.780217,-518.144159,612.876398
4019.611415,-9548.656652,-296.082377,-306.438199
4019.611744,-9918.759623,-148.041188,-536.266849
4019.612074,-9844.739029,148.041188,76.609550
4019.612404,-10066.800811,0.000000,383.047749
4019.612733,-9992.780217,74.020594,1072.533697
4019.613063,-9474.636058,-222.061783,842.705048
4019.613393,-9548.656652,0.000000,459.657299
4019.613723,-10066.800811,-296.082377,-383.047749
4019.614052,-10066.800811,0.000000,0.000000
4019.614382,-9918.759623,0.000000,153.219100
4019.614712,-9252.574275,-74.020594,153.219100
4019.615041,-9400.615463,74.020594,-383.047749
4019.615371,-10288.862594,74.020594,383.047749
4019.615701,-9992.780217,0.000000,842.705048
4019.616031,-9770.718434,-370.102971,153.219100
4019.616360,-9696.697840,296.082377,-689.485948
4019.616690,-9548.656652,296.082377,-536.266849
4019.617020,-9622.677246,444.123565,76.609550
4019.617349,-9548.656652,370.102971,612.876398
4019.617679,-9696.697840,148.041188,459.657299
4019.618009,-9770.718434,296.082377,229.828649
4019.618339,-9548.656652,0.000000,306.438199
4019.618668,-9992.780217,0.000000,0.000000
4019.618998,-10066.800811,370.102971,76.609550
4019.619328,-9326.594869,666.185348,459.657299
4019.619657,-9178.553681,222.061783,0.000000
4019.619987,-9918.759623,370.102971,-306.438199
4019.620317,-10362.883188,740.205942,383.047749
4019.620647,-10140.821405,592.164754,536.266849
4019.620976,-9770.718434,222.061783,-306.438199
4019.621306,-9548.656652,74.020594,-919.314598
4019.621636,-9622.677246,148.041188,-306.438199
4019.621965,-9696.697840,296.082377,0.000000
4019.622295,-9474.636058,-222.061783,919.314598
4019.622625,-9770.718434,0.000000,1149.143247
4019.622954,-10066.800811,296.082377,842.705048
4019.623284,-9992.780217,74.020594,536.266849
4019.623614,-10362.883188,296.082377,0.000000
4019.623944,-10214.842000,74.020594,536.266849
4019.624273,-9696.697840,0.000000,306.438199
4019.624603,-8956.491898,-148.041188,-306.438199
4019.624933,-9400.615463,148.041188,0.000000
4019.625262,-10140.821405,0.000000,612.876398
4019.625592,-9992.780217,-222.061783,612.876398
4019.625922,-9474.636058,-222.061783,-459.657299
4019.626252,-9474.636058,-444.123565,-536.266849
4019.626581,-9548.656652,-296.082377,-383.047749
4019.626911,-9770.718434,-222.061783,536.266849
4019.627241,-9622.677246,0.000000,1149.143247
4019.627570,-9622.677246,-296.082377,1302.362347
4019.627900,-9326.594869,0.000000,0.000000
4019.628230,-9918.759623,-296.082377,-459.657299
4019.628560,-10362.883188,0.000000,0.000000
4019.628889,-10066.800811,0.000000,306.438199
4019.629219,-9030.512492,0.000000,0.000000
4019.629549,-8956.491898,-296.082377,-229.828649
4019.629878,-9400.615463,-222.061783,-229.828649
4019.630208,-10066.800811,0.000000,766.095498
4019.630538,-10436.903782,74.020594,229.828649
4019.630868,-10214.842000,148.041188,-76.609550
4019.631197,-10066.800811,-74.020594,-383.047749
4019.631527,-10066.800811,-74.020594,-153.219100
4019.631857,-9548.656652,-222.061783,383.047749
4019.632186,-9696.697840,-592.164754,842.705048
4019.632516,-9844.739029,-222.061783,1225.752797
4019.632846,-9696.697840,-222.061783,306.438199
4019.633176,-10066.800811,0.000000,76.609550
4019.633505,-10584.944971,444.123565,612.876398
4019.633835,-10658.965565,148.041188,536.266849
4019.634165,-9474.636058,-74.020594,0.000000
4019.634494,-9178.553681,0.000000,-76.609550
4019.634824,-9844.739029,444.123565,76.609550
4019.635154,-9992.780217,0.000000,536.266849
4019.635483,-10066.800811,148.041188,536.266849
4019.635813,-9770.718434,222.061783,-229.828649
4019.636143,-10066.800811,222.061783,0.000000
4019.636473,-9252.574275,0.000000,153.219100
4019.636802,-9770.718434,222.061783,459.657299
4019.637132,-10140.821405,74.020594,1225.752797
4019.637462,-9844.739029,74.020594,1225.752797
4019.637791,-9474.636058,0.000000,76.609550
4019.638121,-9622.677246,296.082377,0.000000
4019.638451,-10288.862594,370.102971,153.219100
4019.638781,-10066.800811,592.164754,153.219100
4019.639110,-9326.594869,296.082377,-383.047749
4019.639440,-9030.512492,222.061783,-229.828649
4019.639770,-9252.574275,222.061783,459.657299
4019.640099,-9992.780217,222.061783,612.876398
4019.640429,-9622.677246,370.102971,76.609550
4019.640759,-9622.677246,222.061783,-459.657299
4019.641089,-9622.677246,370.102971,-766.095498
4019.641418,-9474.636058,296.082377,0.000000
4019.641748,-9770.718434,148.041188,689.485948
4019.642078,-9770.718434,74.020594,1149.143247
4019.642407,-9400.615463,222.061783,689.485948
4019.642737,-9178.553681,0.000000,0.000000
4019.643067,-10140.821405,444.123565,-459.657299
4019.643397,-10658.965565,296.082377,-766.095498
4019.643726,-10362.883188,296.082377,0.000000
4019.644056,-9400.615463,370.102971,0.000000
4019.644386,-9548.656652,148.041188,153.219100
4019.644715,-10140.821405,592.164754,842.705048
4019.645045,-10066.800811,74.020594,383.047749
4019.645375,-9548.656652,0.000000,-306.438199
4019.645705,-9696.697840,148.041188,-919.314598
4019.646034,-9770.718434,296.082377,-689.485948
4019.646364,-9770.718434,74.020594,459.657299
4019.646694,-10362.883188,-148.041188,1149.143247
4019.647023,-10066.800811,-222.061783,1378.971896
4019.647353,-9696.697840,-518.144159,1149.143247
4019.647683,-8956.491898,-814.226536,766.095498
4019.648013,-9696.697840,-296.082377,536.266849
4019.648342,-9844.739029,74.020594,536.266849
4019.648672,-9474.636058,222.061783,306.438199
4019.649002,-9104.533087,296.082377,0.000000
4019.649331,-10288.862594,370.102971,229.828649
4019.649661,-10362.883188,222.061783,689.485948
4019.649991,-10066.800811,0.000000,383.047749
4019.650320,-9548.656652,0.000000,-536.266849
4019.650650,-9474.636058,-222.061783,-689.485948
4019.650980,-9326.594869,0.000000,-689.485948
4019.651310,-9400.615463,0.000000,153.219100
4019.651639,-9918.759623,0.000000,842.705048
4019.651969,-9992.780217,0.000000,1378.971896
4019.652299,-10066.800811,0.000000,842.705048
4019.652628,-10066.800811,0.000000,0.000000
4019.652958,-10584.944971,0.000000,76.609550
4019.653288,-9992.780217,222.061783,-383.047749
4019.653618,-9178.553681,-148.041188,153.219100
4019.653947,-8808.450710,0.000000,0.000000
4019.654277,-9844.739029,148.041188,1072.533697
4019.654607,-10436.903782,518.144159,1072.533697
4019.654936,-10436.903782,370.102971,459.657299
4019.655266,-9992.780217,296.082377,-306.438199
4019.655596,-9548.656652,0.000000,-459.657299
4019.655926,-9548.656652,148.041188,0.000000
4019.656255,-9252.574275,0.000000,76.609550
4019.656585,-9400.615463,148.041188,995.924147
4019.656915,-9918.759623,0.000000,995.924147
4019.657244,-10140.821405,222.061783,536.266849
4019.657574,-9770.718434,74.020594,-229.828649
4019.657904,-10214.842000,-370.102971,536.266849
4019.658234,-9548.656652,0.000000,919.314598
4019.658563,-8512.368333,-370.102971,689.485948
4019.658893,-8660.409521,0.000000,-612.876398
4019.659223,-9326.594869,222.061783,919.314598
4019.659552,-10066.800811,74.020594,766.095498
4019.659882,-10584.944971,222.061783,0.000000
4019.660212,-10140.821405,222.061783,-842.705048
4019.660542,-9326.594869,74.020594,-1225.752797
4019.660871,-9474.636058,-74.020594,0.000000
4019.661201,-9474.636058,-74.020594,612.876398
4019.661531,-9770.718434,-222.061783,842.705048
4019.661860,-9326.594869,0.000000,536.266849
4019.662190,-9696.697840,222.061783,0.000000
4019.662520,-10288.862594,296.082377,-536.266849
4019.662849,-10807.006753,296.082377,76.609550
4019.663179,-9918.759623,592.164754,-612.876398
4019.663509,-9474.636058,-74.020594,-229.828649
4019.663839,-9400.615463,74.020594,0.000000
4019.664168,-10066.800811,74.020594,995.924147
4019.664498,-10362.883188,222.061783,689.485948
4019.664828,-9992.780217,0.000000,76.609550
4019.665157,-9844.739029,0.000000,-612.876398
4019.665487,-9696.697840,0.000000,-459.657299
4019.665817,-9696.697840,0.000000,76.609550
4019.666147,-9326.594869,0.000000,919.314598
4019.666476,-9622.677246,0.000000,1225.752797
4019.666806,-9770.718434,296.082377,689.485948
4019.667136,-9696.697840,74.020594,-306.438199
4019.667465,-9992.780217,444.123565,-995.924147
4019.667795,-10510.924376,444.123565,-229.828649
4019.668125,-9918.759623,222.061783,306.438199
4019.668455,-9326.594869,0.000000,459.657299
4019.668784,-8882.471304,0.000000,612.876398
4019.669114,-9918.759623,74.020594,919.314598
4019.669444,-9770.718434,74.020594,612.876398
4019.669773,-9548.656652,74.020594,0.000000
4019.670103,-9548.656652,0.000000,-766.095498
4019.670433,-9548.656652,148.041188,-229.828649
4019.670763,-10140.821405,74.020594,459.657299
4019.671092,-9992.780217,-74.020594,919.314598
4019.671422,-9548.656652,-148.041188,1149.143247
4019.671752,-8808.450710,-370.102971,612.876398
4019.672081,-9622.677246,0.000000,0.000000
4019.672411,-10214.842000,148.041188,76.609550
4019.672741,-10436.903782,592.164754,383.047749
4019.673071,-9548.656652,296.082377,-306.438199
4019.673400,-9104.533087,74.020594,229.828649
4019.673730,-9770.718434,370.102971,76.609550
4019.674060,-9992.780217,148.041188,612.876398
4019.674389,-9548.656652,-296.082377,153.219100
4019.674719,-9474.636058,74.020594,-612.876398
4019.675049,-9474.636058,296.082377,-919.314598
4019.675378,-9992.780217,592.164754,-76.609550
4019.675708,-9918.759623,222.061783,689.485948
4019.676038,-10140.821405,222.061783,766.095498
4019.676368,-9770.718434,-222.061783,995.924147
4019.676697,-9992.780217,0.000000,459.657299
4019.677027,-9844.739029,-148.041188,76.609550
4019.677357,-9548.656652,0.000000,0.000000
4019.677686,-9548.656652,296.082377,383.047749
4019.678016,-9104.533087,-296.082377,153.219100
4019.678346,-9474.636058,222.061783,76.609550
4019.678675,-10214.842000,0.000000,-153.219100
4019.679005,-10436.903782,0.000000,919.314598
4019.679335,-10288.862594,-148.041188,842.705048
4019.679665,-9844.739029,-444.123565,153.219100
4019.679994,-9992.780217,-74.020594,0.000000
4019.680324,-9474.636058,0.000000,0.000000
4019.680654,-9844.739029,-148.041188,842.705048
4019.680983,-9770.718434,-518.144159,1378.971896
4019.681313,-9770.718434,-444.123565,1225.752797
4019.681643,-9844.739029,-296.082377,0.000000
4019.681972,-9992.780217,-296.082377,-153.219100
4019.682302,-9844.739029,-740.205942,229.828649
4019.682632,-9252.574275,-296.082377,153.219100
4019.682961,-8586.388927,-222.061783,-383.047749
4019.683291,-9326.594869,74.020594,76.609550
4019.683621,-10214.842000,370.102971,536.266849
4019.683950,-10955.047942,444.123565,612.876398
4019.684280,-10807.006753,222.061783,0.000000
4019.684610,-10362.883188,74.020594,-842.705048
4019.684940,-9696.697840,74.020594,-612.876398
4019.685269,-9548.656652,0.000000,0.000000
4019.685599,-9252.574275,0.000000,383.047749
4019.685929,-9178.553681,0.000000,1378.971896
4019.686258,-9400.615463,222.061783,536.266849
4019.686588,-9770.718434,296.082377,-306.438199
4019.686918,-10288.862594,666.185348,-536.266849
4019.687247,-10140.821405,296.082377,0.000000
4019.687577,-9696.697840,74.020594,153.219100
4019.687907,-9030.512492,0.000000,0.000000
4019.688236,-9400.615463,370.102971,76.609550
4019.688566,-9548.656652,148.041188,612.876398
4019.688896,-9770.718434,296.082377,383.047749
4019.689225,-9622.677246,444.123565,-536.266849
4019.689555,-9622.677246,592.164754,-1149.143247
4019.689885,-9474.636058,444.123565,-842.705048
4019.690215,-9252.574275,444.123565,229.828649
4019.690544,-9548.656652,0.000000,919.314598
4019.690874,-9844.739029,74.020594,995.924147
4019.691204,-9548.656652,0.000000,383.047749
4019.691533,-9474.636058,296.082377,0.000000
4019.691863,-9770.718434,370.102971,-612.876398
4019.692193,-10066.800811,444.123565,0.000000
4019.692522,-9696.697840,370.102971,995.924147
4019.692852,-9400.615463,148.041188,1149.143247
4019.693182,-9992.780217,518.144159,689.485948
4019.693511,-10362.883188,444.123565,842.705048
4019.693841,-10288.862594,0.000000,76.609550
4019.694171,-9622.677246,74.020594,-612.876398
4019.694500,-9326.594869,222.061783,-1149.143247
4019.694830,-9400.615463,444.123565,0.000000
4019.695160,-9474.636058,0.000000,0.000000
4019.695490,-10288.862594,370.102971,689.485948
4019.695819,-10288.862594,370.102971,919.314598
4019.696149,-10510.924376,0.000000,536.266849
4019.696479,-10584.944971,0.000000,153.219100
4019.696808,-10362.883188,0.000000,612.876398
4019.697138,-10214.842000,0.000000,459.657299
4019.697468,-9474.636058,-370.102971,383.047749
4019.697797,-8956.491898,-148.041188,459.657299
4019.698127,-9474.636058,0.000000,383.047749
4019.698457,-10066.800811,74.020594,536.266849
4019.698786,-9918.759623,-444.123565,383.047749
4019.699116,-9844.739029,-148.041188,-459.657299
4019.699446,-9474.636058,0.000000,-766.095498
4019.699775,-9474.636058,-370.102971,-153.219100
4019.700105,-9178.553681,-444.123565,766.095498
4019.700435,-9474.636058,-444.123565,1378.971896
4019.700764,-9844.739029,-296.082377,1455.581446
4019.701094,-10140.821405,-518.144159,536.266849
4019.701424,-9844.739029,-296.082377,229.828649
4019.701754,-10658.965565,0.000000,766.095498
4019.702083,-10584.944971,0.000000,1225.752797
4019.702413,-9548.656652,-74.020594,306.438199
4019.702743,-8956.491898,-296.082377,-76.609550
4019.703072,-9696.697840,0.000000,0.000000
4019.703402,-9844.739029,222.061783,0.000000
4019.703732,-9918.759623,74.020594,-536.266849
4019.704061,-9696.697840,0.000000,-1072.533697
4019.704391,-9326.594869,0.000000,-689.485948
4019.704721,-9326.594869,74.020594,0.000000
4019.705050,-9400.615463,-148.041188,689.485948
4019.705380,-9770.718434,-74.020594,1149.143247
4019.705710,-9474.636058,0.000000,842.705048
4019.706039,-9844.739029,-370.102971,459.657299
4019.706369,-10140.821405,74.020594,229.828649
4019.706699,-10214.842000,0.000000,76.609550
4019.707029,-9622.677246,222.061783,153.219100
4019.707358,-9400.615463,0.000000,0.000000
4019.707688,-9326.594869,0.000000,76.609550
4019.708018,-9696.697840,222.061783,766.095498
4019.708347,-10288.862594,74.020594,612.876398
4019.708677,-10140.821405,148.041188,0.000000
4019.709007,-9696.697840,0.000000,-383.047749
4019.709336,-9326.594869,0.000000,-536.266849
4019.709666,-9326.594869,-74.020594,0.000000
4019.709996,-9400.615463,370.102971,459.657299
4019.710325,-9844.739029,74.020594,995.924147
4019.710655,-9548.656652,0.000000,995.924147
4019.710985,-9622.677246,296.082377,0.000000
4019.711314,-9844.739029,444.123565,-689.485948
4019.711644,-10214.842000,370.102971,0.000000
4019.711974,-9548.656652,74.020594,229.828649
4019.712304,-9104.533087,74.020594,0.000000
4019.712633,-9474.636058,0.000000,76.609550
4019.712963,-10140.821405,-222.061783,306.438199
4019.713293,-10288.862594,74.020594,536.266849
4019.713622,-9844.739029,0.000000,-459.657299
4019.713952,-9400.615463,0.000000,-459.657299
4019.714282,-9252.574275,666.185348,-229.828649
4019.714611,-9548.656652,296.082377,229.828649
4019.714941,-10140.821405,296.082377,383.047749
4019.715271,-9918.759623,518.144159,689.485948
4019.715600,-9770.718434,296.082377,-459.657299
4019.715930,-9696.697840,148.041188,-459.657299
4019.716260,-10288.862594,148.041188,-76.609550
4019.716589,-10436.903782,296.082377,229.828649
4019.716919,-9696.697840,518.144159,383.047749
4019.717249,-9252.574275,0.000000,0.000000
4019.717579,-9474.636058,148.041188,229.828649
4019.717908,-10362.883188,222.061783,842.705048
4019.718238,-10510.924376,370.102971,1072.533697
4019.718568,-9918.759623,74.020594,536.266849
4019.718897,-10140.821405,296.082377,0.000000
4019.719227,-9622.677246,0.000000,0.000000
4019.719557,-9548.656652,-296.082377,76.609550
4019.719886,-9622.677246,74.020594,76.609550
4019.720216,-9326.594869,0.000000,1149.143247
4019.720546,-8882.471304,-74.020594,306.438199
4019.720875,-9474.636058,296.082377,0.000000
4019.721205,-9918.759623,444.123565,153.219100
4019.721535,-10288.862594,0.000000,536.266849
4019.721864,-9696.697840,148.041188,153.219100
4019.722194,-9326.594869,148.041188,-383.047749
4019.722524,-9474.636058,370.102971,229.828649
4019.722854,-9844.739029,74.020594,689.485948
4019.723183,-10140.821405,222.061783,383.047749
4019.723513,-10066.800811,296.082377,-612.876398
4019.723843,-9548.656652,0.000000,-919.314598
4019.724172,-9252.574275,296.082377,-612.876398
4019.724502,-9252.574275,-222.061783,0.000000
4019.724832,-9622.677246,-148.041188,842.705048
4019.725161,-9326.594869,0.000000,1072.533697
4019.725491,-8882.471304,-444.123565,-306.438199
4019.725821,-9474.636058,222.061783,-459.657299
4019.726150,-10584.944971,148.041188,153.219100
4019.726480,-10214.842000,0.000000,612.876398
4019.726810,-9622.677246,0.000000,536.266849
4019.727139,-9474.636058,222.061783,-76.609550
4019.727469,-9770.718434,0.000000,383.047749
4019.727799,-10066.800811,148.041188,459.657299
4019.728128,-9992.780217,0.000000,306.438199
4019.728458,-9770.718434,0.000000,-536.266849
4019.728788,-9622.677246,296.082377,-612.876398
4019.729118,-9844.739029,0.000000,-76.609550
4019.729447,-9548.656652,-148.041188,689.485948
4019.729777,-9474.636058,-296.082377,1302.362347
4019.730107,-9474.636058,-444.123565,689.485948
4019.730436,-9548.656652,-222.061783,306.438199
4019.730766,-9992.780217,-74.020594,612.876398
4019.731096,-10288.862594,148.041188,1149.143247
4019.731425,-10214.842000,0.000000,1378.971896
4019.731755,-9918.759623,0.000000,153.219100
4019.732085,-8734.430116,-370.102971,76.609550
4019.732414,-9548.656652,-370.102971,612.876398
4019.732744,-10214.842000,0.000000,689.485948
4019.733074,-9770.718434,74.020594,76.609550
4019.733403,-9326.594869,74.020594,-842.705048
4019.733733,-9474.636058,296.082377,-995.924147
4019.734063,-9474.636058,296.082377,-229.828649
4019.734393,-10288.862594,296.082377,383.047749
4019.734722,-10140.821405,74.020594,919.314598
4019.735052,-9992.780217,74.020594,766.095498
4019.735382,-9548.656652,-148.041188,306.438199
4019.735711,-9992.780217,74.020594,0.000000
4019.736041,-9696.697840,-370.102971,383.047749
4019.736371,-9252.574275,0.000000,459.657299
4019.736700,-9252.574275,0.000000,153.219100
4019.737030,-9918.759623,0.000000,612.876398
4019.737360,-10214.842000,0.000000,842.705048
4019.737689,-10066.800811,0.000000,766.095498
4019.738019,-9844.739029,222.061783,0.000000
4019.738349,-9178.553681,0.000000,-842.705048
4019.738678,-9548.656652,0.000000,-612.876398
4019.739008,-9548.656652,148.041188,-306.438199
4019.739338,-9770.718434,222.061783,229.828649
4019.739668,-9992.780217,148.041188,766.095498
4019.739997,-9918.759623,370.102971,76.609550
4019.740327,-9844.739029,370.102971,-76.609550
4019.740657,-10214.842000,296.082377,0.000000
4019.740986,-10288.862594,0.000000,1072.533697
4019.741316,-9696.697840,148.041188,842.705048
4019.741646,-9178.553681,0.000000,536.266849
4019.741975,-9918.759623,296.082377,919.314598
4019.742305,-10658.965565,148.041188,1302.362347
4019.742635,-10510.924376,222.061783,842.705048
4019.742964,-9400.615463,0.000000,-306.438199
4019.743294,-9252.574275,0.000000,-612.876398
4019.743624,-9252.574275,370.102971,-306.438199
4019.743953,-9252.574275,444.123565,306.438199
4019.744283,-9400.615463,148.041188,229.828649
4019.744613,-9252.574275,222.061783,0.000000
4019.744943,-9400.615463,444.123565,-689.485948
4019.745272,-10140.821405,296.082377,-229.828649
4019.745602,-10436.903782,74.020594,306.438199
4019.745932,-9992.780217,148.041188,612.876398
4019.746261,-9252.574275,-370.102971,459.657299
4019.746591,-9326.594869,0.000000,0.000000
4019.746921,-9548.656652,0.000000,766.095498
4019.747250,-9918.759623,0.000000,1225.752797
4019.747580,-9844.739029,444.123565,306.438199
4019.747910,-9918.759623,740.205942,-383.047749
4019.748239,-9326.594869,592.164754,-1072.533697
4019.748569,-9548.656652,370.102971,-1302.362347
4019.748899,-9844.739029,148.041188,-383.047749
4019.749228,-10214.842000,74.020594,383.047749
4019.749558,-9474.636058,0.000000,1302.362347
4019.749888,-9474.636058,-148.041188,229.828649
4019.750218,-9622.677246,-148.041188,0.000000
4019.750547,-10584.944971,-148.041188,995.924147
4019.750877,-10362.883188,0.000000,1072.533697
4019.751207,-9696.697840,-370.102971,766.095498
4019.751536,-9178.553681,0.000000,612.876398
4019.751866,-9770.718434,74.020594,1072.533697
4019.752196,-10658.965565,148.041188,1378.971896
4019.752525,-10362.883188,74.020594,383.047749
4019.752855,-9918.759623,-148.041188,-689.485948
4019.753185,-9548.656652,-148.041188,-766.095498
4019.753514,-9326.594869,-370.102971,-153.219100
4019.753844,-9326.594869,-296.082377,459.657299
4019.754174,-9400.615463,-296.082377,766.095498
4019.754503,-9474.636058,-518.144159,459.657299
4019.754833,-9548.656652,-370.102971,76.609550
4019.755163,-10140.821405,148.041188,229.828649
4019.755492,-10288.862594,-222.061783,919.314598
4019.755822,-10140.821405,0.000000,1532.190996
4019.756152,-9326.594869,-444.123565,536.266849
4019.756482,-9474.636058,-518.144159,306.438199
4019.756811,-9622.677246,-370.102971,919.314598
4019.757141,-10214.842000,-370.102971,1072.533697
4019.757471,-10066.800811,-74.020594,306.438199
4019.757800,-9326.594869,-222.061783,-383.047749
4019.758130,-8660.409521,148.041188,-612.876398
4019.758460,-9178.553681,0.000000,-229.828649
4019.758789,-10066.800811,222.061783,76.609550
4019.759119,-10362.883188,74.020594,842.705048
4019.759449,-9918.759623,222.061783,842.705048
4019.759778,-10140.821405,0.000000,0.000000
4019.760108,-10362.883188,74.020594,0.000000
4019.760438,-10436.903782,0.000000,612.876398
4019.760767,-9622.677246,296.082377,612.876398
4019.761097,-9326.594869,74.020594,306.438199
4019.761427,-9622.677246,370.102971,306.438199
4019.761757,-10288.862594,518.144159,995.924147
4019.762086,-10288.862594,740.205942,229.828649
4019.762416,-9844.739029,592.164754,-842.705048
4019.762746,-9252.574275,222.061783,-842.705048
4019.763075,-9400.615463,518.144159,-842.705048
4019.763405,-9474.636058,518.144159,0.000000
4019.763735,-9622.677246,74.020594,766.095498
4019.764064,-9622.677246,74.020594,1225.752797
4019.764394,-9770.718434,296.082377,536.266849
4019.764724,-9918.759623,296.082377,-306.438199
4019.765053,-10510.924376,814.226536,-229.828649
4019.765383,-10066.800811,740.205942,459.657299
4019.765713,-9400.615463,74.020594,459.657299
4019.766042,-8882.471304,296.082377,0.000000
4019.766372,-9548.656652,296.082377,76.609550
4019.766702,-10288.862594,370.102971,1149.143247
4019.767032,-9770.718434,148.041188,459.657299
4019.767361,-9548.656652,148.041188,-383.047749
4019.767691,-9326.594869,0.000000,-612.876398
4019.768021,-9252.574275,148.041188,-306.438199
4019.768350,-9696.697840,74.020594,383.047749
4019.768680,-10288.862594,518.144159,1302.362347
4019.769010,-10066.800811,74.020594,842.705048
4019.769339,-9992.780217,0.000000,229.828649
4019.769669,-9918.759623,296.082377,-153.219100
4019.769999,-10436.903782,0.000000,153.219100
4019.770328,-10066.800811,0.000000,689.485948
4019.770658,-9252.574275,0.000000,306.438199
4019.770988,-9178.553681,0.000000,-76.609550
4019.771317,-9104.533087,0.000000,612.876398
4019.771647,-10436.903782,222.061783,612.876398
4019.771977,-10362.883188,0.000000,229.828649
4019.772307,-9622.677246,-222.061783,-919.314598
4019.772636,-9400.615463,-592.164754,-153.219100
4019.772966,-9252.574275,0.000000,153.219100
4019.773296,-9548.656652,-740.205942,1072.533697
4019.773625,-9770.718434,-444.123565,1838.629195
4019.773955,-9696.697840,-222.061783,1072.533697
4019.774285,-9918.759623,0.000000,459.657299
4019.774614,-10214.842000,-148.041188,229.828649
4019.774944,-10288.862594,0.000000,229.828649
4019.775274,-9622.677246,0.000000,76.609550
4019.775603,-9104.533087,-296.082377,-229.828649
4019.775933,-9178.553681,0.000000,-459.657299
4019.776264,-10066.800811,-148.041188,459.657299
4019.776594,-10288.862594,0.000000,612.876398
4019.776924,-10066.800811,0.000000,153.219100
4019.777254,-9548.656652,0.000000,-766.095498
4019.777583,-9474.636058,0.000000,-383.047749
4019.777913,-9696.697840,0.000000,459.657299
4019.778243,-10362.883188,-518.144159,919.314598
4019.778573,-10436.903782,0.000000,1685.410096
4019.778902,-9844.739029,-592.164754,1455.581446
4019.779232,-9696.697840,-518.144159,229.828649
4019.779562,-9992.780217,-296.082377,0.000000
4019.779892,-10362.883188,-370.102971,459.657299
4019.780221,-9548.656652,0.000000,459.657299
4019.780551,-8956.491898,-370.102971,229.828649
4019.780881,-9326.594869,148.041188,383.047749
4019.781211,-9696.697840,0.000000,1225.752797
4019.781541,-10066.800811,148.041188,536.266849
4019.781870,-9992.780217,0.000000,-306.438199
4019.782200,-9770.718434,-148.041188,-1378.971896
4019.782530,-9548.656652,-222.061783,-612.876398
4019.782860,-9622.677246,-148.041188,0.000000
4019.783189,-9548.656652,-444.123565,766.095498
4019.783519,-9400.615463,-296.082377,1072.533697
4019.783849,-9178.553681,-296.082377,689.485948
4019.784179,-9474.636058,-148.041188,0.000000
4019.784508,-9548.656652,-222.061783,0.000000
4019.784838,-9992.780217,-148.041188,842.705048
4019.785168,-9474.636058,0.000000,842.705048
4019.785498,-9104.533087,0.000000,612.876398
4019.785828,-9474.636058,222.061783,229.828649
4019.786157,-9548.656652,148.041188,0.000000
4019.786487,-10066.800811,444.123565,0.000000
4019.786817,-9992.780217,296.082377,-459.657299
4019.787147,-10066.800811,444.123565,-1149.143247
4019.787476,-9770.718434,666.185348,-919.314598
4019.787806,-10214.842000,222.061783,-153.219100
4019.788136,-10214.842000,444.123565,1455.581446
4019.788466,-9474.636058,-74.020594,153.219100
4019.788795,-9178.553681,0.000000,306.438199
4019.789125,-10140.821405,296.082377,459.657299
4019.789455,-11103.089130,370.102971,919.314598
4019.789785,-10732.986159,148.041188,1072.533697
4019.790114,-9548.656652,74.020594,459.657299
4019.790444,-9252.574275,148.041188,-76.609550
4019.790774,-9992.780217,814.226536,459.657299
4019.791104,-11029.068536,814.226536,1838.629195
4019.791434,-10214.842000,370.102971,612.876398
4019.791763,-9548.656652,296.082377,-842.705048
4019.792093,-9326.594869,148.041188,-1762.019645
4019.792423,-9252.574275,0.000000,-1072.533697
4019.792753,-9400.615463,0.000000,0.000000
4019.793082,-9474.636058,0.000000,1302.362347
4019.793412,-9548.656652,0.000000,1532.190996
4019.793742,-9474.636058,0.000000,766.095498
4019.794072,-9696.697840,74.020594,-76.609550
4019.794401,-10288.862594,0.000000,-383.047749
4019.794731,-10510.924376,0.000000,459.657299
4019.795061,-9252.574275,-74.020594,536.266849
4019.795391,-8882.471304,-148.041188,689.485948
4019.795721,-9548.656652,0.000000,1225.752797
4019.796050,-10658.965565,0.000000,842.705048
4019.796380,-10140.821405,0.000000,-459.657299
4019.796710,-8882.471304,74.020594,-1685.410096
4019.797040,-8586.388927,148.041188,-1532.190996
4019.797369,-9178.553681,518.144159,76.609550
4019.797699,-9548.656652,74.020594,612.876398
4019.798029,-9992.780217,296.082377,612.876398
4019.798359,-10140.821405,74.020594,229.828649
4019.798688,-9770.718434,0.000000,-612.876398
4019.799018,-9770.718434,-370.102971,153.219100
4019.799348,-10214.842000,0.000000,995.924147
4019.799678,-9696.697840,0.000000,1302.362347
4019.800007,-9252.574275,-74.020594,842.705048
4019.800337,-9992.780217,370.102971,0.000000
4019.800667,-10510.924376,370.102971,612.876398
4019.800997,-11177.109724,666.185348,1608.800546
4019.801327,-9992.780217,74.020594,306.438199
4019.801656,-9252.574275,0.000000,-612.876398
4019.801986,-8956.491898,0.000000,-842.705048
4019.802316,-9326.594869,296.082377,153.219100
4019.802646,-10214.842000,74.020594,383.047749
4019.802975,-10436.903782,74.020594,1302.362347
4019.803305,-9770.718434,0.000000,459.657299
4019.803635,-9696.697840,0.000000,229.828649
4019.803965,-9696.697840,-74.020594,383.047749
4019.804294,-10066.800811,-296.082377,1149.143247
4019.804624,-9400.615463,0.000000,919.314598
4019.804954,-8956.491898,0.000000,459.657299
4019.805284,-9474.636058,148.041188,459.657299
4019.805613,-10288.862594,296.082377,1378.971896
4019.805943,-10807.006753,148.041188,536.266849
4019.806273,-10214.842000,0.000000,-689.485948
4019.806603,-9252.574275,0.000000,-842.705048
4019.806933,-8882.471304,0.000000,-229.828649
4019.807262,-9326.594869,148.041188,536.266849
4019.807592,-9770.718434,222.061783,1072.533697
4019.807922,-10288.862594,148.041188,459.657299
4019.808252,-9844.739029,296.082377,-766.095498
4019.808581,-9770.718434,0.000000,-766.095498
4019.808911,-9918.759623,0.000000,153.219100
4019.809241,-9770.718434,-296.082377,842.705048
4019.809571,-9104.533087,-222.061783,919.314598
4019.809900,-8956.491898,-518.144159,76.609550
4019.810230,-9918.759623,74.020594,536.266849
4019.810560,-10658.965565,444.123565,995.924147
4019.810890,-10214.842000,222.061783,919.314598
4019.811220,-9474.636058,222.061783,-766.095498
4019.811549,-9474.636058,518.144159,-1072.533697
4019.811879,-9252.574275,592.164754,-536.266849
4019.812209,-9474.636058,148.041188,76.609550
4019.812539,-9918.759623,148.041188,-153.219100
4019.812868,-9844.739029,148.041188,76.609550
4019.813198,-9252.574275,0.000000,0.000000
4019.813528,-9622.677246,0.000000,-153.219100
4019.813858,-9770.718434,0.000000,459.657299
4019.814187,-10362.883188,296.082377,1149.143247
4019.814517,-9770.718434,148.041188,612.876398
4019.814847,-9474.636058,74.020594,383.047749
4019.815177,-9770.718434,518.144159,919.314598
4019.815506,-10510.924376,370.102971,1225.752797
4019.815836,-10510.924376,74.020594,229.828649
4019.816166,-9474.636058,0.000000,-689.485948
4019.816496,-8956.491898,0.000000,-689.485948
4019.816826,-9252.574275,148.041188,-76.609550
4019.817155,-9622.677246,74.020594,536.266849
4019.817485,-9844.739029,148.041188,842.705048
4019.817815,-9622.677246,0.000000,919.314598
4019.818145,-9844.739029,0.000000,0.000000
4019.818474,-10066.800811,0.000000,0.000000
4019.818804,-10510.924376,0.000000,766.095498
4019.819134,-9918.759623,0.000000,1455.581446
4019.819464,-8882.471304,-74.020594,842.705048
4019.819793,-9548.656652,0.000000,383.047749
4019.820123,-10066.800811,0.000000,612.876398
4019.820453,-10362.883188,74.020594,536.266849
4019.820783,-9548.656652,296.082377,229.828649
4019.821112,-9400.615463,0.000000,-612.876398
4019.821442,-9326.594869,0.000000,-383.047749
4019.821772,-9400.615463,0.000000,0.000000
4019.822102,-9400.615463,-444.123565,459.657299
4019.822432,-10214.842000,-148.041188,536.266849
4019.822761,-9622.677246,-370.102971,536.266849
4019.823091,-9326.594869,-518.144159,-153.219100
4019.823421,-9622.677246,0.000000,459.657299
4019.823751,-10214.842000,0.000000,1225.752797
4019.824080,-10214.842000,0.000000,919.314598
4019.824410,-9178.553681,0.000000,0.000000
4019.824740,-9548.656652,0.000000,-383.047749
4019.825070,-10807.006753,370.102971,153.219100
4019.825399,-10881.027347,0.000000,689.485948
4019.825729,-9918.759623,-74.020594,-229.828649
4019.826059,-8956.491898,-222.061783,-919.314598
4019.826389,-9474.636058,148.041188,-612.876398
4019.826719,-9844.739029,-296.082377,-153.219100
4019.827048,-9918.759623,-592.164754,153.219100
4019.827378,-9252.574275,-592.164754,766.095498
4019.827708,-9178.553681,-666.185348,459.657299
4019.828038,-9252.574275,-370.102971,229.828649
4019.828367,-9918.759623,-666.185348,229.828649
4019.828697,-10140.821405,-296.082377,919.314598
4019.829027,-9770.718434,-370.102971,1072.533697
4019.829357,-9844.739029,0.000000,-229.828649
4019.829686,-9548.656652,0.000000,153.219100
4019.830016,-10140.821405,148.041188,536.266849
4019.830346,-9992.780217,148.041188,76.609550
4019.830676,-9400.615463,148.041188,-1532.190996
4019.831005,-9400.615463,370.102971,-1302.362347
4019.831335,-9548.656652,444.123565,-612.876398
4019.831665,-10140.821405,0.000000,459.657299
4019.831995,-10288.862594,148.041188,842.705048
4019.832325,-9252.574275,0.000000,842.705048
4019.832654,-9252.574275,148.041188,229.828649
4019.832984,-9474.636058,222.061783,0.000000
4019.833314,-10881.027347,444.123565,536.266849
4019.833644,-10140.821405,518.144159,919.314598
4019.833973,-9548.656652,296.082377,459.657299
4019.834303,-9474.636058,444.123565,229.828649
4019.834633,-9844.739029,518.144159,229.828649
4019.834963,-10362.883188,888.247130,1149.143247
4019.835292,-9844.739029,592.164754,229.828649
4019.835622,-9400.615463,666.185348,-919.314598
4019.835952,-9622.677246,592.164754,-1302.362347
4019.836282,-9548.656652,1110.308913,0.000000
4019.836611,-9992.780217,518.144159,0.000000
4019.836941,-10066.800811,592.164754,383.047749
4019.837271,-9770.718434,370.102971,306.438199
4019.837601,-9178.553681,370.102971,0.000000
4019.837931,-9548.656652,444.123565,0.000000
4019.838260,-10362.883188,592.164754,459.657299
4019.838590,-10510.924376,444.123565,995.924147
4019.838920,-9992.780217,518.144159,995.924147
4019.839250,-9844.739029,370.102971,-766.095498
4019.839579,-10436.903782,296.082377,612.876398
4019.839909,-10288.862594,0.000000,689.485948
4019.840239,-10066.800811,0.000000,0.000000
4019.840569,-8660.409521,0.000000,0.000000
4019.840898,-8512.368333,74.020594,-766.095498
4019.841228,-9030.512492,370.102971,0.000000
4019.841558,-9770.718434,296.082377,229.828649
4019.841888,-10436.903782,148.041188,612.876398
4019.842218,-9992.780217,0.000000,0.000000
4019.842547,-9844.739029,-444.123565,-766.095498
4019.842877,-9696.697840,-518.144159,0.000000
4019.843207,-9918.759623,-296.082377,919.314598
4019.843537,-9104.533087,-370.102971,1149.143247
4019.843866,-8808.450710,-518.144159,536.266849
4019.844196,-9548.656652,0.000000,0.000000
4019.844526,-10732.986159,74.020594,229.828649
4019.844856,-10584.944971,148.041188,842.705048
4019.845185,-9844.739029,0.000000,153.219100
4019.845515,-9474.636058,0.000000,-153.219100
4019.845845,-9252.574275,0.000000,-612.876398
4019.846175,-9548.656652,-222.061783,-919.314598
4019.846504,-9622.677246,-296.082377,0.000000
4019.846834,-10066.800811,0.000000,459.657299
4019.847164,-9474.636058,-148.041188,766.095498
4019.847494,-9696.697840,-370.102971,766.095498
4019.847824,-10584.944971,0.000000,1455.581446
4019.848153,-10955.047942,-74.020594,1225.752797
4019.848483,-10510.924376,-370.102971,612.876398
4019.848813,-9770.718434,-444.123565,76.609550
4019.849143,-9918.759623,0.000000,919.314598
4019.849472,-9770.718434,0.000000,1532.190996
4019.849802,-10066.800811,-370.102971,1532.190996
4019.850132,-10214.842000,74.020594,-76.609550
4019.850462,-9696.697840,0.000000,-689.485948
4019.850791,-9622.677246,0.000000,-919.314598
4019.851121,-9696.697840,-370.102971,306.438199
4019.851451,-9548.656652,-222.061783,1149.143247
4019.851781,-9104.533087,0.000000,766.095498
4019.852110,-8808.450710,-370.102971,0.000000
4019.852440,-9252.574275,0.000000,-842.705048
4019.852770,-10807.006753,296.082377,0.000000
4019.853100,-11473.192101,0.000000,766.095498
4019.853430,-10288.862594,-296.082377,1455.581446
4019.853759,-8586.388927,-296.082377,842.705048
4019.854089,-9252.574275,-74.020594,536.266849
4019.854419,-9844.739029,74.020594,689.485948
4019.854749,-9770.718434,74.020594,459.657299
4019.855078,-9622.677246,592.164754,-689.485948
4019.855408,-9326.594869,666.185348,-1149.143247
4019.855738,-9696.697840,888.247130,-459.657299
4019.856068,-10288.862594,296.082377,76.609550
4019.856397,-10214.842000,222.061783,229.828649
4019.856727,-9252.574275,-370.102971,229.828649
4019.857057,-8586.388927,0.000000,0.000000
4019.857387,-9178.553681,222.061783,229.828649
4019.857717,-10288.862594,592.164754,1378.971896
4019.858046,-10807.006753,296.082377,1302.362347
4019.858376,-10066.800811,444.123565,612.876398
4019.858706,-9992.780217,222.061783,229.828649
4019.859036,-10658.965565,296.082377,1149.143247
4019.859365,-10140.821405,74.020594,1532.190996
4019.859695,-9696.697840,74.020594,689.485948
4019.860025,-9474.636058,222.061783,-459.657299
4019.860355,-9252.574275,222.061783,-1302.362347
4019.860684,-9474.636058,296.082377,-995.924147
4019.861014,-9992.780217,296.082377,0.000000
4019.861344,-10362.883188,148.041188,1149.143247
4019.861674,-9548.656652,-296.082377,1225.752797
4019.862003,-9326.594869,-666.185348,766.095498
4019.862333,-9474.636058,-370.102971,229.828649
4019.862663,-9844.739029,-370.102971,689.485948
4019.862993,-9770.718434,-222.061783,842.705048
4019.863323,-8956.491898,0.000000,459.657299
4019.863652,-9326.594869,-222.061783,536.266849
4019.863982,-10066.800811,296.082377,1225.752797
4019.864312,-10140.821405,0.000000,766.095498
4019.864642,-10066.800811,148.041188,153.219100
4019.864971,-9474.636058,0.000000,-1455.581446
4019.865301,-9474.636058,148.041188,-1378.971896
4019.865631,-9622.677246,370.102971,-612.876398
4019.865961,-10288.862594,518.144159,153.219100
4019.866290,-9770.718434,0.000000,306.438199
4019.866620,-9474.636058,0.000000,-536.266849
4019.866950,-9548.656652,0.000000,-459.657299
4019.867280,-9918.759623,0.000000,0.000000
4019.867609,-10510.924376,518.144159,1072.533697
4019.867939,-9918.759623,518.144159,919.314598
4019.868269,-9474.636058,222.061783,76.609550
4019.868599,-9992.780217,148.041188,76.609550
4019.868929,-10881.027347,222.061783,1225.752797
4019.869258,-10658.965565,74.020594,612.876398
4019.869588,-9770.718434,0.000000,0.000000
4019.869918,-9474.636058,222.061783,-689.485948
4019.870248,-9474.636058,0.000000,-536.266849
4019.870577,-9992.780217,222.061783,-383.047749
4019.870907,-10436.903782,74.020594,153.219100
4019.871237,-10288.862594,296.082377,842.705048
4019.871567,-9770.718434,0.000000,919.314598
4019.871896,-9400.615463,0.000000,612.876398
4019.872226,-10140.821405,-296.082377,1072.533697
4019.872556,-10658.965565,-222.061783,1378.971896
4019.872886,-9548.656652,-296.082377,995.924147
4019.873216,-8216.285956,-592.164754,0.000000
4019.873545,-8734.430116,-296.082377,612.876398
4019.873875,-9548.656652,-222.061783,2068.457845
4019.874205,-9696.697840,148.041188,1532.190996
4019.874535,-9030.512492,0.000000,-536.266849
4019.874864,-8660.409521,0.000000,-1225.752797
4019.875194,-9030.512492,296.082377,-1532.190996
4019.875524,-9992.780217,222.061783,-612.876398
4019.875854,-9770.718434,222.061783,153.219100
4019.876183,-9252.574275,74.020594,76.609550
4019.876513,-8882.471304,370.102971,-306.438199
4019.876843,-9474.636058,0.000000,-689.485948
4019.877173,-10658.965565,222.061783,-306.438199
4019.877502,-10658.965565,296.082377,0.000000
4019.877832,-9326.594869,0.000000,459.657299
4019.878162,-9178.553681,0.000000,306.438199
4019.878492,-9992.780217,74.020594,689.485948
4019.878821,-10881.027347,148.041188,766.095498
4019.879151,-10584.944971,0.000000,842.705048
4019.879481,-9844.739029,148.041188,-229.828649
4019.879811,-9474.636058,-74.020594,-383.047749
4019.880140,-9030.512492,370.102971,-306.438199
4019.880470,-9844.739029,148.041188,0.000000
4019.880800,-10658.965565,0.000000,536.266849
4019.881130,-10140.821405,-222.061783,459.657299
4019.881459,-9548.656652,-444.123565,0.000000
4019.881789,-9030.512492,-444.123565,229.828649
4019.882119,-10066.800811,-370.102971,383.047749
4019.882449,-9844.739029,-296.082377,766.095498
4019.882779,-9252.574275,0.000000,153.219100
4019.883108,-8734.430116,0.000000,306.438199
4019.883438,-10288.862594,74.020594,1072.533697
4019.883768,-10510.924376,370.102971,1302.362347
4019.884098,-10066.800811,0.000000,0.000000
4019.884427,-9400.615463,0.000000,-1072.533697
4019.884757,-9252.574275,0.000000,-1072.533697
4019.885087,-9622.677246,0.000000,-536.266849
4019.885417,-9770.718434,0.000000,153.219100
4019.885746,-9622.677246,0.000000,689.485948
4019.886076,-8956.491898,0.000000,612.876398
4019.886406,-9178.553681,0.000000,306.438199
4019.886736,-10214.842000,518.144159,536.266849
4019.887065,-10732.986159,518.144159,383.047749
4019.887395,-10436.903782,1332.370696,842.705048
4019.887725,-9548.656652,222.061783,0.000000
4019.888055,-9474.636058,296.082377,0.000000
4019.888384,-9992.780217,370.102971,1072.533697
4019.888714,-10362.883188,222.061783,919.314598
4019.889044,-9622.677246,222.061783,76.609550
4019.889374,-9474.636058,74.020594,-383.047749
4019.889703,-9104.533087,148.041188,-383.047749
4019.890033,-9770.718434,296.082377,229.828649
4019.890363,-9844.739029,444.123565,766.095498
4019.890693,-9622.677246,370.102971,689.485948
4019.891022,-9474.636058,370.102971,306.438199
4019.891352,-9400.615463,222.061783,0.000000
4019.891682,-9548.656652,0.000000,459.657299
4019.892012,-9992.780217,296.082377,612.876398
4019.892341,-9548.656652,296.082377,383.047749
4019.892671,-9030.512492,0.000000,-306.438199
4019.893001,-9548.656652,0.000000,0.000000
4019.893331,-10436.903782,0.000000,919.314598
4019.893660,-9918.759623,-296.082377,1072.533697
4019.893990,-9252.574275,0.000000,459.657299
4019.894320,-9030.512492,0.000000,-536.266849
4019.894650,-9400.615463,518.144159,-919.314598
4019.894979,-9844.739029,148.041188,-383.047749
4019.895309,-10288.862594,74.020594,0.000000
4019.895639,-10066.800811,0.000000,459.657299
4019.895969,-9178.553681,-296.082377,-306.438199
4019.896298,-9474.636058,-740.205942,0.000000
4019.896628,-9770.718434,-370.102971,0.000000
4019.896958,-9992.780217,-370.102971,383.047749
4019.897288,-9474.636058,222.061783,306.438199
4019.897617,-9548.656652,0.000000,153.219100
4019.897947,-10510.924376,148.041188,842.705048
4019.898277,-11251.130318,0.000000,1455.581446
4019.898607,-11251.130318,0.000000,1302.362347
4019.898936,-10140.821405,-370.102971,-383.047749
4019.899266,-9548.656652,-74.020594,-1072.533697
4019.899596,-9474.636058,0.000000,-612.876398
4019.899926,-9622.677246,0.000000,76.609550
4019.900255,-9770.718434,74.020594,842.705048
4019.900585,-9918.759623,-222.061783,689.485948
4019.900915,-9770.718434,-370.102971,76.609550
4019.901245,-9474.636058,-296.082377,0.000000
4019.901574,-10066.800811,-296.082377,842.705048
4019.901904,-9918.759623,0.000000,689.485948
4019.902234,-9400.615463,0.000000,919.314598
4019.902564,-9474.636058,370.102971,459.657299
4019.902893,-10288.862594,370.102971,383.047749
4019.903223,-11103.089130,592.164754,919.314598
4019.903553,-10510.924376,296.082377,229.828649
4019.903883,-9770.718434,222.061783,-766.095498
4019.904212,-9104.533087,74.020594,-689.485948
4019.904542,-9178.553681,444.123565,0.000000
4019.904872,-9326.594869,74.020594,229.828649
4019.905202,-9474.636058,370.102971,383.047749
4019.905531,-9400.615463,148.041188,536.266849
4019.905861,-9844.739029,296.082377,689.485948
4019.906191,-10140.821405,370.102971,0.000000
4019.906521,-10362.883188,222.061783,612.876398
4019.906850,-9548.656652,74.020594,459.657299
4019.907180,-8882.471304,222.061783,459.657299
4019.907510,-9178.553681,592.164754,153.219100
4019.907840,-10288.862594,888.247130,612.876398
4019.908169,-11029.068536,888.247130,459.657299
4019.908499,-10362.883188,666.185348,-766.095498
4019.908829,-9548.656652,518.144159,-1532.190996
4019.909159,-9104.533087,666.185348,-1378.971896
4019.909488,-9326.594869,592.164754,-689.485948
4019.909818,-9548.656652,444.123565,459.657299
4019.910148,-9696.697840,444.123565,766.095498
4019.910478,-10140.821405,0.000000,842.705048
4019.910807,-10214.842000,-148.041188,-229.828649
4019.911137,-10214.842000,-148.041188,0.000000
4019.911467,-10362.883188,518.144159,1149.143247
4019.911797,-9474.636058,0.000000,1149.143247
4019.912126,-8956.491898,0.000000,995.924147
4019.912456,-9992.780217,222.061783,612.876398
4019.912786,-10732.986159,444.123565,1149.143247
4019.913116,-10658.965565,0.000000,536.266849
4019.913445,-10066.800811,-74.020594,-536.266849
4019.913775,-9104.533087,-518.144159,-995.924147
4019.914105,-8882.471304,-444.123565,-766.095498
4019.914435,-9252.574275,-518.144159,306.438199
4019.914764,-9548.656652,-592.164754,842.705048
4019.915094,-9400.615463,-592.164754,1225.752797
4019.915424,-9548.656652,-222.061783,383.047749
4019.915754,-9622.677246,-518.144159,536.266849
4019.916083,-9844.739029,-148.041188,612.876398
4019.916413,-10362.883188,-370.102971,1072.533697
4019.916743,-9696.697840,-592.164754,612.876398
4019.917073,-9474.636058,-592.164754,76.609550
4019.917402,-9622.677246,-74.020594,153.219100
4019.917732,-10288.862594,0.000000,995.924147
4019.918062,-10362.883188,222.061783,306.438199
4019.918392,-9918.759623,296.082377,-766.095498
4019.918721,-9548.656652,592.164754,-1455.581446
4019.919051,-9770.718434,148.041188,-995.924147
4019.919381,-10140.821405,148.041188,153.219100
4019.919711,-10510.924376,222.061783,76.609550
4019.920040,-9548.656652,444.123565,0.000000
4019.920370,-9548.656652,0.000000,76.609550
4019.920700,-9844.739029,0.000000,0.000000
4019.921030,-10214.842000,0.000000,0.000000
4019.921359,-9844.739029,370.102971,919.314598
4019.921689,-9622.677246,74.020594,766.095498
4019.922019,-9548.656652,222.061783,919.314598
4019.922349,-10362.883188,74.020594,995.924147
4019.922678,-10658.965565,74.020594,919.314598
4019.923008,-10140.821405,0.000000,612.876398
4019.923338,-9400.615463,0.000000,-229.828649
4019.923668,-8808.450710,74.020594,-383.047749
4019.923997,-8660.409521,222.061783,0.000000
4019.924327,-9326.594869,592.164754,612.876398
4019.924657,-9844.739029,296.082377,1072.533697
4019.924987,-9696.697840,74.020594,995.924147
4019.925316,-9326.594869,-148.041188,0.000000
4019.925646,-9548.656652,370.102971,0.000000
4019.925976,-9844.739029,-370.102971,383.047749
4019.926306,-9474.636058,-666.185348,919.314598
4019.926635,-8586.388927,0.000000,459.657299
4019.926965,-9104.533087,0.000000,0.000000
4019.927295,-9918.759623,222.061783,459.657299
4019.927625,-10436.903782,296.082377,459.657299
4019.927954,-10066.800811,0.000000,-76.609550
4019.928284,-9622.677246,296.082377,-1302.362347
4019.928614,-9548.656652,74.020594,-919.314598
4019.928944,-9326.594869,148.041188,-153.219100
4019.929273,-9622.677246,0.000000,153.219100
4019.929603,-9770.718434,0.000000,766.095498
4019.929933,-9474.636058,148.041188,0.000000
4019.930263,-9770.718434,0.000000,-459.657299
4019.930592,-10066.800811,-148.041188,-153.219100
4019.930922,-10881.027347,148.041188,383.047749
4019.931252,-10362.883188,74.020594,1685.410096
4019.931582,-9548.656652,0.000000,689.485948
4019.931911,-9474.636058,0.000000,919.314598
4019.932241,-10288.862594,0.000000,1149.143247
4019.932571,-11325.150913,74.020594,1378.971896
4019.932901,-10510.924376,0.000000,153.219100
4019.933230,-9548.656652,-296.082377,-612.876398
4019.933560,-9326.594869,0.000000,-306.438199
4019.933890,-9918.759623,0.000000,536.266849
4019.934220,-10362.883188,296.082377,919.314598
4019.934549,-10214.842000,148.041188,612.876398
4019.934879,-9400.615463,0.000000,0.000000
4019.935209,-9696.697840,74.020594,0.000000
4019.935539,-10214.842000,0.000000,689.485948
4019.935868,-10362.883188,-296.082377,1072.533697
4019.936198,-9770.718434,-148.041188,766.095498
4019.936528,-8956.491898,-740.205942,459.657299
4019.936858,-9622.677246,-296.082377,536.266849
4019.937187,-10436.903782,0.000000,689.485948
4019.937517,-10066.800811,0.000000,766.095498
4019.937847,-9622.677246,74.020594,0.000000
4019.938177,-9474.636058,222.061783,-995.924147
4019.938506,-9548.656652,148.041188,-919.314598
4019.938836,-9252.574275,74.020594,-306.438199
4019.939166,-9622.677246,148.041188,383.047749
4019.939496,-9992.780217,444.123565,689.485948
4019.939825,-9326.594869,592.164754,-612.876398
4019.940155,-9400.615463,148.041188,-1378.971896
4019.940485,-9696.697840,0.000000,-383.047749
4019.940815,-10362.883188,222.061783,0.000000
4019.941144,-9770.718434,370.102971,459.657299
4019.941474,-9400.615463,222.061783,229.828649
4019.941804,-9548.656652,0.000000,612.876398
4019.942134,-10214.842000,444.123565,919.314598
4019.942463,-9992.780217,148.041188,76.609550
4019.942793,-9400.615463,296.082377,-1455.581446
4019.943123,-9474.636058,592.164754,-1225.752797
4019.943453,-9844.739029,518.144159,-153.219100
4019.943782,-9696.697840,222.061783,229.828649
4019.944112,-9844.739029,592.164754,459.657299
4019.944442,-9622.677246,148.041188,229.828649
4019.944772,-9770.718434,222.061783,-459.657299
4019.945101,-9548.656652,0.000000,-306.438199
4019.945431,-9770.718434,74.020594,612.876398
4019.945761,-10066.800811,0.000000,995.924147
4019.946091,-9770.718434,0.000000,1149.143247
4019.946420,-9622.677246,-222.061783,689.485948
4019.946750,-9696.697840,0.000000,1378.971896
4019.947080,-10066.800811,-444.123565,1225.752797
4019.947410,-10066.800811,-222.061783,612.876398
4019.947739,-9252.574275,0.000000,0.000000
4019.948069,-9178.553681,0.000000,-153.219100
4019.948399,-9474.636058,0.000000,306.438199
4019.948729,-9844.739029,-222.061783,536.266849
4019.949058,-10288.862594,0.000000,766.095498
4019.949388,-9844.739029,0.000000,153.219100
4019.949718,-8956.491898,0.000000,-842.705048
4019.950048,-9400.615463,0.000000,-612.876398
4019.950377,-10288.862594,0.000000,459.657299
4019.950707,-10066.800811,-296.082377,995.924147
4019.951037,-9400.615463,0.000000,536.266849
4019.951367,-9622.677246,0.000000,153.219100
4019.951696,-10436.903782,0.000000,1072.533697
4019.952026,-10658.965565,0.000000,1455.581446
4019.952356,-10288.862594,444.123565,459.657299
4019.952686,-9474.636058,0.000000,-306.438199
4019.953015,-9918.759623,296.082377,-383.047749
4019.953345,-9622.677246,444.123565,-536.266849
4019.953675,-9696.697840,74.020594,76.609550
4019.954005,-10214.842000,222.061783,383.047749
4019.954334,-9918.759623,74.020594,-306.438199
4019.954664,-9622.677246,0.000000,-842.705048
4019.954994,-9474.636058,0.000000,-383.047749
4019.955324,-10214.842000,444.123565,1072.533697
4019.955653,-9844.739029,0.000000,1149.143247
4019.955983,-9252.574275,-370.102971,612.876398
4019.956313,-9474.636058,296.082377,153.219100
4019.956643,-10140.821405,74.020594,459.657299
4019.956972,-10732.986159,148.041188,1072.533697
4019.957302,-9992.780217,0.000000,383.047749
4019.957632,-9474.636058,148.041188,-536.266849
4019.957962,-9326.594869,0.000000,-459.657299
4019.958291,-9770.718434,0.000000,229.828649
4019.958621,-9622.677246,74.020594,306.438199
4019.958951,-9474.636058,0.000000,689.485948
4019.959281,-9252.574275,0.000000,612.876398
4019.959610,-9548.656652,0.000000,0.000000
4019.959940,-9992.780217,592.164754,0.000000
4019.960270,-10362.883188,74.020594,229.828649
4019.960600,-9622.677246,-148.041188,306.438199
4019.960929,-9030.512492,-518.144159,153.219100
4019.961259,-9326.594869,-222.061783,536.266849
4019.961589,-9548.656652,-222.061783,1608.800546
4019.961919,-10288.862594,-148.041188,995.924147
4019.962248,-9918.759623,0.000000,153.219100
4019.962578,-9178.553681,0.000000,-689.485948
4019.962908,-9474.636058,296.082377,-459.657299
4019.963238,-9548.656652,0.000000,459.657299
4019.963567,-9992.780217,222.061783,842.705048
4019.963897,-9400.615463,0.000000,536.266849
4019.964227,-9178.553681,0.000000,-919.314598
4019.964557,-9474.636058,74.020594,-1225.752797
4019.964886,-10436.903782,74.020594,-536.266849
4019.965216,-10214.842000,370.102971,229.828649
4019.965546,-9178.553681,-296.082377,689.485948
4019.965876,-9474.636058,74.020594,0.000000
4019.966205,-9918.759623,0.000000,0.000000
4019.966535,-10436.903782,74.020594,383.047749
4019.966865,-10140.821405,0.000000,536.266849
4019.967195,-10066.800811,296.082377,153.219100
4019.967524,-10066.800811,222.061783,-306.438199
4019.967854,-10214.842000,444.123565,-229.828649
4019.968184,-10066.800811,-74.020594,383.047749
4019.968514,-10140.821405,-148.041188,153.219100
4019.968843,-9696.697840,0.000000,0.000000
4019.969173,-9474.636058,-518.144159,229.828649
4019.969503,-9326.594869,-370.102971,919.314598
4019.969833,-10288.862594,0.000000,1455.581446
4019.970162,-10732.986159,-370.102971,1915.238745
4019.970492,-9844.739029,-370.102971,1302.362347
4019.970822,-9844.739029,148.041188,306.438199
4019.971152,-9992.780217,-74.020594,842.705048
4019.971481,-10436.903782,0.000000,1608.800546
4019.971811,-9992.780217,222.061783,919.314598
4019.972141,-9548.656652,74.020594,-612.876398
4019.972471,-9474.636058,0.000000,-689.485948
4019.972800,-9696.697840,444.123565,-383.047749
4019.973130,-9770.718434,-148.041188,-459.657299
4019.973460,-9622.677246,-148.041188,76.609550
4019.973790,-9030.512492,0.000000,229.828649
4019.974119,-8882.471304,0.000000,76.609550
4019.974449,-9548.656652,148.041188,0.000000
4019.974779,-10288.862594,296.082377,536.266849
4019.975109,-10436.903782,296.082377,689.485948
4019.975438,-9548.656652,0.000000,612.876398
4019.975768,-9548.656652,518.144159,383.047749
4019.976098,-10288.862594,296.082377,995.924147
4019.976428,-10066.800811,222.061783,842.705048
4019.976757,-9696.697840,148.041188,0.000000
4019.977087,-9104.533087,74.020594,-1072.533697
4019.977417,-9326.594869,296.082377,-1149.143247
4019.977747,-9474.636058,740.205942,-766.095498
4019.978076,-10066.800811,370.102971,0.000000
4019.978406,-10066.800811,0.000000,76.609550
4019.978736,-9548.656652,222.061783,-153.219100
4019.979065,-9474.636058,0.000000,-612.876398
4019.979395,-9918.759623,0.000000,0.000000
4019.979725,-10066.800811,0.000000,766.095498
4019.980054,-9622.677246,148.041188,1302.362347
4019.980384,-9326.594869,0.000000,995.924147
4019.980714,-9844.739029,0.000000,919.314598
4019.981043,-10510.924376,0.000000,1532.190996
4019.981373,-10214.842000,0.000000,1762.019645
4019.981703,-9770.718434,0.000000,306.438199
4019.982032,-9548.656652,74.020594,-153.219100
4019.982362,-9400.615463,0.000000,-383.047749
4019.982692,-9326.594869,148.041188,229.828649
4019.983021,-9844.739029,74.020594,0.000000
4019.983351,-9992.780217,148.041188,306.438199
4019.983681,-9622.677246,222.061783,229.828649
4019.984010,-9474.636058,0.000000,-459.657299
4019.984340,-9992.780217,74.020594,0.000000
4019.984670,-10362.883188,-74.020594,612.876398
4019.984999,-9918.759623,-148.041188,689.485948
4019.985329,-9474.636058,-148.041188,229.828649
4019.985659,-9326.594869,222.061783,229.828649
4019.985989,-10140.821405,296.082377,1149.143247
4019.986318,-10510.924376,222.061783,1149.143247
4019.986648,-10066.800811,296.082377,0.000000
4019.986978,-9104.533087,148.041188,-306.438199
4019.987307,-9252.574275,148.041188,-612.876398
