#time,accel_x,accel_y,accel_z
3835.359501,-9548.656652,0.000000,383.047749
3835.359832,-9844.739029,0.000000,536.266849
3835.360162,-10066.800811,148.041188,383.047749
3835.360492,-9992.780217,0.000000,229.828649
3835.360822,-9770.718434,0.000000,76.609550
3835.361152,-9622.677246,-222.061783,0.000000
3835.361482,-9548.656652,74.020594,0.000000
3835.361812,-9770.718434,148.041188,76.609550
3835.362142,-9696.697840,370.102971,-459.657299
3835.362472,-9770.718434,222.061783,-306.438199
3835.362802,-9918.759623,0.000000,306.438199
3835.363132,-9770.718434,296.082377,612.876398
3835.363462,-10214.842000,148.041188,766.095498
3835.363792,-9992.780217,0.000000,612.876398
3835.364122,-10288.862594,0.000000,0.000000
3835.364452,-9770.718434,-148.041188,-536.266849
3835.364782,-9622.677246,0.000000,-459.657299
3835.365112,-9918.759623,370.102971,-383.047749
3835.365442,-9696.697840,0.000000,-306.438199
3835.365772,-10066.800811,-370.102971,0.000000
3835.366102,-9918.759623,-666.185348,0.000000
3835.366432,-9622.677246,-370.102971,0.000000
3835.366762,-9474.636058,-592.164754,-612.876398
3835.367092,-9770.718434,-370.102971,-612.876398
3835.367423,-9474.636058,-370.102971,-842.705048
3835.367753,-9844.739029,-592.164754,0.000000
3835.368083,-9992.780217,-444.123565,0.000000
3835.368413,-10362.883188,-444.123565,-76.609550
3835.368743,-10066.800811,-222.061783,-306.438199
3835.369073,-9918.759623,-222.061783,-766.095498
3835.369403,-9770.718434,-370.102971,-1378.971896
3835.369733,-9622.677246,-814.226536,-1915.238745
3835.370063,-9474.636058,-888.247130,-1685.410096
3835.370393,-9178.553681,-1184.329507,-995.924147
3835.370723,-9104.533087,-1332.370696,-536.266849
3835.371053,-9326.594869,-1184.329507,-153.219100
3835.371383,-9770.718434,-1036.288319,-306.438199
3835.371713,-10066.800811,-962.267725,-689.485948
3835.372043,-10436.903782,-444.123565,-1149.143247
3835.372373,-9992.780217,-888.247130,-1302.362347
3835.372703,-10436.903782,-888.247130,-1685.410096
3835.373033,-10214.842000,-666.185348,-1532.190996
3835.373363,-10214.842000,-1110.308913,-2145.067394
3835.373693,-9548.656652,-1702.473667,-2757.943793
3835.374023,-9474.636058,-1850.514855,-3217.601092
3835.374353,-9548.656652,-1776.494261,-2681.334243
3835.374684,-8882.471304,-2072.576638,-2298.286494
3835.375014,-8512.368333,-1850.514855,-1838.629195
3835.375344,-8734.430116,-1702.473667,-1149.143247
3835.375674,-9030.512492,-1258.350101,-536.266849
3835.376004,-10066.800811,-1110.308913,-76.609550
3835.376334,-10807.006753,-740.205942,536.266849
3835.376664,-11547.212695,-888.247130,0.000000
3835.376994,-11991.336260,-1184.329507,-612.876398
3835.377324,-11917.315666,-1924.535449,-2068.457845
3835.377654,-11029.068536,-2368.659014,-4213.525239
3835.377984,-9474.636058,-3552.988522,-4903.011187
3835.378314,-7772.162391,-3330.926739,-4519.963438
3835.378644,-7105.977043,-3108.864956,-1915.238745
3835.378974,-8068.244768,-2072.576638,0.000000
3835.379304,-9178.553681,-1110.308913,-459.657299
3835.379634,-10066.800811,-1110.308913,-2451.505594
3835.379964,-11251.130318,-1628.453072,-4213.525239
3835.380294,-11769.274478,-2664.741391,-4979.620737
3835.380624,-11399.171507,-4441.235652,-3677.258390
3835.380954,-9770.718434,-5329.482782,-1915.238745
3835.381284,-7920.203579,-5625.565159,-1608.800546
3835.381614,-6957.935855,-5329.482782,-2451.505594
3835.381945,-7328.038826,-4515.256246,-2834.553343
3835.382275,-8586.388927,-3034.844362,-2604.724693
3835.382605,-10140.821405,-1998.556043,-1608.800546
3835.382935,-11251.130318,-1480.411884,-1378.971896
3835.383265,-11769.274478,-1702.473667,-2528.115143
3835.383595,-11029.068536,-3108.864956,-4136.915689
3835.383925,-10140.821405,-4737.318029,-5362.668486
3835.384255,-9326.594869,-5625.565159,-4596.572988
3835.384585,-8734.430116,-5921.647536,-2911.162892
3835.384915,-8142.265362,-5477.523971,-842.705048
3835.385245,-7476.080014,-4811.338623,229.828649
3835.385575,-7994.224174,-3701.029710,919.314598
3835.385905,-10214.842000,-2368.659014,76.609550
3835.386235,-12805.562797,-1702.473667,-1685.410096
3835.386565,-12361.439231,-1554.432478,-2987.772442
3835.386895,-10658.965565,-3034.844362,-3447.429741
3835.387225,-9548.656652,-3701.029710,-2374.896044
3835.387555,-9918.759623,-4737.318029,-1991.848295
3835.387885,-9696.697840,-4811.338623,-1838.629195
3835.388215,-8734.430116,-4811.338623,-1838.629195
3835.388545,-8808.450710,-3256.906145,-1608.800546
3835.388875,-8660.409521,-2590.720797,-306.438199
3835.389206,-11917.315666,-1110.308913,919.314598
3835.389536,-12287.418637,-888.247130,1302.362347
3835.389866,-10807.006753,-1406.391290,689.485948
3835.390196,-10510.924376,-1924.535449,-1455.581446
3835.390526,-10510.924376,-2738.761985,-2298.286494
3835.390856,-9918.759623,-2738.761985,-1838.629195
3835.391186,-9326.594869,-2294.638420,-1532.190996
3835.391516,-9252.574275,-2368.659014,-1991.848295
3835.391846,-9622.677246,-2590.720797,-2374.896044
3835.392176,-9178.553681,-2368.659014,-1532.190996
3835.392506,-9770.718434,-1998.556043,76.609550
3835.392836,-9992.780217,-962.267725,0.000000
3835.393166,-9252.574275,-888.247130,-1915.238745
3835.393496,-8438.347739,-962.267725,-3524.039291
3835.393826,-9178.553681,-1406.391290,-3677.258390
3835.394156,-9992.780217,-1184.329507,-1302.362347
3835.394486,-10658.965565,-962.267725,-153.219100
3835.394816,-10140.821405,-1258.350101,-766.095498
3835.395146,-9770.718434,-740.205942,-2298.286494
3835.395476,-9918.759623,-1184.329507,-4443.353888
3835.395806,-10140.821405,-1258.350101,-4136.915689
3835.396136,-9474.636058,-1628.453072,-1991.848295
3835.396467,-9770.718434,-148.041188,-766.095498
3835.396797,-9252.574275,370.102971,-1991.848295
3835.397127,-7772.162391,-518.144159,-4290.134789
3835.397457,-7402.059420,-962.267725,-4826.401637
3835.397787,-9030.512492,-518.144159,-2987.772442
3835.398117,-11843.295072,-222.061783,-612.876398
3835.398447,-11621.233289,370.102971,-1225.752797
3835.398777,-9770.718434,-962.267725,-1915.238745
3835.399107,-9992.780217,-962.267725,-2681.334243
3835.399437,-10881.027347,-814.226536,-3140.991542
3835.399767,-12065.356855,-1406.391290,-2451.505594
3835.400097,-10658.965565,-962.267725,-2451.505594
3835.400427,-8364.327145,-1554.432478,-2451.505594
3835.400757,-7179.997637,-1258.350101,-842.705048
3835.401087,-8142.265362,-1036.288319,-1072.533697
3835.401417,-9622.677246,-1184.329507,-2604.724693
3835.401747,-9696.697840,-1332.370696,-2757.943793
3835.402077,-9548.656652,-1406.391290,-1225.752797
3835.402407,-10807.006753,-1480.411884,766.095498
3835.402737,-11695.253884,-1776.494261,842.705048
3835.403067,-11621.233289,-2294.638420,-612.876398
3835.403397,-9474.636058,-2960.823768,-1915.238745
3835.403728,-9326.594869,-2368.659014,-1532.190996
3835.404058,-10362.883188,-2516.700203,-383.047749
3835.404388,-10881.027347,-2146.597232,612.876398
3835.404718,-9326.594869,-1850.514855,-919.314598
3835.405048,-8586.388927,-1924.535449,-2911.162892
3835.405378,-9326.594869,-2220.617826,-4596.572988
3835.405708,-10732.986159,-2368.659014,-3524.039291
3835.406038,-9770.718434,-3330.926739,-1685.410096
3835.406368,-8586.388927,-3775.050304,-842.705048
3835.406698,-9400.615463,-3256.906145,-1455.581446
3835.407028,-10732.986159,-3701.029710,-1532.190996
3835.407358,-10955.047942,-3330.926739,-1378.971896
3835.407688,-10288.862594,-3552.988522,-1225.752797
3835.408018,-9548.656652,-3330.926739,-2298.286494
3835.408348,-9844.739029,-3256.906145,-2221.676944
3835.408678,-10288.862594,-3330.926739,-1838.629195
3835.409008,-10658.965565,-3108.864956,-2298.286494
3835.409338,-9474.636058,-3330.926739,-4366.744339
3835.409668,-7920.203579,-3775.050304,-4979.620737
3835.409998,-8586.388927,-3404.947333,-3907.087040
3835.410328,-9844.739029,-3627.009116,-1455.581446
3835.410658,-9918.759623,-3552.988522,-383.047749
3835.410988,-9400.615463,-3552.988522,-1838.629195
3835.411319,-9548.656652,-3404.947333,-3064.381992
3835.411649,-10584.944971,-3182.885551,-2451.505594
3835.411979,-11177.109724,-3330.926739,-612.876398
3835.412309,-10807.006753,-3182.885551,-1072.533697
3835.412639,-8512.368333,-2960.823768,-2681.334243
3835.412969,-8438.347739,-2664.741391,-3140.991542
3835.413299,-10658.965565,-1850.514855,-2068.457845
3835.413629,-11473.192101,-2146.597232,-1532.190996
3835.413958,-10288.862594,-1850.514855,-1455.581446
3835.414288,-9844.739029,-2664.741391,-2528.115143
3835.414618,-8956.491898,-2516.700203,-3064.381992
3835.414948,-9178.553681,-2590.720797,-1608.800546
3835.415278,-9918.759623,-2368.659014,536.266849
3835.415607,-9992.780217,-1924.535449,459.657299
3835.415937,-9400.615463,-1924.535449,-919.314598
3835.416267,-8808.450710,-1776.494261,-1302.362347
3835.416597,-10140.821405,-1628.453072,-1838.629195
3835.416927,-10436.903782,-1110.308913,-229.828649
3835.417256,-11325.150913,-1258.350101,-536.266849
3835.417586,-10658.965565,-1554.432478,-1838.629195
3835.417916,-9178.553681,-1850.514855,-2068.457845
3835.418246,-9622.677246,-1480.411884,-2604.724693
3835.418576,-10436.903782,-1998.556043,-2604.724693
3835.418906,-9326.594869,-1998.556043,-2451.505594
3835.419235,-8364.327145,-1850.514855,-2834.553343
3835.419565,-8142.265362,-2072.576638,-2451.505594
3835.419895,-8660.409521,-1850.514855,-1532.190996
3835.420225,-9474.636058,-1480.411884,-1378.971896
3835.420555,-9252.574275,-1776.494261,-1915.238745
3835.420884,-9622.677246,-1702.473667,-842.705048
3835.421214,-10510.924376,-1258.350101,-306.438199
3835.421544,-9918.759623,-962.267725,-612.876398
3835.421874,-9992.780217,-814.226536,-1685.410096
3835.422204,-10140.821405,-740.205942,-2451.505594
3835.422533,-10288.862594,-518.144159,-2911.162892
3835.422863,-10436.903782,-74.020594,-3677.258390
3835.423193,-9548.656652,-740.205942,-3677.258390
3835.423523,-9474.636058,-444.123565,-3294.210641
3835.423853,-9030.512492,-296.082377,-2451.505594
3835.424182,-8586.388927,-222.061783,-1455.581446
3835.424512,-9178.553681,-296.082377,-383.047749
3835.424842,-10140.821405,-222.061783,-689.485948
3835.425172,-11473.192101,0.000000,-153.219100
3835.425502,-11177.109724,-518.144159,-306.438199
3835.425831,-10881.027347,-370.102971,-306.438199
3835.426161,-10955.047942,-666.185348,-459.657299
3835.426491,-11547.212695,-592.164754,-919.314598
3835.426821,-10214.842000,-814.226536,-1685.410096
3835.427151,-9770.718434,-1702.473667,-1915.238745
3835.427480,-8512.368333,-1258.350101,-1915.238745
3835.427810,-8512.368333,-1480.411884,-76.609550
3835.428140,-9548.656652,-222.061783,0.000000
3835.428470,-8882.471304,-518.144159,-1072.533697
3835.428800,-9474.636058,-1406.391290,0.000000
3835.429129,-9844.739029,-666.185348,842.705048
3835.429459,-10510.924376,-1480.411884,1149.143247
3835.429789,-11621.233289,-1258.350101,536.266849
3835.430119,-10214.842000,-1554.432478,306.438199
3835.430449,-10066.800811,-2294.638420,0.000000
3835.430778,-8438.347739,-2146.597232,-306.438199
3835.431108,-7772.162391,-2072.576638,-536.266849
3835.431438,-8438.347739,-1406.391290,-229.828649
3835.431768,-7328.038826,-666.185348,0.000000
3835.432098,-8660.409521,0.000000,459.657299
3835.432428,-9030.512492,296.082377,-459.657299
3835.432757,-10732.986159,222.061783,-1378.971896
3835.433087,-11621.233289,-518.144159,-1302.362347
3835.433417,-11251.130318,-518.144159,-1762.019645
3835.433747,-11473.192101,-666.185348,-1378.971896
3835.434077,-9474.636058,-1480.411884,-1608.800546
3835.434406,-8068.244768,-1776.494261,-459.657299
3835.434736,-7994.224174,-740.205942,1455.581446
3835.435066,-9400.615463,-370.102971,2068.457845
3835.435396,-11621.233289,0.000000,1991.848295
3835.435726,-10510.924376,-444.123565,229.828649
3835.436055,-9548.656652,-222.061783,-306.438199
3835.436385,-10140.821405,-222.061783,-1225.752797
3835.436715,-10732.986159,-1332.370696,0.000000
3835.437045,-10732.986159,-148.041188,689.485948
3835.437375,-9696.697840,-444.123565,842.705048
3835.437704,-10288.862594,-444.123565,0.000000
3835.438034,-10584.944971,-518.144159,-766.095498
3835.438364,-11399.171507,-592.164754,229.828649
3835.438694,-10510.924376,-592.164754,1225.752797
3835.439024,-8216.285956,-962.267725,76.609550
3835.439353,-7328.038826,-962.267725,536.266849
3835.439683,-8808.450710,-148.041188,1225.752797
3835.440013,-10140.821405,-74.020594,689.485948
3835.440343,-10066.800811,592.164754,0.000000
3835.440673,-9992.780217,-740.205942,-612.876398
3835.441002,-9326.594869,-222.061783,229.828649
3835.441332,-9918.759623,-962.267725,1532.190996
3835.441662,-10584.944971,-444.123565,1838.629195
3835.441992,-8734.430116,-962.267725,0.000000
3835.442322,-8290.306550,-1110.308913,-1149.143247
3835.442651,-8956.491898,-444.123565,-766.095498
3835.442981,-8808.450710,-518.144159,229.828649
3835.443311,-8882.471304,518.144159,1455.581446
3835.443641,-9400.615463,740.205942,459.657299
3835.443971,-9992.780217,888.247130,-229.828649
3835.444301,-10140.821405,814.226536,0.000000
3835.444630,-11177.109724,444.123565,612.876398
3835.444960,-9770.718434,518.144159,1762.019645
3835.445290,-10140.821405,296.082377,2374.896044
3835.445620,-9918.759623,666.185348,1072.533697
3835.445950,-9104.533087,444.123565,842.705048
3835.446279,-10362.883188,888.247130,306.438199
3835.446609,-10658.965565,1406.391290,306.438199
3835.446939,-10362.883188,1924.535449,-153.219100
3835.447269,-9400.615463,2590.720797,-153.219100
3835.447599,-9474.636058,1628.453072,0.000000
3835.447928,-9770.718434,2738.761985,459.657299
3835.448258,-10881.027347,2886.803174,-153.219100
3835.448588,-10881.027347,2368.659014,-1532.190996
3835.448918,-10214.842000,2294.638420,0.000000
3835.449248,-10584.944971,1184.329507,1378.971896
3835.449577,-10584.944971,1628.453072,1608.800546
3835.449907,-10510.924376,370.102971,0.000000
3835.450237,-9030.512492,296.082377,-612.876398
3835.450567,-8364.327145,444.123565,0.000000
3835.450897,-9400.615463,962.267725,1149.143247
3835.451226,-9474.636058,444.123565,1378.971896
3835.451556,-9474.636058,888.247130,76.609550
3835.451886,-8660.409521,962.267725,0.000000
3835.452216,-9326.594869,444.123565,-76.609550
3835.452546,-10214.842000,814.226536,612.876398
3835.452875,-10584.944971,-148.041188,1455.581446
3835.453205,-9400.615463,518.144159,689.485948
3835.453535,-8068.244768,-296.082377,306.438199
3835.453865,-9474.636058,-370.102971,-383.047749
3835.454195,-9696.697840,148.041188,383.047749
3835.454524,-10584.944971,0.000000,612.876398
3835.454854,-10066.800811,518.144159,0.000000
3835.455184,-8956.491898,370.102971,0.000000
3835.455514,-9770.718434,0.000000,229.828649
3835.455844,-9030.512492,222.061783,229.828649
3835.456173,-10140.821405,740.205942,306.438199
3835.456503,-10140.821405,148.041188,-1378.971896
3835.456833,-9548.656652,74.020594,-1378.971896
3835.457163,-10658.965565,518.144159,-612.876398
3835.457493,-10066.800811,518.144159,-153.219100
3835.457823,-10807.006753,-222.061783,-689.485948
3835.458152,-10066.800811,-148.041188,-1225.752797
3835.458482,-10214.842000,-1332.370696,-842.705048
3835.458812,-10881.027347,-1036.288319,842.705048
3835.459142,-9548.656652,-1258.350101,1685.410096
3835.459472,-9178.553681,-1406.391290,1302.362347
3835.459801,-8586.388927,-1258.350101,76.609550
3835.460131,-9548.656652,-1258.350101,0.000000
3835.460461,-9844.739029,-888.247130,0.000000
3835.460791,-10436.903782,-1554.432478,-842.705048
3835.461121,-9326.594869,-1332.370696,-612.876398
3835.461450,-8512.368333,-2146.597232,766.095498
3835.461780,-9474.636058,-1258.350101,689.485948
3835.462110,-9548.656652,-1850.514855,1532.190996
3835.462440,-10066.800811,-1258.350101,459.657299
3835.462770,-9326.594869,-592.164754,0.000000
3835.463099,-9918.759623,-962.267725,-766.095498
3835.463429,-9770.718434,-962.267725,995.924147
3835.463759,-9474.636058,-444.123565,1455.581446
3835.464089,-10658.965565,74.020594,153.219100
3835.464419,-8956.491898,-148.041188,-1455.581446
3835.464748,-9252.574275,-444.123565,-1915.238745
3835.465078,-10140.821405,222.061783,-995.924147
3835.465408,-10584.944971,-518.144159,0.000000
3835.465738,-9992.780217,-518.144159,383.047749
3835.466068,-7772.162391,-592.164754,0.000000
3835.466397,-9030.512492,-444.123565,919.314598
3835.466727,-9770.718434,0.000000,1608.800546
3835.467057,-11103.089130,-222.061783,2374.896044
3835.467387,-10214.842000,444.123565,1378.971896
3835.467717,-9474.636058,74.020594,842.705048
3835.468046,-10140.821405,0.000000,995.924147
3835.468376,-10288.862594,-444.123565,766.095498
3835.468706,-9696.697840,74.020594,383.047749
3835.469036,-9030.512492,444.123565,76.609550
3835.469366,-9104.533087,666.185348,-76.609550
3835.469696,-8882.471304,814.226536,612.876398
3835.470025,-9104.533087,1110.308913,689.485948
3835.470355,-10140.821405,1776.494261,612.876398
3835.470685,-9696.697840,1480.411884,306.438199
3835.471015,-9770.718434,1628.453072,689.485948
3835.471345,-9844.739029,2368.659014,536.266849
3835.471674,-11399.171507,1998.556043,-536.266849
3835.472004,-11695.253884,2590.720797,-1149.143247
3835.472334,-10214.842000,1480.411884,-1608.800546
3835.472664,-9474.636058,888.247130,-1149.143247
3835.472994,-8364.327145,888.247130,-842.705048
3835.473323,-9252.574275,962.267725,229.828649
3835.473653,-9474.636058,1258.350101,-229.828649
3835.473983,-9326.594869,444.123565,-1072.533697
3835.474313,-8882.471304,1332.370696,-1072.533697
3835.474643,-9992.780217,814.226536,0.000000
3835.474972,-9992.780217,1110.308913,536.266849
3835.475302,-9548.656652,888.247130,1149.143247
3835.475632,-10732.986159,740.205942,689.485948
3835.475962,-10881.027347,222.061783,-689.485948
3835.476292,-10140.821405,0.000000,459.657299
3835.476621,-10214.842000,444.123565,306.438199
3835.476951,-9474.636058,0.000000,766.095498
3835.477281,-8808.450710,0.000000,842.705048
3835.477611,-8438.347739,148.041188,766.095498
3835.477941,-9252.574275,296.082377,459.657299
3835.478270,-10288.862594,1036.288319,76.609550
3835.478600,-10140.821405,888.247130,-76.609550
3835.478930,-9992.780217,814.226536,-229.828649
3835.479260,-10510.924376,1110.308913,0.000000
3835.479590,-11843.295072,222.061783,-612.876398
3835.479919,-10658.965565,74.020594,-689.485948
3835.480249,-10214.842000,222.061783,-1915.238745
3835.480579,-9622.677246,0.000000,-919.314598
3835.480909,-8956.491898,-814.226536,0.000000
3835.481239,-9030.512492,-592.164754,842.705048
3835.481568,-8142.265362,-740.205942,0.000000
3835.481898,-10140.821405,-592.164754,383.047749
3835.482228,-11029.068536,-444.123565,459.657299
3835.482558,-10881.027347,-518.144159,229.828649
3835.482888,-9992.780217,-962.267725,-383.047749
3835.483218,-9696.697840,-2072.576638,1072.533697
3835.483547,-9548.656652,-2516.700203,1685.410096
3835.483877,-8438.347739,-1998.556043,2451.505594
3835.484207,-9030.512492,-1554.432478,1838.629195
3835.484537,-10066.800811,-1036.288319,383.047749
3835.484867,-9918.759623,-1406.391290,-459.657299
3835.485196,-9474.636058,-666.185348,229.828649
3835.485526,-9696.697840,-222.061783,1072.533697
3835.485856,-9844.739029,-296.082377,153.219100
3835.486186,-9030.512492,0.000000,995.924147
3835.486516,-9844.739029,-370.102971,229.828649
3835.486845,-10140.821405,296.082377,153.219100
3835.487175,-11547.212695,592.164754,0.000000
3835.487505,-11917.315666,148.041188,-842.705048
3835.487835,-9918.759623,-592.164754,-1455.581446
3835.488165,-8364.327145,-888.247130,-842.705048
3835.488494,-7920.203579,-444.123565,612.876398
3835.488824,-10066.800811,0.000000,1225.752797
3835.489154,-9770.718434,-74.020594,459.657299
3835.489484,-9252.574275,-296.082377,-766.095498
3835.489814,-9104.533087,-888.247130,306.438199
3835.490143,-9696.697840,444.123565,1455.581446
3835.490473,-10732.986159,-962.267725,1608.800546
3835.490803,-9326.594869,-962.267725,612.876398
3835.491133,-8734.430116,-1184.329507,0.000000
3835.491463,-8956.491898,-296.082377,0.000000
3835.491792,-9844.739029,-666.185348,306.438199
3835.492122,-9992.780217,-222.061783,1225.752797
3835.492452,-9474.636058,222.061783,1455.581446
3835.492782,-10288.862594,740.205942,612.876398
3835.493112,-9178.553681,1110.308913,0.000000
3835.493441,-9252.574275,1110.308913,-766.095498
3835.493771,-9400.615463,1406.391290,-306.438199
3835.494101,-10732.986159,962.267725,76.609550
3835.494431,-11103.089130,1924.535449,-612.876398
3835.494761,-9992.780217,1036.288319,-842.705048
3835.495091,-10214.842000,1184.329507,-1685.410096
3835.495420,-9548.656652,962.267725,-1838.629195
3835.495750,-10288.862594,0.000000,-612.876398
3835.496080,-9252.574275,518.144159,0.000000
3835.496410,-9474.636058,814.226536,995.924147
3835.496740,-10362.883188,1480.411884,1149.143247
3835.497069,-9548.656652,666.185348,-229.828649
3835.497399,-10436.903782,962.267725,-1378.971896
3835.497729,-9548.656652,888.247130,-153.219100
3835.498059,-9770.718434,518.144159,383.047749
3835.498389,-8734.430116,-296.082377,919.314598
3835.498718,-8290.306550,0.000000,1378.971896
3835.499048,-9770.718434,74.020594,919.314598
3835.499378,-9548.656652,148.041188,1762.019645
3835.499708,-10732.986159,148.041188,1225.752797
3835.500038,-9696.697840,222.061783,1302.362347
3835.500367,-9104.533087,370.102971,995.924147
3835.500697,-9252.574275,74.020594,1302.362347
3835.501027,-8660.409521,592.164754,2451.505594
3835.501357,-9178.553681,444.123565,2298.286494
3835.501687,-10362.883188,1258.350101,153.219100
3835.502016,-10288.862594,1184.329507,-842.705048
3835.502346,-10807.006753,1628.453072,-842.705048
3835.502676,-10436.903782,1628.453072,-612.876398
3835.503006,-10510.924376,1036.288319,0.000000
3835.503336,-10214.842000,444.123565,-459.657299
3835.503665,-9548.656652,296.082377,-1225.752797
3835.503995,-9030.512492,222.061783,-842.705048
3835.504325,-9474.636058,296.082377,-76.609550
3835.504655,-9474.636058,222.061783,919.314598
3835.504985,-10362.883188,0.000000,536.266849
3835.505314,-11103.089130,222.061783,76.609550
3835.505644,-10584.944971,-962.267725,0.000000
3835.505974,-11029.068536,-1036.288319,459.657299
3835.506304,-9326.594869,-1258.350101,1378.971896
3835.506634,-8956.491898,-1776.494261,1685.410096
3835.506964,-9030.512492,-518.144159,2298.286494
3835.507293,-9992.780217,-666.185348,1225.752797
3835.507623,-10436.903782,-444.123565,-306.438199
3835.507953,-9326.594869,0.000000,-229.828649
3835.508283,-10066.800811,-148.041188,-153.219100
3835.508613,-9992.780217,370.102971,0.000000
3835.508942,-10288.862594,0.000000,-536.266849
3835.509272,-9400.615463,-740.205942,-1225.752797
3835.509602,-9548.656652,-666.185348,-995.924147
3835.509932,-10140.821405,-1036.288319,612.876398
3835.510262,-9696.697840,-666.185348,2145.067394
3835.510591,-9548.656652,0.000000,1915.238745
3835.510921,-8808.450710,-444.123565,306.438199
3835.511251,-9548.656652,-370.102971,-383.047749
3835.511581,-11399.171507,148.041188,0.000000
3835.511911,-10955.047942,0.000000,-536.266849
3835.512240,-9548.656652,0.000000,-1225.752797
3835.512570,-8512.368333,148.041188,-1915.238745
3835.512900,-9104.533087,-814.226536,-1149.143247
3835.513230,-9622.677246,-666.185348,-995.924147
3835.513560,-9770.718434,-1258.350101,-306.438199
3835.513889,-9918.759623,-1924.535449,919.314598
3835.514219,-8660.409521,-962.267725,1378.971896
3835.514549,-8364.327145,-1332.370696,2221.676944
3835.514879,-8438.347739,-444.123565,1302.362347
3835.515209,-10510.924376,-296.082377,0.000000
3835.515538,-10436.903782,-222.061783,-919.314598
3835.515868,-10066.800811,-222.061783,153.219100
3835.516198,-9548.656652,0.000000,1149.143247
3835.516527,-10140.821405,0.000000,1072.533697
3835.516857,-10955.047942,74.020594,0.000000
3835.517187,-9104.533087,0.000000,-1378.971896
3835.517516,-9326.594869,-666.185348,-2068.457845
3835.517846,-10066.800811,1036.288319,-612.876398
3835.518175,-10881.027347,518.144159,766.095498
3835.518505,-9918.759623,1628.453072,689.485948
3835.518835,-9030.512492,1628.453072,-383.047749
3835.519164,-10362.883188,962.267725,-1072.533697
3835.519494,-11843.295072,962.267725,-229.828649
3835.519824,-11769.274478,740.205942,-689.485948
3835.520153,-9918.759623,-222.061783,-383.047749
3835.520483,-8290.306550,296.082377,0.000000
3835.520813,-8808.450710,-592.164754,306.438199
3835.521142,-9252.574275,0.000000,842.705048
3835.521472,-9326.594869,148.041188,536.266849
3835.521801,-9252.574275,-296.082377,153.219100
3835.522131,-9474.636058,0.000000,689.485948
3835.522461,-10066.800811,148.041188,1838.629195
3835.522790,-10288.862594,666.185348,1838.629195
3835.523120,-9770.718434,518.144159,995.924147
3835.523450,-9400.615463,592.164754,76.609550
3835.523779,-9400.615463,0.000000,-459.657299
3835.524109,-7920.203579,1332.370696,1991.848295
3835.524438,-10362.883188,-370.102971,2757.943793
3835.524768,-10436.903782,740.205942,919.314598
3835.525098,-8290.306550,1184.329507,-306.438199
3835.525427,-10140.821405,1406.391290,0.000000
3835.525757,-11547.212695,2220.617826,766.095498
3835.526087,-12879.583391,1850.514855,0.000000
3835.526416,-10288.862594,1332.370696,-1532.190996
3835.526746,-7994.224174,740.205942,-1838.629195
3835.527075,-8882.471304,0.000000,536.266849
3835.527405,-10066.800811,740.205942,766.095498
3835.527735,-10807.006753,222.061783,0.000000
3835.528064,-8734.430116,0.000000,-1225.752797
3835.528394,-7846.182985,-222.061783,0.000000
3835.528724,-10288.862594,0.000000,1532.190996
3835.529053,-11473.192101,-296.082377,2068.457845
3835.529383,-9992.780217,-740.205942,76.609550
3835.529713,-7550.100608,-1036.288319,-306.438199
3835.530042,-10066.800811,-814.226536,612.876398
3835.530372,-11843.295072,296.082377,2221.676944
3835.530701,-11029.068536,-962.267725,1225.752797
3835.531031,-8660.409521,-962.267725,383.047749
3835.531361,-7402.059420,-1036.288319,0.000000
3835.531690,-9400.615463,-962.267725,612.876398
3835.532020,-10510.924376,148.041188,1149.143247
3835.532350,-10362.883188,-148.041188,229.828649
3835.532679,-8660.409521,-296.082377,-919.314598
3835.533009,-8956.491898,-518.144159,-1149.143247
3835.533338,-9918.759623,-1110.308913,689.485948
3835.533668,-11177.109724,444.123565,2298.286494
3835.533998,-10214.842000,148.041188,1915.238745
3835.534327,-9696.697840,518.144159,-919.314598
3835.534657,-9178.553681,-592.164754,-2451.505594
3835.534987,-10066.800811,-148.041188,-1608.800546
3835.535316,-11029.068536,148.041188,-383.047749
3835.535646,-10658.965565,222.061783,-766.095498
3835.535975,-9178.553681,0.000000,-2145.067394
3835.536305,-8808.450710,-888.247130,-1915.238745
3835.536635,-8734.430116,-148.041188,-919.314598
3835.536964,-10436.903782,-666.185348,0.000000
3835.537294,-10362.883188,-740.205942,-383.047749
3835.537624,-8956.491898,-1258.350101,-689.485948
3835.537953,-8882.471304,-1184.329507,1072.533697
3835.538283,-10214.842000,0.000000,3064.381992
3835.538613,-11621.233289,-814.226536,1302.362347
3835.538942,-9696.697840,-1184.329507,-459.657299
3835.539272,-8438.347739,-1406.391290,-842.705048
3835.539601,-8882.471304,-444.123565,1915.238745
3835.539931,-10140.821405,-518.144159,3830.477490
3835.540261,-10140.821405,0.000000,2145.067394
3835.540590,-8290.306550,370.102971,-689.485948
3835.540920,-8956.491898,0.000000,-1762.019645
3835.541250,-10140.821405,444.123565,153.219100
3835.541579,-12139.377449,370.102971,1149.143247
3835.541909,-11769.274478,962.267725,612.876398
3835.542238,-9770.718434,444.123565,-919.314598
3835.542568,-9770.718434,518.144159,-1302.362347
3835.542898,-9622.677246,444.123565,-612.876398
3835.543227,-10807.006753,1036.288319,612.876398
3835.543557,-10362.883188,666.185348,0.000000
3835.543887,-9474.636058,518.144159,-612.876398
3835.544216,-9178.553681,-296.082377,383.047749
3835.544546,-9844.739029,296.082377,1225.752797
3835.544875,-10955.047942,148.041188,842.705048
3835.545205,-10362.883188,-74.020594,-383.047749
3835.545535,-8882.471304,-740.205942,-1302.362347
3835.545864,-7846.182985,-370.102971,689.485948
3835.546194,-9474.636058,-740.205942,2834.553343
3835.546524,-10436.903782,296.082377,2757.943793
3835.546853,-9844.739029,296.082377,1302.362347
3835.547183,-8882.471304,-888.247130,153.219100
3835.547513,-8586.388927,74.020594,1608.800546
3835.547842,-11399.171507,518.144159,3753.867940
3835.548172,-11251.130318,962.267725,1838.629195
3835.548501,-8512.368333,370.102971,-1608.800546
3835.548831,-7179.997637,296.082377,-1838.629195
3835.549161,-9030.512492,1850.514855,536.266849
3835.549490,-12953.603985,1924.535449,1225.752797
3835.549820,-12065.356855,1554.432478,-995.924147
3835.550150,-9030.512492,74.020594,-2681.334243
3835.550479,-9030.512492,0.000000,-1225.752797
3835.550809,-10066.800811,0.000000,1225.752797
3835.551138,-11177.109724,444.123565,2145.067394
3835.551468,-9326.594869,0.000000,0.000000
3835.551798,-7254.018232,148.041188,-995.924147
3835.552127,-8660.409521,370.102971,0.000000
3835.552457,-11917.315666,888.247130,1072.533697
3835.552787,-12287.418637,296.082377,1072.533697
3835.553116,-10807.006753,-666.185348,0.000000
3835.553446,-9252.574275,-888.247130,-842.705048
3835.553775,-8216.285956,-666.185348,689.485948
3835.554105,-9326.594869,-1258.350101,1532.190996
3835.554435,-9548.656652,-222.061783,1072.533697
3835.554764,-8290.306550,-518.144159,-536.266849
3835.555094,-9030.512492,518.144159,-383.047749
3835.555424,-10362.883188,740.205942,689.485948
3835.555753,-11991.336260,666.185348,2221.676944
3835.556083,-10955.047942,592.164754,383.047749
3835.556413,-9770.718434,-296.082377,-1685.410096
3835.556742,-8808.450710,0.000000,-919.314598
3835.557072,-9252.574275,-444.123565,842.705048
3835.557401,-9844.739029,-296.082377,1838.629195
3835.557731,-8956.491898,74.020594,612.876398
3835.558061,-9178.553681,-148.041188,-995.924147
3835.558390,-9918.759623,444.123565,-995.924147
3835.558720,-10881.027347,814.226536,306.438199
3835.559050,-11177.109724,962.267725,766.095498
3835.559379,-10066.800811,222.061783,-459.657299
3835.559709,-8808.450710,-444.123565,-459.657299
3835.560038,-9252.574275,222.061783,766.095498
3835.560368,-10436.903782,0.000000,1378.971896
3835.560698,-9770.718434,0.000000,153.219100
3835.561027,-10362.883188,-148.041188,-1225.752797
3835.561357,-9548.656652,-444.123565,-383.047749
3835.561687,-8586.388927,-592.164754,1225.752797
3835.562016,-8808.450710,-592.164754,2068.457845
3835.562346,-9474.636058,296.082377,1838.629195
3835.562675,-9474.636058,0.000000,306.438199
3835.563005,-9178.553681,222.061783,536.266849
3835.563335,-10584.944971,444.123565,1302.362347
3835.563664,-10807.006753,740.205942,2221.676944
3835.563994,-10214.842000,518.144159,1378.971896
3835.564324,-9770.718434,-518.144159,76.609550
3835.564653,-8660.409521,0.000000,612.876398
3835.564983,-10214.842000,74.020594,1532.190996
3835.565313,-10362.883188,370.102971,995.924147
3835.565642,-10214.842000,74.020594,-536.266849
3835.565972,-9030.512492,296.082377,-766.095498
3835.566301,-9474.636058,370.102971,-459.657299
3835.566631,-11029.068536,370.102971,1149.143247
3835.566961,-9918.759623,1110.308913,0.000000
3835.567290,-9474.636058,-222.061783,-1762.019645
3835.567620,-9104.533087,592.164754,-1225.752797
3835.567950,-9770.718434,-222.061783,-153.219100
3835.568279,-10807.006753,0.000000,612.876398
3835.568609,-9326.594869,148.041188,0.000000
3835.568938,-9548.656652,-444.123565,-1072.533697
3835.569268,-9326.594869,74.020594,-612.876398
3835.569598,-9400.615463,-814.226536,306.438199
3835.569927,-9844.739029,-370.102971,536.266849
3835.570257,-9474.636058,-518.144159,-306.438199
3835.570587,-9178.553681,-592.164754,-229.828649
3835.570916,-9474.636058,-740.205942,-76.609550
3835.571246,-8956.491898,-592.164754,0.000000
3835.571575,-9326.594869,370.102971,612.876398
3835.571905,-9548.656652,-962.267725,0.000000
3835.572235,-9104.533087,148.041188,0.000000
3835.572564,-10436.903782,0.000000,612.876398
3835.572894,-11251.130318,518.144159,612.876398
3835.573224,-10955.047942,0.000000,-459.657299
3835.573553,-11177.109724,-222.061783,-1378.971896
3835.573883,-9474.636058,-444.123565,-919.314598
3835.574212,-9474.636058,-518.144159,-383.047749
3835.574542,-8068.244768,-296.082377,-306.438199
3835.574872,-8216.285956,-296.082377,-1149.143247
3835.575201,-8882.471304,222.061783,-1378.971896
3835.575531,-9918.759623,518.144159,-459.657299
3835.575861,-12139.377449,222.061783,153.219100
3835.576190,-11843.295072,0.000000,689.485948
3835.576520,-10510.924376,-888.247130,1072.533697
3835.576850,-8734.430116,-1406.391290,1072.533697
3835.577179,-8142.265362,-1702.473667,1378.971896
3835.577509,-9400.615463,-962.267725,1838.629195
3835.577838,-9548.656652,-444.123565,1225.752797
3835.578168,-10214.842000,-518.144159,0.000000
3835.578498,-9622.677246,296.082377,459.657299
3835.578827,-9474.636058,-222.061783,536.266849
3835.579157,-9030.512492,222.061783,1149.143247
3835.579487,-8586.388927,-222.061783,1149.143247
3835.579816,-10362.883188,0.000000,766.095498
3835.580146,-9992.780217,666.185348,612.876398
3835.580475,-10066.800811,222.061783,-383.047749
3835.580805,-9844.739029,740.205942,76.609550
3835.581135,-10362.883188,370.102971,76.609550
3835.581464,-10881.027347,888.247130,0.000000
3835.581794,-10140.821405,814.226536,0.000000
3835.582124,-10214.842000,518.144159,-1378.971896
3835.582453,-9622.677246,592.164754,-689.485948
3835.582783,-9918.759623,444.123565,-459.657299
3835.583112,-9844.739029,1406.391290,536.266849
3835.583442,-9992.780217,962.267725,-459.657299
3835.583772,-9548.656652,518.144159,-766.095498
3835.584101,-9992.780217,222.061783,0.000000
3835.584431,-10732.986159,222.061783,689.485948
3835.584761,-10288.862594,222.061783,1455.581446
3835.585090,-9252.574275,-296.082377,1302.362347
3835.585420,-8364.327145,-296.082377,919.314598
3835.585750,-8438.347739,222.061783,919.314598
3835.586079,-10214.842000,296.082377,306.438199
3835.586409,-10436.903782,296.082377,1225.752797
3835.586738,-9326.594869,370.102971,1685.410096
3835.587068,-8808.450710,1258.350101,1762.019645
3835.587398,-10510.924376,1332.370696,0.000000
3835.587727,-11103.089130,1036.288319,-459.657299
3835.588057,-10214.842000,888.247130,-459.657299
3835.588387,-10436.903782,740.205942,76.609550
3835.588716,-9844.739029,740.205942,-229.828649
3835.589046,-10362.883188,0.000000,536.266849
3835.589375,-9400.615463,-148.041188,1302.362347
3835.589705,-8956.491898,0.000000,1072.533697
3835.590035,-10436.903782,148.041188,0.000000
3835.590364,-10288.862594,74.020594,-1072.533697
3835.590694,-10436.903782,74.020594,-1991.848295
3835.591024,-9252.574275,592.164754,-306.438199
3835.591353,-8956.491898,-370.102971,-306.438199
3835.591683,-9252.574275,0.000000,-76.609550
3835.592012,-9326.594869,-740.205942,-1149.143247
3835.592342,-10066.800811,-1258.350101,612.876398
3835.592672,-9992.780217,-222.061783,1149.143247
3835.593001,-9104.533087,-1702.473667,766.095498
3835.593331,-8882.471304,-814.226536,1378.971896
3835.593661,-8882.471304,-1036.288319,1991.848295
3835.593990,-10436.903782,-148.041188,1378.971896
3835.594320,-10214.842000,-222.061783,-689.485948
3835.594650,-9474.636058,0.000000,-2298.286494
3835.594979,-8808.450710,0.000000,-1991.848295
3835.595309,-9844.739029,-666.185348,-766.095498
3835.595638,-10214.842000,370.102971,1225.752797
3835.595968,-9992.780217,-296.082377,229.828649
3835.596298,-9178.553681,-592.164754,-1532.190996
3835.596627,-8808.450710,-1184.329507,-1762.019645
3835.596957,-10066.800811,-814.226536,-536.266849
3835.597287,-9252.574275,0.000000,459.657299
3835.597616,-9844.739029,-518.144159,842.705048
3835.597946,-9104.533087,222.061783,689.485948
3835.598275,-10807.006753,0.000000,153.219100
3835.598605,-11843.295072,0.000000,-612.876398
3835.598935,-11769.274478,-814.226536,-766.095498
3835.599264,-10658.965565,-1998.556043,459.657299
3835.599594,-7254.018232,-1628.453072,1149.143247
3835.599924,-8142.265362,-1332.370696,1685.410096
3835.600253,-8660.409521,-148.041188,1685.410096
3835.600583,-9844.739029,-148.041188,459.657299
3835.600912,-10066.800811,-148.041188,0.000000
3835.601242,-8956.491898,0.000000,153.219100
3835.601572,-11029.068536,444.123565,1608.800546
3835.601901,-11325.150913,444.123565,2604.724693
3835.602231,-10658.965565,222.061783,1532.190996
3835.602561,-8290.306550,-518.144159,-306.438199
3835.602890,-8956.491898,74.020594,-766.095498
3835.603220,-11177.109724,962.267725,306.438199
3835.603550,-10732.986159,296.082377,612.876398
3835.603879,-9474.636058,888.247130,-383.047749
3835.604209,-7994.224174,592.164754,-1072.533697
3835.604538,-9178.553681,148.041188,-766.095498
3835.604868,-9178.553681,962.267725,459.657299
3835.605198,-9770.718434,1406.391290,0.000000
3835.605527,-9992.780217,888.247130,-1149.143247
3835.605857,-9030.512492,888.247130,-1302.362347
3835.606187,-9622.677246,-222.061783,-153.219100
3835.606516,-10140.821405,1036.288319,1149.143247
3835.606846,-10510.924376,-222.061783,1455.581446
3835.607175,-8808.450710,0.000000,536.266849
3835.607505,-7476.080014,296.082377,306.438199
3835.607835,-9474.636058,444.123565,1149.143247
3835.608164,-10658.965565,814.226536,1302.362347
3835.608494,-10955.047942,370.102971,153.219100
3835.608824,-8142.265362,1258.350101,-459.657299
3835.609153,-7920.203579,0.000000,0.000000
3835.609483,-10140.821405,888.247130,995.924147
3835.609812,-10881.027347,1110.308913,536.266849
3835.610142,-10807.006753,296.082377,-459.657299
3835.610472,-8734.430116,1036.288319,-1685.410096
3835.610801,-9622.677246,1184.329507,536.266849
3835.611131,-10732.986159,1702.473667,1991.848295
3835.611461,-10881.027347,740.205942,1762.019645
3835.611790,-9622.677246,740.205942,-229.828649
3835.612120,-8660.409521,518.144159,-1225.752797
3835.612450,-10955.047942,1036.288319,0.000000
3835.612779,-10955.047942,962.267725,2145.067394
3835.613109,-11695.253884,370.102971,1685.410096
3835.613438,-9548.656652,740.205942,-76.609550
3835.613768,-9622.677246,-296.082377,-459.657299
3835.614098,-10955.047942,222.061783,0.000000
3835.614427,-10658.965565,-74.020594,153.219100
3835.614758,-10066.800811,148.041188,-536.266849
3835.615088,-8290.306550,-148.041188,-536.266849
3835.615418,-9252.574275,-814.226536,-459.657299
3835.615748,-9400.615463,-592.164754,766.095498
3835.616077,-9992.780217,-1406.391290,1225.752797
3835.616407,-8808.450710,-888.247130,689.485948
3835.616737,-7402.059420,-962.267725,536.266849
3835.617066,-8956.491898,-518.144159,1302.362347
3835.617396,-9622.677246,-444.123565,2451.505594
3835.617726,-11325.150913,-74.020594,1302.362347
3835.618055,-11029.068536,-1036.288319,-689.485948
3835.618385,-10214.842000,-296.082377,-1455.581446
3835.618715,-9622.677246,-1258.350101,-842.705048
3835.619045,-9178.553681,-740.205942,919.314598
3835.619374,-9770.718434,-1036.288319,536.266849
3835.619704,-8882.471304,-148.041188,-1072.533697
3835.620034,-8586.388927,-814.226536,-2604.724693
3835.620363,-9252.574275,-222.061783,-1378.971896
3835.620693,-9178.553681,222.061783,612.876398
3835.621023,-10140.821405,0.000000,1225.752797
3835.621352,-11843.295072,296.082377,383.047749
3835.621682,-12065.356855,-666.185348,0.000000
3835.622012,-10510.924376,-666.185348,536.266849
3835.622341,-10510.924376,-962.267725,612.876398
3835.622671,-11029.068536,-1258.350101,766.095498
3835.623001,-9400.615463,-444.123565,612.876398
3835.623331,-8438.347739,-592.164754,76.609550
3835.623660,-8438.347739,370.102971,536.266849
3835.623990,-10288.862594,222.061783,-612.876398
3835.624320,-10362.883188,0.000000,-536.266849
3835.624649,-9548.656652,0.000000,306.438199
3835.624979,-10140.821405,0.000000,919.314598
3835.625309,-10214.842000,370.102971,995.924147
3835.625638,-11103.089130,-1036.288319,0.000000
3835.625968,-9326.594869,-592.164754,842.705048
3835.626298,-8956.491898,-740.205942,1991.848295
3835.626628,-8882.471304,148.041188,2451.505594
3835.626957,-9474.636058,-222.061783,1302.362347
3835.627287,-9696.697840,444.123565,-306.438199
3835.627617,-8956.491898,518.144159,-1685.410096
3835.627946,-9992.780217,-222.061783,-2221.676944
3835.628276,-9770.718434,444.123565,-995.924147
3835.628606,-9104.533087,296.082377,0.000000
3835.628935,-8660.409521,0.000000,0.000000
3835.629265,-9400.615463,296.082377,-306.438199
3835.629595,-10362.883188,-74.020594,-76.609550
3835.629924,-9992.780217,740.205942,383.047749
3835.630254,-10955.047942,740.205942,-153.219100
3835.630584,-10807.006753,592.164754,-383.047749
3835.630914,-9918.759623,-444.123565,0.000000
3835.631243,-8660.409521,0.000000,1302.362347
3835.631573,-8808.450710,-148.041188,1455.581446
3835.631903,-10288.862594,444.123565,76.609550
3835.632232,-9252.574275,518.144159,-919.314598
3835.632562,-8808.450710,-222.061783,-2528.115143
3835.632892,-8364.327145,888.247130,-1532.190996
3835.633221,-10066.800811,814.226536,1149.143247
3835.633551,-11769.274478,740.205942,1762.019645
3835.633881,-9992.780217,0.000000,536.266849
3835.634211,-9252.574275,-296.082377,536.266849
3835.634540,-9474.636058,814.226536,1225.752797
3835.634870,-10955.047942,444.123565,995.924147
3835.635200,-10955.047942,444.123565,1225.752797
3835.635529,-8660.409521,296.082377,306.438199
3835.635859,-9622.677246,1110.308913,153.219100
3835.636189,-10732.986159,666.185348,153.219100
3835.636518,-10881.027347,370.102971,-919.314598
3835.636848,-8660.409521,740.205942,-1149.143247
3835.637178,-9622.677246,518.144159,-612.876398
3835.637508,-9770.718434,370.102971,766.095498
3835.637837,-9252.574275,-814.226536,919.314598
3835.638167,-9400.615463,74.020594,766.095498
3835.638497,-9326.594869,814.226536,383.047749
3835.638826,-10288.862594,-1554.432478,1225.752797
3835.639156,-9474.636058,518.144159,3140.991542
3835.639486,-10510.924376,518.144159,3830.477490
3835.639815,-10510.924376,888.247130,3064.381992
3835.640145,-9622.677246,-222.061783,1532.190996
3835.640475,-10288.862594,370.102971,0.000000
3835.640804,-9326.594869,518.144159,-306.438199
3835.641134,-9992.780217,0.000000,-229.828649
3835.641464,-9548.656652,888.247130,0.000000
3835.641794,-8068.244768,0.000000,-229.828649
3835.642123,-10214.842000,1480.411884,842.705048
3835.642453,-10362.883188,296.082377,76.609550
3835.642783,-9918.759623,-296.082377,0.000000
3835.643112,-8956.491898,1110.308913,-229.828649
3835.643442,-10288.862594,0.000000,459.657299
3835.643772,-11103.089130,370.102971,1378.971896
3835.644101,-9844.739029,148.041188,1608.800546
3835.644431,-10140.821405,444.123565,306.438199
3835.644761,-9844.739029,0.000000,-1455.581446
3835.645091,-9770.718434,370.102971,-1838.629195
3835.645420,-9252.574275,74.020594,153.219100
3835.645750,-9548.656652,148.041188,383.047749
3835.646080,-9474.636058,370.102971,0.000000
3835.646409,-9474.636058,-518.144159,-1225.752797
3835.646739,-9770.718434,-222.061783,-995.924147
3835.647069,-8808.450710,-296.082377,229.828649
3835.647398,-10436.903782,-222.061783,1455.581446
3835.647728,-10807.006753,296.082377,1532.190996
3835.648058,-10881.027347,-444.123565,612.876398
3835.648387,-9474.636058,0.000000,-1072.533697
3835.648717,-9400.615463,-592.164754,-1302.362347
3835.649047,-10807.006753,0.000000,-995.924147
3835.649377,-9474.636058,222.061783,0.000000
3835.649706,-10436.903782,-592.164754,229.828649
3835.650036,-9104.533087,370.102971,0.000000
3835.650366,-9326.594869,-518.144159,-842.705048
3835.650695,-9400.615463,0.000000,-1378.971896
3835.651025,-9326.594869,-1258.350101,-1378.971896
3835.651355,-9844.739029,-962.267725,-459.657299
3835.651684,-9400.615463,-666.185348,919.314598
3835.652014,-10140.821405,-518.144159,1378.971896
3835.652344,-10214.842000,-444.123565,306.438199
3835.652674,-10658.965565,-1406.391290,-995.924147
3835.653003,-10214.842000,-1110.308913,-1302.362347
3835.653333,-10066.800811,-1110.308913,-766.095498
3835.653663,-9400.615463,-1776.494261,-76.609550
3835.653992,-7476.080014,-1406.391290,766.095498
3835.654322,-7846.182985,-1480.411884,153.219100
3835.654652,-8364.327145,-444.123565,306.438199
3835.654981,-10584.944971,-296.082377,-383.047749
3835.655311,-10066.800811,0.000000,-1455.581446
3835.655641,-8586.388927,-592.164754,-1072.533697
3835.655971,-10658.965565,-666.185348,229.828649
3835.656300,-9844.739029,-444.123565,1302.362347
3835.656630,-10807.006753,-1258.350101,1762.019645
3835.656960,-9030.512492,-296.082377,995.924147
3835.657289,-9252.574275,-370.102971,306.438199
3835.657619,-10066.800811,1110.308913,306.438199
3835.657949,-9622.677246,444.123565,0.000000
3835.658278,-9992.780217,518.144159,229.828649
3835.658608,-9178.553681,1406.391290,229.828649
3835.658938,-10807.006753,740.205942,-153.219100
3835.659267,-10881.027347,592.164754,689.485948
3835.659597,-10362.883188,296.082377,229.828649
3835.659927,-10584.944971,740.205942,842.705048
3835.660257,-10732.986159,444.123565,766.095498
3835.660586,-10732.986159,296.082377,1072.533697
3835.660916,-9548.656652,74.020594,1608.800546
3835.661246,-9548.656652,740.205942,1838.629195
3835.661575,-9548.656652,444.123565,2068.457845
3835.661905,-9548.656652,370.102971,2068.457845
3835.662235,-9844.739029,592.164754,1225.752797
3835.662564,-9104.533087,888.247130,689.485948
3835.662894,-9104.533087,962.267725,-306.438199
3835.663224,-9178.553681,666.185348,306.438199
3835.663554,-9992.780217,0.000000,1378.971896
3835.663883,-10584.944971,814.226536,2451.505594
3835.664213,-9844.739029,296.082377,1685.410096
3835.664543,-8956.491898,-444.123565,1225.752797
3835.664872,-8068.244768,962.267725,383.047749
3835.665202,-9104.533087,592.164754,1378.971896
3835.665532,-9548.656652,1628.453072,1532.190996
3835.665861,-9400.615463,1258.350101,536.266849
3835.666191,-9696.697840,1776.494261,-459.657299
3835.666521,-9178.553681,2368.659014,-536.266849
3835.666850,-11251.130318,1110.308913,-689.485948
3835.667180,-9178.553681,1924.535449,229.828649
3835.667510,-9992.780217,592.164754,-842.705048
3835.667840,-10214.842000,296.082377,-1149.143247
3835.668169,-10066.800811,74.020594,-1149.143247
3835.668499,-10807.006753,148.041188,0.000000
3835.668829,-10288.862594,74.020594,995.924147
3835.669158,-10066.800811,222.061783,1302.362347
3835.669488,-7550.100608,370.102971,766.095498
3835.669818,-8216.285956,370.102971,689.485948
3835.670147,-10140.821405,1110.308913,919.314598
3835.670477,-11843.295072,1036.288319,1149.143247
3835.670807,-11325.150913,962.267725,459.657299
3835.671137,-10066.800811,518.144159,383.047749
3835.671466,-9548.656652,0.000000,306.438199
3835.671796,-10288.862594,518.144159,842.705048
3835.672126,-10584.944971,0.000000,-1072.533697
3835.672455,-8660.409521,-518.144159,-1302.362347
3835.672785,-7179.997637,74.020594,-612.876398
3835.673115,-9400.615463,0.000000,536.266849
3835.673444,-10288.862594,962.267725,995.924147
3835.673774,-10362.883188,74.020594,229.828649
3835.674104,-9918.759623,296.082377,-1149.143247
3835.674434,-11399.171507,0.000000,-1302.362347
3835.674763,-11621.233289,-444.123565,536.266849
3835.675093,-11177.109724,-444.123565,842.705048
3835.675423,-9104.533087,-888.247130,-229.828649
3835.675752,-8068.244768,148.041188,-689.485948
3835.676082,-9696.697840,-1776.494261,-1991.848295
3835.676412,-9770.718434,-1036.288319,-1225.752797
3835.676741,-9844.739029,-1332.370696,76.609550
3835.677071,-10066.800811,-1628.453072,383.047749
3835.677401,-7624.121203,-1776.494261,-153.219100
3835.677730,-7994.224174,-2516.700203,-76.609550
3835.678060,-8586.388927,-962.267725,919.314598
3835.678390,-10955.047942,-1480.411884,689.485948
3835.678720,-11029.068536,-814.226536,0.000000
3835.679049,-9104.533087,-1554.432478,-842.705048
3835.679379,-9326.594869,-814.226536,-612.876398
3835.679709,-10658.965565,-1036.288319,842.705048
3835.680038,-10807.006753,-962.267725,-383.047749
3835.680368,-9178.553681,-1332.370696,-766.095498
3835.680698,-7105.977043,-666.185348,-1608.800546
3835.681027,-9474.636058,-296.082377,229.828649
3835.681357,-11917.315666,296.082377,766.095498
3835.681687,-11473.192101,-296.082377,-153.219100
3835.682017,-9178.553681,148.041188,-842.705048
3835.682346,-9474.636058,-592.164754,-766.095498
3835.682676,-11177.109724,0.000000,842.705048
3835.683006,-12065.356855,-296.082377,1149.143247
3835.683335,-10066.800811,-444.123565,-536.266849
3835.683665,-8808.450710,-518.144159,-919.314598
3835.683995,-10288.862594,-1110.308913,153.219100
3835.684324,-9992.780217,-444.123565,1532.190996
3835.684654,-9844.739029,-1036.288319,1149.143247
3835.684984,-7920.203579,-444.123565,0.000000
3835.685313,-7328.038826,-1554.432478,842.705048
3835.685643,-8956.491898,-370.102971,2221.676944
3835.685973,-10510.924376,0.000000,2451.505594
3835.686303,-11251.130318,370.102971,2068.457845
3835.686632,-9770.718434,148.041188,1302.362347
3835.686962,-9770.718434,-370.102971,766.095498
3835.687292,-9770.718434,888.247130,1149.143247
3835.687621,-10066.800811,296.082377,1072.533697
3835.687951,-8882.471304,296.082377,383.047749
3835.688281,-8068.244768,148.041188,229.828649
3835.688610,-9326.594869,1480.411884,306.438199
3835.688940,-10140.821405,2072.576638,842.705048
3835.689270,-11621.233289,1924.535449,-689.485948
3835.689600,-10066.800811,1480.411884,-1455.581446
3835.689929,-9030.512492,888.247130,-1225.752797
3835.690259,-10510.924376,1628.453072,0.000000
3835.690589,-11177.109724,222.061783,459.657299
3835.690918,-10807.006753,1110.308913,-1225.752797
3835.691248,-8882.471304,1184.329507,-2757.943793
3835.691578,-8882.471304,518.144159,-1762.019645
3835.691907,-9844.739029,1110.308913,1302.362347
3835.692237,-10881.027347,1184.329507,2374.896044
3835.692567,-10214.842000,370.102971,612.876398
3835.692897,-8142.265362,888.247130,-1762.019645
3835.693226,-9474.636058,370.102971,-919.314598
3835.693556,-11769.274478,1332.370696,1149.143247
3835.693886,-11029.068536,0.000000,2145.067394
3835.694215,-8586.388927,0.000000,1072.533697
3835.694545,-7328.038826,0.000000,536.266849
3835.694875,-9104.533087,1036.288319,1532.190996
3835.695204,-10658.965565,1332.370696,1608.800546
3835.695534,-11473.192101,1702.473667,-612.876398
3835.695864,-10732.986159,2072.576638,-2145.067394
3835.696193,-10584.944971,1110.308913,-995.924147
3835.696523,-10214.842000,1036.288319,459.657299
3835.696853,-9400.615463,666.185348,1302.362347
3835.697183,-8956.491898,592.164754,-459.657299
3835.697512,-9178.553681,1036.288319,-2834.553343
3835.697842,-9622.677246,0.000000,-2604.724693
3835.698172,-9770.718434,814.226536,153.219100
3835.698501,-10658.965565,0.000000,1915.238745
3835.698831,-10658.965565,74.020594,1149.143247
3835.699161,-9178.553681,0.000000,-306.438199
3835.699490,-9622.677246,-962.267725,-689.485948
3835.699820,-8660.409521,-1036.288319,536.266849
3835.700150,-9622.677246,-1036.288319,1608.800546
3835.700480,-9844.739029,-296.082377,2221.676944
3835.700809,-8882.471304,-1184.329507,2068.457845
3835.701139,-9548.656652,-666.185348,2221.676944
3835.701469,-9770.718434,-444.123565,1838.629195
3835.701798,-10955.047942,-888.247130,-153.219100
3835.702128,-9030.512492,-740.205942,-1608.800546
3835.702458,-8142.265362,-1702.473667,-995.924147
3835.702787,-8216.285956,-296.082377,2528.115143
3835.703117,-10066.800811,-148.041188,3447.429741
3835.703447,-10881.027347,74.020594,1838.629195
3835.703776,-9770.718434,222.061783,-1302.362347
3835.704106,-11029.068536,666.185348,-1608.800546
3835.704436,-11251.130318,148.041188,229.828649
3835.704766,-11325.150913,-296.082377,919.314598
3835.705095,-9770.718434,148.041188,229.828649
3835.705425,-8660.409521,-740.205942,-919.314598
3835.705755,-9770.718434,-888.247130,-2451.505594
3835.706084,-10140.821405,-666.185348,-1225.752797
3835.706414,-11473.192101,-222.061783,0.000000
3835.706744,-9696.697840,-814.226536,306.438199
3835.707073,-9326.594869,-1036.288319,0.000000
3835.707403,-9104.533087,-1702.473667,766.095498
3835.707733,-9326.594869,-1184.329507,1685.410096
3835.708063,-9770.718434,-1110.308913,1072.533697
3835.708392,-9622.677246,-888.247130,153.219100
3835.708722,-10066.800811,-740.205942,-153.219100
3835.709052,-9844.739029,-1036.288319,1838.629195
3835.709381,-10955.047942,-518.144159,1608.800546
3835.709711,-10807.006753,-1110.308913,1378.971896
3835.710041,-8660.409521,-518.144159,-76.609550
3835.710370,-7994.224174,-740.205942,-612.876398
3835.710700,-8808.450710,222.061783,-459.657299
3835.711030,-10732.986159,518.144159,383.047749
3835.711360,-11251.130318,1480.411884,-536.266849
3835.711689,-10214.842000,370.102971,-2298.286494
3835.712019,-10214.842000,148.041188,-1991.848295
3835.712349,-9992.780217,0.000000,0.000000
3835.712678,-9918.759623,-222.061783,919.314598
3835.713008,-8882.471304,148.041188,-76.609550
3835.713338,-8438.347739,-814.226536,-1072.533697
3835.713667,-8956.491898,74.020594,459.657299
3835.713997,-10658.965565,222.061783,1685.410096
3835.714327,-11029.068536,518.144159,0.000000
3835.714656,-9474.636058,370.102971,-1915.238745
3835.714986,-8290.306550,-666.185348,-2451.505594
3835.715316,-8068.244768,0.000000,-919.314598
3835.715646,-10510.924376,296.082377,229.828649
3835.715975,-10436.903782,-148.041188,842.705048
3835.716305,-9178.553681,-592.164754,0.000000
3835.716635,-8142.265362,-444.123565,153.219100
3835.716964,-8882.471304,74.020594,2145.067394
3835.717294,-9992.780217,592.164754,1991.848295
3835.717624,-9696.697840,592.164754,1149.143247
3835.717953,-9696.697840,518.144159,0.000000
3835.718283,-9696.697840,1036.288319,1072.533697
3835.718612,-11399.171507,1406.391290,1302.362347
3835.718942,-11843.295072,1332.370696,1225.752797
3835.719272,-10658.965565,1998.556043,-842.705048
3835.719601,-9030.512492,666.185348,-2757.943793
3835.719931,-9474.636058,888.247130,-1915.238745
3835.720261,-9918.759623,370.102971,689.485948
3835.720590,-9622.677246,518.144159,1915.238745
3835.720920,-9474.636058,1110.308913,306.438199
3835.721250,-10140.821405,296.082377,-919.314598
3835.721579,-9770.718434,740.205942,383.047749
3835.721909,-10288.862594,740.205942,1378.971896
3835.722239,-10584.944971,1110.308913,1072.533697
3835.722568,-10140.821405,0.000000,229.828649
3835.722898,-9844.739029,370.102971,689.485948
3835.723227,-8734.430116,-222.061783,1378.971896
3835.723557,-9770.718434,-740.205942,995.924147
3835.723887,-9992.780217,222.061783,153.219100
3835.724216,-8586.388927,-1184.329507,-612.876398
3835.724546,-7254.018232,-370.102971,-306.438199
3835.724876,-7179.997637,0.000000,1838.629195
3835.725205,-10436.903782,370.102971,1991.848295
3835.725535,-11251.130318,888.247130,995.924147
3835.725865,-11029.068536,592.164754,-919.314598
3835.726194,-9474.636058,518.144159,229.828649
3835.726524,-10807.006753,444.123565,1838.629195
3835.726854,-11029.068536,370.102971,2145.067394
3835.727183,-8882.471304,296.082377,995.924147
3835.727513,-8882.471304,370.102971,-153.219100
3835.727842,-9548.656652,370.102971,0.000000
3835.728172,-11029.068536,740.205942,306.438199
3835.728502,-9992.780217,814.226536,153.219100
3835.728831,-8882.471304,-296.082377,-842.705048
3835.729161,-9548.656652,592.164754,383.047749
3835.729491,-11177.109724,222.061783,1685.410096
3835.729820,-12287.418637,0.000000,1378.971896
3835.730150,-10214.842000,592.164754,-229.828649
3835.730480,-9104.533087,-518.144159,-1915.238745
3835.730809,-9474.636058,222.061783,-459.657299
3835.731139,-9992.780217,0.000000,1455.581446
3835.731468,-10288.862594,-740.205942,2374.896044
3835.731798,-8216.285956,-296.082377,1149.143247
3835.732128,-8512.368333,-222.061783,-306.438199
3835.732457,-8956.491898,0.000000,153.219100
3835.732787,-10214.842000,-74.020594,383.047749
3835.733117,-10288.862594,74.020594,1762.019645
3835.733446,-9992.780217,-518.144159,153.219100
3835.733776,-10214.842000,148.041188,-766.095498
3835.734106,-10510.924376,0.000000,383.047749
3835.734435,-10881.027347,-666.185348,1225.752797
3835.734765,-9178.553681,370.102971,1072.533697
3835.735095,-8956.491898,296.082377,-76.609550
3835.735424,-9178.553681,666.185348,-766.095498
3835.735754,-9844.739029,0.000000,-766.095498
3835.736083,-9622.677246,0.000000,-383.047749
3835.736413,-9770.718434,370.102971,-612.876398
3835.736743,-10584.944971,-74.020594,-2145.067394
3835.737072,-9696.697840,222.061783,-1685.410096
3835.737402,-9696.697840,-296.082377,-1072.533697
3835.737732,-9030.512492,-222.061783,-1378.971896
3835.738061,-9252.574275,-888.247130,-1225.752797
3835.738391,-9252.574275,-1258.350101,-612.876398
3835.738721,-8142.265362,-1776.494261,919.314598
3835.739050,-9844.739029,-888.247130,995.924147
3835.739380,-9918.759623,0.000000,1149.143247
3835.739709,-9252.574275,-740.205942,-459.657299
3835.740039,-9844.739029,-296.082377,-383.047749
3835.740369,-8660.409521,-592.164754,-153.219100
3835.740698,-9770.718434,-222.061783,2068.457845
3835.741028,-11769.274478,-592.164754,689.485948
3835.741358,-10807.006753,-1110.308913,-995.924147
3835.741687,-8808.450710,518.144159,-1072.533697
3835.742017,-9030.512492,-444.123565,-612.876398
3835.742347,-10510.924376,-148.041188,383.047749
3835.742676,-10214.842000,666.185348,1762.019645
3835.743006,-10955.047942,0.000000,1302.362347
3835.743336,-10510.924376,666.185348,229.828649
3835.743665,-10584.944971,0.000000,-76.609550
3835.743995,-10510.924376,1036.288319,-459.657299
3835.744324,-10658.965565,0.000000,0.000000
3835.744654,-9844.739029,518.144159,153.219100
3835.744984,-8438.347739,-370.102971,612.876398
3835.745313,-9548.656652,148.041188,1072.533697
3835.745643,-9844.739029,-222.061783,1378.971896
3835.745973,-10584.944971,-444.123565,-76.609550
3835.746302,-9104.533087,-296.082377,-459.657299
3835.746632,-8808.450710,-740.205942,995.924147
3835.746962,-9326.594869,0.000000,1915.238745
3835.747291,-9548.656652,0.000000,2834.553343
3835.747621,-10140.821405,296.082377,2604.724693
3835.747951,-8882.471304,222.061783,1072.533697
3835.748280,-9918.759623,666.185348,-536.266849
3835.748610,-10510.924376,370.102971,1378.971896
3835.748939,-10140.821405,444.123565,459.657299
3835.749269,-9400.615463,0.000000,766.095498
3835.749599,-7994.224174,148.041188,76.609550
3835.749928,-8734.430116,0.000000,0.000000
3835.750258,-9178.553681,814.226536,306.438199
3835.750588,-9178.553681,296.082377,689.485948
3835.750917,-10140.821405,1184.329507,919.314598
3835.751247,-10436.903782,1258.350101,689.485948
3835.751577,-11103.089130,666.185348,689.485948
3835.751906,-11251.130318,1406.391290,536.266849
3835.752236,-10807.006753,370.102971,-459.657299
3835.752565,-10066.800811,740.205942,-689.485948
3835.752895,-8734.430116,296.082377,-306.438199
3835.753225,-9844.739029,962.267725,0.000000
3835.753554,-9992.780217,740.205942,-919.314598
3835.753884,-9474.636058,518.144159,-1991.848295
3835.754214,-9474.636058,1110.308913,-1532.190996
3835.754543,-9844.739029,296.082377,-766.095498
3835.754873,-10436.903782,444.123565,306.438199
3835.755203,-10140.821405,-444.123565,842.705048
3835.755532,-10140.821405,0.000000,153.219100
3835.755862,-8882.471304,-518.144159,383.047749
3835.756192,-9030.512492,-740.205942,229.828649
3835.756521,-9030.512492,0.000000,1378.971896
3835.756851,-9474.636058,0.000000,1455.581446
3835.757180,-9104.533087,444.123565,1455.581446
3835.757510,-8956.491898,148.041188,76.609550
3835.757840,-10362.883188,370.102971,0.000000
3835.758169,-9844.739029,592.164754,-229.828649
3835.758499,-10066.800811,-740.205942,-536.266849
3835.758829,-9104.533087,444.123565,-153.219100
3835.759158,-9474.636058,222.061783,306.438199
3835.759488,-10362.883188,592.164754,459.657299
3835.759818,-9918.759623,222.061783,-536.266849
3835.760147,-10510.924376,148.041188,-689.485948
3835.760477,-10288.862594,444.123565,-229.828649
3835.760806,-11177.109724,222.061783,-612.876398
3835.761136,-9696.697840,222.061783,-995.924147
3835.761466,-8882.471304,-592.164754,-1225.752797
3835.761795,-9474.636058,0.000000,-153.219100
3835.762125,-10436.903782,-518.144159,0.000000
3835.762455,-10584.944971,-444.123565,76.609550
3835.762784,-8068.244768,-1850.514855,306.438199
3835.763114,-7624.121203,-1776.494261,842.705048
3835.763444,-9178.553681,-666.185348,2987.772442
3835.763773,-11251.130318,-1110.308913,2911.162892
3835.764103,-10140.821405,-1332.370696,1838.629195
3835.764433,-8216.285956,-1258.350101,689.485948
3835.764762,-10362.883188,-444.123565,842.705048
3835.765092,-10510.924376,-592.164754,1532.190996
3835.765421,-11251.130318,-296.082377,1532.190996
3835.765751,-8512.368333,666.185348,306.438199
3835.766081,-8364.327145,148.041188,-1072.533697
3835.766410,-10140.821405,518.144159,-1072.533697
3835.766740,-12361.439231,296.082377,-306.438199
3835.767070,-12139.377449,296.082377,-842.705048
3835.767399,-9548.656652,148.041188,-995.924147
3835.767729,-9178.553681,-666.185348,-766.095498
3835.768059,-10066.800811,0.000000,-76.609550
3835.768388,-10510.924376,-370.102971,0.000000
3835.768718,-9326.594869,-444.123565,-459.657299
3835.769048,-8216.285956,-444.123565,-1149.143247
3835.769377,-8882.471304,-444.123565,229.828649
3835.769707,-9326.594869,-888.247130,1225.752797
3835.770036,-9918.759623,-666.185348,1302.362347
3835.770366,-9400.615463,-1110.308913,536.266849
3835.770696,-9400.615463,-740.205942,-689.485948
3835.771025,-9992.780217,-740.205942,0.000000
3835.771355,-8956.491898,-74.020594,1149.143247
3835.771685,-8808.450710,0.000000,459.657299
3835.772014,-9252.574275,1406.391290,995.924147
3835.772344,-10510.924376,444.123565,76.609550
3835.772674,-10288.862594,1258.350101,-459.657299
3835.773003,-9696.697840,1110.308913,0.000000
3835.773333,-11251.130318,592.164754,229.828649
3835.773662,-9474.636058,1258.350101,-383.047749
3835.773992,-9178.553681,444.123565,-153.219100
3835.774322,-9696.697840,1258.350101,1225.752797
3835.774651,-11103.089130,814.226536,2068.457845
3835.774981,-11399.171507,740.205942,383.047749
3835.775311,-9474.636058,370.102971,-919.314598
3835.775640,-9178.553681,518.144159,0.000000
3835.775970,-9844.739029,370.102971,1762.019645
3835.776300,-11177.109724,370.102971,1608.800546
3835.776629,-9770.718434,518.144159,459.657299
3835.776959,-9030.512492,0.000000,0.000000
3835.777289,-9400.615463,296.082377,153.219100
3835.777618,-10288.862594,296.082377,1685.410096
3835.777948,-10955.047942,1184.329507,1378.971896
3835.778277,-9474.636058,148.041188,0.000000
3835.778607,-8290.306550,-444.123565,-229.828649
3835.778937,-9104.533087,888.247130,995.924147
3835.779266,-11177.109724,444.123565,1455.581446
3835.779596,-10510.924376,0.000000,-536.266849
3835.779926,-7550.100608,222.061783,-1225.752797
3835.780255,-8364.327145,-222.061783,-153.219100
3835.780585,-9252.574275,740.205942,2068.457845
3835.780915,-10732.986159,1110.308913,2604.724693
3835.781244,-11177.109724,1332.370696,919.314598
3835.781574,-9548.656652,814.226536,-306.438199
3835.781903,-10214.842000,814.226536,-995.924147
3835.782233,-11103.089130,888.247130,-306.438199
3835.782563,-12287.418637,1258.350101,0.000000
3835.782892,-10436.903782,740.205942,-536.266849
3835.783222,-8364.327145,-370.102971,-2987.772442
3835.783552,-8808.450710,74.020594,-2374.896044
3835.783881,-8734.430116,-222.061783,-1378.971896
3835.784211,-9770.718434,296.082377,0.000000
3835.784541,-9474.636058,296.082377,-306.438199
3835.784870,-9400.615463,-740.205942,-612.876398
3835.785200,-10140.821405,148.041188,689.485948
3835.785530,-12139.377449,-666.185348,1378.971896
3835.785859,-11991.336260,-1332.370696,612.876398
3835.786189,-10214.842000,-2072.576638,1225.752797
3835.786518,-8512.368333,-1998.556043,1072.533697
3835.786848,-7550.100608,-1184.329507,1915.238745
3835.787178,-8142.265362,-814.226536,1455.581446
3835.787507,-8586.388927,-296.082377,0.000000
3835.787837,-8882.471304,-148.041188,-1838.629195
3835.788167,-10732.986159,592.164754,-842.705048
3835.788496,-10955.047942,222.061783,-306.438199
3835.788826,-11103.089130,-518.144159,-383.047749
3835.789156,-9252.574275,-296.082377,-1225.752797
3835.789485,-9400.615463,-1036.288319,-842.705048
3835.789815,-9252.574275,74.020594,153.219100
3835.790144,-9474.636058,-592.164754,995.924147
3835.790474,-9548.656652,148.041188,1532.190996
3835.790804,-9992.780217,296.082377,1378.971896
3835.791133,-11251.130318,74.020594,153.219100
3835.791463,-10807.006753,0.000000,536.266849
3835.791793,-9992.780217,-222.061783,-153.219100
3835.792122,-9178.553681,-740.205942,-995.924147
3835.792452,-8956.491898,-1332.370696,-766.095498
3835.792782,-9992.780217,-888.247130,842.705048
3835.793111,-8734.430116,-962.267725,1378.971896
3835.793441,-8956.491898,-592.164754,689.485948
3835.793771,-9844.739029,74.020594,459.657299
3835.794100,-10214.842000,74.020594,536.266849
3835.794430,-9474.636058,0.000000,1302.362347
3835.794759,-9104.533087,-1036.288319,1532.190996
3835.795089,-10510.924376,0.000000,1455.581446
3835.795419,-9770.718434,0.000000,995.924147
3835.795748,-9696.697840,148.041188,-306.438199
3835.796078,-9548.656652,1628.453072,-536.266849
3835.796408,-11029.068536,222.061783,0.000000
3835.796737,-10436.903782,962.267725,0.000000
3835.797067,-9030.512492,1036.288319,-459.657299
3835.797397,-10658.965565,666.185348,0.000000
3835.797726,-9030.512492,518.144159,689.485948
3835.798056,-9104.533087,296.082377,153.219100
3835.798386,-9918.759623,888.247130,-229.828649
3835.798715,-10436.903782,444.123565,-229.828649
3835.799045,-11029.068536,296.082377,229.828649
3835.799374,-9474.636058,0.000000,766.095498
3835.799704,-10066.800811,666.185348,1072.533697
3835.800034,-10288.862594,0.000000,995.924147
3835.800363,-10584.944971,-148.041188,76.609550
3835.800693,-8586.388927,0.000000,0.000000
3835.801023,-7624.121203,-148.041188,153.219100
3835.801352,-9474.636058,-74.020594,1302.362347
3835.801682,-9474.636058,592.164754,2298.286494
3835.802012,-10066.800811,444.123565,1608.800546
3835.802341,-9548.656652,1554.432478,-153.219100
3835.802671,-10807.006753,666.185348,-1302.362347
3835.803000,-11325.150913,962.267725,-766.095498
3835.803330,-10066.800811,148.041188,306.438199
3835.803660,-10510.924376,370.102971,995.924147
3835.803989,-8956.491898,814.226536,0.000000
3835.804319,-9104.533087,0.000000,-995.924147
3835.804649,-8438.347739,888.247130,-1225.752797
3835.804978,-9400.615463,518.144159,-459.657299
3835.805308,-11325.150913,1554.432478,919.314598
3835.805638,-10732.986159,740.205942,459.657299
3835.805967,-9474.636058,0.000000,536.266849
3835.806297,-8734.430116,592.164754,-229.828649
3835.806627,-11251.130318,370.102971,-919.314598
3835.806956,-10807.006753,444.123565,-766.095498
3835.807286,-9474.636058,-296.082377,-919.314598
3835.807615,-8956.491898,370.102971,0.000000
3835.807945,-9918.759623,-222.061783,1685.410096
3835.808275,-11695.253884,74.020594,842.705048
3835.808604,-9104.533087,-296.082377,536.266849
3835.808934,-7772.162391,-148.041188,-76.609550
3835.809264,-8142.265362,592.164754,919.314598
3835.809593,-11103.089130,-222.061783,2221.676944
3835.809923,-11251.130318,444.123565,1915.238745
3835.810253,-9918.759623,518.144159,919.314598
3835.810582,-10140.821405,0.000000,0.000000
3835.810912,-10214.842000,296.082377,-383.047749
3835.811241,-10510.924376,0.000000,-383.047749
3835.811571,-9548.656652,296.082377,306.438199
3835.811901,-9326.594869,0.000000,0.000000
3835.812230,-9622.677246,-444.123565,229.828649
3835.812560,-9400.615463,0.000000,76.609550
3835.812890,-9474.636058,-444.123565,689.485948
3835.813219,-9178.553681,148.041188,995.924147
3835.813549,-10658.965565,-370.102971,76.609550
3835.813879,-10214.842000,0.000000,-612.876398
3835.814208,-9030.512492,-1184.329507,0.000000
3835.814538,-10140.821405,-296.082377,689.485948
3835.814868,-9918.759623,-444.123565,995.924147
3835.815197,-10658.965565,-962.267725,459.657299
3835.815527,-9548.656652,-148.041188,-306.438199
3835.815856,-8882.471304,-1036.288319,0.000000
3835.816186,-9770.718434,370.102971,459.657299
3835.816516,-10436.903782,-74.020594,0.000000
3835.816845,-9992.780217,-1258.350101,-536.266849
3835.817175,-8216.285956,-740.205942,536.266849
3835.817505,-9252.574275,-1332.370696,995.924147
3835.817834,-10436.903782,-444.123565,1532.190996
3835.818164,-9696.697840,-666.185348,536.266849
3835.818494,-9548.656652,-296.082377,76.609550
3835.818823,-9474.636058,74.020594,76.609550
3835.819153,-11769.274478,-74.020594,0.000000
3835.819483,-10732.986159,370.102971,76.609550
3835.819812,-9104.533087,0.000000,-612.876398
3835.820142,-8068.244768,74.020594,-766.095498
3835.820472,-9474.636058,370.102971,-153.219100
3835.820801,-10807.006753,518.144159,-766.095498
3835.821131,-9918.759623,0.000000,-1455.581446
3835.821461,-8660.409521,-888.247130,-1838.629195
3835.821790,-8290.306550,148.041188,-153.219100
3835.822120,-9992.780217,-888.247130,1302.362347
3835.822450,-10436.903782,0.000000,2298.286494
3835.822779,-9696.697840,-592.164754,1378.971896
3835.823109,-10288.862594,-740.205942,153.219100
3835.823439,-10140.821405,222.061783,0.000000
3835.823768,-11547.212695,0.000000,0.000000
3835.824098,-9844.739029,444.123565,383.047749
3835.824428,-8586.388927,444.123565,-689.485948
3835.824757,-8512.368333,444.123565,-1378.971896
3835.825087,-8660.409521,0.000000,-1378.971896
3835.825417,-9844.739029,148.041188,0.000000
3835.825746,-9474.636058,444.123565,842.705048
3835.826076,-10214.842000,-148.041188,306.438199
3835.826406,-9178.553681,592.164754,689.485948
3835.826735,-9326.594869,-148.041188,1072.533697
3835.827065,-10881.027347,1110.308913,1149.143247
3835.827395,-10066.800811,0.000000,842.705048
3835.827724,-10881.027347,74.020594,229.828649
3835.828054,-9474.636058,814.226536,1532.190996
3835.828383,-10362.883188,370.102971,842.705048
3835.828713,-10214.842000,1110.308913,-229.828649
3835.829043,-9622.677246,518.144159,-1608.800546
3835.829372,-8142.265362,0.000000,-2528.115143
3835.829702,-8290.306550,0.000000,-229.828649
3835.830032,-9696.697840,296.082377,1225.752797
3835.830361,-10807.006753,666.185348,1225.752797
3835.830691,-10881.027347,222.061783,0.000000
3835.831021,-9622.677246,148.041188,-459.657299
3835.831350,-9844.739029,-740.205942,229.828649
3835.831680,-11103.089130,0.000000,1532.190996
3835.832010,-10066.800811,-740.205942,2068.457845
3835.832339,-9326.594869,0.000000,1302.362347
3835.832669,-8290.306550,296.082377,842.705048
3835.832999,-9918.759623,0.000000,76.609550
3835.833328,-10362.883188,518.144159,0.000000
3835.833658,-9844.739029,518.144159,-229.828649
3835.833988,-9474.636058,-74.020594,-229.828649
3835.834317,-8364.327145,296.082377,229.828649
3835.834647,-10658.965565,-370.102971,1149.143247
3835.834977,-9918.759623,296.082377,1532.190996
3835.835306,-9400.615463,-296.082377,-383.047749
3835.835636,-9400.615463,0.000000,459.657299
3835.835966,-10066.800811,296.082377,1378.971896
3835.836295,-11547.212695,962.267725,1685.410096
3835.836625,-9918.759623,222.061783,2451.505594
3835.836955,-9400.615463,0.000000,536.266849
3835.837284,-9918.759623,592.164754,76.609550
3835.837614,-10732.986159,222.061783,153.219100
3835.837944,-10881.027347,814.226536,689.485948
3835.838273,-9326.594869,-296.082377,-306.438199
3835.838603,-9548.656652,-888.247130,-536.266849
3835.838933,-9178.553681,0.000000,306.438199
3835.839262,-9696.697840,-962.267725,536.266849
3835.839592,-9252.574275,222.061783,-76.609550
3835.839922,-8882.471304,-222.061783,-1225.752797
3835.840251,-9474.636058,0.000000,153.219100
3835.840581,-9622.677246,0.000000,612.876398
3835.840911,-10658.965565,74.020594,1685.410096
3835.841240,-9178.553681,-74.020594,1532.190996
3835.841570,-10214.842000,0.000000,306.438199
3835.841899,-9992.780217,296.082377,0.000000
3835.842229,-9696.697840,148.041188,0.000000
3835.842559,-10658.965565,222.061783,1149.143247
3835.842888,-9622.677246,592.164754,919.314598
3835.843218,-9696.697840,444.123565,-689.485948
3835.843548,-8808.450710,1406.391290,-2221.676944
3835.843877,-9696.697840,74.020594,-612.876398
3835.844207,-9696.697840,1480.411884,766.095498
3835.844537,-10362.883188,666.185348,229.828649
3835.844866,-10955.047942,296.082377,-1685.410096
3835.845196,-8956.491898,74.020594,-1991.848295
3835.845526,-9178.553681,0.000000,-842.705048
3835.845855,-9622.677246,666.185348,612.876398
3835.846185,-11103.089130,148.041188,383.047749
3835.846515,-9844.739029,0.000000,229.828649
3835.846844,-9252.574275,0.000000,0.000000
3835.847174,-9918.759623,222.061783,536.266849
3835.847504,-10362.883188,-74.020594,536.266849
3835.847833,-10066.800811,-296.082377,612.876398
3835.848163,-8956.491898,0.000000,76.609550
3835.848493,-8216.285956,-444.123565,0.000000
3835.848822,-8290.306550,-518.144159,536.266849
3835.849152,-9622.677246,0.000000,689.485948
3835.849482,-10140.821405,0.000000,766.095498
3835.849811,-8586.388927,222.061783,-153.219100
3835.850141,-9178.553681,0.000000,306.438199
3835.850471,-9252.574275,518.144159,1532.190996
3835.850800,-11621.233289,740.205942,842.705048
3835.851130,-12213.398043,0.000000,612.876398
3835.851460,-9992.780217,-740.205942,-76.609550
3835.851789,-9400.615463,-370.102971,-612.876398
3835.852119,-8882.471304,1036.288319,0.000000
3835.852449,-10584.944971,74.020594,689.485948
3835.852778,-9474.636058,1406.391290,-76.609550
3835.853108,-9548.656652,222.061783,-1072.533697
3835.853438,-10807.006753,1702.473667,-919.314598
3835.853767,-11621.233289,740.205942,383.047749
3835.854097,-11695.253884,0.000000,76.609550
3835.854427,-8956.491898,-666.185348,-689.485948
3835.854756,-9178.553681,-740.205942,0.000000
3835.855086,-9030.512492,-444.123565,1378.971896
3835.855415,-9844.739029,-296.082377,1991.848295
3835.855745,-9548.656652,-444.123565,1532.190996
3835.856075,-8882.471304,-814.226536,1225.752797
3835.856404,-10140.821405,-666.185348,1991.848295
3835.856734,-10510.924376,-444.123565,2987.772442
3835.857064,-10732.986159,-740.205942,2374.896044
3835.857393,-9548.656652,-592.164754,612.876398
3835.857723,-7550.100608,-814.226536,-306.438199
3835.858053,-8734.430116,-592.164754,0.000000
3835.858382,-10288.862594,74.020594,995.924147
3835.858712,-10881.027347,0.000000,1072.533697
3835.859042,-9548.656652,1036.288319,612.876398
3835.859371,-10066.800811,518.144159,-689.485948
3835.859701,-11103.089130,592.164754,76.609550
3835.860031,-11843.295072,740.205942,306.438199
3835.860360,-10955.047942,518.144159,-1455.581446
3835.860690,-9178.553681,296.082377,-2757.943793
3835.861020,-9030.512492,-74.020594,-2068.457845
3835.861349,-9474.636058,-296.082377,76.609550
3835.861679,-10436.903782,-222.061783,1685.410096
3835.862009,-10436.903782,-518.144159,76.609550
3835.862338,-8734.430116,-814.226536,-766.095498
3835.862668,-8142.265362,-1702.473667,-1149.143247
3835.862998,-8068.244768,-1184.329507,459.657299
3835.863327,-9696.697840,-814.226536,2068.457845
3835.863657,-9474.636058,0.000000,1991.848295
3835.863987,-9030.512492,-518.144159,766.095498
3835.864316,-9326.594869,-370.102971,153.219100
3835.864646,-9992.780217,0.000000,-153.219100
3835.864976,-11177.109724,370.102971,0.000000
3835.865305,-9548.656652,1258.350101,-536.266849
3835.865635,-9030.512492,0.000000,-536.266849
3835.865965,-8882.471304,1406.391290,-459.657299
3835.866294,-9696.697840,592.164754,-306.438199
3835.866624,-11103.089130,888.247130,-689.485948
3835.866954,-10288.862594,962.267725,-1072.533697
3835.867283,-10140.821405,666.185348,-153.219100
3835.867613,-9770.718434,1036.288319,306.438199
3835.867942,-10436.903782,1184.329507,-76.609550
3835.868272,-9918.759623,962.267725,0.000000
3835.868602,-9104.533087,148.041188,-689.485948
3835.868931,-9252.574275,0.000000,0.000000
3835.869261,-10510.924376,370.102971,1149.143247
3835.869591,-11325.150913,74.020594,459.657299
3835.869920,-10584.944971,148.041188,-383.047749
3835.870250,-8586.388927,-370.102971,-1149.143247
3835.870580,-8216.285956,0.000000,459.657299
3835.870909,-9622.677246,0.000000,2451.505594
3835.871239,-10214.842000,0.000000,2374.896044
3835.871569,-8660.409521,-296.082377,536.266849
3835.871898,-8290.306550,-592.164754,-842.705048
3835.872228,-9770.718434,444.123565,1149.143247
3835.872558,-12213.398043,0.000000,2221.676944
3835.872887,-11177.109724,74.020594,2145.067394
3835.873217,-8660.409521,444.123565,919.314598
3835.873547,-8882.471304,0.000000,-383.047749
3835.873876,-9030.512492,148.041188,229.828649
3835.874206,-10214.842000,518.144159,612.876398
3835.874536,-9992.780217,1036.288319,459.657299
3835.874865,-11103.089130,1184.329507,229.828649
3835.875195,-11177.109724,666.185348,0.000000
3835.875525,-9992.780217,74.020594,0.000000
3835.875854,-9918.759623,-74.020594,0.000000
3835.876184,-9844.739029,740.205942,-612.876398
3835.876514,-10436.903782,-1036.288319,-1378.971896
3835.876843,-9548.656652,0.000000,-459.657299
3835.877173,-8586.388927,-370.102971,612.876398
3835.877503,-10436.903782,296.082377,995.924147
3835.877832,-10214.842000,-814.226536,-995.924147
3835.878162,-9104.533087,-1332.370696,-689.485948
3835.878492,-7254.018232,-666.185348,1072.533697
3835.878821,-9548.656652,-962.267725,2374.896044
3835.879151,-11177.109724,-370.102971,2681.334243
3835.879481,-10140.821405,-1036.288319,1149.143247
3835.879810,-8882.471304,-592.164754,-229.828649
3835.880140,-9030.512492,-444.123565,-229.828649
3835.880470,-11177.109724,-222.061783,0.000000
3835.880799,-9400.615463,0.000000,842.705048
3835.881129,-8364.327145,0.000000,-229.828649
3835.881458,-9326.594869,962.267725,-76.609550
3835.881788,-10732.986159,1258.350101,-689.485948
3835.882118,-11473.192101,592.164754,-1072.533697
3835.882447,-9622.677246,888.247130,-1838.629195
3835.882777,-10807.006753,370.102971,-766.095498
3835.883107,-10658.965565,814.226536,766.095498
3835.883436,-9548.656652,-592.164754,766.095498
3835.883766,-8956.491898,518.144159,-76.609550
3835.884096,-8808.450710,370.102971,-1915.238745
3835.884425,-10510.924376,814.226536,-1455.581446
3835.884755,-9992.780217,814.226536,-536.266849
3835.885085,-10436.903782,74.020594,0.000000
3835.885414,-10436.903782,370.102971,-306.438199
3835.885744,-10214.842000,-962.267725,-536.266849
3835.886074,-10140.821405,-518.144159,-383.047749
3835.886403,-7698.141797,-1036.288319,76.609550
3835.886733,-8290.306550,-1036.288319,1455.581446
3835.887063,-9474.636058,518.144159,2374.896044
3835.887392,-10658.965565,222.061783,1378.971896
3835.887722,-9030.512492,-592.164754,76.609550
3835.888052,-9474.636058,222.061783,766.095498
3835.888381,-11547.212695,296.082377,1685.410096
3835.888711,-10140.821405,-370.102971,229.828649
3835.889041,-8586.388927,-1332.370696,-612.876398
3835.889370,-7624.121203,296.082377,0.000000
3835.889700,-9548.656652,814.226536,536.266849
3835.890030,-10807.006753,666.185348,229.828649
3835.890359,-10510.924376,814.226536,-766.095498
3835.890689,-9992.780217,888.247130,0.000000
3835.891019,-10140.821405,740.205942,536.266849
3835.891348,-10510.924376,0.000000,0.000000
3835.891678,-9178.553681,740.205942,153.219100
3835.892008,-8808.450710,518.144159,-153.219100
3835.892337,-10658.965565,814.226536,536.266849
3835.892667,-11621.233289,148.041188,383.047749
3835.892997,-10658.965565,74.020594,-306.438199
3835.893326,-8956.491898,0.000000,229.828649
3835.893656,-10140.821405,-814.226536,459.657299
3835.893985,-10288.862594,0.000000,1455.581446
3835.894315,-9696.697840,-740.205942,1762.019645
3835.894645,-8512.368333,-74.020594,1149.143247
3835.894974,-8290.306550,-370.102971,459.657299
3835.895304,-10807.006753,0.000000,306.438199
3835.895634,-9770.718434,0.000000,459.657299
3835.895963,-9178.553681,0.000000,536.266849
3835.896293,-8068.244768,148.041188,1149.143247
3835.896623,-9696.697840,-666.185348,1072.533697
3835.896952,-11103.089130,148.041188,689.485948
3835.897282,-10066.800811,148.041188,0.000000
3835.897612,-10362.883188,-222.061783,-1072.533697
3835.897941,-9770.718434,148.041188,-536.266849
3835.898271,-9696.697840,296.082377,-383.047749
3835.898601,-8438.347739,962.267725,383.047749
3835.898930,-8586.388927,740.205942,0.000000
3835.899260,-9770.718434,1110.308913,306.438199
3835.899590,-10584.944971,444.123565,76.609550
3835.899919,-11695.253884,0.000000,-612.876398
3835.900249,-10436.903782,74.020594,-383.047749
3835.900579,-10436.903782,0.000000,689.485948
3835.900908,-9474.636058,0.000000,1072.533697
3835.901238,-9178.553681,0.000000,306.438199
3835.901568,-10807.006753,-148.041188,0.000000
3835.901897,-10362.883188,0.000000,-689.485948
3835.902227,-8438.347739,-888.247130,-612.876398
3835.902557,-8364.327145,0.000000,766.095498
3835.902886,-9252.574275,-518.144159,1608.800546
3835.903216,-10140.821405,0.000000,2451.505594
3835.903546,-9030.512492,-814.226536,995.924147
3835.903875,-9770.718434,-888.247130,-459.657299
3835.904205,-9696.697840,0.000000,689.485948
3835.904535,-10807.006753,148.041188,1378.971896
3835.904864,-9326.594869,518.144159,1378.971896
3835.905194,-8438.347739,74.020594,383.047749
3835.905524,-10066.800811,74.020594,0.000000
3835.905853,-11029.068536,-148.041188,612.876398
3835.906183,-10362.883188,-592.164754,612.876398
3835.906513,-7846.182985,0.000000,766.095498
3835.906842,-8586.388927,592.164754,-306.438199
3835.907172,-9548.656652,1184.329507,-153.219100
3835.907501,-10362.883188,518.144159,-1302.362347
3835.907831,-11103.089130,1110.308913,-1225.752797
3835.908161,-11473.192101,592.164754,-459.657299
3835.908490,-11769.274478,-296.082377,-306.438199
3835.908820,-8956.491898,-222.061783,919.314598
3835.909150,-8438.347739,-1480.411884,1225.752797
3835.909479,-9104.533087,74.020594,459.657299
3835.909809,-9992.780217,-370.102971,0.000000
3835.910139,-9696.697840,222.061783,-536.266849
3835.910468,-8808.450710,74.020594,0.000000
3835.910798,-10066.800811,0.000000,1532.190996
3835.911128,-9844.739029,814.226536,2298.286494
3835.911457,-10584.944971,148.041188,0.000000
3835.911787,-9474.636058,-444.123565,-612.876398
3835.912117,-8882.471304,-370.102971,-919.314598
3835.912446,-10436.903782,0.000000,612.876398
3835.912776,-9178.553681,370.102971,612.876398
3835.913106,-8364.327145,444.123565,153.219100
3835.913435,-8142.265362,1554.432478,306.438199
3835.913765,-10510.924376,1036.288319,383.047749
3835.914095,-11695.253884,1480.411884,1302.362347
3835.914424,-10510.924376,888.247130,842.705048
3835.914754,-10362.883188,444.123565,-383.047749
3835.915084,-8808.450710,1332.370696,-459.657299
3835.915413,-9252.574275,0.000000,0.000000
3835.915743,-9844.739029,1628.453072,1225.752797
3835.916073,-9844.739029,666.185348,1225.752797
3835.916402,-10732.986159,888.247130,1838.629195
3835.916732,-9548.656652,1036.288319,1685.410096
3835.917062,-9696.697840,592.164754,2298.286494
3835.917391,-9474.636058,666.185348,2451.505594
3835.917721,-10436.903782,444.123565,1762.019645
3835.918051,-10658.965565,814.226536,1302.362347
3835.918380,-9178.553681,518.144159,383.047749
3835.918710,-9030.512492,666.185348,995.924147
3835.919039,-9030.512492,1184.329507,2298.286494
3835.919369,-9400.615463,370.102971,2528.115143
3835.919699,-8882.471304,1258.350101,2757.943793
3835.920028,-9474.636058,1480.411884,3064.381992
3835.920358,-10584.944971,2294.638420,2834.553343
3835.920688,-9770.718434,2294.638420,2681.334243
3835.921017,-10214.842000,2072.576638,2221.676944
3835.921347,-10510.924376,3182.885551,2068.457845
3835.921677,-10584.944971,2220.617826,2221.676944
3835.922006,-10732.986159,3256.906145,2298.286494
3835.922336,-10140.821405,2146.597232,766.095498
3835.922666,-9548.656652,2220.617826,689.485948
3835.922995,-9844.739029,1554.432478,1915.238745
3835.923325,-8734.430116,1406.391290,2145.067394
3835.923655,-8586.388927,1924.535449,3370.820191
3835.923984,-9474.636058,2220.617826,3524.039291
3835.924314,-10140.821405,1406.391290,3600.648841
3835.924644,-10436.903782,1924.535449,3217.601092
3835.924973,-10066.800811,1480.411884,3140.991542
3835.925303,-11769.274478,1332.370696,4290.134789
3835.925632,-12361.439231,2220.617826,3753.867940
3835.925962,-9030.512492,1258.350101,842.705048
3835.926292,-7624.121203,2294.638420,-842.705048
3835.926621,-7031.956449,2664.741391,-1072.533697
3835.926951,-9548.656652,2442.679609,766.095498
3835.927281,-10955.047942,3108.864956,2374.896044
3835.927610,-8142.265362,2960.823768,3294.210641
3835.927940,-9474.636058,2516.700203,4213.525239
3835.928270,-11103.089130,3108.864956,2681.334243
3835.928599,-12213.398043,3034.844362,2451.505594
3835.928929,-11473.192101,2368.659014,2221.676944
3835.929259,-9474.636058,2664.741391,1378.971896
3835.929588,-8808.450710,2146.597232,2298.286494
3835.929918,-9770.718434,3552.988522,3524.039291
3835.930248,-10362.883188,2960.823768,2451.505594
3835.930577,-8956.491898,1924.535449,2221.676944
3835.930907,-7994.224174,2590.720797,1991.848295
3835.931236,-8882.471304,2294.638420,3217.601092
3835.931566,-9400.615463,1628.453072,5056.230287
3835.931896,-9770.718434,3108.864956,4060.306139
3835.932225,-10288.862594,2368.659014,2451.505594
3835.932555,-10881.027347,2368.659014,1302.362347
3835.932885,-11917.315666,3552.988522,-229.828649
3835.933214,-10881.027347,2294.638420,1149.143247
3835.933544,-10658.965565,3182.885551,3217.601092
3835.933874,-10658.965565,3108.864956,3830.477490
3835.934203,-8808.450710,1850.514855,3983.696590
3835.934533,-8512.368333,1850.514855,2528.115143
3835.934863,-8660.409521,1924.535449,1378.971896
3835.935192,-9030.512492,1110.308913,2145.067394
3835.935522,-9178.553681,2072.576638,2987.772442
3835.935852,-9474.636058,1850.514855,3830.477490
3835.936181,-9844.739029,2516.700203,3600.648841
3835.936511,-11103.089130,3182.885551,2834.553343
3835.936841,-11769.274478,2738.761985,995.924147
3835.937170,-10584.944971,2442.679609,1072.533697
3835.937500,-9030.512492,2368.659014,1532.190996
3835.937829,-8808.450710,1258.350101,3753.867940
3835.938159,-9622.677246,2220.617826,4366.744339
3835.938489,-9326.594869,1036.288319,2911.162892
3835.938818,-7624.121203,1184.329507,153.219100
3835.939148,-7624.121203,1776.494261,-306.438199
3835.939478,-10362.883188,2146.597232,689.485948
3835.939807,-10807.006753,2886.803174,2757.943793
3835.940137,-10955.047942,2294.638420,2757.943793
3835.940467,-8808.450710,2516.700203,3064.381992
3835.940796,-8512.368333,1998.556043,2451.505594
3835.941126,-10436.903782,1554.432478,1455.581446
3835.941456,-10584.944971,1184.329507,1838.629195
3835.941785,-9770.718434,1258.350101,3217.601092
3835.942115,-8068.244768,962.267725,3677.258390
3835.942445,-8734.430116,1332.370696,3140.991542
3835.942774,-9178.553681,2072.576638,3064.381992
3835.943104,-9918.759623,3330.926739,1915.238745
3835.943434,-11029.068536,3701.029710,1302.362347
3835.943763,-11991.336260,3997.112087,689.485948
3835.944093,-11325.150913,3108.864956,1072.533697
3835.944422,-11103.089130,2960.823768,2451.505594
3835.944752,-11251.130318,1850.514855,2298.286494
3835.945082,-10510.924376,814.226536,2528.115143
3835.945411,-8068.244768,814.226536,2834.553343
3835.945741,-7179.997637,888.247130,3294.210641
3835.946071,-7920.203579,1480.411884,4673.182538
3835.946400,-10066.800811,2812.782580,4136.915689
3835.946730,-9474.636058,2812.782580,3140.991542
3835.947060,-9918.759623,2886.803174,2834.553343
3835.947389,-11399.171507,3256.906145,2374.896044
3835.947719,-13101.645173,2368.659014,2145.067394
3835.948049,-11917.315666,1924.535449,1762.019645
3835.948378,-8882.471304,814.226536,1455.581446
3835.948708,-7772.162391,518.144159,2681.334243
3835.949038,-8068.244768,1776.494261,2528.115143
3835.949367,-8512.368333,1628.453072,689.485948
3835.949697,-8364.327145,2220.617826,-612.876398
3835.950026,-7846.182985,1924.535449,0.000000
3835.950356,-8808.450710,2442.679609,2145.067394
3835.950686,-9770.718434,1554.432478,3983.696590
3835.951015,-10881.027347,1850.514855,3217.601092
3835.951345,-9770.718434,1406.391290,1302.362347
3835.951675,-9770.718434,1036.288319,1915.238745
3835.952004,-10362.883188,1406.391290,2834.553343
3835.952334,-9918.759623,1258.350101,4443.353888
3835.952664,-10288.862594,2960.823768,4060.306139
3835.952993,-9474.636058,2516.700203,1532.190996
3835.953323,-8290.306550,2146.597232,0.000000
3835.953653,-9474.636058,2812.782580,153.219100
3835.953982,-10807.006753,2960.823768,1915.238745
3835.954312,-10955.047942,2516.700203,2604.724693
3835.954642,-9326.594869,2960.823768,1455.581446
3835.954971,-8068.244768,1702.473667,1149.143247
3835.955301,-10436.903782,1998.556043,3140.991542
3835.955631,-11547.212695,2590.720797,3830.477490
3835.955960,-10658.965565,1776.494261,4826.401637
3835.956290,-9918.759623,2442.679609,4903.011187
3835.956619,-11029.068536,3478.967927,4213.525239
3835.956949,-10955.047942,2294.638420,3907.087040
3835.957279,-10510.924376,3182.885551,1991.848295
3835.957608,-9474.636058,2812.782580,0.000000
3835.957938,-9252.574275,1628.453072,766.095498
3835.958268,-8512.368333,2664.741391,2604.724693
3835.958597,-9252.574275,2072.576638,3370.820191
3835.958927,-8734.430116,2220.617826,2221.676944
3835.959257,-9178.553681,2294.638420,0.000000
3835.959586,-9770.718434,1406.391290,383.047749
3835.959916,-9622.677246,1554.432478,3217.601092
3835.960246,-9252.574275,1776.494261,4366.744339
3835.960575,-8290.306550,1332.370696,5898.935335
3835.960905,-9104.533087,2664.741391,5132.839837
3835.961235,-9918.759623,3478.967927,2604.724693
3835.961564,-10658.965565,3108.864956,383.047749
3835.961894,-11473.192101,3627.009116,-536.266849
3835.962223,-10510.924376,2664.741391,1072.533697
3835.962553,-9770.718434,2368.659014,2757.943793
3835.962883,-9548.656652,1776.494261,2145.067394
3835.963212,-9030.512492,1184.329507,1532.190996
3835.963542,-8364.327145,1184.329507,766.095498
3835.963872,-8364.327145,2072.576638,153.219100
3835.964201,-9252.574275,2368.659014,919.314598
3835.964531,-10362.883188,3330.926739,3140.991542
3835.964861,-10881.027347,2442.679609,3753.867940
3835.965190,-11177.109724,2442.679609,3524.039291
3835.965520,-11103.089130,2294.638420,2374.896044
3835.965850,-11843.295072,1702.473667,2298.286494
3835.966179,-11103.089130,2072.576638,3370.820191
3835.966509,-9252.574275,2146.597232,3294.210641
3835.966839,-8290.306550,2294.638420,1915.238745
3835.967168,-8216.285956,1776.494261,1991.848295
3835.967498,-9474.636058,2664.741391,1532.190996
3835.967828,-10658.965565,3182.885551,1915.238745
3835.968157,-10955.047942,3701.029710,536.266849
3835.968487,-10955.047942,2146.597232,-536.266849
3835.968816,-10732.986159,1554.432478,-612.876398
3835.969146,-9918.759623,666.185348,1455.581446
3835.969476,-7550.100608,-666.185348,2757.943793
3835.969805,-7179.997637,370.102971,3677.258390
3835.970135,-7105.977043,296.082377,4213.525239
3835.970465,-8660.409521,1036.288319,3370.820191
3835.970794,-9178.553681,2368.659014,2681.334243
3835.971124,-9770.718434,2516.700203,2221.676944
3835.971454,-11251.130318,2886.803174,2604.724693
3835.971783,-11917.315666,2516.700203,2451.505594
3835.972113,-11547.212695,2294.638420,2451.505594
3835.972443,-9770.718434,1776.494261,1302.362347
3835.972772,-9252.574275,1184.329507,383.047749
3835.973102,-9400.615463,814.226536,1149.143247
3835.973432,-9104.533087,2072.576638,2681.334243
3835.973761,-8364.327145,1850.514855,4290.134789
3835.974091,-9030.512492,2368.659014,4213.525239
3835.974420,-9770.718434,2294.638420,2145.067394
3835.974750,-10807.006753,2146.597232,995.924147
3835.975080,-11325.150913,1628.453072,1378.971896
3835.975409,-11103.089130,1554.432478,2374.896044
3835.975739,-10214.842000,888.247130,3830.477490
3835.976069,-8956.491898,1480.411884,3907.087040
3835.976398,-8956.491898,1998.556043,2298.286494
3835.976728,-8142.265362,2072.576638,1762.019645
3835.977058,-9326.594869,2442.679609,2068.457845
3835.977387,-9844.739029,2664.741391,1991.848295
3835.977717,-10288.862594,2738.761985,1532.190996
3835.978047,-10584.944971,3330.926739,1991.848295
3835.978376,-10732.986159,2294.638420,2221.676944
3835.978706,-10140.821405,1924.535449,1149.143247
3835.979036,-9178.553681,888.247130,0.000000
3835.979365,-8956.491898,962.267725,76.609550
3835.979695,-9252.574275,740.205942,1915.238745
3835.980025,-9400.615463,1036.288319,3677.258390
3835.980354,-9474.636058,888.247130,3294.210641
3835.980684,-9696.697840,962.267725,1915.238745
3835.981013,-9178.553681,1406.391290,306.438199
3835.981343,-9918.759623,1036.288319,995.924147
3835.981673,-10140.821405,1036.288319,1608.800546
3835.982002,-9548.656652,888.247130,1685.410096
3835.982332,-9252.574275,1184.329507,1915.238745
3835.982662,-9844.739029,1258.350101,995.924147
3835.982991,-10066.800811,1184.329507,995.924147
3835.983321,-10066.800811,1332.370696,1302.362347
3835.983651,-10066.800811,1258.350101,1149.143247
3835.983980,-9474.636058,1184.329507,1762.019645
3835.984310,-9474.636058,1184.329507,1838.629195
3835.984640,-9400.615463,1036.288319,1991.848295
3835.984969,-9770.718434,666.185348,1072.533697
3835.985299,-9474.636058,518.144159,919.314598
3835.985629,-8586.388927,518.144159,1302.362347
3835.985958,-8660.409521,518.144159,2834.553343
3835.986288,-9104.533087,1258.350101,3753.867940
3835.986618,-8956.491898,1776.494261,4290.134789
3835.986947,-9548.656652,2220.617826,3524.039291
3835.987277,-10510.924376,2442.679609,3064.381992
3835.987606,-11399.171507,2812.782580,1991.848295
3835.987936,-11547.212695,2960.823768,2221.676944
3835.988266,-11029.068536,2812.782580,2298.286494
3835.988595,-9918.759623,2442.679609,2451.505594
3835.988925,-9252.574275,2294.638420,2298.286494
3835.989255,-8882.471304,2294.638420,3140.991542
3835.989584,-8586.388927,2516.700203,4443.353888
3835.989914,-9030.512492,3330.926739,4826.401637
3835.990244,-10288.862594,3997.112087,4596.572988
3835.990573,-11103.089130,3552.988522,4213.525239
3835.990903,-11621.233289,4219.173869,3600.648841
3835.991233,-11399.171507,3552.988522,3677.258390
3835.991562,-10881.027347,3108.864956,3600.648841
3835.991892,-10288.862594,3182.885551,3907.087040
3835.992222,-9326.594869,2886.803174,3524.039291
3835.992551,-8586.388927,3552.988522,2068.457845
3835.992881,-8512.368333,3775.050304,2221.676944
3835.993210,-8808.450710,3923.091493,2911.162892
3835.993540,-9474.636058,4515.256246,3524.039291
3835.993870,-9400.615463,4441.235652,3907.087040
3835.994199,-9992.780217,4293.194464,3983.696590
3835.994529,-10362.883188,4293.194464,3370.820191
3835.994859,-10288.862594,4367.215058,2604.724693
3835.995188,-10658.965565,4589.276840,2451.505594
3835.995518,-10288.862594,3775.050304,1838.629195
3835.995848,-9400.615463,3997.112087,2298.286494
3835.996177,-8956.491898,3849.070898,2451.505594
3835.996507,-9622.677246,3849.070898,2451.505594
3835.996837,-8660.409521,3108.864956,1608.800546
3835.997166,-8142.265362,3182.885551,1072.533697
3835.997496,-7698.141797,3627.009116,1685.410096
3835.997826,-8734.430116,4145.153275,2834.553343
3835.998155,-10510.924376,4515.256246,2757.943793
3835.998485,-11177.109724,4737.318029,1225.752797
3835.998815,-11473.192101,4367.215058,0.000000
3835.999144,-11325.150913,4071.132681,76.609550
3835.999474,-11325.150913,3552.988522,1915.238745
3835.999803,-10881.027347,3034.844362,2681.334243
3836.000133,-9326.594869,2960.823768,2451.505594
3836.000463,-8438.347739,2590.720797,689.485948
3836.000792,-8438.347739,2738.761985,536.266849
3836.001122,-9178.553681,2368.659014,383.047749
3836.001452,-9400.615463,2664.741391,1149.143247
3836.001781,-9252.574275,2590.720797,2374.896044
3836.002111,-9548.656652,2812.782580,2604.724693
3836.002441,-10584.944971,2294.638420,2604.724693
3836.002770,-11473.192101,2146.597232,2221.676944
3836.003100,-11103.089130,1258.350101,995.924147
3836.003430,-10066.800811,1258.350101,1149.143247
3836.003759,-9474.636058,1036.288319,2528.115143
3836.004089,-8882.471304,888.247130,3677.258390
3836.004419,-8956.491898,814.226536,2681.334243
3836.004748,-8808.450710,740.205942,2068.457845
3836.005078,-8734.430116,962.267725,0.000000
3836.005407,-8956.491898,1110.308913,459.657299
3836.005737,-9622.677246,1480.411884,2374.896044
3836.006067,-10436.903782,1036.288319,3677.258390
3836.006396,-10732.986159,148.041188,3447.429741
3836.006726,-10362.883188,0.000000,1838.629195
3836.007056,-10140.821405,-148.041188,1225.752797
3836.007385,-10362.883188,-888.247130,2834.553343
3836.007715,-9770.718434,-592.164754,3677.258390
3836.008045,-8734.430116,-222.061783,3064.381992
3836.008374,-8438.347739,-592.164754,2374.896044
3836.008704,-9178.553681,148.041188,1838.629195
3836.009034,-10510.924376,-370.102971,1072.533697
3836.009363,-11473.192101,-518.144159,842.705048
3836.009693,-10066.800811,-370.102971,842.705048
3836.010023,-9252.574275,-740.205942,1532.190996
3836.010352,-8882.471304,-592.164754,2298.286494
3836.010682,-9400.615463,-1332.370696,3064.381992
3836.011012,-9474.636058,-370.102971,3140.991542
3836.011341,-9696.697840,-740.205942,2298.286494
3836.011671,-9252.574275,814.226536,3140.991542
3836.012000,-9622.677246,814.226536,4443.353888
3836.012330,-11547.212695,1924.535449,3753.867940
3836.012660,-10807.006753,1406.391290,2298.286494
3836.012989,-10362.883188,1554.432478,766.095498
3836.013319,-9696.697840,1628.453072,1072.533697
3836.013649,-9918.759623,1628.453072,1762.019645
3836.013978,-10140.821405,1776.494261,3524.039291
3836.014308,-9252.574275,1998.556043,3217.601092
3836.014638,-8512.368333,2072.576638,2834.553343
3836.014967,-8956.491898,2294.638420,2834.553343
3836.015297,-10584.944971,2368.659014,2374.896044
3836.015627,-9400.615463,2368.659014,3600.648841
3836.015956,-8808.450710,2516.700203,3753.867940
3836.016286,-8512.368333,3256.906145,4596.572988
3836.016616,-9844.739029,3478.967927,5132.839837
3836.016945,-11399.171507,4663.297435,4060.306139
3836.017275,-10955.047942,4663.297435,2681.334243
3836.017605,-11103.089130,4441.235652,2068.457845
3836.017934,-10436.903782,4811.338623,2145.067394
3836.018264,-10214.842000,4145.153275,2987.772442
3836.018594,-9548.656652,4589.276840,2681.334243
3836.018924,-8364.327145,4367.215058,2068.457845
3836.019253,-8438.347739,4219.173869,1838.629195
3836.019583,-9178.553681,4737.318029,995.924147
3836.019913,-8660.409521,5107.421000,1685.410096
3836.020243,-9770.718434,4441.235652,2681.334243
3836.020572,-11177.109724,4737.318029,3524.039291
3836.020902,-11325.150913,4663.297435,2987.772442
3836.021232,-10214.842000,3552.988522,2145.067394
3836.021561,-10732.986159,3256.906145,1378.971896
3836.021891,-10140.821405,3627.009116,1532.190996
3836.022221,-9474.636058,2886.803174,1225.752797
3836.022551,-8660.409521,3404.947333,383.047749
3836.022880,-8216.285956,2442.679609,1762.019645
3836.023210,-8216.285956,3478.967927,1149.143247
3836.023540,-8586.388927,2220.617826,1149.143247
3836.023870,-9622.677246,3034.844362,1149.143247
3836.024199,-8438.347739,2664.741391,1762.019645
3836.024529,-9104.533087,3034.844362,2068.457845
3836.024859,-8882.471304,2812.782580,3064.381992
3836.025188,-10362.883188,3478.967927,3217.601092
3836.025518,-11029.068536,3997.112087,3064.381992
3836.025848,-11399.171507,3627.009116,2068.457845
3836.026178,-12065.356855,3997.112087,995.924147
3836.026507,-10288.862594,2886.803174,383.047749
3836.026837,-9844.739029,2886.803174,995.924147
3836.027167,-9326.594869,2516.700203,1762.019645
3836.027497,-8364.327145,2442.679609,2068.457845
3836.027826,-7846.182985,2220.617826,2068.457845
3836.028156,-8068.244768,2368.659014,919.314598
3836.028486,-9400.615463,1924.535449,1915.238745
3836.028815,-10881.027347,1554.432478,4060.306139
3836.029145,-11251.130318,1406.391290,5209.449386
3836.029475,-11251.130318,1258.350101,5515.887586
3836.029805,-11769.274478,1110.308913,4519.963438
3836.030134,-10807.006753,370.102971,2834.553343
3836.030464,-10436.903782,888.247130,1302.362347
3836.030794,-10436.903782,1036.288319,306.438199
3836.031124,-10807.006753,444.123565,153.219100
3836.031453,-9400.615463,0.000000,1378.971896
3836.031783,-8734.430116,-370.102971,2221.676944
3836.032113,-8290.306550,-444.123565,1762.019645
3836.032443,-8882.471304,-962.267725,1378.971896
3836.032772,-9104.533087,-962.267725,1608.800546
3836.033102,-8734.430116,-1258.350101,3140.991542
3836.033432,-9844.739029,-666.185348,4903.011187
3836.033761,-11843.295072,0.000000,6971.469032
3836.034091,-11769.274478,148.041188,6128.763984
3836.034421,-10658.965565,296.082377,2987.772442
3836.034751,-8734.430116,518.144159,383.047749
3836.035080,-8956.491898,666.185348,76.609550
3836.035410,-9696.697840,444.123565,1378.971896
3836.035740,-8512.368333,888.247130,2834.553343
3836.036070,-8438.347739,0.000000,3447.429741
3836.036399,-7994.224174,740.205942,1608.800546
3836.036729,-8586.388927,0.000000,919.314598
3836.037059,-10214.842000,518.144159,0.000000
3836.037388,-9474.636058,740.205942,995.924147
3836.037718,-10066.800811,592.164754,3677.258390
3836.038048,-11473.192101,1554.432478,4290.134789
3836.038378,-11547.212695,1702.473667,3064.381992
3836.038707,-11473.192101,1332.370696,612.876398
3836.039037,-11103.089130,1258.350101,-2068.457845
3836.039367,-9770.718434,1110.308913,-3677.258390
3836.039697,-8586.388927,0.000000,-1608.800546
3836.040026,-8586.388927,1554.432478,229.828649
3836.040356,-9178.553681,1184.329507,76.609550
3836.040686,-10066.800811,1554.432478,-2298.286494
3836.041015,-9326.594869,444.123565,-4673.182538
3836.041345,-9696.697840,962.267725,-2987.772442
3836.041675,-10066.800811,1776.494261,-995.924147
3836.042005,-10807.006753,1036.288319,1455.581446
3836.042334,-10658.965565,888.247130,2221.676944
3836.042664,-8956.491898,0.000000,229.828649
3836.042994,-9030.512492,0.000000,-383.047749
3836.043324,-7846.182985,0.000000,919.314598
3836.043653,-7105.977043,444.123565,2528.115143
3836.043983,-7031.956449,888.247130,3907.087040
3836.044313,-7772.162391,1776.494261,3064.381992
3836.044642,-9252.574275,1850.514855,995.924147
3836.044972,-11251.130318,2220.617826,-995.924147
3836.045302,-11547.212695,2294.638420,-2068.457845
3836.045632,-11325.150913,1850.514855,-612.876398
3836.045961,-10510.924376,2590.720797,2298.286494
3836.046291,-11177.109724,2886.803174,2834.553343
3836.046621,-11843.295072,2590.720797,-612.876398
3836.046951,-10436.903782,2072.576638,-4060.306139
3836.047280,-9474.636058,1924.535449,-5515.887586
3836.047610,-9622.677246,1480.411884,-2911.162892
3836.047940,-10658.965565,1776.494261,995.924147
3836.048269,-9992.780217,1480.411884,2681.334243
3836.048599,-9104.533087,1110.308913,536.266849
3836.048929,-10140.821405,814.226536,-1991.848295
3836.049259,-11843.295072,296.082377,-3524.039291
3836.049588,-11029.068536,-592.164754,-919.314598
3836.049918,-8438.347739,-1110.308913,2451.505594
3836.050248,-8068.244768,-1554.432478,5056.230287
3836.050578,-8068.244768,-2664.741391,4903.011187
3836.050907,-7031.956449,-2516.700203,3140.991542
3836.051237,-7698.141797,-2072.576638,1455.581446
3836.051567,-9326.594869,-518.144159,1302.362347
3836.051896,-10066.800811,444.123565,459.657299
3836.052226,-9474.636058,296.082377,1225.752797
3836.052556,-8660.409521,814.226536,2451.505594
3836.052886,-10955.047942,0.000000,1762.019645
3836.053215,-11695.253884,0.000000,0.000000
3836.053545,-10881.027347,-148.041188,-1455.581446
3836.053875,-8882.471304,370.102971,-1302.362347
3836.054205,-9770.718434,1406.391290,0.000000
3836.054534,-11917.315666,1406.391290,-383.047749
3836.054864,-12287.418637,1850.514855,-1532.190996
3836.055194,-10288.862594,592.164754,-2834.553343
3836.055523,-9474.636058,-518.144159,-2298.286494
3836.055853,-9696.697840,-962.267725,766.095498
3836.056183,-11177.109724,-1480.411884,2374.896044
3836.056513,-9252.574275,-2368.659014,1302.362347
3836.056842,-7846.182985,-2886.803174,0.000000
3836.057172,-8068.244768,-2738.761985,0.000000
3836.057502,-9030.512492,-3108.864956,1915.238745
3836.057832,-9030.512492,-2590.720797,3524.039291
3836.058161,-9622.677246,-2368.659014,3064.381992
3836.058491,-9178.553681,-1332.370696,2681.334243
3836.058821,-8808.450710,-1332.370696,1378.971896
3836.059150,-10510.924376,-888.247130,306.438199
3836.059480,-9992.780217,-222.061783,383.047749
3836.059810,-9252.574275,-666.185348,306.438199
3836.060140,-8808.450710,222.061783,76.609550
3836.060469,-9844.739029,370.102971,459.657299
3836.060799,-11843.295072,370.102971,306.438199
3836.061129,-10362.883188,888.247130,-689.485948
3836.061459,-11399.171507,1480.411884,-1685.410096
3836.061788,-11103.089130,2072.576638,-2145.067394
3836.062118,-11473.192101,592.164754,-2298.286494
3836.062448,-10955.047942,1258.350101,-2145.067394
3836.062778,-9992.780217,592.164754,-1685.410096
3836.063107,-10066.800811,740.205942,-2221.676944
3836.063437,-9844.739029,148.041188,-1915.238745
3836.063767,-10214.842000,-370.102971,-1072.533697
3836.064096,-8956.491898,-1184.329507,-919.314598
3836.064426,-7698.141797,-2146.597232,-3217.601092
3836.064756,-6439.791695,-2812.782580,-2681.334243
3836.065086,-7179.997637,-2368.659014,1455.581446
3836.065415,-9252.574275,-1998.556043,4979.620737
3836.065745,-9400.615463,-1554.432478,4979.620737
3836.066075,-8660.409521,-1406.391290,2451.505594
3836.066405,-9400.615463,0.000000,1838.629195
3836.066734,-10140.821405,-444.123565,2298.286494
3836.067064,-10214.842000,370.102971,2451.505594
3836.067394,-10066.800811,814.226536,2298.286494
3836.067723,-9252.574275,666.185348,1991.848295
3836.068053,-10140.821405,1258.350101,842.705048
3836.068383,-10510.924376,1702.473667,-1378.971896
3836.068713,-9400.615463,2442.679609,-2221.676944
3836.069042,-11029.068536,4071.132681,-2221.676944
3836.069372,-12213.398043,4737.318029,-2911.162892
3836.069702,-12287.418637,3256.906145,-2681.334243
3836.070032,-10807.006753,2442.679609,-1532.190996
3836.070361,-11103.089130,1184.329507,153.219100
3836.070691,-10955.047942,0.000000,536.266849
3836.071021,-10214.842000,-592.164754,1149.143247
3836.071350,-10510.924376,-666.185348,1072.533697
3836.071680,-9770.718434,-1184.329507,-995.924147
3836.072010,-7179.997637,-1850.514855,-1455.581446
3836.072340,-5699.585753,-1850.514855,153.219100
3836.072669,-6735.874072,-1554.432478,1915.238745
3836.072999,-8586.388927,-444.123565,2068.457845
3836.073329,-9844.739029,-1184.329507,2681.334243
3836.073659,-9844.739029,-666.185348,1608.800546
3836.073988,-9400.615463,-592.164754,229.828649
3836.074318,-10140.821405,-370.102971,919.314598
3836.074648,-10214.842000,0.000000,1991.848295
3836.074977,-9252.574275,222.061783,1608.800546
3836.075307,-8290.306550,296.082377,1072.533697
3836.075637,-10066.800811,1110.308913,689.485948
3836.075967,-10214.842000,2072.576638,-459.657299
3836.076296,-10510.924376,2960.823768,-1149.143247
3836.076626,-11251.130318,3997.112087,-1608.800546
3836.076956,-12361.439231,3034.844362,-1302.362347
3836.077286,-12065.356855,2368.659014,-2681.334243
3836.077615,-10510.924376,962.267725,-2604.724693
3836.077945,-10584.944971,370.102971,-1685.410096
3836.078275,-10658.965565,0.000000,-766.095498
3836.078604,-10955.047942,-740.205942,0.000000
3836.078934,-10066.800811,-1184.329507,459.657299
3836.079264,-9252.574275,-1036.288319,-383.047749
3836.079594,-9178.553681,-2442.679609,-919.314598
3836.079923,-8068.244768,-2146.597232,-919.314598
3836.080253,-7179.997637,-1776.494261,1455.581446
3836.080583,-7624.121203,-1628.453072,2834.553343
3836.080913,-8364.327145,-1554.432478,2221.676944
3836.081242,-9918.759623,-962.267725,1378.971896
3836.081572,-10510.924376,-740.205942,-306.438199
3836.081902,-10362.883188,-1554.432478,-766.095498
3836.082231,-10140.821405,-888.247130,229.828649
3836.082561,-9252.574275,-370.102971,1302.362347
3836.082891,-8512.368333,148.041188,0.000000
3836.083221,-8364.327145,-592.164754,459.657299
3836.083550,-8956.491898,148.041188,1455.581446
3836.083880,-10732.986159,962.267725,1915.238745
3836.084210,-11547.212695,1184.329507,0.000000
3836.084540,-10732.986159,1184.329507,-1685.410096
3836.084869,-11103.089130,2368.659014,-689.485948
3836.085199,-11769.274478,2220.617826,-306.438199
3836.085529,-12139.377449,1480.411884,-1225.752797
3836.085858,-10362.883188,888.247130,-3524.039291
3836.086188,-10807.006753,296.082377,-2911.162892
3836.086518,-11473.192101,-296.082377,-1149.143247
3836.086848,-10288.862594,-1110.308913,153.219100
3836.087177,-8364.327145,-1258.350101,0.000000
3836.087507,-6217.729913,-2368.659014,153.219100
3836.087837,-6883.915261,-2294.638420,-306.438199
3836.088167,-8068.244768,-2738.761985,766.095498
3836.088496,-8364.327145,-2516.700203,3064.381992
3836.088826,-8882.471304,-1776.494261,4443.353888
3836.089156,-9474.636058,-1332.370696,4366.744339
3836.089485,-11177.109724,-814.226536,2528.115143
3836.089815,-11325.150913,-296.082377,689.485948
3836.090145,-10510.924376,0.000000,-459.657299
3836.090475,-9474.636058,-592.164754,-919.314598
3836.090804,-9252.574275,0.000000,-383.047749
3836.091134,-8956.491898,222.061783,1302.362347
3836.091464,-8808.450710,1850.514855,1149.143247
3836.091794,-9030.512492,1924.535449,-995.924147
3836.092123,-10214.842000,1924.535449,-3447.429741
3836.092453,-11251.130318,1702.473667,-4213.525239
3836.092783,-12287.418637,2590.720797,-766.095498
3836.093113,-12065.356855,2368.659014,1762.019645
3836.093442,-12213.398043,1554.432478,1685.410096
3836.093772,-9844.739029,740.205942,0.000000
3836.094102,-9992.780217,-296.082377,-1302.362347
3836.094431,-10881.027347,296.082377,-1072.533697
3836.094761,-11177.109724,-444.123565,1149.143247
3836.095091,-9622.677246,-814.226536,1378.971896
3836.095421,-6809.894666,-962.267725,766.095498
3836.095750,-6957.935855,-666.185348,383.047749
3836.096080,-8512.368333,-148.041188,1149.143247
3836.096410,-9918.759623,-296.082377,919.314598
3836.096740,-8956.491898,-74.020594,612.876398
3836.097069,-8956.491898,-74.020594,2298.286494
3836.097399,-10732.986159,518.144159,4060.306139
3836.097729,-11769.274478,370.102971,4826.401637
3836.098058,-11473.192101,148.041188,2221.676944
3836.098388,-9030.512492,0.000000,0.000000
3836.098718,-8882.471304,370.102971,76.609550
3836.099048,-9252.574275,518.144159,1072.533697
3836.099377,-9474.636058,1406.391290,1225.752797
3836.099707,-9030.512492,2072.576638,306.438199
3836.100037,-9178.553681,1924.535449,-1149.143247
3836.100367,-9548.656652,2738.761985,-3140.991542
3836.100696,-11399.171507,2886.803174,-2528.115143
3836.101026,-11991.336260,1406.391290,-1991.848295
3836.101356,-10881.027347,1406.391290,-1225.752797
3836.101685,-10510.924376,592.164754,-766.095498
3836.102015,-10881.027347,0.000000,-383.047749
3836.102345,-10510.924376,0.000000,-229.828649
3836.102675,-9918.759623,-370.102971,-689.485948
3836.103004,-8142.265362,-518.144159,-2374.896044
3836.103334,-7846.182985,-962.267725,-1455.581446
3836.103664,-9104.533087,-814.226536,842.705048
3836.103994,-9400.615463,-1406.391290,2145.067394
3836.104323,-8142.265362,-1998.556043,1072.533697
3836.104653,-6883.915261,-1924.535449,229.828649
3836.104983,-8290.306550,-1184.329507,1455.581446
3836.105312,-11251.130318,0.000000,2757.943793
3836.105642,-12065.356855,-74.020594,2987.772442
3836.105972,-8956.491898,74.020594,1149.143247
3836.106302,-9104.533087,74.020594,0.000000
3836.106631,-10732.986159,222.061783,612.876398
3836.106961,-10955.047942,518.144159,2834.553343
3836.107291,-11325.150913,444.123565,1915.238745
3836.107621,-9844.739029,370.102971,76.609550
3836.107950,-8956.491898,518.144159,-1072.533697
3836.108280,-9548.656652,1628.453072,-612.876398
3836.108610,-11547.212695,2220.617826,-612.876398
3836.108939,-12065.356855,2590.720797,-1455.581446
3836.109269,-11621.233289,1332.370696,-2604.724693
3836.109599,-11399.171507,222.061783,-1838.629195
3836.109929,-11843.295072,0.000000,689.485948
3836.110258,-11399.171507,-1110.308913,229.828649
3836.110588,-10807.006753,-2220.617826,-842.705048
3836.110918,-7328.038826,-3775.050304,-2298.286494
3836.111248,-3923.091493,-4441.235652,-229.828649
3836.111577,-5329.482782,-2960.823768,3370.820191
3836.111907,-8882.471304,-1998.556043,5286.058936
3836.112237,-9104.533087,-2146.597232,3907.087040
3836.112566,-8142.265362,-666.185348,1915.238745
3836.112896,-10140.821405,-518.144159,1225.752797
3836.113226,-12953.603985,0.000000,1225.752797
3836.113556,-12657.521608,-370.102971,1915.238745
3836.113885,-9622.677246,-592.164754,1455.581446
3836.114215,-7328.038826,-962.267725,919.314598
3836.114545,-9474.636058,592.164754,1685.410096
3836.114875,-11991.336260,740.205942,766.095498
3836.115204,-10436.903782,2368.659014,-1915.238745
3836.115534,-8364.327145,1850.514855,-3677.258390
3836.115864,-9696.697840,2368.659014,-2911.162892
3836.116193,-11399.171507,2886.803174,0.000000
3836.116523,-12879.583391,2590.720797,-76.609550
3836.116853,-10881.027347,1406.391290,-3294.210641
3836.117183,-10066.800811,0.000000,-4213.525239
3836.117512,-11029.068536,0.000000,-2221.676944
3836.117842,-11399.171507,-444.123565,766.095498
3836.118172,-10807.006753,-666.185348,1455.581446
3836.118502,-8068.244768,-1554.432478,306.438199
3836.118831,-6883.915261,-3404.947333,-1072.533697
3836.119161,-5847.626942,-3034.844362,842.705048
3836.119491,-7920.203579,-2072.576638,4366.744339
3836.119820,-8956.491898,-740.205942,4903.011187
3836.120150,-7846.182985,-1184.329507,1762.019645
3836.120480,-7846.182985,148.041188,383.047749
3836.120810,-10066.800811,0.000000,689.485948
3836.121139,-12213.398043,740.205942,1149.143247
3836.121469,-11473.192101,0.000000,0.000000
3836.121799,-7920.203579,222.061783,-1685.410096
3836.122129,-7179.997637,222.061783,689.485948
3836.122458,-10955.047942,1332.370696,3294.210641
3836.122788,-12213.398043,1554.432478,2681.334243
3836.123118,-9474.636058,1776.494261,-612.876398
3836.123448,-7402.059420,2812.782580,-3447.429741
3836.123777,-11843.295072,3256.906145,-1532.190996
3836.124107,-14656.077652,4145.153275,766.095498
3836.124437,-13545.768739,2664.741391,-536.266849
3836.124766,-9770.718434,1998.556043,-3370.820191
3836.125096,-9104.533087,74.020594,-3447.429741
3836.125426,-11325.150913,-370.102971,-383.047749
3836.125756,-11177.109724,-740.205942,995.924147
3836.126085,-8068.244768,-1628.453072,919.314598
3836.126415,-6439.791695,-666.185348,-612.876398
3836.126745,-6883.915261,-1702.473667,-459.657299
3836.127075,-7698.141797,-2368.659014,1225.752797
3836.127404,-7846.182985,-1998.556043,4060.306139
3836.127734,-8438.347739,-1702.473667,5056.230287
3836.128064,-9474.636058,-888.247130,3370.820191
3836.128394,-9400.615463,-666.185348,2604.724693
3836.128723,-10732.986159,0.000000,2757.943793
3836.129053,-11251.130318,518.144159,1532.190996
3836.129383,-9844.739029,888.247130,0.000000
3836.129712,-9104.533087,370.102971,-306.438199
3836.130042,-9030.512492,1184.329507,1149.143247
3836.130372,-9252.574275,2072.576638,2757.943793
3836.130702,-11843.295072,4293.194464,76.609550
3836.131031,-12139.377449,4293.194464,-3753.867940
3836.131361,-10658.965565,3404.947333,-6741.640382
3836.131691,-11177.109724,2516.700203,-4290.134789
3836.132021,-11325.150913,1110.308913,919.314598
3836.132350,-11695.253884,-148.041188,2757.943793
3836.132680,-9548.656652,-888.247130,0.000000
3836.133010,-10140.821405,-1184.329507,-995.924147
3836.133340,-9696.697840,-740.205942,-306.438199
3836.133669,-10881.027347,-2442.679609,-536.266849
3836.133999,-7402.059420,-3404.947333,-842.705048
3836.134329,-4589.276840,-3108.864956,1915.238745
3836.134658,-6217.729913,-3330.926739,3677.258390
3836.134988,-7550.100608,-1554.432478,3677.258390
3836.135318,-9622.677246,-1628.453072,2221.676944
3836.135648,-10362.883188,0.000000,-689.485948
3836.135977,-10362.883188,-888.247130,-2068.457845
3836.136307,-9992.780217,-222.061783,306.438199
3836.136637,-10214.842000,222.061783,3140.991542
3836.136967,-10362.883188,-222.061783,2681.334243
3836.137296,-10362.883188,148.041188,0.000000
3836.137626,-10140.821405,74.020594,-2528.115143
3836.137956,-9252.574275,1480.411884,-1302.362347
3836.138285,-9326.594869,2368.659014,0.000000
3836.138615,-11325.150913,3775.050304,1302.362347
3836.138945,-12805.562797,3849.070898,0.000000
3836.139275,-11769.274478,2886.803174,-2681.334243
3836.139604,-11177.109724,1998.556043,-4366.744339
3836.139934,-12435.459826,814.226536,-2757.943793
3836.140264,-10881.027347,-1036.288319,-766.095498
3836.140594,-9030.512492,-1480.411884,612.876398
3836.140923,-9178.553681,-1702.473667,1455.581446
3836.141253,-10140.821405,-1110.308913,1302.362347
3836.141583,-10510.924376,-2442.679609,0.000000
3836.141913,-6291.750507,-3108.864956,-1455.581446
3836.142242,-4811.338623,-3108.864956,-153.219100
3836.142572,-5847.626942,-2072.576638,4060.306139
3836.142902,-9030.512492,-1406.391290,6358.592633
3836.143231,-10214.842000,0.000000,4519.963438
3836.143561,-10214.842000,74.020594,-612.876398
3836.143891,-10510.924376,0.000000,-2374.896044
3836.144221,-11325.150913,296.082377,0.000000
3836.144550,-10288.862594,-370.102971,2298.286494
3836.144880,-9400.615463,-296.082377,4213.525239
3836.145210,-9770.718434,740.205942,2757.943793
3836.145540,-10362.883188,1110.308913,76.609550
3836.145869,-7476.080014,1776.494261,-2298.286494
3836.146199,-8512.368333,2590.720797,-3600.648841
3836.146529,-11769.274478,4589.276840,-689.485948
3836.146859,-13545.768739,3552.988522,1149.143247
3836.147188,-11917.315666,2886.803174,612.876398
3836.147518,-9548.656652,1184.329507,-1302.362347
3836.147848,-12139.377449,592.164754,-2604.724693
3836.148177,-12287.418637,0.000000,-2604.724693
3836.148507,-10214.842000,-1258.350101,-689.485948
3836.148837,-8512.368333,-222.061783,1225.752797
3836.149167,-8734.430116,-518.144159,2145.067394
3836.149496,-9622.677246,-814.226536,612.876398
3836.149826,-6809.894666,-2368.659014,-2221.676944
3836.150156,-6365.771101,-1628.453072,-2451.505594
3836.150486,-8142.265362,-1036.288319,536.266849
3836.150815,-10436.903782,148.041188,3677.258390
3836.151145,-9474.636058,-74.020594,4136.915689
3836.151475,-9326.594869,-222.061783,1532.190996
3836.151804,-10732.986159,444.123565,153.219100
3836.152134,-11251.130318,-222.061783,-919.314598
3836.152464,-10140.821405,0.000000,0.000000
3836.152794,-7846.182985,148.041188,1762.019645
3836.153123,-8956.491898,296.082377,3524.039291
3836.153453,-11399.171507,1702.473667,3370.820191
3836.153783,-10140.821405,1702.473667,-1072.533697
3836.154113,-8586.388927,2812.782580,-4366.744339
3836.154442,-9992.780217,2886.803174,-4903.011187
3836.154772,-12879.583391,3552.988522,-2451.505594
3836.155102,-11251.130318,2368.659014,0.000000
3836.155432,-11029.068536,1480.411884,0.000000
3836.155761,-10732.986159,-296.082377,-1762.019645
3836.156091,-10732.986159,-962.267725,-1915.238745
3836.156421,-11177.109724,-1036.288319,-1149.143247
3836.156750,-10436.903782,-1406.391290,1455.581446
3836.157080,-9548.656652,-2294.638420,2681.334243
3836.157410,-8142.265362,-3627.009116,1762.019645
3836.157740,-4811.338623,-2738.761985,76.609550
3836.158069,-5329.482782,-3404.947333,-766.095498
3836.158399,-7698.141797,-2146.597232,1532.190996
3836.158729,-10732.986159,-1406.391290,4136.915689
3836.159059,-10584.944971,0.000000,2528.115143
3836.159388,-9326.594869,-1110.308913,766.095498
3836.159718,-11325.150913,-666.185348,0.000000
3836.160048,-11843.295072,-1554.432478,536.266849
3836.160378,-9844.739029,-592.164754,919.314598
3836.160707,-9622.677246,-222.061783,1149.143247
3836.161037,-9400.615463,-148.041188,842.705048
3836.161367,-9474.636058,1628.453072,1378.971896
3836.161696,-8956.491898,1406.391290,-766.095498
3836.162026,-10732.986159,2812.782580,-1838.629195
3836.162356,-12583.501014,3256.906145,-1838.629195
3836.162686,-12583.501014,2072.576638,-536.266849
3836.163015,-10658.965565,962.267725,-229.828649
3836.163345,-9252.574275,-370.102971,-1685.410096
3836.163675,-10436.903782,-1036.288319,-1762.019645
3836.164005,-11251.130318,-1702.473667,-459.657299
3836.164334,-10658.965565,-1628.453072,536.266849
3836.164664,-8956.491898,-2294.638420,1072.533697
3836.164994,-8660.409521,-2072.576638,842.705048
3836.165323,-7031.956449,-2368.659014,153.219100
3836.165653,-6291.750507,-2294.638420,919.314598
3836.165983,-8142.265362,-1332.370696,612.876398
3836.166313,-9548.656652,-888.247130,1685.410096
3836.166642,-10732.986159,-592.164754,2221.676944
3836.166972,-9918.759623,0.000000,1302.362347
3836.167302,-10732.986159,0.000000,459.657299
3836.167632,-10436.903782,0.000000,-229.828649
3836.167961,-10584.944971,0.000000,1072.533697
3836.168291,-8660.409521,-222.061783,1532.190996
3836.168621,-7698.141797,74.020594,1838.629195
3836.168951,-9178.553681,1406.391290,1915.238745
3836.169280,-9770.718434,1850.514855,2528.115143
3836.169610,-9104.533087,2146.597232,-919.314598
3836.169940,-9844.739029,4441.235652,-2451.505594
3836.170269,-11991.336260,3923.091493,-2221.676944
3836.170599,-13471.748144,3552.988522,-1455.581446
3836.170929,-11917.315666,2368.659014,-1532.190996
3836.171259,-11325.150913,1406.391290,-1915.238745
3836.171588,-10881.027347,-370.102971,-2451.505594
3836.171918,-8956.491898,-592.164754,-2145.067394
3836.172248,-7772.162391,-1628.453072,-229.828649
3836.172578,-8586.388927,-74.020594,1685.410096
3836.172907,-9400.615463,296.082377,1762.019645
