#time,accel_x,accel_y,accel_z
3681.243825,-10288.862594,-1924.535449,-1915.238745
3681.244155,-9252.574275,-1776.494261,-3064.381992
3681.244485,-9252.574275,-1628.453072,-2528.115143
3681.244815,-9770.718434,-1036.288319,-1532.190996
3681.245145,-9400.615463,-1332.370696,-919.314598
3681.245475,-8808.450710,-592.164754,-1302.362347
3681.245806,-8290.306550,-370.102971,-612.876398
3681.246136,-9400.615463,-148.041188,-1072.533697
3681.246466,-10658.965565,0.000000,-459.657299
3681.246796,-10288.862594,-296.082377,-536.266849
3681.247126,-10658.965565,0.000000,-842.705048
3681.247456,-10807.006753,0.000000,0.000000
3681.247786,-10510.924376,0.000000,-76.609550
3681.248116,-9400.615463,-74.020594,-689.485948
3681.248446,-8882.471304,0.000000,-1302.362347
3681.248776,-9400.615463,370.102971,-1685.410096
3681.249106,-10362.883188,1036.288319,-1225.752797
3681.249436,-9696.697840,1480.411884,-2068.457845
3681.249766,-8660.409521,1184.329507,-2451.505594
3681.250096,-9104.533087,1036.288319,-3064.381992
3681.250426,-9770.718434,74.020594,-2681.334243
3681.250756,-10436.903782,222.061783,-1532.190996
3681.251086,-10436.903782,-888.247130,-229.828649
3681.251416,-9326.594869,-1998.556043,-306.438199
3681.251746,-9252.574275,-740.205942,-612.876398
3681.252076,-7254.018232,0.000000,-919.314598
3681.252406,-9030.512492,444.123565,766.095498
3681.252736,-10658.965565,888.247130,842.705048
3681.253066,-11177.109724,1036.288319,-1991.848295
3681.253396,-10955.047942,666.185348,-4060.306139
3681.253726,-11547.212695,444.123565,-4673.182538
3681.254056,-11769.274478,-296.082377,-4673.182538
3681.254386,-10881.027347,-1776.494261,-3753.867940
3681.254716,-8438.347739,-2886.803174,-4826.401637
3681.255046,-6809.894666,-3849.070898,-4903.011187
3681.255376,-7105.977043,-3701.029710,-2911.162892
3681.255706,-7846.182985,-2294.638420,153.219100
3681.256036,-9326.594869,-2072.576638,842.705048
3681.256366,-10510.924376,-888.247130,-76.609550
3681.256696,-11251.130318,-1480.411884,-2374.896044
3681.257026,-12361.439231,-1776.494261,-2604.724693
3681.257356,-12879.583391,-2812.782580,-2911.162892
3681.257686,-11843.295072,-3701.029710,-2451.505594
3681.258016,-9918.759623,-4515.256246,-2374.896044
3681.258346,-8882.471304,-4885.359217,-4213.525239
3681.258676,-8734.430116,-4811.338623,-5515.887586
3681.259006,-8364.327145,-4737.318029,-5515.887586
3681.259336,-8364.327145,-4663.297435,-4290.134789
3681.259666,-8512.368333,-4663.297435,-2221.676944
3681.259996,-9030.512492,-4145.153275,-1838.629195
3681.260326,-8808.450710,-4145.153275,-2145.067394
3681.260656,-9474.636058,-4885.359217,-2528.115143
3681.260986,-10436.903782,-5477.523971,-2068.457845
3681.261316,-10881.027347,-5625.565159,0.000000
3681.261646,-11399.171507,-5329.482782,153.219100
3681.261976,-11177.109724,-5181.441594,-612.876398
3681.262306,-9622.677246,-5921.647536,-2757.943793
3681.262636,-8808.450710,-5477.523971,-4366.744339
3681.262966,-9326.594869,-5625.565159,-3830.477490
3681.263296,-9104.533087,-5329.482782,-2374.896044
3681.263626,-7328.038826,-4515.256246,-842.705048
3681.263956,-7254.018232,-3923.091493,-919.314598
3681.264286,-8882.471304,-3552.988522,-2068.457845
3681.264616,-12065.356855,-3478.967927,-3370.820191
3681.264946,-12657.521608,-4071.132681,-2834.553343
3681.265276,-12287.418637,-5033.400406,-2068.457845
3681.265606,-10658.965565,-5625.565159,306.438199
3681.265935,-9844.739029,-5625.565159,1915.238745
3681.266265,-8956.491898,-4737.318029,1991.848295
3681.266595,-8660.409521,-3997.112087,-306.438199
3681.266925,-8364.327145,-2738.761985,-4290.134789
3681.267255,-8734.430116,-2146.597232,-4366.744339
3681.267585,-9474.636058,-1258.350101,-1762.019645
3681.267915,-9918.759623,-1554.432478,919.314598
3681.268244,-10214.842000,-1702.473667,1302.362347
3681.268574,-10658.965565,-1850.514855,-1455.581446
3681.268904,-11177.109724,-2146.597232,-3983.696590
3681.269234,-10807.006753,-2368.659014,-4749.792088
3681.269564,-10362.883188,-2146.597232,-1838.629195
3681.269894,-10066.800811,-2146.597232,2145.067394
3681.270223,-8808.450710,-1480.411884,3447.429741
3681.270553,-8068.244768,-444.123565,2068.457845
3681.270883,-8882.471304,222.061783,0.000000
3681.271213,-9400.615463,1036.288319,-3600.648841
3681.271543,-9696.697840,1036.288319,-3907.087040
3681.271873,-9918.759623,1628.453072,-1378.971896
3681.272203,-10288.862594,1110.308913,919.314598
3681.272532,-10584.944971,888.247130,1915.238745
3681.272862,-10436.903782,740.205942,-689.485948
3681.273192,-10584.944971,888.247130,-3140.991542
3681.273522,-10658.965565,1110.308913,-3907.087040
3681.273852,-10658.965565,666.185348,-2298.286494
3681.274182,-9178.553681,888.247130,766.095498
3681.274512,-8438.347739,1480.411884,2834.553343
3681.274841,-8808.450710,2220.617826,842.705048
3681.275171,-8882.471304,1998.556043,-1991.848295
3681.275501,-8808.450710,1776.494261,-3600.648841
3681.275831,-9474.636058,1554.432478,-2145.067394
3681.276161,-9622.677246,2220.617826,1378.971896
3681.276491,-11547.212695,2368.659014,3524.039291
3681.276821,-11251.130318,2294.638420,2145.067394
3681.277150,-10066.800811,1628.453072,-766.095498
3681.277480,-10066.800811,1258.350101,-2451.505594
3681.277810,-9770.718434,518.144159,-1915.238745
3681.278140,-9104.533087,1036.288319,1455.581446
3681.278470,-9326.594869,2146.597232,2987.772442
3681.278800,-8734.430116,2368.659014,1685.410096
3681.279130,-8734.430116,1998.556043,-1225.752797
3681.279459,-9400.615463,1776.494261,-3830.477490
3681.279789,-10214.842000,1554.432478,-2757.943793
3681.280119,-11325.150913,2146.597232,459.657299
3681.280449,-10140.821405,2146.597232,2451.505594
3681.280779,-8808.450710,1110.308913,2221.676944
3681.281109,-9400.615463,592.164754,919.314598
3681.281439,-10881.027347,592.164754,-536.266849
3681.281768,-11843.295072,666.185348,-76.609550
3681.282098,-10584.944971,740.205942,-306.438199
3681.282428,-8660.409521,592.164754,689.485948
3681.282758,-8216.285956,-148.041188,2221.676944
3681.283088,-9030.512492,444.123565,1532.190996
3681.283418,-9918.759623,666.185348,153.219100
3681.283748,-10881.027347,740.205942,-1302.362347
3681.284077,-10362.883188,814.226536,-919.314598
3681.284407,-9844.739029,222.061783,1378.971896
3681.284737,-10362.883188,0.000000,2451.505594
3681.285067,-10881.027347,-814.226536,2528.115143
3681.285397,-11843.295072,-962.267725,1225.752797
3681.285727,-10436.903782,-666.185348,-689.485948
3681.286056,-8438.347739,-1036.288319,-995.924147
3681.286386,-8660.409521,-1332.370696,842.705048
3681.286716,-9548.656652,-444.123565,2221.676944
3681.287046,-10881.027347,-962.267725,2681.334243
3681.287376,-10584.944971,-740.205942,1225.752797
3681.287706,-9104.533087,-1110.308913,-459.657299
3681.288036,-8512.368333,-2294.638420,306.438199
3681.288365,-9622.677246,-1850.514855,1072.533697
3681.288695,-10881.027347,-1628.453072,2145.067394
3681.289025,-11473.192101,-1184.329507,2068.457845
3681.289355,-9992.780217,-888.247130,-459.657299
3681.289685,-9030.512492,-1776.494261,-1915.238745
3681.290015,-9104.533087,-1924.535449,-919.314598
3681.290345,-10288.862594,-1332.370696,153.219100
3681.290674,-10658.965565,-1702.473667,1455.581446
3681.291004,-9400.615463,-1036.288319,0.000000
3681.291334,-7846.182985,-1110.308913,-1378.971896
3681.291664,-7994.224174,-1850.514855,-1378.971896
3681.291994,-10214.842000,-666.185348,-459.657299
3681.292324,-11917.315666,-962.267725,1149.143247
3681.292654,-11473.192101,-1036.288319,0.000000
3681.292983,-9696.697840,-962.267725,-2757.943793
3681.293313,-8808.450710,-2368.659014,-2604.724693
3681.293643,-9474.636058,-1850.514855,-689.485948
3681.293973,-10066.800811,-962.267725,1378.971896
3681.294303,-9844.739029,-1554.432478,995.924147
3681.294633,-8512.368333,-666.185348,-766.095498
3681.294963,-7920.203579,-592.164754,-1915.238745
3681.295292,-9030.512492,-1184.329507,-1378.971896
3681.295622,-10510.924376,74.020594,306.438199
3681.295952,-11843.295072,74.020594,1685.410096
3681.296282,-10955.047942,74.020594,-919.314598
3681.296612,-8882.471304,148.041188,-2834.553343
3681.296942,-8956.491898,-740.205942,-2757.943793
3681.297272,-9992.780217,0.000000,-306.438199
3681.297601,-11325.150913,0.000000,2604.724693
3681.297931,-10584.944971,0.000000,1915.238745
3681.298261,-7698.141797,592.164754,153.219100
3681.298591,-7031.956449,0.000000,-612.876398
3681.298921,-9178.553681,370.102971,229.828649
3681.299251,-10658.965565,1628.453072,1608.800546
3681.299581,-10807.006753,1184.329507,1915.238745
3681.299910,-9770.718434,1850.514855,459.657299
3681.300240,-9030.512492,1110.308913,-842.705048
3681.300570,-9548.656652,74.020594,-536.266849
3681.300900,-10510.924376,888.247130,766.095498
3681.301230,-10732.986159,740.205942,1838.629195
3681.301560,-9770.718434,1184.329507,1378.971896
3681.301889,-7698.141797,1480.411884,229.828649
3681.302219,-7254.018232,814.226536,383.047749
3681.302549,-8882.471304,1702.473667,1608.800546
3681.302879,-10658.965565,2368.659014,2757.943793
3681.303209,-11399.171507,2294.638420,2068.457845
3681.303539,-10436.903782,2812.782580,-459.657299
3681.303869,-9104.533087,1776.494261,-1532.190996
3681.304198,-9696.697840,1258.350101,-383.047749
3681.304528,-11473.192101,1776.494261,2604.724693
3681.304858,-11769.274478,1332.370696,2834.553343
3681.305188,-9992.780217,1628.453072,1225.752797
3681.305518,-8290.306550,1480.411884,0.000000
3681.305848,-8216.285956,740.205942,1149.143247
3681.306178,-9548.656652,1776.494261,2451.505594
3681.306507,-10881.027347,2072.576638,4136.915689
3681.306837,-11621.233289,2146.597232,2451.505594
3681.307167,-9992.780217,2590.720797,-1072.533697
3681.307497,-9622.677246,1258.350101,-2221.676944
3681.307827,-10510.924376,962.267725,-842.705048
3681.308157,-11325.150913,1184.329507,1685.410096
3681.308487,-11917.315666,222.061783,2145.067394
3681.308816,-8438.347739,296.082377,-76.609550
3681.309146,-7031.956449,-518.144159,-1378.971896
3681.309476,-7846.182985,-370.102971,76.609550
3681.309806,-9844.739029,148.041188,1838.629195
3681.310136,-11399.171507,1036.288319,2681.334243
3681.310466,-10362.883188,962.267725,306.438199
3681.310796,-9400.615463,1036.288319,-2528.115143
3681.311125,-9918.759623,-518.144159,-3524.039291
3681.311455,-11399.171507,-296.082377,-2145.067394
3681.311785,-11695.253884,-962.267725,0.000000
3681.312115,-10510.924376,-1554.432478,-383.047749
3681.312445,-7550.100608,-1332.370696,-1455.581446
3681.312775,-6587.832884,-1924.535449,-1532.190996
3681.313105,-7920.203579,-1036.288319,-536.266849
3681.313434,-10066.800811,-148.041188,1302.362347
3681.313764,-11547.212695,-370.102971,1302.362347
3681.314094,-10955.047942,0.000000,-306.438199
3681.314424,-9696.697840,-962.267725,-1302.362347
3681.314754,-10066.800811,-1628.453072,-1225.752797
3681.315084,-11029.068536,-1036.288319,-76.609550
3681.315414,-11103.089130,-2590.720797,919.314598
3681.315743,-10066.800811,-2294.638420,153.219100
3681.316073,-7698.141797,-1998.556043,-536.266849
3681.316403,-7105.977043,-2516.700203,-842.705048
3681.316733,-8512.368333,-1184.329507,612.876398
3681.317063,-9918.759623,-592.164754,3064.381992
3681.317393,-11473.192101,0.000000,2145.067394
3681.317722,-9844.739029,370.102971,-612.876398
3681.318052,-9326.594869,-592.164754,-2068.457845
3681.318382,-10584.944971,-888.247130,-1685.410096
3681.318712,-11843.295072,-592.164754,1685.410096
3681.319042,-11991.336260,-1776.494261,2451.505594
3681.319372,-9326.594869,-1480.411884,0.000000
3681.319702,-6661.853478,-2072.576638,-995.924147
3681.320031,-7031.956449,-2220.617826,1302.362347
3681.320361,-9104.533087,-518.144159,2757.943793
3681.320691,-10955.047942,0.000000,4136.915689
3681.321021,-10362.883188,592.164754,1608.800546
3681.321351,-9474.636058,1110.308913,-1455.581446
3681.321681,-9326.594869,-666.185348,-2145.067394
3681.322011,-10584.944971,-370.102971,-383.047749
3681.322340,-11843.295072,-444.123565,1915.238745
3681.322670,-11621.233289,-962.267725,2374.896044
3681.323000,-9252.574275,-444.123565,766.095498
3681.323330,-7402.059420,-962.267725,0.000000
3681.323660,-8216.285956,-222.061783,459.657299
3681.323990,-10140.821405,1110.308913,3217.601092
3681.324320,-11547.212695,1480.411884,4443.353888
3681.324649,-10732.986159,1628.453072,1149.143247
3681.324979,-9400.615463,1776.494261,-1608.800546
3681.325309,-9770.718434,592.164754,-2451.505594
3681.325639,-11177.109724,1036.288319,-995.924147
3681.325969,-11325.150913,296.082377,689.485948
3681.326299,-10288.862594,370.102971,383.047749
3681.326629,-8290.306550,370.102971,-766.095498
3681.326958,-7846.182985,-296.082377,-1072.533697
3681.327288,-9474.636058,370.102971,0.000000
3681.327618,-10807.006753,1110.308913,1991.848295
3681.327948,-11029.068536,962.267725,2451.505594
3681.328278,-9770.718434,1850.514855,306.438199
3681.328608,-8660.409521,1110.308913,-1685.410096
3681.328938,-9474.636058,962.267725,-2528.115143
3681.329267,-10955.047942,1776.494261,-1378.971896
3681.329597,-11991.336260,888.247130,153.219100
3681.329927,-10807.006753,1036.288319,-919.314598
3681.330257,-8068.244768,444.123565,-1762.019645
3681.330587,-7402.059420,-444.123565,-1378.971896
3681.330917,-8290.306550,222.061783,-153.219100
3681.331247,-9696.697840,592.164754,1762.019645
3681.331576,-10288.862594,1184.329507,1685.410096
3681.331906,-9400.615463,1924.535449,-612.876398
3681.332236,-8586.388927,888.247130,-1685.410096
3681.332566,-10436.903782,814.226536,-689.485948
3681.332896,-11769.274478,962.267725,1915.238745
3681.333226,-12287.418637,0.000000,1838.629195
3681.333555,-9770.718434,0.000000,76.609550
3681.333885,-7328.038826,-666.185348,-919.314598
3681.334215,-7476.080014,-962.267725,229.828649
3681.334545,-9252.574275,148.041188,2068.457845
3681.334875,-10955.047942,444.123565,3677.258390
3681.335205,-10658.965565,962.267725,1915.238745
3681.335535,-9104.533087,1628.453072,-1225.752797
3681.335864,-9252.574275,296.082377,-1302.362347
3681.336194,-10584.944971,962.267725,0.000000
3681.336524,-11695.253884,814.226536,1762.019645
3681.336854,-11843.295072,0.000000,1302.362347
3681.337184,-9474.636058,0.000000,-689.485948
3681.337514,-8142.265362,-1480.411884,-1149.143247
3681.337844,-8512.368333,-1184.329507,689.485948
3681.338173,-9400.615463,-592.164754,2911.162892
3681.338503,-10510.924376,-592.164754,4366.744339
3681.338833,-9326.594869,222.061783,1991.848295
3681.339163,-8660.409521,0.000000,-459.657299
3681.339493,-9844.739029,-592.164754,-1072.533697
3681.339823,-11547.212695,0.000000,612.876398
3681.340153,-12435.459826,-888.247130,2298.286494
3681.340482,-10584.944971,-962.267725,1072.533697
3681.340812,-7920.203579,-1332.370696,-612.876398
3681.341142,-7179.997637,-1924.535449,-689.485948
3681.341472,-9030.512492,-962.267725,229.828649
3681.341802,-10955.047942,222.061783,3140.991542
3681.342132,-12139.377449,444.123565,3370.820191
3681.342462,-10436.903782,1332.370696,689.485948
3681.342791,-9548.656652,0.000000,-1149.143247
3681.343121,-10362.883188,-222.061783,-1991.848295
3681.343451,-11325.150913,148.041188,229.828649
3681.343781,-11843.295072,-370.102971,1072.533697
3681.344111,-9844.739029,0.000000,76.609550
3681.344441,-7994.224174,-962.267725,-1072.533697
3681.344771,-7698.141797,-1554.432478,-1225.752797
3681.345100,-9474.636058,-518.144159,229.828649
3681.345430,-10658.965565,-370.102971,1915.238745
3681.345760,-10584.944971,0.000000,1072.533697
3681.346090,-8956.491898,666.185348,-689.485948
3681.346420,-8808.450710,-444.123565,-1532.190996
3681.346750,-9844.739029,-296.082377,-1225.752797
3681.347080,-11473.192101,592.164754,766.095498
3681.347409,-11843.295072,0.000000,612.876398
3681.347739,-9918.759623,0.000000,-1532.190996
3681.348069,-7920.203579,-740.205942,-3217.601092
3681.348399,-8068.244768,-1184.329507,-2221.676944
3681.348729,-9030.512492,-518.144159,76.609550
3681.349059,-10288.862594,-296.082377,1608.800546
3681.349389,-9474.636058,370.102971,76.609550
3681.349718,-7920.203579,444.123565,-1378.971896
3681.350048,-8512.368333,74.020594,-2298.286494
3681.350378,-10584.944971,518.144159,-1072.533697
3681.350708,-12139.377449,296.082377,1149.143247
3681.351038,-11325.150913,0.000000,459.657299
3681.351368,-8364.327145,0.000000,-1072.533697
3681.351697,-7624.121203,-962.267725,-995.924147
3681.352027,-8068.244768,-666.185348,-306.438199
3681.352357,-9770.718434,296.082377,2221.676944
3681.352687,-10510.924376,222.061783,2528.115143
3681.353017,-9548.656652,1406.391290,536.266849
3681.353347,-8808.450710,1036.288319,-919.314598
3681.353677,-9326.594869,444.123565,-919.314598
3681.354006,-11251.130318,1406.391290,995.924147
3681.354336,-12213.398043,518.144159,1608.800546
3681.354666,-11177.109724,518.144159,0.000000
3681.354996,-8364.327145,-74.020594,-1378.971896
3681.355326,-7772.162391,-962.267725,-842.705048
3681.355656,-8882.471304,-222.061783,1762.019645
3681.355986,-10436.903782,148.041188,3907.087040
3681.356315,-10881.027347,666.185348,3217.601092
3681.356645,-9178.553681,1110.308913,459.657299
3681.356975,-8512.368333,444.123565,-1149.143247
3681.357305,-9992.780217,444.123565,0.000000
3681.357635,-11843.295072,1110.308913,2298.286494
3681.357965,-12065.356855,74.020594,2987.772442
3681.358295,-9918.759623,296.082377,536.266849
3681.358624,-7994.224174,-666.185348,-919.314598
3681.358954,-8290.306550,-962.267725,-919.314598
3681.359284,-9918.759623,444.123565,1302.362347
3681.359614,-11325.150913,444.123565,3600.648841
3681.359944,-10881.027347,740.205942,2451.505594
3681.360274,-9178.553681,1110.308913,153.219100
3681.360604,-8660.409521,0.000000,-842.705048
3681.360933,-9622.677246,518.144159,0.000000
3681.361263,-11621.233289,814.226536,1685.410096
3681.361593,-12139.377449,518.144159,1149.143247
3681.361923,-10288.862594,666.185348,-612.876398
3681.362253,-9178.553681,-444.123565,-1915.238745
3681.362583,-9252.574275,-888.247130,-1378.971896
3681.362913,-9992.780217,-296.082377,689.485948
3681.363242,-10510.924376,-370.102971,1762.019645
3681.363572,-8734.430116,74.020594,306.438199
3681.363902,-7328.038826,74.020594,-1378.971896
3681.364232,-8586.388927,0.000000,-1302.362347
3681.364562,-11325.150913,1036.288319,229.828649
3681.364892,-12731.542202,444.123565,1225.752797
3681.365222,-11473.192101,0.000000,-306.438199
3681.365551,-8882.471304,0.000000,-1915.238745
3681.365881,-7994.224174,-1332.370696,-2068.457845
3681.366211,-8882.471304,-888.247130,-383.047749
3681.366541,-10436.903782,-296.082377,1532.190996
3681.366871,-10510.924376,370.102971,2604.724693
3681.367201,-9030.512492,666.185348,-612.876398
3681.367530,-7920.203579,0.000000,-2374.896044
3681.367860,-9030.512492,-370.102971,-1532.190996
3681.368190,-11029.068536,666.185348,995.924147
3681.368519,-12435.459826,222.061783,1991.848295
3681.368849,-10955.047942,-370.102971,229.828649
3681.369179,-8290.306550,-444.123565,-2374.896044
3681.369508,-7846.182985,-1480.411884,-2068.457845
3681.369838,-9474.636058,-666.185348,306.438199
3681.370168,-10807.006753,-666.185348,2834.553343
3681.370497,-10214.842000,-148.041188,2681.334243
3681.370827,-8142.265362,148.041188,612.876398
3681.371157,-7846.182985,-740.205942,-612.876398
3681.371486,-9844.739029,74.020594,-383.047749
3681.371816,-11473.192101,592.164754,1225.752797
3681.372146,-11843.295072,148.041188,1302.362347
3681.372475,-9622.677246,0.000000,76.609550
3681.372805,-7994.224174,-222.061783,-1685.410096
3681.373135,-8734.430116,-1110.308913,-1225.752797
3681.373464,-10214.842000,-222.061783,383.047749
3681.373794,-11325.150913,-666.185348,2298.286494
3681.374124,-9622.677246,-370.102971,1532.190996
3681.374453,-7476.080014,74.020594,-76.609550
3681.374783,-7772.162391,-444.123565,-153.219100
3681.375113,-10066.800811,814.226536,766.095498
3681.375442,-11917.315666,962.267725,2451.505594
3681.375772,-12435.459826,518.144159,1072.533697
3681.376102,-10066.800811,444.123565,-383.047749
3681.376431,-9178.553681,-666.185348,-1072.533697
3681.376761,-9030.512492,-1258.350101,1072.533697
3681.377091,-9622.677246,-296.082377,2451.505594
3681.377420,-10140.821405,0.000000,2757.943793
3681.377750,-9030.512492,518.144159,536.266849
3681.378080,-8882.471304,666.185348,-612.876398
3681.378409,-9474.636058,148.041188,-689.485948
3681.378739,-11325.150913,1406.391290,1072.533697
3681.379069,-12731.542202,888.247130,1838.629195
3681.379398,-11103.089130,740.205942,229.828649
3681.379728,-8068.244768,148.041188,-1532.190996
3681.380058,-7846.182985,-148.041188,-1532.190996
3681.380387,-9548.656652,222.061783,0.000000
3681.380717,-11399.171507,370.102971,2451.505594
3681.381047,-11325.150913,814.226536,1915.238745
3681.381376,-9030.512492,1332.370696,-459.657299
3681.381706,-7994.224174,148.041188,-1378.971896
3681.382036,-9252.574275,370.102971,-536.266849
3681.382365,-10807.006753,1036.288319,1149.143247
3681.382695,-11325.150913,444.123565,1225.752797
3681.383025,-9548.656652,740.205942,-919.314598
3681.383354,-8142.265362,370.102971,-2604.724693
3681.383684,-8808.450710,-592.164754,-2298.286494
3681.384014,-10140.821405,0.000000,76.609550
3681.384343,-10955.047942,74.020594,1991.848295
3681.384673,-10066.800811,-296.082377,919.314598
3681.385003,-7698.141797,296.082377,-1149.143247
3681.385332,-7254.018232,-296.082377,-1608.800546
3681.385662,-9252.574275,296.082377,0.000000
3681.385992,-11325.150913,962.267725,1838.629195
3681.386321,-11325.150913,444.123565,612.876398
3681.386651,-9548.656652,740.205942,-766.095498
3681.386981,-8808.450710,-148.041188,-2145.067394
3681.387310,-9400.615463,-1036.288319,-1072.533697
3681.387640,-10362.883188,0.000000,1225.752797
3681.387970,-10436.903782,-444.123565,2451.505594
3681.388299,-9326.594869,0.000000,919.314598
3681.388629,-7846.182985,222.061783,-459.657299
3681.388959,-8734.430116,-370.102971,-1072.533697
3681.389288,-10658.965565,370.102971,536.266849
3681.389618,-12213.398043,592.164754,1991.848295
3681.389948,-11769.274478,444.123565,1455.581446
3681.390277,-9252.574275,0.000000,-689.485948
3681.390607,-8068.244768,-1184.329507,-919.314598
3681.390937,-9326.594869,-962.267725,766.095498
3681.391266,-10584.944971,-518.144159,2834.553343
3681.391596,-10881.027347,-740.205942,2604.724693
3681.391926,-9474.636058,-222.061783,536.266849
3681.392255,-8586.388927,-666.185348,-689.485948
3681.392585,-9400.615463,-1332.370696,383.047749
3681.392915,-10584.944971,0.000000,2298.286494
3681.393244,-11473.192101,-444.123565,2911.162892
3681.393574,-10436.903782,-148.041188,995.924147
3681.393904,-8586.388927,-296.082377,-689.485948
3681.394233,-8068.244768,-1258.350101,-1072.533697
3681.394563,-9696.697840,-296.082377,612.876398
3681.394893,-11473.192101,74.020594,2528.115143
3681.395222,-11473.192101,-222.061783,1991.848295
3681.395552,-9030.512492,296.082377,-76.609550
3681.395882,-8068.244768,-518.144159,-1378.971896
3681.396211,-9474.636058,0.000000,-153.219100
3681.396541,-11325.150913,814.226536,1608.800546
3681.396871,-11769.274478,518.144159,1455.581446
3681.397200,-9844.739029,814.226536,-842.705048
3681.397530,-8660.409521,74.020594,-1991.848295
3681.397860,-10362.883188,-296.082377,-1302.362347
3681.398189,-11029.068536,222.061783,919.314598
3681.398519,-11177.109724,148.041188,1838.629195
3681.398849,-9992.780217,222.061783,229.828649
3681.399178,-8216.285956,148.041188,-1302.362347
3681.399508,-8734.430116,-444.123565,-1378.971896
3681.399838,-9548.656652,444.123565,0.000000
3681.400167,-10955.047942,444.123565,2145.067394
3681.400497,-10732.986159,222.061783,1072.533697
3681.400826,-9474.636058,592.164754,-1072.533697
3681.401156,-8882.471304,-370.102971,-2451.505594
3681.401486,-9400.615463,-518.144159,-1685.410096
3681.401815,-10288.862594,222.061783,766.095498
3681.402145,-10288.862594,0.000000,1455.581446
3681.402475,-8882.471304,296.082377,0.000000
3681.402804,-7550.100608,444.123565,-1302.362347
3681.403134,-8660.409521,-666.185348,-1915.238745
3681.403464,-10066.800811,296.082377,-306.438199
3681.403793,-11251.130318,74.020594,1532.190996
3681.404123,-10288.862594,518.144159,1608.800546
3681.404453,-8438.347739,518.144159,76.609550
3681.404782,-8438.347739,-444.123565,-689.485948
3681.405112,-9844.739029,0.000000,-153.219100
3681.405442,-11103.089130,518.144159,1915.238745
3681.405771,-11399.171507,148.041188,1532.190996
3681.406101,-9474.636058,666.185348,153.219100
3681.406431,-8290.306550,148.041188,-612.876398
3681.406760,-8808.450710,74.020594,76.609550
3681.407090,-10140.821405,444.123565,1225.752797
3681.407420,-10807.006753,444.123565,842.705048
3681.407749,-9696.697840,888.247130,-689.485948
3681.408079,-8438.347739,1036.288319,-1378.971896
3681.408409,-9104.533087,-74.020594,-306.438199
3681.408738,-10584.944971,592.164754,1608.800546
3681.409068,-11621.233289,222.061783,2451.505594
3681.409398,-11103.089130,0.000000,995.924147
3681.409727,-9030.512492,444.123565,-76.609550
3681.410057,-8438.347739,-888.247130,0.000000
3681.410387,-9030.512492,-666.185348,1762.019645
3681.410716,-9844.739029,74.020594,3830.477490
3681.411046,-10881.027347,296.082377,2987.772442
3681.411376,-9844.739029,814.226536,0.000000
3681.411705,-8808.450710,0.000000,-1378.971896
3681.412035,-9326.594869,-296.082377,-1455.581446
3681.412365,-10658.965565,666.185348,1149.143247
3681.412694,-11695.253884,370.102971,2834.553343
3681.413024,-10436.903782,148.041188,1762.019645
3681.413354,-8586.388927,74.020594,-766.095498
3681.413683,-8956.491898,-518.144159,-1225.752797
3681.414013,-9918.759623,296.082377,306.438199
3681.414343,-11251.130318,222.061783,1685.410096
3681.414672,-10362.883188,296.082377,2221.676944
3681.415002,-8734.430116,814.226536,383.047749
3681.415332,-8956.491898,0.000000,-536.266849
3681.415661,-10436.903782,74.020594,-459.657299
3681.415991,-10732.986159,444.123565,306.438199
3681.416321,-11177.109724,222.061783,689.485948
3681.416650,-9770.718434,592.164754,-1072.533697
3681.416980,-8734.430116,-222.061783,-1915.238745
3681.417310,-8660.409521,-740.205942,-1532.190996
3681.417639,-9770.718434,74.020594,0.000000
3681.417969,-10881.027347,0.000000,1072.533697
3681.418299,-10288.862594,370.102971,-306.438199
3681.418628,-8586.388927,296.082377,-842.705048
3681.418958,-8586.388927,-444.123565,-612.876398
3681.419288,-10214.842000,296.082377,612.876398
3681.419617,-11621.233289,592.164754,2681.334243
3681.419947,-11473.192101,0.000000,919.314598
3681.420277,-9474.636058,518.144159,-1762.019645
3681.420606,-8290.306550,-592.164754,-2604.724693
3681.420936,-8438.347739,-740.205942,-1762.019645
3681.421266,-9104.533087,0.000000,1225.752797
3681.421595,-10140.821405,-222.061783,1991.848295
3681.421925,-8956.491898,296.082377,842.705048
3681.422255,-8068.244768,296.082377,-689.485948
3681.422584,-9030.512492,74.020594,-689.485948
3681.422914,-10955.047942,740.205942,689.485948
3681.423244,-11769.274478,74.020594,2681.334243
3681.423573,-11029.068536,148.041188,1762.019645
3681.423903,-8808.450710,592.164754,-689.485948
3681.424233,-8216.285956,-814.226536,-1532.190996
3681.424562,-9030.512492,-148.041188,0.000000
3681.424892,-10214.842000,148.041188,1225.752797
3681.425222,-10658.965565,370.102971,1378.971896
3681.425551,-8956.491898,814.226536,153.219100
3681.425881,-8586.388927,-148.041188,-383.047749
3681.426211,-9326.594869,0.000000,0.000000
3681.426540,-10362.883188,222.061783,1455.581446
3681.426870,-11325.150913,-148.041188,1991.848295
3681.427200,-10436.903782,0.000000,306.438199
3681.427529,-8956.491898,-296.082377,-1455.581446
3681.427859,-8882.471304,-962.267725,-689.485948
3681.428189,-9770.718434,-296.082377,919.314598
3681.428518,-10881.027347,-222.061783,2604.724693
3681.428848,-10362.883188,0.000000,1991.848295
3681.429178,-8438.347739,296.082377,-689.485948
3681.429507,-8512.368333,-222.061783,-1149.143247
3681.429837,-9770.718434,592.164754,-153.219100
3681.430167,-11621.233289,888.247130,1838.629195
3681.430496,-12213.398043,370.102971,1838.629195
3681.430826,-11029.068536,1036.288319,0.000000
3681.431156,-9474.636058,-296.082377,-1608.800546
3681.431485,-9622.677246,-740.205942,-1378.971896
3681.431815,-10658.965565,-222.061783,766.095498
3681.432145,-11029.068536,-518.144159,2145.067394
3681.432474,-9326.594869,148.041188,1302.362347
3681.432804,-7994.224174,370.102971,0.000000
3681.433134,-7994.224174,-592.164754,-842.705048
3681.433463,-9696.697840,518.144159,-383.047749
3681.433793,-11473.192101,370.102971,1685.410096
3681.434123,-11843.295072,296.082377,306.438199
3681.434452,-10066.800811,888.247130,-1149.143247
3681.434782,-9104.533087,-370.102971,-2298.286494
3681.435111,-9104.533087,-518.144159,-1685.410096
3681.435441,-10362.883188,-296.082377,919.314598
3681.435771,-10362.883188,-814.226536,1378.971896
3681.436100,-8956.491898,148.041188,-76.609550
3681.436430,-7031.956449,-222.061783,-1149.143247
3681.436760,-7846.182985,-148.041188,-919.314598
3681.437089,-9696.697840,1036.288319,612.876398
3681.437419,-11843.295072,592.164754,1532.190996
3681.437749,-11251.130318,666.185348,229.828649
3681.438078,-9770.718434,888.247130,-1762.019645
3681.438408,-8660.409521,-962.267725,-2145.067394
3681.438738,-9474.636058,-666.185348,-459.657299
3681.439067,-10732.986159,-444.123565,2221.676944
3681.439397,-10214.842000,-592.164754,2145.067394
3681.439727,-8364.327145,370.102971,-536.266849
3681.440056,-7179.997637,-222.061783,-1072.533697
3681.440386,-8956.491898,148.041188,-306.438199
3681.440716,-11029.068536,1480.411884,1915.238745
3681.441045,-11991.336260,666.185348,2221.676944
3681.441375,-10955.047942,1110.308913,-229.828649
3681.441705,-9030.512492,222.061783,-2145.067394
3681.442034,-9696.697840,-740.205942,-1762.019645
3681.442364,-10436.903782,148.041188,0.000000
3681.442694,-11177.109724,-666.185348,2528.115143
3681.443023,-9770.718434,-370.102971,1838.629195
3681.443353,-7624.121203,0.000000,842.705048
3681.443683,-7920.203579,0.000000,766.095498
3681.444012,-9548.656652,74.020594,1378.971896
3681.444342,-10955.047942,592.164754,2604.724693
3681.444672,-12065.356855,518.144159,2068.457845
3681.445001,-10807.006753,814.226536,0.000000
3681.445331,-9252.574275,-666.185348,-1762.019645
3681.445661,-9030.512492,-888.247130,-689.485948
3681.445990,-9030.512492,-518.144159,1225.752797
3681.446320,-10510.924376,-666.185348,2145.067394
3681.446650,-9696.697840,148.041188,1838.629195
3681.446979,-8586.388927,-74.020594,0.000000
3681.447309,-8290.306550,-370.102971,306.438199
3681.447639,-9770.718434,814.226536,1225.752797
3681.447968,-11917.315666,1554.432478,2911.162892
3681.448298,-11547.212695,518.144159,1302.362347
3681.448628,-9622.677246,1036.288319,-1762.019645
3681.448957,-9252.574275,-444.123565,-3064.381992
3681.449287,-10066.800811,-74.020594,-1991.848295
3681.449617,-11325.150913,0.000000,919.314598
3681.449946,-11177.109724,-814.226536,2298.286494
3681.450276,-8438.347739,0.000000,459.657299
3681.450606,-6883.915261,-518.144159,-995.924147
3681.450935,-8068.244768,-148.041188,-995.924147
3681.451265,-10362.883188,740.205942,842.705048
3681.451595,-11843.295072,518.144159,1532.190996
3681.451924,-11399.171507,1184.329507,306.438199
3681.452254,-9548.656652,962.267725,-2221.676944
3681.452584,-9400.615463,-962.267725,-2911.162892
3681.452913,-10066.800811,-592.164754,-1455.581446
3681.453243,-10584.944971,-666.185348,536.266849
3681.453573,-10288.862594,-370.102971,459.657299
3681.453902,-8290.306550,0.000000,-919.314598
3681.454232,-7179.997637,-666.185348,-1072.533697
3681.454562,-8512.368333,-74.020594,0.000000
3681.454891,-10584.944971,1184.329507,1685.410096
3681.455221,-12139.377449,740.205942,1378.971896
3681.455551,-10584.944971,1110.308913,-1149.143247
3681.455880,-9104.533087,-222.061783,-2834.553343
3681.456210,-9474.636058,-888.247130,-2221.676944
3681.456540,-10510.924376,-370.102971,459.657299
3681.456869,-11177.109724,-1110.308913,2604.724693
3681.457199,-8956.491898,-1036.288319,1762.019645
3681.457529,-6883.915261,-74.020594,-76.609550
3681.457858,-7105.977043,-814.226536,-536.266849
3681.458188,-9178.553681,518.144159,1149.143247
3681.458518,-11251.130318,1332.370696,3294.210641
3681.458847,-11843.295072,1258.350101,2145.067394
3681.459177,-10510.924376,1406.391290,-536.266849
3681.459507,-9548.656652,-370.102971,-2451.505594
3681.459836,-10140.821405,-592.164754,-1915.238745
3681.460166,-10732.986159,-296.082377,306.438199
3681.460496,-10066.800811,-1184.329507,1302.362347
3681.460825,-7698.141797,-592.164754,459.657299
3681.461155,-6069.688724,-222.061783,76.609550
3681.461485,-7920.203579,0.000000,612.876398
3681.461814,-10658.965565,1406.391290,1685.410096
3681.462144,-12065.356855,1406.391290,3064.381992
3681.462474,-11695.253884,1110.308913,1149.143247
3681.462803,-10362.883188,1184.329507,-1149.143247
3681.463133,-10140.821405,-370.102971,-1302.362347
3681.463463,-10288.862594,-666.185348,306.438199
3681.463792,-10955.047942,-518.144159,1915.238745
3681.464122,-10288.862594,-962.267725,1762.019645
3681.464452,-7846.182985,-74.020594,383.047749
3681.464781,-6883.915261,-740.205942,612.876398
3681.465111,-8586.388927,444.123565,1608.800546
3681.465441,-10732.986159,1406.391290,3064.381992
3681.465770,-12731.542202,1480.411884,2681.334243
3681.466100,-11547.212695,1850.514855,-306.438199
3681.466430,-9770.718434,1036.288319,-2451.505594
3681.466759,-10140.821405,-444.123565,-2145.067394
3681.467089,-11029.068536,222.061783,229.828649
3681.467419,-11621.233289,-222.061783,1685.410096
3681.467749,-9326.594869,-222.061783,1149.143247
3681.468078,-7105.977043,74.020594,-153.219100
3681.468408,-7328.038826,-444.123565,-76.609550
3681.468738,-9474.636058,666.185348,842.705048
3681.469068,-11399.171507,1110.308913,2221.676944
3681.469398,-11769.274478,1110.308913,1455.581446
3681.469728,-9696.697840,1332.370696,-1302.362347
3681.470058,-8882.471304,0.000000,-2757.943793
3681.470387,-9770.718434,-370.102971,-2528.115143
3681.470717,-11177.109724,222.061783,0.000000
3681.471047,-11325.150913,-888.247130,842.705048
3681.471377,-9104.533087,-666.185348,76.609550
3681.471707,-7031.956449,-518.144159,-995.924147
3681.472037,-7476.080014,-444.123565,76.609550
3681.472367,-9548.656652,444.123565,995.924147
3681.472696,-10732.986159,888.247130,1838.629195
3681.473026,-11029.068536,1110.308913,306.438199
3681.473356,-9770.718434,1628.453072,-2221.676944
3681.473686,-9844.739029,-222.061783,-2757.943793
3681.474016,-10362.883188,0.000000,-2221.676944
3681.474346,-11177.109724,0.000000,536.266849
3681.474676,-10807.006753,-814.226536,1072.533697
3681.475005,-8586.388927,-370.102971,0.000000
3681.475335,-6735.874072,-1110.308913,-919.314598
3681.475665,-7698.141797,-1110.308913,383.047749
3681.475995,-9770.718434,888.247130,2451.505594
3681.476325,-11621.233289,1258.350101,3830.477490
3681.476655,-10955.047942,1258.350101,1225.752797
3681.476985,-9400.615463,1110.308913,-1532.190996
3681.477314,-10066.800811,-148.041188,-2221.676944
3681.477644,-11177.109724,0.000000,-306.438199
3681.477974,-11547.212695,-518.144159,1072.533697
3681.478304,-9918.759623,-814.226536,919.314598
3681.478634,-7179.997637,-592.164754,-536.266849
3681.478964,-6513.812290,-1554.432478,-612.876398
3681.479294,-8364.327145,-444.123565,919.314598
3681.479623,-9844.739029,370.102971,3064.381992
3681.479953,-11547.212695,888.247130,3294.210641
3681.480283,-10732.986159,1406.391290,153.219100
3681.480613,-10066.800811,370.102971,-1532.190996
3681.480943,-10584.944971,-444.123565,-919.314598
3681.481273,-11843.295072,74.020594,1838.629195
3681.481602,-11843.295072,-814.226536,2374.896044
3681.481932,-9474.636058,-444.123565,1149.143247
3681.482262,-7402.059420,-592.164754,0.000000
3681.482592,-7328.038826,-1184.329507,612.876398
3681.482922,-9030.512492,444.123565,2221.676944
3681.483252,-10584.944971,1184.329507,3524.039291
3681.483582,-11029.068536,1332.370696,1532.190996
3681.483911,-10140.821405,1702.473667,-1762.019645
3681.484241,-10066.800811,74.020594,-2451.505594
3681.484571,-11251.130318,296.082377,-1608.800546
3681.484901,-11399.171507,370.102971,766.095498
3681.485231,-11473.192101,-814.226536,1149.143247
3681.485561,-9030.512492,-740.205942,76.609550
3681.485891,-7179.997637,-962.267725,0.000000
3681.486220,-7550.100608,-592.164754,612.876398
3681.486550,-9400.615463,518.144159,2374.896044
3681.486880,-10807.006753,666.185348,2911.162892
3681.487210,-10732.986159,1554.432478,1072.533697
3681.487540,-9918.759623,1554.432478,-2221.676944
3681.487870,-9992.780217,0.000000,-3447.429741
3681.488200,-10881.027347,296.082377,-2528.115143
3681.488529,-11399.171507,0.000000,-76.609550
3681.488859,-10732.986159,-962.267725,-229.828649
3681.489189,-8068.244768,-592.164754,-1072.533697
3681.489519,-6883.915261,-1332.370696,-1455.581446
3681.489849,-7402.059420,-888.247130,-612.876398
3681.490179,-9326.594869,444.123565,1455.581446
3681.490509,-10510.924376,1036.288319,2145.067394
3681.490838,-10732.986159,1702.473667,459.657299
3681.491168,-9548.656652,1036.288319,-1685.410096
3681.491498,-10436.903782,0.000000,-2528.115143
3681.491828,-11473.192101,222.061783,-1378.971896
3681.492158,-12139.377449,-592.164754,306.438199
3681.492488,-9992.780217,-1258.350101,0.000000
3681.492818,-7105.977043,-740.205942,-459.657299
3681.493147,-6513.812290,-1628.453072,-842.705048
3681.493477,-7920.203579,-444.123565,1149.143247
3681.493807,-9696.697840,814.226536,2987.772442
3681.494137,-11399.171507,962.267725,2911.162892
3681.494467,-10362.883188,2072.576638,0.000000
3681.494797,-9474.636058,888.247130,-1302.362347
3681.495127,-10807.006753,0.000000,-1685.410096
3681.495456,-11621.233289,222.061783,459.657299
3681.495786,-11621.233289,-888.247130,1302.362347
3681.496116,-9622.677246,-814.226536,306.438199
3681.496446,-6809.894666,-1036.288319,-919.314598
3681.496776,-7105.977043,-1258.350101,383.047749
3681.497106,-9104.533087,222.061783,1915.238745
3681.497436,-10807.006753,814.226536,3600.648841
3681.497765,-10881.027347,1184.329507,2145.067394
3681.498095,-9918.759623,1110.308913,-536.266849
3681.498425,-9992.780217,0.000000,-1378.971896
3681.498755,-10881.027347,-296.082377,-229.828649
3681.499085,-11029.068536,-74.020594,1455.581446
3681.499415,-11103.089130,-1036.288319,1838.629195
3681.499745,-9104.533087,-444.123565,689.485948
3681.500074,-7846.182985,-1110.308913,0.000000
3681.500404,-8438.347739,-814.226536,1072.533697
3681.500734,-9104.533087,444.123565,2451.505594
3681.501064,-10732.986159,444.123565,3217.601092
3681.501394,-10584.944971,1036.288319,1608.800546
3681.501724,-9104.533087,1184.329507,-919.314598
3681.502054,-9474.636058,370.102971,-1991.848295
3681.502383,-11103.089130,814.226536,-1149.143247
3681.502713,-12139.377449,222.061783,536.266849
3681.503043,-11621.233289,-370.102971,383.047749
3681.503373,-8882.471304,-444.123565,-766.095498
3681.503703,-7550.100608,-1332.370696,-1302.362347
3681.504033,-8142.265362,-1110.308913,0.000000
3681.504363,-9252.574275,0.000000,2221.676944
3681.504692,-9992.780217,222.061783,2834.553343
3681.505022,-9474.636058,1332.370696,0.000000
3681.505352,-8660.409521,296.082377,-1532.190996
3681.505682,-10140.821405,148.041188,-1532.190996
3681.506012,-11991.336260,740.205942,229.828649
3681.506342,-13027.624579,-592.164754,1302.362347
3681.506672,-11251.130318,-592.164754,-229.828649
3681.507001,-8364.327145,-814.226536,-1685.410096
3681.507331,-7328.038826,-1776.494261,-1608.800546
3681.507661,-7994.224174,-444.123565,306.438199
3681.507991,-8956.491898,-222.061783,2451.505594
3681.508321,-10362.883188,962.267725,1532.190996
3681.508651,-9844.739029,1998.556043,-766.095498
3681.508981,-9696.697840,518.144159,-2451.505594
3681.509310,-11029.068536,148.041188,-2298.286494
3681.509640,-11695.253884,148.041188,0.000000
3681.509970,-11917.315666,-592.164754,1762.019645
3681.510300,-9548.656652,-666.185348,383.047749
3681.510630,-6883.915261,-1110.308913,-1072.533697
3681.510960,-6735.874072,-1702.473667,-689.485948
3681.511290,-8586.388927,0.000000,1302.362347
3681.511619,-10955.047942,370.102971,3524.039291
3681.511949,-11177.109724,888.247130,2604.724693
3681.512279,-9474.636058,1554.432478,0.000000
3681.512609,-8586.388927,222.061783,-1455.581446
3681.512939,-10436.903782,518.144159,-1225.752797
3681.513269,-11695.253884,666.185348,306.438199
3681.513599,-11621.233289,0.000000,229.828649
3681.513928,-9104.533087,444.123565,-536.266849
3681.514258,-7624.121203,-370.102971,-459.657299
3681.514588,-8512.368333,-518.144159,919.314598
3681.514918,-9622.677246,370.102971,2987.772442
3681.515248,-10510.924376,296.082377,2528.115143
3681.515578,-9548.656652,1332.370696,995.924147
3681.515908,-8956.491898,1258.350101,-689.485948
3681.516237,-10066.800811,444.123565,-229.828649
3681.516567,-11251.130318,962.267725,919.314598
3681.516897,-12361.439231,222.061783,1838.629195
3681.517227,-11177.109724,-296.082377,842.705048
3681.517557,-8142.265362,-222.061783,-919.314598
3681.517887,-6587.832884,-1850.514855,-383.047749
3681.518216,-7624.121203,-962.267725,1225.752797
3681.518546,-9992.780217,370.102971,3830.477490
3681.518876,-11103.089130,296.082377,3217.601092
3681.519206,-10436.903782,1406.391290,689.485948
3681.519536,-9178.553681,814.226536,-995.924147
3681.519866,-10066.800811,592.164754,-995.924147
3681.520196,-11769.274478,1480.411884,689.485948
3681.520525,-12435.459826,148.041188,1072.533697
3681.520855,-10658.965565,592.164754,-306.438199
3681.521185,-8512.368333,222.061783,-1838.629195
3681.521515,-8438.347739,-962.267725,-1302.362347
3681.521845,-9252.574275,-148.041188,153.219100
3681.522175,-9770.718434,-296.082377,2451.505594
3681.522505,-9696.697840,74.020594,1915.238745
3681.522834,-8438.347739,962.267725,-689.485948
3681.523164,-8438.347739,0.000000,-1915.238745
3681.523494,-10510.924376,0.000000,-842.705048
3681.523824,-12361.439231,518.144159,1072.533697
3681.524154,-12509.480420,-592.164754,1149.143247
3681.524484,-9548.656652,-666.185348,-536.266849
3681.524814,-6957.935855,-1258.350101,-2221.676944
3681.525143,-7328.038826,-1554.432478,-1302.362347
3681.525473,-8882.471304,0.000000,1072.533697
3681.525803,-10658.965565,0.000000,2145.067394
3681.526133,-10807.006753,666.185348,995.924147
3681.526463,-8586.388927,1258.350101,-1915.238745
3681.526793,-8808.450710,-370.102971,-2604.724693
3681.527123,-10584.944971,444.123565,-995.924147
3681.527452,-11917.315666,74.020594,1149.143247
3681.527782,-11843.295072,-370.102971,1149.143247
3681.528112,-9104.533087,-370.102971,-76.609550
3681.528442,-7624.121203,-1406.391290,-766.095498
3681.528772,-8364.327145,-1110.308913,459.657299
3681.529102,-10066.800811,0.000000,2681.334243
3681.529432,-10732.986159,0.000000,3370.820191
3681.529761,-9474.636058,1036.288319,1225.752797
3681.530091,-8290.306550,888.247130,-1072.533697
3681.530421,-9548.656652,0.000000,-1378.971896
3681.530751,-11695.253884,1110.308913,153.219100
3681.531081,-12657.521608,0.000000,1225.752797
3681.531411,-10807.006753,-148.041188,-229.828649
3681.531741,-7920.203579,-296.082377,-1455.581446
3681.532070,-7179.997637,-1850.514855,-1072.533697
3681.532400,-8586.388927,-740.205942,1455.581446
3681.532730,-9770.718434,0.000000,3753.867940
3681.533060,-10658.965565,-148.041188,2834.553343
3681.533390,-9030.512492,962.267725,-153.219100
3681.533720,-8142.265362,74.020594,-1532.190996
3681.534050,-9696.697840,0.000000,0.000000
3681.534379,-11621.233289,740.205942,2374.896044
3681.534709,-12213.398043,-370.102971,2987.772442
3681.535039,-10362.883188,148.041188,-153.219100
3681.535369,-8364.327145,-296.082377,-2374.896044
3681.535699,-8734.430116,-1184.329507,-1225.752797
3681.536029,-9474.636058,222.061783,1378.971896
3681.536359,-10288.862594,814.226536,3524.039291
3681.536688,-9696.697840,1036.288319,2451.505594
3681.537018,-8216.285956,1406.391290,-536.266849
3681.537348,-9178.553681,222.061783,-2221.676944
3681.537678,-11103.089130,962.267725,-1225.752797
3681.538008,-12657.521608,1184.329507,459.657299
3681.538338,-12731.542202,518.144159,842.705048
3681.538668,-9622.677246,222.061783,-689.485948
3681.538997,-7550.100608,-1184.329507,-1762.019645
3681.539327,-8512.368333,-962.267725,-766.095498
3681.539657,-9918.759623,222.061783,1608.800546
3681.539987,-10881.027347,0.000000,2757.943793
3681.540317,-9918.759623,1110.308913,995.924147
3681.540647,-8364.327145,740.205942,-919.314598
3681.540977,-9252.574275,-222.061783,-1532.190996
3681.541306,-10807.006753,592.164754,-919.314598
3681.541636,-12139.377449,296.082377,153.219100
3681.541966,-11103.089130,74.020594,-459.657299
3681.542296,-8734.430116,222.061783,-1838.629195
3681.542626,-8068.244768,-888.247130,-1915.238745
3681.542956,-8882.471304,-740.205942,-229.828649
3681.543286,-10362.883188,-296.082377,1608.800546
3681.543615,-10881.027347,-666.185348,2068.457845
3681.543945,-9104.533087,444.123565,-153.219100
3681.544275,-7550.100608,-296.082377,-1532.190996
3681.544605,-8364.327145,-962.267725,-1149.143247
3681.544935,-10436.903782,740.205942,689.485948
3681.545265,-11991.336260,0.000000,2068.457845
3681.545595,-10732.986159,0.000000,-153.219100
3681.545924,-8734.430116,-222.061783,-2221.676944
3681.546254,-8586.388927,-1776.494261,-1685.410096
3681.546584,-9548.656652,-1258.350101,612.876398
3681.546914,-9992.780217,-888.247130,3370.820191
3681.547244,-9474.636058,-444.123565,2528.115143
3681.547574,-7105.977043,222.061783,0.000000
3681.547904,-7994.224174,-148.041188,-1838.629195
3681.548233,-10436.903782,518.144159,-995.924147
3681.548563,-12287.418637,1110.308913,1072.533697
3681.548893,-12435.459826,0.000000,1915.238745
3681.549223,-10658.965565,370.102971,-383.047749
3681.549553,-8216.285956,-962.267725,-1608.800546
3681.549883,-8586.388927,-1406.391290,-229.828649
3681.550213,-9474.636058,-370.102971,1455.581446
3681.550542,-10584.944971,-296.082377,2911.162892
3681.550872,-9400.615463,74.020594,1762.019645
3681.551202,-7994.224174,666.185348,-229.828649
3681.551532,-9030.512492,0.000000,-306.438199
3681.551862,-11177.109724,592.164754,1762.019645
3681.552192,-12657.521608,740.205942,2451.505594
3681.552522,-11843.295072,222.061783,1302.362347
3681.552851,-9400.615463,296.082377,-766.095498
3681.553181,-8438.347739,-888.247130,-1378.971896
3681.553511,-9622.677246,-666.185348,306.438199
3681.553841,-10658.965565,296.082377,2298.286494
3681.554171,-10658.965565,-518.144159,2757.943793
3681.554501,-9030.512492,370.102971,689.485948
3681.554830,-7624.121203,222.061783,-1225.752797
3681.555160,-8808.450710,148.041188,-919.314598
3681.555490,-10436.903782,1554.432478,536.266849
3681.555820,-11843.295072,962.267725,1378.971896
3681.556150,-11399.171507,740.205942,-306.438199
3681.556480,-9474.636058,518.144159,-2451.505594
3681.556810,-9400.615463,-962.267725,-2298.286494
3681.557139,-9770.718434,-740.205942,-229.828649
3681.557469,-9770.718434,-296.082377,2068.457845
3681.557799,-9918.759623,-370.102971,1915.238745
3681.558129,-8290.306550,444.123565,-383.047749
3681.558459,-7772.162391,296.082377,-1991.848295
3681.558789,-9030.512492,296.082377,-1072.533697
3681.559119,-11769.274478,1554.432478,612.876398
3681.559448,-12583.501014,592.164754,1225.752797
3681.559778,-11103.089130,296.082377,-766.095498
3681.560108,-8734.430116,0.000000,-3294.210641
3681.560438,-8438.347739,-1480.411884,-2757.943793
3681.560768,-9326.594869,-740.205942,-306.438199
3681.561098,-10214.842000,-296.082377,1532.190996
3681.561428,-9770.718434,-518.144159,766.095498
3681.561757,-7772.162391,370.102971,-1149.143247
3681.562087,-7772.162391,-592.164754,-1455.581446
3681.562417,-9622.677246,296.082377,459.657299
3681.562747,-11547.212695,444.123565,1991.848295
3681.563077,-11695.253884,0.000000,1608.800546
3681.563407,-9622.677246,148.041188,-306.438199
3681.563737,-8216.285956,-888.247130,-1762.019645
3681.564066,-9400.615463,-1480.411884,-766.095498
3681.564396,-10362.883188,-74.020594,1838.629195
3681.564726,-10584.944971,-814.226536,2451.505594
3681.565056,-9178.553681,-296.082377,536.266849
3681.565386,-7105.977043,74.020594,-766.095498
3681.565716,-8216.285956,-592.164754,-536.266849
3681.566046,-10214.842000,888.247130,536.266849
3681.566375,-11399.171507,814.226536,1608.800546
3681.566705,-11547.212695,222.061783,766.095498
3681.567035,-9474.636058,592.164754,-919.314598
3681.567365,-8734.430116,-1036.288319,-1302.362347
3681.567695,-9622.677246,-444.123565,-306.438199
3681.568025,-10881.027347,0.000000,1991.848295
3681.568355,-10955.047942,-296.082377,2681.334243
3681.568684,-9252.574275,666.185348,919.314598
3681.569014,-8290.306550,74.020594,-1072.533697
3681.569344,-9178.553681,0.000000,0.000000
3681.569674,-10066.800811,814.226536,1762.019645
3681.570004,-11547.212695,148.041188,2374.896044
3681.570334,-10362.883188,518.144159,766.095498
3681.570664,-8882.471304,222.061783,-1072.533697
3681.570993,-9400.615463,-592.164754,-1149.143247
3681.571323,-10214.842000,148.041188,383.047749
3681.571653,-10807.006753,222.061783,2374.896044
3681.571983,-10584.944971,74.020594,1991.848295
3681.572313,-8956.491898,962.267725,-229.828649
3681.572643,-7772.162391,74.020594,-766.095498
3681.572973,-9326.594869,296.082377,0.000000
3681.573302,-11251.130318,1036.288319,1838.629195
3681.573632,-12583.501014,592.164754,1608.800546
3681.573962,-10214.842000,888.247130,-229.828649
3681.574292,-8438.347739,74.020594,-1762.019645
3681.574622,-9104.533087,-592.164754,-766.095498
3681.574952,-10362.883188,296.082377,842.705048
3681.575282,-11473.192101,74.020594,2221.676944
3681.575611,-10288.862594,148.041188,612.876398
3681.575941,-8438.347739,592.164754,-1302.362347
3681.576271,-8586.388927,-444.123565,-842.705048
3681.576601,-9622.677246,296.082377,76.609550
3681.576931,-10955.047942,592.164754,995.924147
3681.577261,-10658.965565,-74.020594,612.876398
3681.577590,-9178.553681,74.020594,-842.705048
3681.577920,-8586.388927,-666.185348,-1455.581446
3681.578250,-9918.759623,-444.123565,0.000000
3681.578580,-10214.842000,518.144159,1378.971896
3681.578910,-10658.965565,-518.144159,1072.533697
3681.579240,-9474.636058,0.000000,-459.657299
3681.579570,-7994.224174,-222.061783,-1608.800546
3681.579899,-8882.471304,-962.267725,-766.095498
3681.580229,-9400.615463,222.061783,689.485948
3681.580559,-10288.862594,0.000000,1455.581446
3681.580889,-10214.842000,222.061783,76.609550
3681.581219,-8808.450710,296.082377,-1762.019645
3681.581549,-8882.471304,-592.164754,-1532.190996
3681.581879,-9696.697840,-814.226536,0.000000
3681.582208,-10732.986159,296.082377,1838.629195
3681.582538,-10584.944971,-518.144159,1991.848295
3681.582868,-9104.533087,814.226536,153.219100
3681.583198,-8586.388927,0.000000,-1378.971896
3681.583528,-9622.677246,-518.144159,-919.314598
3681.583858,-10732.986159,444.123565,689.485948
3681.584188,-11399.171507,222.061783,1685.410096
3681.584517,-9770.718434,370.102971,76.609550
3681.584847,-8142.265362,148.041188,-1532.190996
3681.585177,-8808.450710,-1184.329507,-995.924147
3681.585507,-10807.006753,0.000000,1072.533697
3681.585837,-11843.295072,0.000000,2681.334243
3681.586167,-10881.027347,0.000000,1762.019645
3681.586497,-8364.327145,-444.123565,76.609550
3681.586826,-8438.347739,-1036.288319,-306.438199
3681.587156,-10066.800811,-296.082377,1225.752797
3681.587486,-11399.171507,74.020594,2451.505594
3681.587816,-11325.150913,-444.123565,1991.848295
3681.588146,-9030.512492,296.082377,-306.438199
3681.588476,-8142.265362,0.000000,-995.924147
3681.588805,-9844.739029,-592.164754,-306.438199
3681.589135,-10881.027347,444.123565,1225.752797
3681.589465,-10658.965565,-444.123565,1838.629195
3681.589795,-10066.800811,0.000000,306.438199
3681.590125,-8660.409521,148.041188,-995.924147
3681.590455,-8660.409521,-370.102971,-536.266849
3681.590785,-9622.677246,592.164754,612.876398
3681.591114,-10658.965565,814.226536,1838.629195
3681.591444,-10807.006753,370.102971,1378.971896
3681.591774,-9474.636058,1258.350101,-919.314598
3681.592104,-9474.636058,222.061783,-842.705048
3681.592434,-10732.986159,0.000000,-612.876398
3681.592764,-11325.150913,518.144159,1072.533697
3681.593094,-10510.924376,-370.102971,842.705048
3681.593423,-8882.471304,74.020594,-383.047749
3681.593753,-7476.080014,0.000000,-1225.752797
3681.594083,-8290.306550,-370.102971,-689.485948
3681.594413,-9770.718434,740.205942,229.828649
3681.594743,-11103.089130,296.082377,1532.190996
3681.595073,-10955.047942,444.123565,536.266849
3681.595403,-9252.574275,888.247130,-689.485948
3681.595732,-8882.471304,-666.185348,-1378.971896
3681.596062,-9770.718434,-222.061783,153.219100
3681.596392,-10807.006753,0.000000,1685.410096
3681.596722,-10807.006753,-592.164754,919.314598
3681.597052,-9030.512492,0.000000,-536.266849
3681.597382,-8142.265362,-444.123565,-1225.752797
3681.597712,-9474.636058,0.000000,306.438199
3681.598041,-10140.821405,518.144159,1991.848295
3681.598371,-11029.068536,0.000000,1838.629195
3681.598701,-9400.615463,444.123565,-383.047749
3681.599031,-8512.368333,222.061783,-1608.800546
3681.599361,-9474.636058,-370.102971,-1149.143247
3681.599691,-10288.862594,518.144159,919.314598
3681.600021,-11103.089130,0.000000,2374.896044
3681.600350,-10362.883188,296.082377,689.485948
3681.600680,-9326.594869,814.226536,-1072.533697
3681.601010,-9178.553681,-444.123565,-689.485948
3681.601340,-9918.759623,148.041188,459.657299
3681.601670,-10140.821405,370.102971,2221.676944
3681.602000,-10140.821405,148.041188,1149.143247
3681.602329,-8808.450710,666.185348,-536.266849
3681.602659,-8808.450710,148.041188,-1685.410096
3681.602989,-10066.800811,-148.041188,0.000000
3681.603319,-11621.233289,370.102971,1532.190996
3681.603649,-12287.418637,-148.041188,1915.238745
3681.603979,-9844.739029,-518.144159,1225.752797
3681.604309,-7772.162391,-444.123565,-459.657299
3681.604638,-7846.182985,-1554.432478,76.609550
3681.604968,-9326.594869,148.041188,1685.410096
3681.605298,-9918.759623,74.020594,2834.553343
3681.605628,-10362.883188,222.061783,1072.533697
3681.605958,-9252.574275,1184.329507,-995.924147
3681.606288,-9918.759623,0.000000,-1225.752797
3681.606618,-10881.027347,0.000000,-612.876398
3681.606947,-11325.150913,666.185348,1302.362347
3681.607277,-10881.027347,0.000000,1455.581446
3681.607607,-8956.491898,592.164754,-306.438199
3681.607937,-8142.265362,-296.082377,-995.924147
3681.608267,-9474.636058,-74.020594,-306.438199
3681.608597,-10658.965565,1110.308913,1378.971896
3681.608927,-11473.192101,370.102971,2604.724693
3681.609256,-10362.883188,592.164754,995.924147
3681.609586,-8956.491898,814.226536,-766.095498
3681.609916,-9030.512492,-370.102971,-919.314598
3681.610246,-10510.924376,370.102971,-842.705048
3681.610576,-11177.109724,222.061783,383.047749
3681.610906,-10955.047942,0.000000,229.828649
3681.611236,-8734.430116,444.123565,-1762.019645
3681.611565,-8438.347739,-962.267725,-1149.143247
3681.611895,-9178.553681,-296.082377,-153.219100
3681.612225,-9844.739029,296.082377,1225.752797
3681.612555,-10362.883188,-592.164754,306.438199
3681.612885,-9030.512492,666.185348,-842.705048
3681.613215,-8216.285956,0.000000,-1532.190996
3681.613544,-9326.594869,-666.185348,-1149.143247
3681.613874,-10362.883188,444.123565,689.485948
3681.614204,-11177.109724,0.000000,1149.143247
3681.614534,-10584.944971,-148.041188,-459.657299
3681.614864,-9030.512492,0.000000,-1838.629195
3681.615194,-8808.450710,-1628.453072,-1532.190996
3681.615524,-9178.553681,-296.082377,-229.828649
3681.615853,-9770.718434,-222.061783,2145.067394
3681.616183,-10214.842000,-370.102971,2068.457845
3681.616513,-8290.306550,444.123565,-459.657299
3681.616843,-8216.285956,-518.144159,-1685.410096
3681.617173,-9844.739029,-74.020594,-612.876398
3681.617503,-11325.150913,592.164754,1608.800546
3681.617833,-12287.418637,296.082377,2221.676944
3681.618162,-10584.944971,370.102971,229.828649
3681.618492,-8512.368333,-222.061783,-1302.362347
3681.618822,-9326.594869,-1184.329507,-1072.533697
3681.619152,-10214.842000,370.102971,612.876398
3681.619482,-10732.986159,0.000000,1378.971896
3681.619812,-9918.759623,296.082377,1225.752797
3681.620142,-8438.347739,1036.288319,-383.047749
3681.620471,-9030.512492,-296.082377,-612.876398
3681.620801,-10140.821405,666.185348,612.876398
3681.621131,-11103.089130,888.247130,2374.896044
3681.621461,-11621.233289,222.061783,1455.581446
3681.621791,-9770.718434,444.123565,-612.876398
3681.622121,-8660.409521,-962.267725,-919.314598
3681.622451,-9104.533087,-1036.288319,153.219100
3681.622780,-10214.842000,0.000000,2298.286494
3681.623110,-10807.006753,-666.185348,2145.067394
3681.623440,-8438.347739,-444.123565,306.438199
3681.623770,-7402.059420,0.000000,-383.047749
3681.624100,-8882.471304,-740.205942,306.438199
3681.624430,-10214.842000,592.164754,1838.629195
3681.624760,-11399.171507,370.102971,2604.724693
3681.625089,-10881.027347,740.205942,766.095498
3681.625419,-9474.636058,1406.391290,-1072.533697
3681.625749,-9844.739029,-518.144159,-1302.362347
3681.626079,-10584.944971,-148.041188,0.000000
3681.626409,-10510.924376,518.144159,2068.457845
3681.626739,-10362.883188,0.000000,1762.019645
3681.627068,-8364.327145,740.205942,-1378.971896
3681.627398,-7179.997637,370.102971,-2145.067394
3681.627728,-8808.450710,592.164754,-1455.581446
3681.628058,-11177.109724,1628.453072,842.705048
3681.628388,-12213.398043,814.226536,1762.019645
3681.628718,-11103.089130,1110.308913,76.609550
3681.629048,-9252.574275,518.144159,-1762.019645
3681.629377,-9474.636058,-740.205942,-1762.019645
3681.629707,-10214.842000,-148.041188,76.609550
3681.630037,-10658.965565,-370.102971,1455.581446
3681.630367,-9474.636058,-74.020594,1149.143247
3681.630697,-8068.244768,814.226536,-536.266849
3681.631027,-8290.306550,-148.041188,-766.095498
3681.631357,-9992.780217,518.144159,76.609550
3681.631686,-10732.986159,1036.288319,766.095498
3681.632016,-11029.068536,0.000000,842.705048
3681.632346,-9770.718434,666.185348,-842.705048
3681.632676,-8290.306550,-740.205942,-1685.410096
3681.633006,-9178.553681,-888.247130,-919.314598
3681.633336,-9696.697840,222.061783,536.266849
3681.633666,-10807.006753,-370.102971,1378.971896
3681.633995,-9474.636058,-74.020594,842.705048
3681.634325,-7624.121203,0.000000,-459.657299
3681.634655,-8586.388927,-592.164754,153.219100
3681.634985,-9696.697840,148.041188,1991.848295
3681.635315,-11399.171507,592.164754,3140.991542
3681.635645,-11103.089130,666.185348,1072.533697
3681.635975,-9104.533087,1036.288319,-1762.019645
3681.636304,-9474.636058,-222.061783,-2068.457845
3681.636634,-10436.903782,-370.102971,-383.047749
3681.636964,-11029.068536,444.123565,995.924147
3681.637294,-10658.965565,-592.164754,1225.752797
3681.637624,-8660.409521,-222.061783,0.000000
3681.637954,-7254.018232,-370.102971,-689.485948
3681.638284,-8216.285956,-370.102971,995.924147
3681.638613,-10288.862594,814.226536,2757.943793
3681.638943,-11843.295072,518.144159,3447.429741
3681.639273,-11399.171507,592.164754,1378.971896
3681.639603,-10288.862594,888.247130,-842.705048
3681.639933,-10288.862594,-1110.308913,-1302.362347
3681.640263,-10732.986159,-444.123565,306.438199
3681.640592,-10140.821405,-296.082377,1838.629195
3681.640922,-9622.677246,-814.226536,1685.410096
3681.641252,-7994.224174,74.020594,-612.876398
3681.641582,-7402.059420,-666.185348,-919.314598
3681.641912,-9326.594869,0.000000,0.000000
3681.642242,-10955.047942,1184.329507,1532.190996
3681.642572,-12065.356855,296.082377,1532.190996
3681.642901,-10658.965565,592.164754,-229.828649
3681.643231,-9178.553681,-296.082377,-1838.629195
3681.643561,-9918.759623,-1258.350101,-689.485948
3681.643891,-10732.986159,148.041188,919.314598
3681.644221,-10658.965565,-740.205942,1685.410096
3681.644551,-9252.574275,-888.247130,306.438199
3681.644881,-7772.162391,0.000000,-842.705048
3681.645210,-8068.244768,-888.247130,-766.095498
3681.645540,-9474.636058,-148.041188,306.438199
3681.645870,-10214.842000,814.226536,1685.410096
3681.646200,-10807.006753,222.061783,612.876398
3681.646530,-9770.718434,1332.370696,-2298.286494
3681.646860,-9548.656652,0.000000,-3294.210641
3681.647190,-10436.903782,-814.226536,-1838.629195
3681.647519,-10881.027347,0.000000,153.219100
3681.647849,-11251.130318,-740.205942,1225.752797
3681.648179,-9030.512492,-592.164754,306.438199
3681.648509,-7328.038826,-444.123565,-612.876398
3681.648839,-7550.100608,-740.205942,0.000000
3681.649169,-9400.615463,666.185348,766.095498
3681.649499,-11103.089130,1036.288319,2068.457845
3681.649828,-11103.089130,666.185348,766.095498
3681.650158,-9474.636058,1332.370696,-1532.190996
3681.650488,-9622.677246,-518.144159,-2374.896044
3681.650818,-10955.047942,-740.205942,-995.924147
3681.651148,-11177.109724,-222.061783,1149.143247
3681.651478,-10288.862594,-1480.411884,1608.800546
3681.651807,-7402.059420,-518.144159,153.219100
3681.652137,-6883.915261,-962.267725,0.000000
3681.652467,-8364.327145,-296.082377,1302.362347
3681.652797,-10066.800811,1036.288319,2298.286494
3681.653127,-11621.233289,814.226536,2451.505594
3681.653457,-11325.150913,962.267725,153.219100
3681.653787,-9770.718434,888.247130,-919.314598
3681.654116,-9622.677246,-592.164754,-766.095498
3681.654446,-10436.903782,0.000000,536.266849
3681.654776,-10436.903782,0.000000,1149.143247
3681.655106,-9696.697840,-370.102971,612.876398
3681.655436,-7994.224174,518.144159,-766.095498
3681.655766,-7624.121203,-518.144159,-153.219100
3681.656096,-9400.615463,592.164754,1608.800546
3681.656425,-10288.862594,1184.329507,2757.943793
3681.656755,-10955.047942,444.123565,2221.676944
3681.657085,-9770.718434,1036.288319,-612.876398
3681.657415,-9252.574275,222.061783,-1302.362347
3681.657745,-11029.068536,0.000000,0.000000
3681.658075,-11103.089130,444.123565,1838.629195
3681.658405,-10881.027347,-370.102971,2757.943793
3681.658734,-9400.615463,0.000000,1532.190996
3681.659064,-7846.182985,74.020594,76.609550
3681.659394,-8364.327145,-370.102971,459.657299
3681.659724,-9548.656652,1110.308913,1378.971896
3681.660054,-10066.800811,1184.329507,2145.067394
3681.660384,-11103.089130,1406.391290,1302.362347
3681.660714,-10066.800811,1850.514855,-1225.752797
3681.661043,-10214.842000,222.061783,-1991.848295
3681.661373,-10658.965565,370.102971,-1378.971896
3681.661703,-11177.109724,518.144159,383.047749
3681.662033,-11399.171507,-296.082377,1149.143247
3681.662363,-9252.574275,148.041188,229.828649
3681.662693,-7624.121203,-148.041188,76.609550
3681.663023,-8364.327145,-740.205942,0.000000
3681.663352,-10066.800811,592.164754,1455.581446
3681.663682,-10140.821405,444.123565,1991.848295
3681.664012,-9696.697840,666.185348,0.000000
3681.664342,-8808.450710,1110.308913,-1532.190996
3681.664672,-9696.697840,-444.123565,-1838.629195
3681.665002,-11103.089130,0.000000,-612.876398
3681.665331,-11473.192101,-148.041188,306.438199
3681.665661,-10510.924376,-1184.329507,-689.485948
3681.665991,-7994.224174,-592.164754,-1685.410096
3681.666321,-7402.059420,-1110.308913,-995.924147
3681.666651,-8734.430116,-592.164754,383.047749
3681.666981,-9622.677246,518.144159,1532.190996
3681.667311,-10807.006753,0.000000,1378.971896
3681.667640,-9918.759623,888.247130,-459.657299
3681.667970,-9252.574275,592.164754,-1455.581446
3681.668300,-10584.944971,-888.247130,-919.314598
3681.668630,-11251.130318,-74.020594,842.705048
3681.668960,-11473.192101,-740.205942,1225.752797
3681.669289,-9622.677246,-1406.391290,153.219100
3681.669619,-7402.059420,-592.164754,-1225.752797
3681.669949,-7698.141797,-1258.350101,0.000000
3681.670279,-9104.533087,-444.123565,919.314598
3681.670608,-9474.636058,370.102971,1685.410096
3681.670938,-10510.924376,222.061783,1149.143247
3681.671268,-9696.697840,1110.308913,-919.314598
3681.671598,-9474.636058,148.041188,-1455.581446
3681.671927,-10436.903782,-370.102971,-689.485948
3681.672257,-10658.965565,222.061783,1149.143247
3681.672587,-11325.150913,-592.164754,842.705048
3681.672917,-9844.739029,-370.102971,0.000000
3681.673247,-7772.162391,-666.185348,-536.266849
3681.673576,-8586.388927,-1332.370696,536.266849
3681.673906,-9696.697840,74.020594,2298.286494
3681.674236,-10288.862594,222.061783,3447.429741
3681.674566,-10362.883188,370.102971,1991.848295
3681.674895,-9326.594869,1258.350101,-459.657299
3681.675225,-9992.780217,-296.082377,-1302.362347
3681.675555,-10955.047942,296.082377,-383.047749
3681.675885,-11399.171507,370.102971,1302.362347
3681.676214,-11251.130318,-518.144159,1455.581446
3681.676544,-8882.471304,-222.061783,306.438199
3681.676874,-7550.100608,-592.164754,229.828649
3681.677204,-8290.306550,-888.247130,1378.971896
3681.677534,-8956.491898,592.164754,2451.505594
3681.677863,-10362.883188,1110.308913,1608.800546
3681.678193,-10066.800811,1258.350101,995.924147
3681.678523,-9252.574275,1406.391290,-1225.752797
3681.678853,-10584.944971,74.020594,-1225.752797
3681.679182,-12065.356855,1184.329507,229.828649
3681.679512,-11991.336260,0.000000,995.924147
3681.679842,-10658.965565,-296.082377,76.609550
3681.680172,-7994.224174,148.041188,-919.314598
3681.680501,-7698.141797,-666.185348,-383.047749
3681.680831,-8364.327145,0.000000,842.705048
3681.681161,-9104.533087,1110.308913,1685.410096
3681.681491,-10362.883188,740.205942,1302.362347
3681.681821,-10288.862594,1776.494261,-1149.143247
3681.682150,-9252.574275,962.267725,-2911.162892
3681.682480,-11029.068536,0.000000,-1991.848295
3681.682810,-11251.130318,444.123565,-689.485948
3681.683140,-11251.130318,-666.185348,306.438199
3681.683469,-9400.615463,-370.102971,-306.438199
3681.683799,-7550.100608,-592.164754,-1532.190996
3681.684129,-8068.244768,-1406.391290,-689.485948
3681.684459,-9030.512492,-370.102971,766.095498
3681.684788,-9918.759623,444.123565,2221.676944
3681.685118,-9918.759623,0.000000,1455.581446
3681.685448,-9400.615463,1332.370696,-689.485948
3681.685778,-9548.656652,0.000000,-1915.238745
3681.686107,-10584.944971,-518.144159,-1532.190996
3681.686437,-10881.027347,0.000000,-229.828649
3681.686767,-11325.150913,-1406.391290,0.000000
3681.687097,-9178.553681,-814.226536,-536.266849
3681.687427,-7402.059420,-888.247130,-995.924147
3681.687756,-7624.121203,-1258.350101,306.438199
3681.688086,-8808.450710,148.041188,1685.410096
3681.688416,-10066.800811,0.000000,2604.724693
3681.688746,-10732.986159,740.205942,1378.971896
3681.689075,-9844.739029,1184.329507,-153.219100
3681.689405,-10362.883188,-444.123565,-689.485948
3681.689735,-10732.986159,0.000000,919.314598
3681.690065,-11473.192101,-222.061783,1838.629195
3681.690394,-11547.212695,-666.185348,1225.752797
3681.690724,-9474.636058,0.000000,-919.314598
3681.691054,-8438.347739,-444.123565,-1149.143247
3681.691384,-8734.430116,-666.185348,229.828649
3681.691714,-9622.677246,666.185348,2451.505594
3681.692043,-10436.903782,148.041188,2298.286494
3681.692373,-9770.718434,666.185348,689.485948
3681.692703,-8808.450710,740.205942,-689.485948
3681.693033,-9696.697840,-740.205942,-383.047749
3681.693362,-10955.047942,518.144159,842.705048
3681.693692,-11843.295072,-370.102971,2528.115143
3681.694022,-11325.150913,-518.144159,1608.800546
3681.694352,-8734.430116,-592.164754,0.000000
3681.694681,-8068.244768,-1702.473667,0.000000
3681.695011,-8586.388927,-666.185348,1455.581446
3681.695341,-9252.574275,444.123565,3140.991542
3681.695671,-9770.718434,370.102971,2604.724693
3681.696001,-9474.636058,1554.432478,612.876398
3681.696330,-9474.636058,962.267725,-1455.581446
3681.696660,-10807.006753,592.164754,-1072.533697
3681.696990,-12213.398043,1554.432478,0.000000
3681.697320,-11917.315666,296.082377,689.485948
3681.697649,-10584.944971,666.185348,-1225.752797
3681.697979,-8438.347739,444.123565,-1532.190996
3681.698309,-8660.409521,-888.247130,-1149.143247
3681.698639,-9178.553681,296.082377,76.609550
3681.698968,-9992.780217,740.205942,1915.238745
3681.699298,-10066.800811,518.144159,1685.410096
3681.699628,-9104.533087,1332.370696,0.000000
3681.699958,-9252.574275,0.000000,-1532.190996
3681.700288,-10066.800811,370.102971,-1378.971896
3681.700617,-10807.006753,962.267725,0.000000
3681.700947,-11991.336260,-148.041188,0.000000
3681.701277,-9918.759623,370.102971,-1302.362347
3681.701607,-8216.285956,-592.164754,-1608.800546
3681.701936,-8364.327145,-1036.288319,-689.485948
3681.702266,-9400.615463,0.000000,1072.533697
3681.702596,-10140.821405,-148.041188,2298.286494
3681.702926,-9400.615463,592.164754,919.314598
3681.703255,-8290.306550,1628.453072,-1225.752797
3681.703585,-9326.594869,-296.082377,-1532.190996
3681.703915,-10732.986159,814.226536,-153.219100
3681.704245,-11769.274478,296.082377,1532.190996
3681.704575,-11621.233289,-814.226536,766.095498
3681.704904,-8882.471304,74.020594,-1378.971896
3681.705234,-7698.141797,-1554.432478,-2221.676944
3681.705564,-8290.306550,-1184.329507,-153.219100
3681.705894,-9178.553681,74.020594,2221.676944
3681.706223,-10288.862594,-370.102971,3370.820191
3681.706553,-9030.512492,740.205942,1225.752797
3681.706883,-8142.265362,370.102971,-919.314598
3681.707213,-10066.800811,148.041188,-766.095498
3681.707542,-11251.130318,1406.391290,766.095498
3681.707872,-12361.439231,370.102971,1378.971896
3681.708202,-11103.089130,296.082377,-76.609550
3681.708532,-8956.491898,222.061783,-1378.971896
3681.708862,-8586.388927,-814.226536,-766.095498
3681.709191,-9326.594869,-74.020594,1072.533697
3681.709521,-9770.718434,444.123565,1991.848295
3681.709851,-9844.739029,0.000000,2068.457845
3681.710181,-9030.512492,1184.329507,995.924147
3681.710510,-9178.553681,0.000000,306.438199
3681.710840,-10955.047942,370.102971,995.924147
3681.711170,-11695.253884,666.185348,1991.848295
3681.711500,-11843.295072,-592.164754,1149.143247
3681.711829,-9474.636058,-296.082377,383.047749
3681.712159,-8290.306550,-592.164754,0.000000
3681.712489,-9030.512492,-1406.391290,536.266849
3681.712819,-9770.718434,296.082377,1762.019645
3681.713149,-10288.862594,592.164754,2145.067394
3681.713478,-10362.883188,666.185348,995.924147
3681.713808,-8956.491898,1184.329507,-766.095498
3681.714138,-9548.656652,-296.082377,-459.657299
3681.714468,-10362.883188,518.144159,229.828649
3681.714797,-10881.027347,814.226536,1302.362347
3681.715127,-11325.150913,0.000000,842.705048
3681.715457,-9474.636058,518.144159,-612.876398
3681.715787,-8660.409521,-444.123565,-1149.143247
3681.716116,-9474.636058,-444.123565,-229.828649
3681.716446,-10140.821405,444.123565,1838.629195
3681.716776,-10732.986159,0.000000,2298.286494
3681.717106,-9252.574275,222.061783,383.047749
3681.717436,-7624.121203,148.041188,-1838.629195
3681.717765,-8882.471304,-740.205942,-1762.019645
3681.718095,-10658.965565,666.185348,-229.828649
3681.718425,-11547.212695,0.000000,306.438199
3681.718755,-11103.089130,0.000000,-766.095498
3681.719084,-8882.471304,0.000000,-2298.286494
3681.719414,-8142.265362,-1554.432478,-1762.019645
3681.719744,-9178.553681,-666.185348,0.000000
3681.720074,-9918.759623,0.000000,2145.067394
3681.720403,-10288.862594,-592.164754,2145.067394
3681.720733,-8438.347739,0.000000,-229.828649
3681.721063,-7994.224174,-296.082377,-1149.143247
3681.721393,-9548.656652,-370.102971,-689.485948
3681.721722,-11399.171507,888.247130,766.095498
3681.722052,-11917.315666,-296.082377,612.876398
3681.722382,-10436.903782,0.000000,-383.047749
3681.722712,-8808.450710,0.000000,-1302.362347
3681.723042,-9104.533087,-1036.288319,-1072.533697
3681.723371,-9844.739029,0.000000,306.438199
3681.723701,-10140.821405,444.123565,1455.581446
3681.724031,-9992.780217,0.000000,1302.362347
3681.724361,-8882.471304,888.247130,-459.657299
3681.724690,-8808.450710,74.020594,-383.047749
3681.725020,-10436.903782,518.144159,0.000000
3681.725350,-11473.192101,1184.329507,1225.752797
3681.725680,-11769.274478,0.000000,842.705048
3681.726009,-10066.800811,296.082377,-766.095498
3681.726339,-8068.244768,-148.041188,-1149.143247
3681.726669,-9326.594869,-962.267725,919.314598
3681.726999,-9844.739029,222.061783,2528.115143
3681.727329,-9992.780217,-296.082377,3140.991542
3681.727658,-9844.739029,518.144159,1991.848295
3681.727988,-8808.450710,740.205942,-612.876398
3681.728318,-9548.656652,-592.164754,-612.876398
3681.728648,-10214.842000,740.205942,459.657299
3681.728977,-10881.027347,888.247130,1532.190996
3681.729307,-11177.109724,222.061783,689.485948
3681.729637,-9622.677246,1036.288319,-1532.190996
3681.729967,-8808.450710,-740.205942,-1608.800546
3681.730296,-10140.821405,-222.061783,0.000000
3681.730626,-10288.862594,740.205942,2374.896044
3681.730956,-10658.965565,-296.082377,2681.334243
3681.731286,-8734.430116,518.144159,612.876398
3681.731616,-7772.162391,370.102971,-919.314598
3681.731945,-9844.739029,-222.061783,0.000000
3681.732275,-11621.233289,1332.370696,766.095498
3681.732605,-11843.295072,148.041188,1532.190996
3681.732935,-10584.944971,444.123565,-153.219100
3681.733264,-8882.471304,814.226536,-2145.067394
3681.733594,-9474.636058,-740.205942,-689.485948
3681.733924,-10214.842000,-222.061783,0.000000
3681.734254,-10214.842000,74.020594,1302.362347
3681.734583,-9844.739029,-148.041188,995.924147
3681.734913,-8068.244768,666.185348,-612.876398
3681.735243,-8290.306550,-296.082377,-1302.362347
3681.735573,-9770.718434,0.000000,-76.609550
3681.735903,-10955.047942,1036.288319,459.657299
3681.736232,-11473.192101,0.000000,1149.143247
3681.736562,-10066.800811,296.082377,-766.095498
3681.736892,-8660.409521,-370.102971,-1685.410096
3681.737222,-9474.636058,-1258.350101,-1149.143247
3681.737551,-9770.718434,-518.144159,0.000000
3681.737881,-9918.759623,-740.205942,919.314598
3681.738211,-9030.512492,-666.185348,306.438199
3681.738541,-7772.162391,296.082377,-689.485948
3681.738870,-8586.388927,-666.185348,-842.705048
3681.739200,-10288.862594,222.061783,306.438199
3681.739530,-11325.150913,740.205942,1149.143247
3681.739860,-11325.150913,0.000000,612.876398
3681.740190,-9400.615463,222.061783,-919.314598
3681.740519,-8438.347739,-1184.329507,-1302.362347
3681.740849,-9474.636058,-814.226536,-76.609550
3681.741179,-10214.842000,222.061783,1608.800546
3681.741509,-10881.027347,-444.123565,2068.457845
3681.741838,-9770.718434,74.020594,612.876398
3681.742168,-8586.388927,148.041188,-766.095498
3681.742498,-9770.718434,-518.144159,153.219100
3681.742828,-10510.924376,740.205942,1378.971896
3681.743157,-10807.006753,370.102971,2068.457845
3681.743487,-10362.883188,0.000000,383.047749
3681.743817,-9178.553681,740.205942,-1149.143247
3681.744147,-9400.615463,-592.164754,-919.314598
3681.744477,-10510.924376,-296.082377,689.485948
3681.744806,-10436.903782,0.000000,2451.505594
3681.745136,-10732.986159,-370.102971,1915.238745
3681.745466,-8660.409521,0.000000,76.609550
3681.745796,-7624.121203,-444.123565,-383.047749
3681.746125,-9104.533087,-666.185348,766.095498
3681.746455,-10436.903782,1036.288319,1991.848295
3681.746785,-10955.047942,0.000000,1685.410096
3681.747115,-10140.821405,518.144159,-229.828649
3681.747444,-9104.533087,740.205942,-1455.581446
3681.747774,-10288.862594,-592.164754,0.000000
3681.748104,-11103.089130,148.041188,1072.533697
3681.748434,-10362.883188,-74.020594,1532.190996
3681.748764,-9474.636058,-740.205942,919.314598
3681.749093,-8290.306550,666.185348,76.609550
3681.749423,-8586.388927,-296.082377,-689.485948
3681.749753,-9400.615463,0.000000,306.438199
3681.750083,-10214.842000,1480.411884,1455.581446
3681.750412,-11177.109724,222.061783,2221.676944
3681.750742,-10214.842000,740.205942,-229.828649
3681.751072,-9030.512492,0.000000,-1838.629195
3681.751402,-9992.780217,-518.144159,-1532.190996
3681.751731,-10066.800811,148.041188,-459.657299
3681.752061,-10362.883188,0.000000,1225.752797
3681.752391,-9918.759623,-148.041188,153.219100
3681.752721,-8068.244768,592.164754,-1685.410096
3681.753051,-8290.306550,-148.041188,-1455.581446
3681.753380,-10807.006753,518.144159,-229.828649
3681.753710,-11621.233289,962.267725,1378.971896
3681.754040,-11547.212695,0.000000,689.485948
3681.754370,-9326.594869,592.164754,-1378.971896
3681.754699,-8734.430116,-370.102971,-1915.238745
3681.755029,-9548.656652,-518.144159,-766.095498
3681.755359,-10288.862594,148.041188,612.876398
3681.755689,-11103.089130,-518.144159,1149.143247
3681.756018,-9474.636058,0.000000,-76.609550
3681.756348,-8586.388927,0.000000,-995.924147
3681.756678,-9696.697840,-962.267725,153.219100
3681.757008,-10362.883188,444.123565,1762.019645
3681.757338,-10584.944971,0.000000,1762.019645
3681.757667,-9622.677246,-444.123565,153.219100
3681.757997,-8290.306550,518.144159,-1149.143247
3681.758327,-9178.553681,-518.144159,-536.266849
3681.758657,-10584.944971,74.020594,919.314598
3681.758986,-10510.924376,296.082377,1378.971896
3681.759316,-10658.965565,-444.123565,842.705048
3681.759646,-9400.615463,444.123565,-766.095498
3681.759976,-8660.409521,-518.144159,-612.876398
3681.760305,-8956.491898,-1110.308913,842.705048
3681.760635,-9326.594869,666.185348,1455.581446
3681.760965,-10288.862594,74.020594,1838.629195
3681.761295,-9918.759623,1036.288319,306.438199
3681.761624,-9252.574275,1036.288319,-383.047749
3681.761954,-10362.883188,0.000000,-459.657299
3681.762284,-11029.068536,814.226536,0.000000
3681.762614,-10362.883188,222.061783,1225.752797
3681.762944,-10066.800811,-222.061783,1608.800546
3681.763273,-8586.388927,370.102971,76.609550
3681.763603,-8882.471304,-814.226536,76.609550
3681.763933,-9844.739029,-296.082377,995.924147
3681.764263,-9992.780217,0.000000,2604.724693
3681.764592,-10214.842000,-888.247130,3217.601092
3681.764922,-8956.491898,740.205942,842.705048
3681.765252,-8290.306550,222.061783,153.219100
3681.765582,-9622.677246,74.020594,229.828649
3681.765911,-11029.068536,1258.350101,919.314598
3681.766241,-11843.295072,592.164754,1455.581446
3681.766571,-10881.027347,814.226536,229.828649
3681.766901,-8734.430116,814.226536,-1302.362347
3681.767231,-8882.471304,-814.226536,-842.705048
3681.767560,-9844.739029,518.144159,76.609550
3681.767890,-10881.027347,814.226536,1455.581446
3681.768220,-10510.924376,518.144159,842.705048
3681.768550,-9252.574275,1406.391290,-842.705048
3681.768880,-9696.697840,518.144159,-229.828649
3681.769210,-10732.986159,518.144159,-76.609550
3681.769539,-10955.047942,1036.288319,689.485948
3681.769869,-10955.047942,-148.041188,153.219100
3681.770199,-9474.636058,370.102971,-306.438199
3681.770529,-8882.471304,-296.082377,-2068.457845
3681.770859,-9178.553681,-1258.350101,-689.485948
3681.771189,-9622.677246,-148.041188,612.876398
3681.771518,-9918.759623,-814.226536,1225.752797
3681.771848,-9918.759623,-296.082377,229.828649
3681.772178,-8290.306550,370.102971,-689.485948
3681.772508,-9252.574275,-962.267725,-919.314598
3681.772838,-10362.883188,148.041188,229.828649
3681.773167,-11103.089130,222.061783,1378.971896
3681.773497,-11177.109724,-666.185348,459.657299
3681.773827,-9030.512492,370.102971,-995.924147
3681.774157,-7920.203579,-1332.370696,-1991.848295
3681.774487,-8660.409521,-962.267725,0.000000
3681.774817,-9696.697840,0.000000,229.828649
3681.775146,-10584.944971,-962.267725,1302.362347
3681.775476,-9326.594869,0.000000,306.438199
3681.775806,-8808.450710,370.102971,-689.485948
3681.776136,-9918.759623,-296.082377,-383.047749
3681.776466,-10510.924376,962.267725,689.485948
3681.776795,-11103.089130,296.082377,1762.019645
3681.777125,-11251.130318,0.000000,689.485948
3681.777455,-10140.821405,666.185348,-919.314598
3681.777785,-9696.697840,-1258.350101,-919.314598
3681.778115,-9548.656652,-814.226536,612.876398
3681.778445,-9622.677246,-296.082377,2374.896044
3681.778774,-9696.697840,-1036.288319,2451.505594
3681.779104,-8438.347739,222.061783,0.000000
3681.779434,-8216.285956,-148.041188,-383.047749
3681.779764,-9474.636058,-666.185348,919.314598
3681.780094,-11251.130318,888.247130,2528.115143
3681.780424,-12509.480420,0.000000,2834.553343
3681.780753,-11103.089130,0.000000,689.485948
3681.781083,-8660.409521,-444.123565,-1149.143247
3681.781413,-9030.512492,-1628.453072,-842.705048
3681.781743,-9326.594869,-444.123565,536.266849
3681.782073,-9400.615463,-296.082377,1991.848295
3681.782402,-9252.574275,0.000000,1762.019645
3681.782732,-8512.368333,1036.288319,459.657299
3681.783062,-9548.656652,0.000000,0.000000
3681.783392,-10658.965565,370.102971,-689.485948
3681.783722,-10955.047942,666.185348,306.438199
3681.784052,-11029.068536,-222.061783,919.314598
3681.784381,-9622.677246,222.061783,306.438199
3681.784711,-8882.471304,-222.061783,-383.047749
3681.785041,-9178.553681,-888.247130,-612.876398
3681.785371,-9770.718434,222.061783,153.219100
3681.785701,-11177.109724,-296.082377,919.314598
3681.786030,-10362.883188,444.123565,766.095498
3681.786360,-8512.368333,888.247130,76.609550
3681.786690,-8808.450710,-222.061783,153.219100
3681.787020,-9622.677246,814.226536,0.000000
3681.787350,-10584.944971,740.205942,0.000000
3681.787680,-11695.253884,518.144159,-229.828649
3681.788009,-9844.739029,1184.329507,-1915.238745
3681.788339,-9400.615463,-444.123565,-1991.848295
3681.788669,-10066.800811,222.061783,-459.657299
3681.788999,-10140.821405,444.123565,689.485948
3681.789329,-10658.965565,-592.164754,766.095498
3681.789658,-9104.533087,370.102971,-689.485948
3681.789988,-7846.182985,74.020594,-1378.971896
3681.790318,-8808.450710,-370.102971,-842.705048
3681.790648,-9918.759623,1332.370696,612.876398
3681.790978,-11325.150913,518.144159,1608.800546
3681.791308,-10955.047942,296.082377,306.438199
3681.791637,-9770.718434,444.123565,-1762.019645
3681.791967,-9918.759623,-1406.391290,-1378.971896
3681.792297,-9770.718434,-444.123565,306.438199
3681.792627,-9178.553681,-370.102971,1838.629195
3681.792957,-9252.574275,0.000000,2451.505594
3681.793287,-7550.100608,518.144159,76.609550
3681.793616,-7994.224174,74.020594,-995.924147
3681.793946,-9474.636058,444.123565,0.000000
3681.794276,-10658.965565,1332.370696,1915.238745
3681.794606,-12435.459826,518.144159,1608.800546
3681.794936,-11177.109724,962.267725,306.438199
3681.795265,-8956.491898,0.000000,-1762.019645
3681.795595,-9104.533087,-592.164754,-995.924147
3681.795925,-9696.697840,148.041188,689.485948
3681.796255,-10584.944971,-222.061783,2451.505594
3681.796585,-9770.718434,74.020594,2374.896044
3681.796915,-8364.327145,666.185348,689.485948
3681.797244,-8882.471304,-148.041188,536.266849
3681.797574,-10140.821405,518.144159,766.095498
3681.797904,-10732.986159,666.185348,2374.896044
3681.798234,-11029.068536,0.000000,2068.457845
3681.798564,-9918.759623,888.247130,76.609550
3681.798893,-9474.636058,-370.102971,-919.314598
3681.799223,-10214.842000,-888.247130,-459.657299
3681.799553,-10658.965565,0.000000,995.924147
3681.799883,-10732.986159,-1184.329507,2145.067394
3681.800213,-8808.450710,74.020594,1378.971896
3681.800543,-7105.977043,0.000000,0.000000
3681.800872,-8216.285956,-370.102971,-153.219100
3681.801202,-9770.718434,814.226536,536.266849
3681.801532,-11917.315666,444.123565,2068.457845
3681.801862,-12139.377449,814.226536,383.047749
3681.802192,-10140.821405,814.226536,-1378.971896
3681.802522,-9474.636058,-814.226536,-1762.019645
3681.802851,-9992.780217,-814.226536,76.609550
3681.803181,-10584.944971,-296.082377,1149.143247
3681.803511,-10510.924376,-1036.288319,842.705048
3681.803841,-8512.368333,0.000000,-766.095498
3681.804171,-7328.038826,-740.205942,-1149.143247
3681.804500,-8882.471304,-222.061783,-383.047749
3681.804830,-10066.800811,518.144159,995.924147
3681.805160,-11029.068536,-74.020594,1149.143247
3681.805490,-11029.068536,814.226536,-689.485948
3681.805820,-10140.821405,74.020594,-2757.943793
3681.806150,-10436.903782,-1480.411884,-2145.067394
3681.806479,-10214.842000,-740.205942,-919.314598
3681.806809,-10140.821405,-1702.473667,1072.533697
3681.807139,-9104.533087,-1776.494261,1149.143247
3681.807469,-7476.080014,-592.164754,-766.095498
3681.807799,-7476.080014,-1110.308913,-766.095498
3681.808128,-9030.512492,0.000000,-76.609550
3681.808458,-10732.986159,1110.308913,1608.800546
3681.808788,-11991.336260,0.000000,1225.752797
3681.809118,-10584.944971,740.205942,-919.314598
3681.809448,-9992.780217,0.000000,-2145.067394
3681.809778,-10510.924376,-1036.288319,-1608.800546
3681.810107,-10140.821405,-666.185348,-306.438199
3681.810437,-9992.780217,-1184.329507,1302.362347
3681.810767,-8364.327145,-888.247130,1072.533697
3681.811097,-7031.956449,222.061783,0.000000
3681.811427,-7772.162391,-592.164754,536.266849
3681.811756,-9548.656652,962.267725,1302.362347
3681.812086,-11251.130318,1406.391290,1838.629195
3681.812416,-12139.377449,888.247130,1072.533697
3681.812746,-10584.944971,1184.329507,-766.095498
3681.813076,-9400.615463,-444.123565,-2374.896044
3681.813406,-10066.800811,-296.082377,-612.876398
3681.813735,-10584.944971,296.082377,1455.581446
3681.814065,-10732.986159,-518.144159,1991.848295
3681.814395,-8660.409521,74.020594,383.047749
3681.814725,-6883.915261,0.000000,459.657299
3681.815055,-8068.244768,148.041188,2145.067394
3681.815385,-9696.697840,1332.370696,2911.162892
3681.815714,-11769.274478,1258.350101,3217.601092
3681.816044,-11251.130318,1702.473667,1225.752797
3681.816374,-9844.739029,1258.350101,-1532.190996
3681.816704,-10140.821405,0.000000,-1532.190996
3681.817034,-11251.130318,222.061783,766.095498
3681.817363,-10955.047942,222.061783,2604.724693
3681.817693,-10066.800811,-444.123565,2298.286494
3681.818023,-7698.141797,592.164754,306.438199
3681.818353,-7105.977043,-296.082377,229.828649
3681.818683,-8882.471304,370.102971,1072.533697
3681.819013,-10214.842000,1850.514855,2451.505594
3681.819342,-11695.253884,1258.350101,2757.943793
3681.819672,-11103.089130,1998.556043,0.000000
3681.820002,-10066.800811,1332.370696,-2604.724693
3681.820332,-10658.965565,-518.144159,-2451.505594
3681.820662,-11103.089130,222.061783,-842.705048
3681.820991,-10881.027347,-74.020594,1302.362347
3681.821321,-9622.677246,0.000000,919.314598
3681.821651,-6883.915261,148.041188,-459.657299
3681.821981,-7476.080014,-592.164754,-229.828649
3681.822311,-9030.512492,444.123565,76.609550
3681.822641,-10436.903782,1110.308913,919.314598
3681.822970,-11769.274478,1110.308913,306.438199
3681.823300,-10658.965565,1480.411884,-1608.800546
3681.823630,-9844.739029,0.000000,-2987.772442
3681.823960,-10584.944971,-592.164754,-2298.286494
3681.824290,-11177.109724,-370.102971,-919.314598
3681.824620,-10881.027347,-1480.411884,383.047749
3681.824949,-8660.409521,-1036.288319,0.000000
3681.825279,-6957.935855,-962.267725,-689.485948
3681.825609,-7550.100608,-1554.432478,-229.828649
3681.825939,-9326.594869,0.000000,1149.143247
3681.826269,-10955.047942,74.020594,1838.629195
3681.826598,-10881.027347,74.020594,0.000000
3681.826928,-9622.677246,296.082377,-2068.457845
3681.827258,-10066.800811,-962.267725,-2757.943793
3681.827588,-10658.965565,-1258.350101,-689.485948
3681.827918,-10881.027347,-1480.411884,766.095498
3681.828248,-10436.903782,-1998.556043,1302.362347
3681.828577,-7920.203579,-1036.288319,-459.657299
3681.828907,-6439.791695,-1332.370696,-383.047749
3681.829237,-7994.224174,-1184.329507,612.876398
3681.829567,-9918.759623,592.164754,2145.067394
3681.829897,-11325.150913,-222.061783,2451.505594
3681.830226,-11325.150913,444.123565,383.047749
3681.830556,-9178.553681,0.000000,-1532.190996
3681.830886,-9770.718434,-1332.370696,-1072.533697
3681.831216,-10362.883188,-444.123565,536.266849
3681.831546,-11029.068536,-740.205942,1532.190996
3681.831876,-10658.965565,-814.226536,1302.362347
3681.832205,-8290.306550,0.000000,0.000000
3681.832535,-7920.203579,-962.267725,612.876398
3681.832865,-9252.574275,0.000000,2068.457845
3681.833195,-9992.780217,592.164754,2528.115143
3681.833525,-10807.006753,592.164754,2298.286494
3681.833855,-10362.883188,1184.329507,-76.609550
3681.834184,-9918.759623,148.041188,-1455.581446
3681.834514,-11325.150913,-370.102971,-306.438199
3681.834844,-11177.109724,814.226536,1378.971896
3681.835174,-10881.027347,-370.102971,2374.896044
3681.835504,-9326.594869,-666.185348,459.657299
3681.835833,-7402.059420,0.000000,-306.438199
3681.836163,-8142.265362,-1036.288319,459.657299
3681.836493,-9178.553681,666.185348,1762.019645
3681.836823,-10732.986159,1184.329507,3370.820191
3681.837153,-11325.150913,1036.288319,2604.724693
3681.837483,-9844.739029,1776.494261,-612.876398
3681.837812,-9400.615463,444.123565,-2145.067394
3681.838142,-11325.150913,1036.288319,-1532.190996
3681.838472,-12287.418637,1258.350101,76.609550
3681.838802,-11991.336260,370.102971,383.047749
3681.839132,-8438.347739,296.082377,-842.705048
3681.839461,-6513.812290,0.000000,-1072.533697
3681.839791,-7772.162391,-444.123565,-153.219100
3681.840121,-9030.512492,1110.308913,689.485948
3681.840451,-10214.842000,592.164754,1225.752797
3681.840781,-10362.883188,1628.453072,383.047749
3681.841111,-9992.780217,1702.473667,-1455.581446
3681.841440,-10955.047942,74.020594,-1991.848295
3681.841770,-11251.130318,518.144159,-995.924147
3681.842100,-11251.130318,444.123565,383.047749
3681.842430,-10214.842000,-1036.288319,0.000000
3681.842760,-8290.306550,222.061783,-1685.410096
3681.843089,-6957.935855,-888.247130,-919.314598
3681.843419,-7846.182985,-444.123565,689.485948
3681.843749,-9400.615463,1184.329507,1455.581446
3681.844079,-10584.944971,666.185348,1149.143247
3681.844409,-10214.842000,1776.494261,-1455.581446
3681.844739,-9474.636058,1406.391290,-2451.505594
3681.845068,-11029.068536,74.020594,-1685.410096
3681.845398,-11695.253884,592.164754,76.609550
3681.845728,-11029.068536,-592.164754,1455.581446
3681.846058,-9548.656652,-888.247130,995.924147
3681.846388,-7105.977043,-814.226536,-76.609550
3681.846718,-7179.997637,-1110.308913,76.609550
3681.847047,-8142.265362,148.041188,919.314598
3681.847377,-9770.718434,888.247130,2604.724693
3681.847707,-11399.171507,814.226536,2681.334243
3681.848037,-10732.986159,1554.432478,153.219100
3681.848367,-10066.800811,444.123565,-1378.971896
3681.848696,-10807.006753,0.000000,-1302.362347
3681.849026,-11177.109724,592.164754,76.609550
3681.849356,-11399.171507,-1036.288319,995.924147
3681.849686,-9252.574275,-444.123565,-383.047749
3681.850016,-7105.977043,-444.123565,-1302.362347
3681.850346,-8512.368333,-1184.329507,995.924147
3681.850675,-9696.697840,222.061783,2528.115143
3681.851005,-10066.800811,148.041188,3677.258390
3681.851335,-10584.944971,-222.061783,2068.457845
3681.851665,-9400.615463,666.185348,-612.876398
3681.851995,-9474.636058,-666.185348,-766.095498
3681.852324,-11399.171507,-296.082377,383.047749
3681.852654,-12213.398043,0.000000,1608.800546
3681.852984,-11843.295072,-1110.308913,1302.362347
3681.853314,-9030.512492,-814.226536,-383.047749
3681.853644,-6661.853478,-1480.411884,-383.047749
3681.853974,-7772.162391,-1406.391290,1225.752797
3681.854303,-9400.615463,518.144159,2834.553343
3681.854633,-10955.047942,370.102971,3217.601092
3681.854963,-10288.862594,1036.288319,689.485948
3681.855293,-9770.718434,1110.308913,-1838.629195
3681.855623,-11621.233289,-296.082377,-1685.410096
3681.855953,-12509.480420,296.082377,-229.828649
3681.856282,-12435.459826,-148.041188,1149.143247
3681.856612,-10436.903782,-1184.329507,0.000000
3681.856942,-7994.224174,-370.102971,-1608.800546
3681.857272,-7254.018232,-1406.391290,-1072.533697
3681.857602,-8290.306550,-814.226536,0.000000
3681.857931,-8956.491898,370.102971,1072.533697
3681.858261,-9918.759623,-222.061783,1685.410096
3681.858591,-9844.739029,1258.350101,-383.047749
3681.858921,-9252.574275,370.102971,-1915.238745
3681.859251,-10510.924376,0.000000,-1608.800546
3681.859581,-11695.253884,444.123565,-919.314598
3681.859910,-12287.418637,-666.185348,153.219100
3681.860240,-10436.903782,-1110.308913,-76.609550
3681.860570,-7550.100608,-962.267725,-1072.533697
3681.860900,-6957.935855,-1924.535449,-612.876398
3681.861230,-7550.100608,-518.144159,689.485948
3681.861559,-8734.430116,222.061783,1608.800546
3681.861889,-9770.718434,518.144159,1072.533697
3681.862219,-9696.697840,1702.473667,-1608.800546
3681.862549,-9548.656652,444.123565,-2528.115143
3681.862879,-10881.027347,148.041188,-1685.410096
3681.863209,-11695.253884,518.144159,383.047749
3681.863538,-11843.295072,-592.164754,1072.533697
3681.863868,-9844.739029,-962.267725,-536.266849
3681.864198,-7179.997637,-814.226536,-1915.238745
3681.864528,-7254.018232,-1258.350101,-383.047749
3681.864858,-8290.306550,370.102971,1608.800546
3681.865187,-9844.739029,888.247130,3907.087040
3681.865517,-10362.883188,1628.453072,2068.457845
3681.865847,-9770.718434,1924.535449,-995.924147
3681.866177,-10066.800811,370.102971,-2451.505594
3681.866507,-11769.274478,592.164754,-766.095498
3681.866837,-12287.418637,962.267725,383.047749
3681.867166,-11473.192101,-222.061783,1149.143247
3681.867496,-8438.347739,222.061783,-612.876398
3681.867826,-7179.997637,-444.123565,-1072.533697
3681.868156,-8808.450710,0.000000,995.924147
3681.868486,-9844.739029,1110.308913,2604.724693
3681.868816,-10807.006753,962.267725,3217.601092
3681.869145,-10214.842000,1110.308913,1762.019645
3681.869475,-9030.512492,1110.308913,-383.047749
3681.869805,-9844.739029,148.041188,-306.438199
3681.870135,-11251.130318,962.267725,229.828649
3681.870465,-12139.377449,222.061783,1532.190996
3681.870795,-10955.047942,-296.082377,995.924147
3681.871125,-8068.244768,74.020594,-153.219100
3681.871455,-7254.018232,-1480.411884,0.000000
3681.871784,-7994.224174,-518.144159,1838.629195
3681.872114,-8808.450710,444.123565,2681.334243
3681.872444,-10362.883188,222.061783,2757.943793
3681.872774,-9844.739029,1480.411884,459.657299
3681.873104,-9474.636058,296.082377,-766.095498
3681.873434,-10955.047942,148.041188,-536.266849
3681.873764,-11843.295072,592.164754,383.047749
3681.874094,-12065.356855,-370.102971,1149.143247
3681.874423,-9844.739029,-222.061783,0.000000
3681.874753,-7698.141797,-148.041188,-995.924147
3681.875083,-8512.368333,-1110.308913,-383.047749
3681.875413,-9326.594869,296.082377,76.609550
3681.875743,-10436.903782,148.041188,1838.629195
3681.876073,-10436.903782,74.020594,1608.800546
3681.876403,-8882.471304,814.226536,-1149.143247
3681.876733,-8586.388927,-814.226536,-2987.772442
3681.877062,-9770.718434,74.020594,-1762.019645
3681.877392,-10732.986159,444.123565,229.828649
3681.877722,-11991.336260,-296.082377,842.705048
3681.878052,-11177.109724,0.000000,-1072.533697
3681.878382,-9252.574275,-888.247130,-1455.581446
3681.878712,-9104.533087,-1702.473667,-689.485948
3681.879042,-9252.574275,-370.102971,689.485948
3681.879372,-9400.615463,-888.247130,1915.238745
3681.879701,-8660.409521,296.082377,0.000000
3681.880031,-7846.182985,592.164754,-2068.457845
3681.880361,-8882.471304,-518.144159,-2451.505594
3681.880691,-11103.089130,444.123565,-1072.533697
3681.881021,-12139.377449,0.000000,0.000000
3681.881351,-11843.295072,-1110.308913,306.438199
3681.881681,-9252.574275,-814.226536,-1072.533697
3681.882011,-7772.162391,-2220.617826,-766.095498
3681.882340,-8512.368333,-1924.535449,306.438199
3681.882670,-8808.450710,-814.226536,2374.896044
3681.883000,-10066.800811,-592.164754,2757.943793
3681.883330,-8956.491898,592.164754,612.876398
3681.883660,-8216.285956,592.164754,-995.924147
3681.883990,-10066.800811,296.082377,-1378.971896
3681.884320,-11399.171507,1036.288319,-459.657299
3681.884650,-11917.315666,370.102971,306.438199
3681.884979,-11251.130318,74.020594,-383.047749
3681.885309,-9252.574275,0.000000,-1532.190996
3681.885639,-8808.450710,-1184.329507,0.000000
3681.885969,-9474.636058,-666.185348,1225.752797
3681.886299,-10066.800811,-222.061783,2451.505594
3681.886629,-10140.821405,-370.102971,2374.896044
3681.886959,-9030.512492,962.267725,536.266849
3681.887289,-8512.368333,0.000000,0.000000
3681.887618,-9844.739029,296.082377,612.876398
3681.887948,-11251.130318,1258.350101,2068.457845
3681.888278,-12583.501014,296.082377,2374.896044
3681.888608,-11103.089130,370.102971,153.219100
3681.888938,-8512.368333,-222.061783,-1302.362347
3681.889268,-9178.553681,-1184.329507,-229.828649
3681.889598,-9548.656652,74.020594,2145.067394
3681.889928,-9918.759623,74.020594,3753.867940
3681.890257,-9548.656652,444.123565,1685.410096
3681.890587,-7772.162391,1110.308913,-612.876398
3681.890917,-9030.512492,148.041188,-459.657299
3681.891247,-11103.089130,1110.308913,229.828649
3681.891577,-11917.315666,1628.453072,1302.362347
3681.891907,-12139.377449,444.123565,995.924147
3681.892237,-10066.800811,666.185348,-1685.410096
3681.892567,-8734.430116,-666.185348,-2068.457845
3681.892896,-8956.491898,-1406.391290,-842.705048
3681.893226,-8808.450710,148.041188,919.314598
3681.893556,-9178.553681,-370.102971,2604.724693
3681.893886,-8586.388927,888.247130,766.095498
3681.894216,-7772.162391,1036.288319,-1991.848295
3681.894546,-9844.739029,0.000000,-1225.752797
3681.894876,-11621.233289,1258.350101,-689.485948
3681.895206,-12583.501014,444.123565,766.095498
3681.895535,-11547.212695,222.061783,-612.876398
3681.895865,-9104.533087,148.041188,-2298.286494
3681.896195,-7624.121203,-1184.329507,-1991.848295
3681.896525,-8586.388927,-592.164754,-229.828649
3681.896855,-9696.697840,444.123565,1225.752797
3681.897185,-10732.986159,222.061783,1838.629195
3681.897515,-9918.759623,1480.411884,-306.438199
3681.897845,-8438.347739,222.061783,-995.924147
3681.898174,-9844.739029,74.020594,76.609550
3681.898504,-10881.027347,888.247130,1378.971896
3681.898834,-12139.377449,-148.041188,1838.629195
3681.899164,-10584.944971,-148.041188,76.609550
3681.899494,-8438.347739,0.000000,-1072.533697
3681.899824,-8364.327145,-1184.329507,-919.314598
3681.900154,-9622.677246,0.000000,1072.533697
3681.900484,-10140.821405,148.041188,2757.943793
3681.900813,-9844.739029,0.000000,2681.334243
3681.901143,-8216.285956,888.247130,76.609550
3681.901473,-8364.327145,-296.082377,-459.657299
3681.901803,-10584.944971,370.102971,612.876398
3681.902133,-11177.109724,814.226536,1915.238745
3681.902463,-11843.295072,0.000000,1762.019645
3681.902793,-9918.759623,370.102971,-536.266849
3681.903123,-8438.347739,-444.123565,-1149.143247
3681.903452,-8956.491898,-814.226536,0.000000
3681.903782,-9474.636058,518.144159,1455.581446
3681.904112,-10436.903782,592.164754,3140.991542
3681.904442,-9622.677246,888.247130,1302.362347
3681.904772,-7920.203579,888.247130,-1149.143247
3681.905102,-9030.512492,-518.144159,-1225.752797
3681.905432,-11029.068536,1258.350101,766.095498
3681.905762,-12213.398043,666.185348,1991.848295
3681.906091,-11399.171507,-370.102971,689.485948
3681.906421,-8882.471304,444.123565,-1225.752797
3681.906751,-8512.368333,-888.247130,-306.438199
3681.907081,-10362.883188,-148.041188,1225.752797
3681.907411,-10732.986159,222.061783,2451.505594
3681.907741,-10510.924376,-148.041188,2911.162892
3681.908071,-9030.512492,888.247130,0.000000
3681.908401,-7994.224174,74.020594,-1608.800546
3681.908730,-8734.430116,-444.123565,-1225.752797
3681.909060,-10066.800811,888.247130,-536.266849
3681.909390,-11177.109724,0.000000,306.438199
3681.909720,-11473.192101,0.000000,-229.828649
3681.910050,-8660.409521,0.000000,-2145.067394
3681.910380,-8512.368333,-1554.432478,-1685.410096
3681.910710,-9548.656652,-814.226536,0.000000
3681.911040,-10436.903782,-370.102971,1685.410096
3681.911369,-10658.965565,-740.205942,2068.457845
3681.911699,-8290.306550,148.041188,-536.266849
3681.912029,-7624.121203,-740.205942,-1072.533697
3681.912359,-9770.718434,-370.102971,0.000000
3681.912689,-11843.295072,1184.329507,689.485948
3681.913019,-11843.295072,-296.082377,995.924147
3681.913349,-10288.862594,74.020594,-1455.581446
3681.913679,-8068.244768,-666.185348,-2451.505594
3681.914008,-9178.553681,-1406.391290,-1149.143247
3681.914338,-9474.636058,-222.061783,0.000000
3681.914668,-10140.821405,-592.164754,1762.019645
3681.914998,-9696.697840,-222.061783,612.876398
3681.915328,-7698.141797,814.226536,-766.095498
3681.915658,-8364.327145,-666.185348,-919.314598
3681.915988,-10658.965565,370.102971,1072.533697
3681.916318,-11473.192101,444.123565,2298.286494
3681.916647,-11473.192101,222.061783,1455.581446
3681.916977,-9326.594869,666.185348,-995.924147
3681.917307,-8586.388927,-814.226536,-1149.143247
3681.917637,-10362.883188,-814.226536,536.266849
3681.917967,-10732.986159,444.123565,2145.067394
3681.918297,-10510.924376,-148.041188,2681.334243
3681.918627,-9252.574275,296.082377,536.266849
3681.918957,-7550.100608,296.082377,-842.705048
3681.919287,-8882.471304,-370.102971,0.000000
3681.919616,-9918.759623,1184.329507,1991.848295
3681.919946,-10807.006753,592.164754,2451.505594
3681.920276,-10955.047942,148.041188,1378.971896
3681.920606,-9178.553681,666.185348,-1072.533697
3681.920936,-9622.677246,-666.185348,-995.924147
3681.921266,-10732.986159,-370.102971,612.876398
3681.921596,-10362.883188,74.020594,2298.286494
3681.921926,-9548.656652,-740.205942,2604.724693
3681.922255,-8364.327145,518.144159,1149.143247
3681.922585,-7920.203579,0.000000,-153.219100
3681.922915,-9548.656652,-222.061783,1072.533697
3681.923245,-10658.965565,1406.391290,1685.410096
3681.923575,-11695.253884,962.267725,1915.238745
3681.923905,-11029.068536,1110.308913,1072.533697
3681.924235,-9548.656652,1110.308913,-1378.971896
3681.924565,-9622.677246,-296.082377,-919.314598
3681.924894,-10658.965565,666.185348,0.000000
3681.925224,-10436.903782,296.082377,1149.143247
3681.925554,-9770.718434,222.061783,995.924147
3681.925884,-7920.203579,1406.391290,-1532.190996
3681.926214,-8068.244768,0.000000,-1302.362347
3681.926544,-10510.924376,740.205942,0.000000
3681.926874,-11695.253884,1554.432478,1225.752797
3681.927204,-11473.192101,296.082377,995.924147
3681.927533,-9770.718434,814.226536,-1455.581446
3681.927863,-8216.285956,148.041188,-2528.115143
3681.928193,-9474.636058,-592.164754,-1225.752797
3681.928523,-11029.068536,444.123565,0.000000
3681.928853,-10362.883188,-444.123565,1378.971896
3681.929183,-9474.636058,0.000000,153.219100
3681.929513,-7994.224174,-222.061783,-1225.752797
3681.929843,-8438.347739,-1184.329507,-383.047749
3681.930172,-9770.718434,74.020594,383.047749
3681.930502,-10066.800811,222.061783,689.485948
3681.930832,-10288.862594,0.000000,306.438199
3681.931162,-9178.553681,740.205942,-1302.362347
3681.931492,-9030.512492,-666.185348,-1378.971896
3681.931822,-10436.903782,-444.123565,-383.047749
3681.932152,-10881.027347,444.123565,459.657299
3681.932482,-10584.944971,-1258.350101,1455.581446
3681.932811,-8956.491898,-296.082377,76.609550
3681.933141,-7328.038826,-518.144159,-919.314598
3681.933471,-8586.388927,-740.205942,153.219100
3681.933801,-9400.615463,518.144159,1378.971896
3681.934131,-10955.047942,296.082377,1455.581446
3681.934461,-10881.027347,666.185348,153.219100
3681.934791,-9770.718434,370.102971,-1149.143247
3681.935121,-10362.883188,-814.226536,0.000000
3681.935450,-11103.089130,-666.185348,919.314598
3681.935780,-10140.821405,-592.164754,2374.896044
3681.936110,-9548.656652,-1184.329507,1915.238745
3681.936440,-8068.244768,370.102971,0.000000
3681.936770,-7698.141797,-740.205942,-536.266849
3681.937100,-10066.800811,0.000000,1072.533697
3681.937430,-11029.068536,1110.308913,2374.896044
3681.937760,-11473.192101,-74.020594,2298.286494
3681.938089,-9992.780217,-444.123565,229.828649
3681.938419,-8956.491898,-518.144159,-919.314598
3681.938749,-10066.800811,-1628.453072,0.000000
3681.939079,-10066.800811,-444.123565,842.705048
3681.939409,-9770.718434,-518.144159,1378.971896
3681.939739,-9548.656652,-222.061783,995.924147
3681.940069,-8734.430116,296.082377,0.000000
3681.940399,-9400.615463,-888.247130,0.000000
3681.940728,-10066.800811,148.041188,1149.143247
3681.941058,-9992.780217,0.000000,1915.238745
3681.941388,-10214.842000,-444.123565,1685.410096
3681.941718,-9622.677246,814.226536,-383.047749
3681.942048,-9030.512492,0.000000,-1225.752797
3681.942378,-10140.821405,-370.102971,0.000000
3681.942708,-10955.047942,740.205942,689.485948
3681.943038,-11621.233289,74.020594,1608.800546
3681.943367,-10214.842000,666.185348,76.609550
3681.943697,-8142.265362,814.226536,-1378.971896
3681.944027,-8438.347739,-444.123565,-919.314598
3681.944357,-9918.759623,1110.308913,76.609550
3681.944687,-10955.047942,666.185348,842.705048
3681.945017,-10214.842000,222.061783,-612.876398
3681.945347,-8660.409521,1036.288319,-2298.286494
3681.945677,-8956.491898,0.000000,-1915.238745
3681.946006,-10288.862594,296.082377,-459.657299
3681.946336,-11103.089130,592.164754,383.047749
3681.946666,-11103.089130,0.000000,1149.143247
3681.946996,-9548.656652,444.123565,-842.705048
3681.947326,-8586.388927,-666.185348,-1378.971896
3681.947656,-9474.636058,-888.247130,0.000000
3681.947986,-9622.677246,962.267725,1915.238745
3681.948316,-9992.780217,-148.041188,1302.362347
3681.948645,-9178.553681,666.185348,-612.876398
3681.948975,-8734.430116,666.185348,-1378.971896
3681.949305,-10436.903782,-148.041188,-459.657299
3681.949635,-11103.089130,444.123565,612.876398
3681.949965,-10658.965565,296.082377,1455.581446
3681.950295,-10214.842000,-222.061783,919.314598
3681.950625,-8586.388927,222.061783,-919.314598
3681.950955,-8660.409521,-814.226536,-1072.533697
3681.951284,-9548.656652,-296.082377,689.485948
3681.951614,-10066.800811,222.061783,2221.676944
3681.951944,-10214.842000,-444.123565,2298.286494
3681.952274,-8956.491898,1332.370696,1149.143247
3681.952604,-8290.306550,370.102971,-689.485948
3681.952934,-9622.677246,0.000000,-459.657299
3681.953264,-11029.068536,592.164754,383.047749
3681.953594,-10732.986159,-148.041188,2451.505594
3681.953923,-9992.780217,296.082377,1225.752797
3681.954253,-8808.450710,370.102971,-536.266849
3681.954583,-9326.594869,-740.205942,0.000000
3681.954913,-10362.883188,74.020594,919.314598
3681.955243,-9770.718434,222.061783,2221.676944
3681.955573,-10214.842000,0.000000,1915.238745
3681.955903,-9474.636058,1110.308913,459.657299
3681.956233,-8956.491898,0.000000,0.000000
3681.956562,-10066.800811,0.000000,995.924147
3681.956892,-10436.903782,888.247130,919.314598
3681.957222,-11325.150913,0.000000,1072.533697
3681.957552,-10881.027347,740.205942,153.219100
3681.957882,-8882.471304,0.000000,76.609550
3681.958212,-9474.636058,-740.205942,383.047749
3681.958542,-10732.986159,740.205942,1838.629195
3681.958872,-10658.965565,0.000000,2374.896044
3681.959201,-10066.800811,148.041188,1149.143247
3681.959531,-8438.347739,666.185348,-1225.752797
3681.959861,-9030.512492,-370.102971,-536.266849
3681.960191,-10140.821405,518.144159,1302.362347
3681.960521,-10881.027347,1036.288319,2451.505594
3681.960851,-11917.315666,370.102971,1378.971896
3681.961181,-10214.842000,1258.350101,-1378.971896
3681.961511,-9104.533087,-222.061783,-2451.505594
3681.961840,-9474.636058,-814.226536,-995.924147
3681.962170,-9992.780217,0.000000,919.314598
3681.962500,-10436.903782,-370.102971,2068.457845
3681.962830,-9474.636058,518.144159,229.828649
3681.963160,-7846.182985,0.000000,-1149.143247
3681.963490,-9474.636058,-444.123565,-919.314598
3681.963820,-10807.006753,666.185348,-229.828649
3681.964150,-11251.130318,0.000000,1072.533697
3681.964479,-10214.842000,0.000000,842.705048
3681.964809,-8808.450710,222.061783,-1532.190996
3681.965139,-8734.430116,-1036.288319,-1838.629195
3681.965469,-9844.739029,-370.102971,-766.095498
3681.965799,-10288.862594,0.000000,76.609550
3681.966129,-9992.780217,-1332.370696,0.000000
3681.966459,-7994.224174,-370.102971,-1149.143247
3681.966789,-6957.935855,-1036.288319,-689.485948
3681.967118,-9252.574275,-814.226536,766.095498
3681.967448,-10732.986159,444.123565,1149.143247
3681.967778,-11621.233289,-962.267725,1378.971896
3681.968108,-10658.965565,-370.102971,-919.314598
3681.968438,-8882.471304,-222.061783,-2145.067394
3681.968768,-9104.533087,-1184.329507,-995.924147
3681.969098,-9844.739029,-74.020594,383.047749
3681.969428,-10066.800811,-592.164754,1149.143247
3681.969757,-9992.780217,-740.205942,383.047749
3681.970087,-8734.430116,444.123565,-995.924147
3681.970417,-9178.553681,-888.247130,-1072.533697
3681.970747,-10214.842000,-222.061783,0.000000
3681.971077,-10214.842000,444.123565,1685.410096
3681.971407,-10362.883188,-74.020594,1838.629195
3681.971737,-10066.800811,592.164754,0.000000
3681.972066,-9400.615463,-444.123565,-919.314598
3681.972396,-10288.862594,-666.185348,-306.438199
3681.972726,-10658.965565,814.226536,1302.362347
3681.973056,-10807.006753,-370.102971,2145.067394
3681.973386,-9474.636058,0.000000,1302.362347
3681.973716,-7772.162391,74.020594,-229.828649
3681.974045,-7920.203579,-1258.350101,-76.609550
3681.974375,-9918.759623,518.144159,995.924147
3681.974705,-11325.150913,444.123565,2374.896044
3681.975035,-11843.295072,444.123565,2451.505594
3681.975365,-9474.636058,1184.329507,76.609550
3681.975695,-8808.450710,-444.123565,-612.876398
3681.976024,-10214.842000,0.000000,459.657299
3681.976354,-10658.965565,518.144159,1378.971896
3681.976684,-10658.965565,-74.020594,2145.067394
3681.977014,-9178.553681,592.164754,383.047749
3681.977344,-7994.224174,518.144159,-536.266849
3681.977674,-9326.594869,-296.082377,0.000000
3681.978003,-10140.821405,1036.288319,459.657299
3681.978333,-10658.965565,444.123565,1225.752797
3681.978663,-10807.006753,444.123565,459.657299
3681.978993,-8956.491898,1110.308913,-1455.581446
3681.979323,-8882.471304,-148.041188,-1455.581446
3681.979653,-10214.842000,888.247130,229.828649
3681.979982,-10955.047942,1110.308913,1072.533697
3681.980312,-10510.924376,518.144159,153.219100
3681.980642,-8142.265362,1110.308913,-2298.286494
3681.980972,-7550.100608,74.020594,-1991.848295
3681.981302,-10140.821405,370.102971,76.609550
3681.981632,-11399.171507,1258.350101,1149.143247
3681.981961,-11251.130318,370.102971,1225.752797
3681.982291,-9844.739029,666.185348,-1072.533697
3681.982621,-8734.430116,222.061783,-2374.896044
3681.982951,-9992.780217,-592.164754,-766.095498
3681.983281,-10584.944971,444.123565,919.314598
3681.983611,-10288.862594,74.020594,1532.190996
3681.983940,-9474.636058,0.000000,766.095498
3681.984270,-7920.203579,592.164754,-1455.581446
3681.984600,-8660.409521,-370.102971,-1378.971896
3681.984930,-10214.842000,518.144159,-766.095498
3681.985260,-10288.862594,222.061783,1072.533697
3681.985590,-10658.965565,-444.123565,842.705048
3681.985919,-9548.656652,592.164754,-536.266849
3681.986249,-8290.306550,-444.123565,-1225.752797
3681.986579,-9252.574275,-888.247130,-306.438199
3681.986909,-10066.800811,296.082377,919.314598
3681.987239,-10584.944971,-518.144159,1762.019645
3681.987569,-9918.759623,-222.061783,1149.143247
3681.987898,-8142.265362,74.020594,383.047749
3681.988228,-8660.409521,-1332.370696,995.924147
3681.988558,-10140.821405,296.082377,1455.581446
3681.988888,-10510.924376,0.000000,2068.457845
3681.989218,-11177.109724,370.102971,919.314598
3681.989548,-8956.491898,592.164754,-1072.533697
3681.989877,-9030.512492,-888.247130,-1762.019645
3681.990207,-10362.883188,-222.061783,0.000000
3681.990537,-11103.089130,296.082377,1378.971896
3681.990867,-11399.171507,-962.267725,1608.800546
3681.991197,-8660.409521,-74.020594,229.828649
3681.991527,-6809.894666,-962.267725,-153.219100
3681.991856,-8586.388927,-666.185348,1685.410096
3681.992186,-10807.006753,814.226536,2681.334243
3681.992516,-11991.336260,296.082377,2987.772442
3681.992846,-11547.212695,666.185348,766.095498
3681.993176,-9548.656652,370.102971,-1685.410096
3681.993506,-9918.759623,-1110.308913,-1149.143247
3681.993835,-10807.006753,0.000000,306.438199
3681.994165,-10362.883188,-444.123565,1532.190996
3681.994495,-9696.697840,-592.164754,383.047749
3681.994825,-7846.182985,740.205942,-1838.629195
3681.995155,-7624.121203,-814.226536,-1225.752797
3681.995485,-9474.636058,74.020594,383.047749
3681.995814,-10881.027347,1110.308913,2221.676944
3681.996144,-11547.212695,296.082377,1532.190996
3681.996474,-10510.924376,1036.288319,-766.095498
3681.996804,-9474.636058,0.000000,-2068.457845
3681.997134,-10881.027347,-592.164754,-689.485948
3681.997463,-11399.171507,0.000000,919.314598
3681.997793,-11177.109724,-444.123565,1302.362347
3681.998123,-9326.594869,-592.164754,0.000000
3681.998453,-7105.977043,0.000000,-1608.800546
3681.998783,-7550.100608,-1184.329507,-1378.971896
3681.999113,-9400.615463,0.000000,306.438199
3681.999442,-9622.677246,888.247130,1838.629195
3681.999772,-10955.047942,666.185348,1072.533697
3682.000102,-10362.883188,1554.432478,-1762.019645
3682.000432,-9622.677246,0.000000,-2374.896044
3682.000762,-11177.109724,-592.164754,-1762.019645
3682.001092,-11399.171507,0.000000,-689.485948
3682.001421,-10436.903782,-1628.453072,689.485948
3682.001751,-7476.080014,-740.205942,0.000000
3682.002081,-5477.523971,-888.247130,-689.485948
3682.002411,-7179.997637,-814.226536,153.219100
3682.002741,-9918.759623,1184.329507,766.095498
3682.003071,-11473.192101,1036.288319,1608.800546
3682.003400,-10955.047942,1258.350101,306.438199
3682.003730,-10066.800811,1258.350101,-1378.971896
3682.004060,-10362.883188,-888.247130,-842.705048
3682.004390,-11177.109724,0.000000,229.828649
3682.004720,-10436.903782,296.082377,919.314598
3682.005050,-9770.718434,-888.247130,459.657299
3682.005379,-8068.244768,444.123565,-229.828649
3682.005709,-6587.832884,-740.205942,0.000000
3682.006039,-7920.203579,148.041188,1149.143247
3682.006369,-9696.697840,1406.391290,2451.505594
3682.006699,-11399.171507,444.123565,2987.772442
3682.007029,-11251.130318,1332.370696,842.705048
3682.007358,-10140.821405,814.226536,-1378.971896
3682.007688,-11399.171507,-370.102971,0.000000
3682.008018,-12287.418637,592.164754,1532.190996
3682.008348,-11547.212695,-74.020594,2528.115143
3682.008678,-9474.636058,-518.144159,1915.238745
3682.009008,-7476.080014,74.020594,76.609550
3682.009337,-7698.141797,-740.205942,459.657299
3682.009667,-8956.491898,444.123565,1455.581446
3682.009997,-9844.739029,1036.288319,2221.676944
3682.010327,-10510.924376,814.226536,2145.067394
3682.010657,-10362.883188,1628.453072,-459.657299
3682.010987,-10140.821405,222.061783,-1532.190996
3682.011316,-11103.089130,-592.164754,-536.266849
3682.011646,-11399.171507,296.082377,995.924147
3682.011976,-11399.171507,-666.185348,1991.848295
3682.012306,-9474.636058,-296.082377,1455.581446
3682.012636,-7105.977043,-148.041188,-612.876398
3682.012966,-7698.141797,-1184.329507,76.609550
3682.013295,-9030.512492,444.123565,1072.533697
3682.013625,-9918.759623,370.102971,1838.629195
3682.013955,-9918.759623,222.061783,383.047749
3682.014285,-9326.594869,1332.370696,-2068.457845
3682.014615,-9696.697840,0.000000,-2374.896044
3682.014945,-11399.171507,222.061783,-1378.971896
3682.015274,-11325.150913,222.061783,0.000000
3682.015604,-10955.047942,-296.082377,76.609550
3682.015934,-8734.430116,370.102971,-1991.848295
3682.016264,-7254.018232,-222.061783,-2068.457845
3682.016594,-8068.244768,-444.123565,-612.876398
3682.016924,-9104.533087,888.247130,459.657299
3682.017253,-10362.883188,666.185348,1302.362347
3682.017583,-10362.883188,1184.329507,-612.876398
3682.017913,-9696.697840,1184.329507,-1991.848295
3682.018243,-10510.924376,-296.082377,-995.924147
3682.018573,-11991.336260,666.185348,229.828649
3682.018903,-11991.336260,0.000000,689.485948
3682.019232,-10658.965565,-1184.329507,153.219100
3682.019562,-8142.265362,0.000000,-1225.752797
3682.019892,-7624.121203,-1258.350101,-612.876398
3682.020222,-8660.409521,-814.226536,1455.581446
3682.020552,-9104.533087,222.061783,1838.629195
3682.020882,-9400.615463,-148.041188,1685.410096
3682.021211,-9622.677246,962.267725,-459.657299
3682.021541,-9474.636058,222.061783,-1685.410096
3682.021871,-10658.965565,-666.185348,-612.876398
3682.022201,-11177.109724,444.123565,842.705048
3682.022531,-11029.068536,-814.226536,1455.581446
3682.022861,-10140.821405,-962.267725,842.705048
3682.023190,-7994.224174,-370.102971,-459.657299
3682.023520,-8142.265362,-1702.473667,0.000000
3682.023850,-8586.388927,-740.205942,1608.800546
3682.024180,-8956.491898,0.000000,2451.505594
3682.024510,-9474.636058,0.000000,2528.115143
3682.024839,-9178.553681,1184.329507,0.000000
3682.025169,-9474.636058,74.020594,-1302.362347
3682.025499,-11547.212695,0.000000,-536.266849
3682.025829,-11917.315666,370.102971,1072.533697
3682.026159,-11769.274478,-1332.370696,1991.848295
3682.026489,-9696.697840,-962.267725,766.095498
3682.026818,-7698.141797,-1036.288319,-383.047749
3682.027148,-7920.203579,-1480.411884,383.047749
3682.027478,-8956.491898,74.020594,1608.800546
3682.027808,-9696.697840,0.000000,2451.505594
3682.028138,-10362.883188,666.185348,1455.581446
3682.028468,-9252.574275,1480.411884,-1378.971896
3682.028797,-9696.697840,0.000000,-766.095498
3682.029127,-11843.295072,666.185348,0.000000
3682.029457,-12065.356855,296.082377,766.095498
3682.029787,-11325.150913,-740.205942,383.047749
3682.030117,-8808.450710,0.000000,-919.314598
3682.030447,-7179.997637,-1258.350101,-612.876398
3682.030776,-8512.368333,-740.205942,1149.143247
3682.031106,-9474.636058,666.185348,1991.848295
3682.031436,-9992.780217,74.020594,2374.896044
3682.031766,-10140.821405,1036.288319,766.095498
3682.032096,-9252.574275,518.144159,-1455.581446
3682.032426,-10362.883188,-296.082377,-1302.362347
3682.032755,-11103.089130,666.185348,-383.047749
3682.033085,-10658.965565,74.020594,612.876398
3682.033415,-10436.903782,74.020594,-536.266849
3682.033745,-8660.409521,444.123565,-2451.505594
3682.034075,-8586.388927,-666.185348,-1991.848295
3682.034405,-8956.491898,-296.082377,229.828649
3682.034734,-9178.553681,518.144159,1762.019645
3682.035064,-9622.677246,-370.102971,1455.581446
3682.035394,-8956.491898,1258.350101,-536.266849
3682.035724,-8808.450710,74.020594,-1225.752797
3682.036054,-10807.006753,-148.041188,-689.485948
3682.036384,-11695.253884,1036.288319,153.219100
3682.036713,-11843.295072,-518.144159,229.828649
3682.037043,-10436.903782,0.000000,-459.657299
3682.037373,-8586.388927,0.000000,-1991.848295
3682.037703,-8142.265362,-1406.391290,-842.705048
3682.038033,-8586.388927,-296.082377,76.609550
3682.038363,-9030.512492,148.041188,1762.019645
3682.038692,-9104.533087,148.041188,1532.190996
3682.039022,-8660.409521,1776.494261,-995.924147
3682.039352,-9400.615463,148.041188,-1608.800546
3682.039682,-11251.130318,740.205942,0.000000
3682.040012,-12213.398043,814.226536,536.266849
3682.040342,-11991.336260,-592.164754,1685.410096
3682.040671,-9770.718434,0.000000,229.828649
3682.041001,-7994.224174,-666.185348,-919.314598
3682.041331,-8068.244768,-1184.329507,-153.219100
3682.041661,-8734.430116,296.082377,919.314598
3682.041991,-9326.594869,444.123565,2681.334243
3682.042321,-9844.739029,888.247130,1991.848295
3682.042650,-9696.697840,1628.453072,229.828649
3682.042980,-10584.944971,296.082377,-459.657299
3682.043310,-11547.212695,592.164754,153.219100
3682.043640,-11695.253884,370.102971,229.828649
3682.043970,-11251.130318,-666.185348,536.266849
3682.044300,-8660.409521,296.082377,-995.924147
3682.044629,-7179.997637,-1184.329507,612.876398
3682.044959,-8586.388927,-592.164754,1685.410096
3682.045289,-9474.636058,370.102971,2145.067394
3682.045619,-10066.800811,0.000000,1991.848295
3682.045949,-9622.677246,1258.350101,766.095498
3682.046279,-9474.636058,740.205942,76.609550
3682.046608,-10955.047942,-148.041188,995.924147
3682.046938,-12065.356855,666.185348,1455.581446
3682.047268,-11177.109724,0.000000,1532.190996
3682.047598,-10140.821405,0.000000,-76.609550
3682.047928,-8364.327145,148.041188,-1302.362347
3682.048258,-8586.388927,-888.247130,-995.924147
3682.048587,-9104.533087,666.185348,995.924147
3682.048917,-10066.800811,518.144159,2068.457845
3682.049247,-10362.883188,0.000000,1685.410096
3682.049577,-8956.491898,1110.308913,-612.876398
3682.049907,-8734.430116,-222.061783,-1838.629195
3682.050237,-10510.924376,0.000000,-306.438199
3682.050566,-11325.150913,814.226536,689.485948
3682.050896,-11473.192101,-370.102971,536.266849
3682.051226,-9622.677246,0.000000,-842.705048
3682.051556,-8290.306550,-148.041188,-2068.457845
3682.051886,-8808.450710,-1110.308913,-612.876398
3682.052216,-9326.594869,74.020594,0.000000
3682.052545,-9326.594869,-222.061783,689.485948
3682.052875,-8586.388927,74.020594,0.000000
3682.053205,-8438.347739,1036.288319,-2068.457845
3682.053535,-9326.594869,-814.226536,-1915.238745
3682.053865,-11029.068536,222.061783,-766.095498
3682.054194,-11399.171507,444.123565,-612.876398
3682.054524,-11177.109724,-666.185348,0.000000
3682.054854,-9326.594869,74.020594,-1455.581446
3682.055184,-8142.265362,-888.247130,-1378.971896
3682.055514,-9326.594869,-888.247130,0.000000
3682.055844,-9178.553681,222.061783,1072.533697
3682.056173,-10066.800811,-592.164754,1302.362347
3682.056503,-9474.636058,444.123565,0.000000
3682.056833,-8512.368333,592.164754,-2068.457845
3682.057163,-9474.636058,-814.226536,-842.705048
3682.057493,-11177.109724,740.205942,1072.533697
