#time,accel_x,accel_y,accel_z
4118.476886,-9622.677246,0.000000,306.438199
4118.477216,-9770.718434,0.000000,153.219100
4118.477546,-9622.677246,0.000000,0.000000
4118.477876,-9622.677246,74.020594,-383.047749
4118.478206,-9548.656652,-222.061783,459.657299
4118.478537,-9992.780217,222.061783,229.828649
4118.478867,-9770.718434,74.020594,383.047749
4118.479197,-9548.656652,148.041188,229.828649
4118.479527,-9770.718434,148.041188,153.219100
4118.479858,-9770.718434,0.000000,0.000000
4118.480188,-9696.697840,0.000000,0.000000
4118.480518,-9696.697840,0.000000,76.609550
4118.480848,-9622.677246,0.000000,536.266849
4118.481178,-9548.656652,0.000000,842.705048
4118.481509,-9474.636058,-74.020594,766.095498
4118.481839,-10066.800811,0.000000,689.485948
4118.482169,-9770.718434,0.000000,383.047749
4118.482499,-9474.636058,-296.082377,0.000000
4118.482830,-9844.739029,370.102971,459.657299
4118.483160,-10066.800811,148.041188,766.095498
4118.483490,-9548.656652,0.000000,1225.752797
4118.483820,-9548.656652,0.000000,1685.410096
4118.484150,-10066.800811,-74.020594,1532.190996
4118.484481,-10140.821405,-518.144159,1762.019645
4118.484811,-10140.821405,-222.061783,919.314598
4118.485141,-9770.718434,-74.020594,0.000000
4118.485471,-9548.656652,-148.041188,0.000000
4118.485802,-9548.656652,0.000000,383.047749
4118.486132,-9622.677246,-444.123565,1072.533697
4118.486462,-9918.759623,-370.102971,1991.848295
4118.486792,-9548.656652,-370.102971,2604.724693
4118.487122,-9400.615463,-666.185348,1915.238745
4118.487453,-9548.656652,-370.102971,1915.238745
4118.487783,-9770.718434,-740.205942,1762.019645
4118.488113,-9992.780217,-1406.391290,2374.896044
4118.488443,-9844.739029,-592.164754,2451.505594
4118.488774,-10362.883188,-666.185348,2987.772442
4118.489104,-10288.862594,-740.205942,3064.381992
4118.489434,-10140.821405,-962.267725,3064.381992
4118.489764,-10288.862594,-592.164754,2221.676944
4118.490094,-10288.862594,-518.144159,2068.457845
4118.490425,-10510.924376,-592.164754,1378.971896
4118.490755,-9696.697840,-1184.329507,1838.629195
4118.491085,-10140.821405,-1776.494261,2451.505594
4118.491415,-10288.862594,-1998.556043,3140.991542
4118.491746,-10214.842000,-2368.659014,2681.334243
4118.492076,-9400.615463,-3256.906145,2528.115143
4118.492406,-8586.388927,-3552.988522,3064.381992
4118.492736,-8808.450710,-3330.926739,3370.820191
4118.493066,-9178.553681,-3182.885551,3907.087040
4118.493397,-9918.759623,-2886.803174,4596.572988
4118.493727,-10214.842000,-2812.782580,4366.744339
4118.494057,-10807.006753,-3182.885551,3677.258390
4118.494387,-11399.171507,-2738.761985,2604.724693
4118.494718,-10362.883188,-2886.803174,2145.067394
4118.495048,-9844.739029,-2812.782580,995.924147
4118.495378,-9400.615463,-2886.803174,1072.533697
4118.495708,-8734.430116,-3404.947333,1302.362347
4118.496038,-8364.327145,-3701.029710,2145.067394
4118.496369,-8734.430116,-3923.091493,2221.676944
4118.496699,-9474.636058,-3923.091493,2834.553343
4118.497029,-9178.553681,-4293.194464,2681.334243
4118.497359,-9030.512492,-4589.276840,3064.381992
4118.497690,-9252.574275,-4663.297435,3140.991542
4118.498020,-9696.697840,-4367.215058,3753.867940
4118.498350,-10288.862594,-2812.782580,3753.867940
4118.498680,-10584.944971,-2664.741391,2911.162892
4118.499011,-10881.027347,-2220.617826,1762.019645
4118.499341,-10436.903782,-2294.638420,842.705048
4118.499671,-10658.965565,-2812.782580,1149.143247
4118.500001,-10436.903782,-2812.782580,2221.676944
4118.500331,-9844.739029,-3404.947333,2528.115143
4118.500662,-9474.636058,-3478.967927,1762.019645
4118.500992,-9326.594869,-3108.864956,1149.143247
4118.501322,-9548.656652,-3330.926739,1532.190996
4118.501652,-10584.944971,-3108.864956,3064.381992
4118.501983,-11399.171507,-2516.700203,4519.963438
4118.502313,-10658.965565,-2294.638420,4443.353888
4118.502643,-10214.842000,-2294.638420,3294.210641
4118.502973,-9770.718434,-2664.741391,2451.505594
4118.503303,-10140.821405,-2516.700203,2681.334243
4118.503634,-10362.883188,-2442.679609,3524.039291
4118.503964,-9770.718434,-2294.638420,3447.429741
4118.504294,-8956.491898,-2368.659014,2834.553343
4118.504624,-9400.615463,-2072.576638,2068.457845
4118.504955,-9844.739029,-1406.391290,1532.190996
4118.505285,-9770.718434,-1258.350101,842.705048
4118.505615,-9178.553681,-1110.308913,1302.362347
4118.505945,-8882.471304,-1258.350101,1991.848295
4118.506275,-8956.491898,-1036.288319,3140.991542
4118.506606,-9770.718434,-666.185348,3753.867940
4118.506936,-10436.903782,-1110.308913,2987.772442
4118.507266,-10881.027347,-1258.350101,1225.752797
4118.507596,-10214.842000,-1110.308913,1378.971896
4118.507927,-9548.656652,-814.226536,1915.238745
4118.508257,-9326.594869,-1332.370696,3217.601092
4118.508587,-9326.594869,-222.061783,3217.601092
4118.508917,-9474.636058,-666.185348,2068.457845
4118.509247,-9474.636058,-592.164754,153.219100
4118.509578,-9474.636058,-814.226536,153.219100
4118.509908,-9474.636058,-370.102971,766.095498
4118.510238,-10214.842000,-444.123565,2068.457845
4118.510568,-9696.697840,-518.144159,2451.505594
4118.510899,-10214.842000,-518.144159,2068.457845
4118.511229,-10658.965565,-592.164754,1991.848295
4118.511559,-10807.006753,-444.123565,1532.190996
4118.511889,-9992.780217,-592.164754,1378.971896
4118.512219,-9770.718434,-444.123565,1838.629195
4118.512550,-10288.862594,-740.205942,2911.162892
4118.512880,-10362.883188,-592.164754,2987.772442
4118.513210,-9918.759623,-740.205942,1608.800546
4118.513540,-9474.636058,-1332.370696,459.657299
4118.513871,-9474.636058,-1406.391290,1149.143247
4118.514201,-10288.862594,-1480.411884,2374.896044
4118.514531,-9622.677246,-2072.576638,2528.115143
4118.514861,-9104.533087,-1628.453072,2681.334243
4118.515191,-9770.718434,-2294.638420,2451.505594
4118.515522,-9548.656652,-2516.700203,2834.553343
4118.515852,-10140.821405,-2960.823768,2987.772442
4118.516182,-9548.656652,-2812.782580,3064.381992
4118.516512,-9030.512492,-2442.679609,3983.696590
4118.516843,-8882.471304,-2368.659014,3600.648841
4118.517173,-9252.574275,-2368.659014,3447.429741
4118.517503,-11103.089130,-2072.576638,3064.381992
4118.517833,-11399.171507,-1850.514855,2068.457845
4118.518163,-10732.986159,-2368.659014,919.314598
4118.518494,-9326.594869,-3478.967927,306.438199
4118.518824,-8660.409521,-2886.803174,2451.505594
4118.519154,-9696.697840,-3108.864956,4136.915689
4118.519484,-9770.718434,-3997.112087,3294.210641
4118.519815,-8734.430116,-3701.029710,1991.848295
4118.520145,-8734.430116,-3775.050304,2681.334243
4118.520475,-10066.800811,-3627.009116,3907.087040
4118.520805,-10807.006753,-3627.009116,5592.497135
4118.521136,-10658.965565,-3627.009116,5132.839837
4118.521466,-9918.759623,-3108.864956,3600.648841
4118.521796,-10732.986159,-2516.700203,2221.676944
4118.522126,-10584.944971,-1924.535449,1455.581446
4118.522456,-10436.903782,-2368.659014,306.438199
4118.522787,-9844.739029,-1480.411884,1149.143247
4118.523117,-9400.615463,-2664.741391,1225.752797
4118.523447,-9178.553681,-2368.659014,1072.533697
4118.523777,-8808.450710,-2516.700203,995.924147
4118.524108,-9696.697840,-2664.741391,1378.971896
4118.524438,-9992.780217,-2812.782580,1685.410096
4118.524768,-9844.739029,-2442.679609,2145.067394
4118.525098,-9474.636058,-2146.597232,2681.334243
4118.525428,-10362.883188,-1702.473667,3830.477490
4118.525759,-11029.068536,-1554.432478,3294.210641
4118.526089,-10658.965565,-1332.370696,2374.896044
4118.526419,-9548.656652,-888.247130,0.000000
4118.526749,-9178.553681,-962.267725,306.438199
4118.527080,-10214.842000,-1110.308913,842.705048
4118.527410,-9770.718434,-962.267725,1455.581446
4118.527740,-8290.306550,-1184.329507,919.314598
4118.528070,-8142.265362,-1184.329507,306.438199
4118.528400,-8882.471304,-666.185348,153.219100
4118.528731,-10066.800811,-370.102971,1302.362347
4118.529061,-9548.656652,-444.123565,1302.362347
4118.529391,-9474.636058,-74.020594,1762.019645
4118.529721,-10732.986159,666.185348,2068.457845
4118.530052,-11843.295072,444.123565,1762.019645
4118.530382,-10658.965565,666.185348,689.485948
4118.530712,-9400.615463,0.000000,-689.485948
4118.531042,-8660.409521,0.000000,-1762.019645
4118.531372,-8512.368333,74.020594,-689.485948
4118.531702,-8068.244768,814.226536,-306.438199
4118.532032,-8808.450710,1110.308913,-919.314598
4118.532362,-9918.759623,1184.329507,-1149.143247
4118.532692,-9770.718434,1036.288319,-1532.190996
4118.533022,-9918.759623,592.164754,-1225.752797
4118.533352,-10362.883188,888.247130,0.000000
4118.533682,-10436.903782,518.144159,995.924147
4118.534012,-9918.759623,592.164754,1302.362347
4118.534342,-8882.471304,444.123565,306.438199
4118.534672,-9400.615463,1406.391290,306.438199
4118.535002,-9992.780217,1924.535449,689.485948
4118.535332,-10732.986159,2146.597232,76.609550
4118.535662,-10066.800811,1480.411884,-995.924147
4118.535992,-9178.553681,1628.453072,-1762.019645
4118.536322,-9622.677246,1924.535449,-1378.971896
4118.536652,-10658.965565,1554.432478,-1225.752797
4118.536982,-10214.842000,1184.329507,-1455.581446
4118.537312,-9474.636058,962.267725,-1532.190996
4118.537642,-9252.574275,1110.308913,-689.485948
4118.537972,-9844.739029,1406.391290,76.609550
4118.538302,-9844.739029,1184.329507,306.438199
4118.538632,-9918.759623,1184.329507,76.609550
4118.538962,-9918.759623,1184.329507,229.828649
4118.539292,-10288.862594,888.247130,1302.362347
4118.539622,-10881.027347,740.205942,536.266849
4118.539952,-9548.656652,518.144159,-459.657299
4118.540282,-9252.574275,370.102971,-842.705048
4118.540612,-9474.636058,888.247130,-229.828649
4118.540942,-10214.842000,370.102971,0.000000
4118.541273,-9696.697840,444.123565,0.000000
4118.541603,-9030.512492,148.041188,536.266849
4118.541933,-9474.636058,222.061783,306.438199
4118.542263,-9104.533087,370.102971,536.266849
4118.542593,-9474.636058,518.144159,459.657299
4118.542923,-9918.759623,444.123565,153.219100
4118.543253,-9844.739029,370.102971,306.438199
4118.543583,-10436.903782,814.226536,-76.609550
4118.543913,-10436.903782,814.226536,229.828649
4118.544243,-10584.944971,592.164754,0.000000
4118.544573,-9770.718434,0.000000,-842.705048
4118.544903,-8660.409521,0.000000,-995.924147
4118.545233,-8956.491898,-444.123565,0.000000
4118.545563,-9030.512492,0.000000,995.924147
4118.545893,-9474.636058,-444.123565,1685.410096
4118.546223,-9622.677246,0.000000,1072.533697
4118.546553,-10066.800811,0.000000,689.485948
4118.546883,-10807.006753,-296.082377,0.000000
4118.547213,-11325.150913,0.000000,459.657299
4118.547543,-10066.800811,-444.123565,612.876398
4118.547873,-8586.388927,-666.185348,76.609550
4118.548203,-8660.409521,-888.247130,536.266849
4118.548533,-10066.800811,-370.102971,1072.533697
4118.548863,-10288.862594,-592.164754,1072.533697
4118.549193,-9622.677246,-518.144159,766.095498
4118.549523,-9474.636058,-1184.329507,1149.143247
4118.549853,-9696.697840,-814.226536,995.924147
4118.550183,-9844.739029,-962.267725,1608.800546
4118.550513,-9326.594869,-888.247130,1225.752797
4118.550843,-9474.636058,-888.247130,459.657299
4118.551173,-9770.718434,-888.247130,229.828649
4118.551503,-10214.842000,-814.226536,536.266849
4118.551833,-10066.800811,-370.102971,995.924147
4118.552163,-9548.656652,-592.164754,0.000000
4118.552493,-9400.615463,-814.226536,0.000000
4118.552823,-9696.697840,-962.267725,0.000000
4118.553153,-10288.862594,-1480.411884,229.828649
4118.553483,-9548.656652,-740.205942,1149.143247
4118.553813,-9400.615463,-1036.288319,1225.752797
4118.554143,-9992.780217,-222.061783,995.924147
4118.554473,-10140.821405,-888.247130,306.438199
4118.554803,-9696.697840,-814.226536,-536.266849
4118.555133,-8956.491898,-592.164754,306.438199
4118.555463,-9622.677246,0.000000,842.705048
4118.555793,-9770.718434,0.000000,689.485948
4118.556123,-9104.533087,-370.102971,-1149.143247
4118.556453,-9770.718434,0.000000,-1225.752797
4118.556783,-10658.965565,666.185348,-536.266849
4118.557113,-10584.944971,370.102971,-383.047749
4118.557443,-9844.739029,592.164754,-153.219100
4118.557773,-9178.553681,222.061783,-612.876398
4118.558103,-8956.491898,296.082377,-612.876398
4118.558433,-9992.780217,0.000000,-229.828649
4118.558763,-10881.027347,1036.288319,-459.657299
4118.559093,-10658.965565,1036.288319,229.828649
4118.559423,-9622.677246,666.185348,0.000000
4118.559753,-8734.430116,666.185348,536.266849
4118.560083,-9770.718434,1036.288319,306.438199
4118.560413,-9770.718434,740.205942,-536.266849
4118.560743,-9918.759623,962.267725,0.000000
4118.561073,-9844.739029,1036.288319,0.000000
4118.561403,-10658.965565,814.226536,0.000000
4118.561733,-9844.739029,592.164754,766.095498
4118.562063,-9474.636058,444.123565,1532.190996
4118.562393,-9326.594869,814.226536,153.219100
4118.562723,-9178.553681,444.123565,-689.485948
4118.563053,-8882.471304,592.164754,-995.924147
4118.563383,-8660.409521,888.247130,-229.828649
4118.563713,-9844.739029,1184.329507,306.438199
4118.564043,-10732.986159,814.226536,612.876398
4118.564373,-10584.944971,814.226536,306.438199
4118.564703,-9178.553681,0.000000,306.438199
4118.565033,-9104.533087,74.020594,229.828649
4118.565363,-9474.636058,0.000000,306.438199
4118.565693,-9104.533087,296.082377,459.657299
4118.566023,-8660.409521,296.082377,459.657299
4118.566353,-9030.512492,1036.288319,0.000000
4118.566683,-10362.883188,962.267725,766.095498
4118.567013,-11103.089130,1036.288319,76.609550
4118.567343,-10288.862594,740.205942,-459.657299
4118.567673,-10066.800811,814.226536,-842.705048
4118.568003,-9696.697840,74.020594,-306.438199
4118.568333,-9326.594869,0.000000,-76.609550
4118.568663,-8956.491898,-296.082377,-153.219100
4118.568993,-9252.574275,0.000000,766.095498
4118.569323,-9992.780217,222.061783,536.266849
4118.569653,-10214.842000,0.000000,229.828649
4118.569983,-10436.903782,74.020594,0.000000
4118.570313,-10214.842000,0.000000,536.266849
4118.570643,-9770.718434,-222.061783,383.047749
4118.570973,-10066.800811,-148.041188,536.266849
4118.571303,-9992.780217,-592.164754,612.876398
4118.571633,-10362.883188,-518.144159,536.266849
4118.571963,-10066.800811,-444.123565,0.000000
4118.572293,-10066.800811,-592.164754,76.609550
4118.572623,-10140.821405,-740.205942,306.438199
4118.572953,-10140.821405,-444.123565,842.705048
4118.573283,-8808.450710,-962.267725,995.924147
4118.573613,-9474.636058,-814.226536,536.266849
4118.573943,-10140.821405,-814.226536,536.266849
4118.574273,-10584.944971,-740.205942,842.705048
4118.574603,-10510.924376,-666.185348,1149.143247
4118.574933,-10288.862594,-666.185348,612.876398
4118.575263,-9770.718434,-814.226536,0.000000
4118.575593,-9474.636058,-740.205942,0.000000
4118.575923,-9696.697840,0.000000,383.047749
4118.576253,-9252.574275,-370.102971,153.219100
4118.576583,-9030.512492,-814.226536,0.000000
4118.576913,-9992.780217,-296.082377,459.657299
4118.577243,-10510.924376,-888.247130,0.000000
4118.577574,-9548.656652,-1036.288319,0.000000
4118.577904,-8660.409521,-1702.473667,612.876398
4118.578234,-8660.409521,-1184.329507,766.095498
4118.578564,-8808.450710,-666.185348,919.314598
4118.578894,-9548.656652,0.000000,383.047749
4118.579224,-10140.821405,518.144159,459.657299
4118.579554,-9992.780217,-74.020594,229.828649
4118.579884,-10288.862594,444.123565,536.266849
4118.580214,-10288.862594,0.000000,1149.143247
4118.580544,-9696.697840,-222.061783,536.266849
4118.580874,-9474.636058,0.000000,0.000000
4118.581204,-9326.594869,-296.082377,-995.924147
4118.581534,-10066.800811,592.164754,-612.876398
4118.581864,-9844.739029,592.164754,-842.705048
4118.582194,-10510.924376,888.247130,0.000000
4118.582524,-10140.821405,888.247130,612.876398
4118.582854,-9918.759623,814.226536,76.609550
4118.583184,-9696.697840,518.144159,-766.095498
4118.583514,-9918.759623,148.041188,-536.266849
4118.583844,-9992.780217,74.020594,0.000000
4118.584174,-9622.677246,0.000000,229.828649
4118.584504,-9622.677246,296.082377,766.095498
4118.584834,-9696.697840,814.226536,919.314598
4118.585164,-9844.739029,370.102971,919.314598
4118.585494,-9770.718434,370.102971,306.438199
4118.585824,-9696.697840,0.000000,0.000000
4118.586154,-9178.553681,592.164754,536.266849
4118.586484,-9696.697840,444.123565,842.705048
4118.586814,-9844.739029,518.144159,153.219100
4118.587144,-9400.615463,370.102971,0.000000
4118.587474,-9696.697840,148.041188,0.000000
4118.587804,-9326.594869,74.020594,-229.828649
4118.588134,-9696.697840,148.041188,153.219100
4118.588464,-9326.594869,74.020594,0.000000
4118.588794,-9030.512492,444.123565,153.219100
4118.589124,-9622.677246,-74.020594,-229.828649
4118.589454,-9696.697840,74.020594,612.876398
4118.589784,-9992.780217,0.000000,459.657299
4118.590114,-9474.636058,222.061783,229.828649
4118.590444,-9400.615463,222.061783,306.438199
4118.590774,-10066.800811,592.164754,0.000000
4118.591104,-10214.842000,666.185348,-536.266849
4118.591434,-10214.842000,518.144159,-919.314598
4118.591764,-10140.821405,814.226536,153.219100
4118.592094,-10140.821405,592.164754,383.047749
4118.592424,-9548.656652,518.144159,-306.438199
4118.592754,-9622.677246,222.061783,76.609550
4118.593084,-9400.615463,444.123565,-153.219100
4118.593414,-11103.089130,814.226536,0.000000
4118.593744,-11029.068536,518.144159,0.000000
4118.594074,-10214.842000,370.102971,689.485948
4118.594404,-9696.697840,296.082377,1532.190996
4118.594734,-9252.574275,74.020594,-383.047749
4118.595064,-9622.677246,74.020594,-153.219100
4118.595394,-9548.656652,0.000000,76.609550
4118.595724,-9696.697840,0.000000,612.876398
4118.596054,-10510.924376,0.000000,995.924147
4118.596384,-10362.883188,-444.123565,1685.410096
4118.596714,-9992.780217,-444.123565,1455.581446
4118.597044,-9030.512492,-666.185348,536.266849
4118.597374,-9770.718434,0.000000,383.047749
4118.597704,-9770.718434,-370.102971,842.705048
4118.598034,-9326.594869,0.000000,766.095498
4118.598364,-9474.636058,-222.061783,842.705048
4118.598694,-9992.780217,370.102971,76.609550
4118.599024,-10214.842000,0.000000,76.609550
4118.599354,-9030.512492,-740.205942,-766.095498
4118.599684,-8290.306550,-740.205942,-536.266849
4118.600014,-9400.615463,-666.185348,306.438199
4118.600344,-9622.677246,-518.144159,1149.143247
4118.600674,-9474.636058,-592.164754,689.485948
4118.601004,-9918.759623,-444.123565,766.095498
4118.601334,-10066.800811,0.000000,76.609550
4118.601664,-9548.656652,74.020594,153.219100
4118.601994,-9400.615463,0.000000,766.095498
4118.602324,-9696.697840,-222.061783,842.705048
4118.602654,-10066.800811,222.061783,76.609550
4118.602984,-9770.718434,74.020594,-612.876398
4118.603314,-10658.965565,0.000000,-459.657299
4118.603644,-9622.677246,296.082377,-612.876398
4118.603974,-9918.759623,74.020594,-459.657299
4118.604304,-10140.821405,592.164754,-229.828649
4118.604634,-10214.842000,370.102971,76.609550
4118.604964,-9992.780217,592.164754,-459.657299
4118.605294,-9918.759623,148.041188,76.609550
4118.605624,-10658.965565,518.144159,229.828649
4118.605954,-10214.842000,0.000000,1149.143247
4118.606284,-9918.759623,-444.123565,612.876398
4118.606614,-9918.759623,-148.041188,689.485948
4118.606944,-9474.636058,-444.123565,536.266849
4118.607274,-9030.512492,0.000000,612.876398
4118.607604,-9474.636058,-148.041188,306.438199
4118.607934,-10584.944971,296.082377,995.924147
4118.608264,-10584.944971,74.020594,1149.143247
4118.608594,-9178.553681,-740.205942,995.924147
4118.608924,-9104.533087,-296.082377,306.438199
4118.609254,-9622.677246,-370.102971,689.485948
4118.609584,-10436.903782,0.000000,612.876398
4118.609914,-10510.924376,0.000000,153.219100
4118.610244,-9104.533087,0.000000,0.000000
4118.610574,-9030.512492,222.061783,-306.438199
4118.610904,-9696.697840,296.082377,306.438199
4118.611234,-10066.800811,666.185348,0.000000
4118.611564,-9622.677246,296.082377,-306.438199
4118.611894,-9400.615463,0.000000,-383.047749
4118.612224,-9474.636058,148.041188,0.000000
4118.612554,-9918.759623,0.000000,842.705048
4118.612884,-9548.656652,0.000000,76.609550
4118.613214,-9474.636058,74.020594,153.219100
4118.613545,-8660.409521,148.041188,-459.657299
4118.613875,-9252.574275,444.123565,-689.485948
4118.614205,-10066.800811,814.226536,-842.705048
4118.614535,-10140.821405,1332.370696,536.266849
4118.614865,-10436.903782,962.267725,842.705048
4118.615195,-10140.821405,888.247130,229.828649
4118.615525,-9918.759623,592.164754,-306.438199
4118.615855,-9400.615463,740.205942,-1685.410096
4118.616185,-9030.512492,740.205942,-1225.752797
4118.616515,-9400.615463,962.267725,-689.485948
4118.616845,-9918.759623,814.226536,536.266849
4118.617175,-10658.965565,1628.453072,229.828649
4118.617505,-10658.965565,1036.288319,153.219100
4118.617835,-10288.862594,814.226536,-306.438199
4118.618165,-9992.780217,666.185348,-536.266849
4118.618495,-9474.636058,222.061783,-536.266849
4118.618825,-9770.718434,0.000000,766.095498
4118.619155,-9474.636058,370.102971,1455.581446
4118.619485,-10214.842000,0.000000,1685.410096
4118.619815,-10288.862594,74.020594,842.705048
4118.620145,-10066.800811,-296.082377,383.047749
4118.620475,-9252.574275,-370.102971,459.657299
4118.620805,-9326.594869,0.000000,612.876398
4118.621135,-9474.636058,-296.082377,536.266849
4118.621465,-9770.718434,-74.020594,306.438199
4118.621795,-9992.780217,-444.123565,842.705048
4118.622125,-9178.553681,-518.144159,459.657299
4118.622455,-9622.677246,-148.041188,459.657299
4118.622785,-10214.842000,-74.020594,-76.609550
4118.623115,-10510.924376,-296.082377,0.000000
4118.623445,-9622.677246,-814.226536,-76.609550
4118.623775,-9474.636058,-296.082377,153.219100
4118.624105,-9696.697840,-148.041188,0.000000
4118.624435,-9474.636058,0.000000,-153.219100
4118.624765,-9252.574275,-296.082377,-306.438199
4118.625095,-8956.491898,-370.102971,-459.657299
4118.625425,-9770.718434,-74.020594,0.000000
4118.625755,-10066.800811,-814.226536,612.876398
4118.626085,-10955.047942,-370.102971,306.438199
4118.626415,-9992.780217,-666.185348,766.095498
4118.626745,-9474.636058,-740.205942,153.219100
4118.627075,-9474.636058,-148.041188,459.657299
4118.627405,-10288.862594,-740.205942,153.219100
4118.627735,-10214.842000,0.000000,229.828649
4118.628065,-9548.656652,0.000000,306.438199
4118.628395,-10140.821405,74.020594,153.219100
4118.628725,-10214.842000,296.082377,459.657299
4118.629055,-9992.780217,-148.041188,229.828649
4118.629385,-9992.780217,0.000000,383.047749
4118.629715,-9770.718434,-592.164754,383.047749
4118.630045,-9696.697840,-222.061783,612.876398
4118.630375,-9918.759623,-222.061783,306.438199
4118.630705,-10140.821405,296.082377,76.609550
4118.631035,-10066.800811,444.123565,536.266849
4118.631364,-9844.739029,74.020594,919.314598
4118.631694,-10288.862594,0.000000,689.485948
4118.632024,-10214.842000,-370.102971,1149.143247
4118.632354,-9400.615463,-370.102971,229.828649
4118.632684,-8808.450710,-148.041188,76.609550
4118.633014,-9178.553681,0.000000,689.485948
4118.633344,-9918.759623,0.000000,1072.533697
4118.633674,-9918.759623,-222.061783,766.095498
4118.634003,-9992.780217,74.020594,919.314598
4118.634333,-9474.636058,148.041188,842.705048
4118.634663,-9400.615463,-370.102971,306.438199
4118.634993,-9178.553681,0.000000,76.609550
4118.635323,-9030.512492,0.000000,76.609550
4118.635653,-9326.594869,74.020594,-536.266849
4118.635983,-9844.739029,148.041188,-536.266849
4118.636313,-10066.800811,444.123565,-536.266849
4118.636643,-9696.697840,74.020594,0.000000
4118.636972,-9030.512492,148.041188,153.219100
4118.637302,-9252.574275,370.102971,306.438199
4118.637632,-10140.821405,518.144159,306.438199
4118.637962,-10214.842000,740.205942,153.219100
4118.638292,-9770.718434,518.144159,0.000000
4118.638622,-10066.800811,814.226536,-459.657299
4118.638952,-10362.883188,814.226536,76.609550
4118.639282,-9992.780217,444.123565,-76.609550
4118.639611,-9770.718434,814.226536,-306.438199
4118.639941,-9992.780217,444.123565,-995.924147
4118.640271,-10140.821405,814.226536,-919.314598
4118.640601,-10436.903782,740.205942,-306.438199
4118.640931,-10362.883188,888.247130,459.657299
4118.641261,-10436.903782,1110.308913,229.828649
4118.641591,-10881.027347,740.205942,0.000000
4118.641921,-10584.944971,370.102971,-919.314598
4118.642250,-10362.883188,0.000000,-995.924147
4118.642580,-9326.594869,0.000000,-306.438199
4118.642910,-9104.533087,-370.102971,306.438199
4118.643240,-9622.677246,222.061783,1225.752797
4118.643570,-10066.800811,296.082377,689.485948
4118.643900,-9918.759623,296.082377,-459.657299
4118.644230,-10288.862594,148.041188,-459.657299
4118.644560,-10288.862594,-518.144159,76.609550
4118.644889,-9400.615463,-740.205942,689.485948
4118.645219,-8734.430116,-592.164754,1149.143247
4118.645549,-8290.306550,-1184.329507,1072.533697
4118.645879,-8956.491898,-444.123565,153.219100
4118.646209,-9548.656652,-518.144159,-383.047749
4118.646539,-9548.656652,148.041188,0.000000
4118.646869,-9548.656652,74.020594,919.314598
4118.647199,-9696.697840,148.041188,612.876398
4118.647528,-9474.636058,-518.144159,536.266849
4118.647858,-8660.409521,-222.061783,-306.438199
4118.648188,-8660.409521,0.000000,-919.314598
4118.648518,-9474.636058,666.185348,-919.314598
4118.648848,-9844.739029,888.247130,-383.047749
4118.649178,-10362.883188,740.205942,229.828649
4118.649508,-10436.903782,814.226536,-306.438199
4118.649838,-10288.862594,518.144159,229.828649
4118.650167,-10510.924376,814.226536,-306.438199
4118.650497,-9918.759623,296.082377,-536.266849
4118.650827,-9178.553681,222.061783,0.000000
4118.651157,-8956.491898,518.144159,1225.752797
4118.651487,-10214.842000,592.164754,612.876398
4118.651817,-10362.883188,444.123565,0.000000
4118.652147,-9992.780217,222.061783,-229.828649
4118.652477,-10066.800811,74.020594,919.314598
4118.652806,-10362.883188,0.000000,1455.581446
4118.653136,-10362.883188,-296.082377,1915.238745
4118.653466,-9622.677246,-518.144159,1378.971896
4118.653796,-9474.636058,-370.102971,842.705048
4118.654126,-8808.450710,-666.185348,76.609550
4118.654456,-10510.924376,74.020594,766.095498
4118.654786,-10436.903782,-444.123565,1455.581446
4118.655116,-9770.718434,-74.020594,1608.800546
4118.655445,-9474.636058,-296.082377,1378.971896
4118.655775,-9844.739029,-296.082377,229.828649
4118.656105,-9844.739029,-74.020594,0.000000
4118.656435,-9400.615463,-148.041188,-612.876398
4118.656765,-9622.677246,0.000000,229.828649
4118.657095,-9622.677246,-148.041188,153.219100
4118.657425,-9474.636058,-370.102971,229.828649
4118.657755,-9400.615463,-888.247130,766.095498
4118.658085,-9548.656652,-962.267725,919.314598
4118.658414,-9622.677246,-962.267725,919.314598
4118.658744,-9178.553681,-1332.370696,459.657299
4118.659074,-8956.491898,-888.247130,842.705048
4118.659404,-9104.533087,-814.226536,919.314598
4118.659734,-9770.718434,-592.164754,766.095498
4118.660064,-9844.739029,-740.205942,1149.143247
4118.660394,-9918.759623,0.000000,1149.143247
4118.660724,-9992.780217,222.061783,76.609550
4118.661053,-9844.739029,-222.061783,-919.314598
4118.661383,-10881.027347,592.164754,0.000000
4118.661713,-10658.965565,0.000000,229.828649
4118.662043,-10807.006753,148.041188,0.000000
4118.662373,-9918.759623,-148.041188,0.000000
4118.662703,-9622.677246,148.041188,-766.095498
4118.663033,-9918.759623,740.205942,-689.485948
4118.663363,-10362.883188,370.102971,-1532.190996
4118.663692,-10732.986159,592.164754,-536.266849
4118.664022,-9548.656652,370.102971,76.609550
4118.664352,-9400.615463,814.226536,229.828649
4118.664682,-9770.718434,0.000000,842.705048
4118.665012,-10658.965565,222.061783,306.438199
4118.665342,-10584.944971,-666.185348,-459.657299
4118.665672,-9844.739029,0.000000,-689.485948
4118.666002,-9474.636058,296.082377,-383.047749
4118.666331,-9622.677246,148.041188,459.657299
4118.666661,-9178.553681,0.000000,766.095498
4118.666991,-8438.347739,148.041188,459.657299
4118.667321,-9104.533087,222.061783,76.609550
4118.667651,-9548.656652,74.020594,-459.657299
4118.667981,-9622.677246,0.000000,-306.438199
4118.668311,-9548.656652,-370.102971,689.485948
4118.668641,-9326.594869,0.000000,1072.533697
4118.668970,-8882.471304,-148.041188,842.705048
4118.669300,-8660.409521,222.061783,153.219100
4118.669630,-9474.636058,370.102971,0.000000
4118.669960,-9696.697840,814.226536,-766.095498
4118.670290,-9252.574275,1036.288319,-383.047749
4118.670620,-9918.759623,1332.370696,0.000000
4118.670950,-10288.862594,518.144159,-306.438199
4118.671280,-9696.697840,888.247130,-383.047749
4118.671609,-9474.636058,814.226536,0.000000
4118.671939,-9622.677246,370.102971,-229.828649
4118.672269,-9548.656652,814.226536,0.000000
4118.672599,-9474.636058,814.226536,-76.609550
4118.672929,-9844.739029,888.247130,-306.438199
4118.673259,-10140.821405,814.226536,-459.657299
4118.673589,-10955.047942,814.226536,-536.266849
4118.673919,-10288.862594,592.164754,153.219100
4118.674248,-10140.821405,740.205942,229.828649
4118.674578,-9770.718434,370.102971,-153.219100
4118.674908,-9992.780217,222.061783,-153.219100
4118.675238,-10362.883188,222.061783,383.047749
4118.675568,-10140.821405,222.061783,995.924147
4118.675898,-10066.800811,0.000000,612.876398
4118.676228,-10584.944971,592.164754,229.828649
4118.676558,-10510.924376,0.000000,459.657299
4118.676888,-10066.800811,-592.164754,229.828649
4118.677217,-9474.636058,-740.205942,689.485948
4118.677547,-9548.656652,-222.061783,842.705048
4118.677877,-9622.677246,0.000000,1378.971896
4118.678207,-9474.636058,-666.185348,842.705048
4118.678537,-9474.636058,-888.247130,0.000000
4118.678867,-9178.553681,-740.205942,459.657299
4118.679197,-9326.594869,-814.226536,383.047749
4118.679527,-9622.677246,-296.082377,612.876398
4118.679856,-9770.718434,-1036.288319,919.314598
4118.680186,-8956.491898,-962.267725,842.705048
4118.680516,-8734.430116,-1110.308913,842.705048
4118.680846,-9696.697840,-814.226536,1149.143247
4118.681176,-10362.883188,-888.247130,1455.581446
4118.681506,-9770.718434,-814.226536,459.657299
4118.681836,-9770.718434,-740.205942,919.314598
4118.682166,-9622.677246,-74.020594,766.095498
4118.682495,-9474.636058,-296.082377,995.924147
4118.682825,-9548.656652,0.000000,0.000000
4118.683155,-10066.800811,518.144159,0.000000
4118.683485,-10510.924376,444.123565,-229.828649
4118.683815,-9992.780217,74.020594,-459.657299
4118.684145,-9696.697840,222.061783,-689.485948
4118.684475,-9770.718434,592.164754,-459.657299
4118.684805,-9770.718434,296.082377,-536.266849
4118.685134,-9400.615463,0.000000,-689.485948
4118.685464,-10140.821405,518.144159,0.000000
4118.685794,-10510.924376,592.164754,383.047749
4118.686124,-10955.047942,148.041188,229.828649
4118.686454,-10066.800811,666.185348,306.438199
4118.686784,-10066.800811,0.000000,842.705048
4118.687114,-9622.677246,740.205942,229.828649
4118.687444,-9326.594869,-222.061783,306.438199
4118.687773,-10288.862594,518.144159,0.000000
4118.688103,-9326.594869,0.000000,229.828649
4118.688433,-9474.636058,296.082377,0.000000
4118.688763,-9178.553681,0.000000,-919.314598
4118.689093,-9844.739029,0.000000,-459.657299
4118.689423,-9770.718434,222.061783,-306.438199
4118.689753,-9474.636058,-296.082377,1378.971896
4118.690083,-9696.697840,370.102971,1685.410096
4118.690412,-9030.512492,0.000000,1838.629195
4118.690742,-9474.636058,444.123565,612.876398
4118.691072,-10140.821405,0.000000,-383.047749
4118.691402,-10362.883188,-148.041188,-536.266849
4118.691732,-9474.636058,0.000000,-306.438199
4118.692062,-8882.471304,-148.041188,229.828649
4118.692392,-8808.450710,-148.041188,383.047749
4118.692722,-9474.636058,222.061783,0.000000
4118.693051,-9104.533087,-148.041188,-536.266849
4118.693381,-9326.594869,0.000000,-766.095498
4118.693711,-9770.718434,0.000000,76.609550
4118.694041,-10362.883188,-74.020594,2068.457845
4118.694371,-10362.883188,74.020594,1685.410096
4118.694701,-10436.903782,222.061783,766.095498
4118.695031,-10066.800811,296.082377,-766.095498
4118.695361,-9696.697840,74.020594,-1149.143247
4118.695690,-9696.697840,444.123565,-766.095498
4118.696020,-9844.739029,518.144159,153.219100
4118.696350,-10658.965565,962.267725,153.219100
4118.696680,-10807.006753,296.082377,0.000000
4118.697010,-11103.089130,148.041188,-766.095498
4118.697340,-9622.677246,0.000000,-766.095498
4118.697670,-9696.697840,-518.144159,-459.657299
4118.698000,-9696.697840,0.000000,1378.971896
4118.698330,-9104.533087,-296.082377,2374.896044
4118.698659,-9548.656652,370.102971,536.266849
4118.698989,-10362.883188,148.041188,0.000000
4118.699319,-11621.233289,74.020594,153.219100
4118.699649,-10807.006753,222.061783,383.047749
4118.699979,-9474.636058,-518.144159,842.705048
4118.700309,-8808.450710,0.000000,536.266849
4118.700639,-8438.347739,-296.082377,0.000000
4118.700969,-9178.553681,0.000000,-459.657299
4118.701298,-9770.718434,-74.020594,306.438199
4118.701628,-10807.006753,222.061783,919.314598
4118.701958,-10288.862594,-222.061783,1532.190996
4118.702288,-9548.656652,-666.185348,919.314598
4118.702618,-8956.491898,-1110.308913,1225.752797
4118.702948,-8882.471304,-962.267725,919.314598
4118.703278,-9326.594869,-666.185348,689.485948
4118.703608,-9104.533087,-592.164754,842.705048
4118.703937,-9548.656652,-592.164754,919.314598
4118.704267,-9770.718434,296.082377,0.000000
4118.704597,-10214.842000,444.123565,0.000000
4118.704927,-10436.903782,0.000000,-383.047749
4118.705257,-9992.780217,0.000000,-229.828649
4118.705587,-9326.594869,-592.164754,76.609550
4118.705917,-9548.656652,74.020594,612.876398
4118.706247,-9622.677246,0.000000,76.609550
4118.706576,-9918.759623,148.041188,-459.657299
4118.706906,-10140.821405,74.020594,0.000000
4118.707236,-10807.006753,296.082377,-306.438199
4118.707566,-10436.903782,592.164754,229.828649
4118.707896,-9918.759623,148.041188,536.266849
4118.708226,-9696.697840,148.041188,383.047749
4118.708556,-9696.697840,0.000000,-76.609550
4118.708886,-9400.615463,0.000000,-766.095498
4118.709215,-9844.739029,74.020594,-995.924147
4118.709545,-9844.739029,370.102971,-612.876398
4118.709875,-10066.800811,74.020594,229.828649
4118.710205,-10066.800811,0.000000,383.047749
4118.710535,-9918.759623,0.000000,383.047749
4118.710865,-9474.636058,0.000000,459.657299
4118.711195,-9474.636058,74.020594,0.000000
4118.711525,-9474.636058,0.000000,0.000000
4118.711854,-9770.718434,0.000000,995.924147
4118.712184,-9696.697840,296.082377,919.314598
4118.712514,-10066.800811,0.000000,1149.143247
4118.712844,-10214.842000,-370.102971,76.609550
4118.713174,-9770.718434,-666.185348,76.609550
4118.713504,-8660.409521,-370.102971,-306.438199
4118.713834,-8956.491898,-296.082377,306.438199
4118.714164,-9548.656652,-222.061783,536.266849
4118.714493,-10066.800811,222.061783,1149.143247
4118.714823,-9474.636058,0.000000,459.657299
4118.715153,-9696.697840,222.061783,0.000000
4118.715483,-10288.862594,222.061783,-383.047749
4118.715813,-9548.656652,0.000000,-459.657299
4118.716143,-8956.491898,222.061783,-306.438199
4118.716473,-9252.574275,888.247130,153.219100
4118.716803,-9696.697840,1110.308913,0.000000
4118.717133,-10436.903782,814.226536,0.000000
4118.717462,-10066.800811,888.247130,-766.095498
4118.717792,-10214.842000,1184.329507,-766.095498
4118.718122,-9844.739029,-74.020594,-689.485948
4118.718452,-9770.718434,518.144159,0.000000
4118.718782,-9326.594869,370.102971,229.828649
4118.719112,-9400.615463,370.102971,459.657299
4118.719442,-9474.636058,962.267725,76.609550
4118.719772,-10214.842000,1036.288319,153.219100
4118.720101,-10807.006753,1036.288319,-536.266849
4118.720431,-10732.986159,518.144159,229.828649
4118.720761,-11177.109724,518.144159,1378.971896
4118.721091,-10807.006753,222.061783,1838.629195
4118.721421,-9844.739029,-222.061783,1378.971896
4118.721751,-8734.430116,0.000000,1072.533697
4118.722081,-9622.677246,222.061783,0.000000
4118.722411,-9918.759623,296.082377,-153.219100
4118.722740,-10510.924376,222.061783,-229.828649
4118.723070,-10436.903782,962.267725,-306.438199
4118.723400,-9400.615463,74.020594,-76.609550
4118.723730,-8660.409521,0.000000,-76.609550
4118.724060,-8660.409521,-296.082377,536.266849
4118.724390,-9696.697840,-518.144159,689.485948
4118.724720,-10066.800811,-666.185348,1072.533697
4118.725050,-10214.842000,-666.185348,1225.752797
4118.725379,-10140.821405,-962.267725,1608.800546
4118.725709,-9474.636058,-888.247130,2298.286494
4118.726039,-9178.553681,-814.226536,1685.410096
4118.726369,-8734.430116,-444.123565,1225.752797
4118.726699,-9252.574275,-740.205942,0.000000
4118.727029,-9770.718434,74.020594,-459.657299
4118.727359,-10214.842000,0.000000,-229.828649
4118.727689,-10214.842000,-74.020594,0.000000
4118.728018,-9030.512492,-148.041188,76.609550
4118.728348,-9326.594869,-370.102971,-306.438199
4118.728678,-9844.739029,-444.123565,-459.657299
4118.729008,-9844.739029,-444.123565,-842.705048
4118.729338,-9178.553681,0.000000,-459.657299
4118.729668,-9696.697840,518.144159,306.438199
4118.729998,-10066.800811,888.247130,842.705048
4118.730328,-10436.903782,444.123565,689.485948
4118.730657,-10510.924376,0.000000,0.000000
4118.730987,-10807.006753,0.000000,76.609550
4118.731317,-11029.068536,74.020594,76.609550
4118.731647,-9770.718434,-370.102971,-306.438199
4118.731977,-9326.594869,0.000000,-612.876398
4118.732307,-9252.574275,0.000000,-76.609550
4118.732637,-9844.739029,370.102971,153.219100
4118.732966,-10288.862594,0.000000,536.266849
4118.733296,-10288.862594,0.000000,459.657299
4118.733626,-9770.718434,-222.061783,689.485948
4118.733956,-10214.842000,-148.041188,1072.533697
4118.734286,-10584.944971,-296.082377,842.705048
4118.734616,-9548.656652,-740.205942,689.485948
4118.734945,-9474.636058,-592.164754,459.657299
4118.735275,-9252.574275,-296.082377,919.314598
4118.735605,-9548.656652,-296.082377,1838.629195
4118.735935,-9696.697840,0.000000,842.705048
4118.736265,-9548.656652,-222.061783,306.438199
4118.736594,-10436.903782,296.082377,306.438199
4118.736924,-9918.759623,-444.123565,76.609550
4118.737254,-8660.409521,-666.185348,-153.219100
4118.737584,-8290.306550,-296.082377,536.266849
4118.737914,-9400.615463,-666.185348,536.266849
4118.738244,-10066.800811,-148.041188,766.095498
4118.738573,-9844.739029,-1258.350101,0.000000
4118.738903,-8956.491898,444.123565,459.657299
4118.739233,-9844.739029,518.144159,919.314598
4118.739563,-10214.842000,0.000000,612.876398
4118.739893,-8808.450710,-592.164754,766.095498
4118.740222,-9104.533087,370.102971,612.876398
4118.740552,-9770.718434,296.082377,-459.657299
4118.740882,-10066.800811,296.082377,-1225.752797
4118.741212,-10362.883188,74.020594,-612.876398
4118.741542,-9844.739029,518.144159,-919.314598
4118.741872,-9696.697840,148.041188,-689.485948
4118.742201,-9474.636058,222.061783,229.828649
4118.742531,-9696.697840,-296.082377,612.876398
4118.742861,-10066.800811,592.164754,919.314598
4118.743191,-10140.821405,444.123565,383.047749
4118.743521,-11695.253884,1110.308913,153.219100
4118.743850,-11029.068536,592.164754,306.438199
4118.744180,-10214.842000,148.041188,536.266849
4118.744510,-9696.697840,0.000000,459.657299
4118.744840,-9844.739029,444.123565,919.314598
4118.745170,-9622.677246,370.102971,459.657299
4118.745499,-9622.677246,444.123565,0.000000
4118.745829,-9548.656652,0.000000,-306.438199
4118.746159,-9992.780217,-148.041188,0.000000
4118.746489,-10066.800811,518.144159,0.000000
4118.746819,-9696.697840,-74.020594,1302.362347
4118.747149,-9474.636058,-296.082377,919.314598
4118.747478,-9474.636058,-222.061783,842.705048
4118.747808,-9400.615463,-148.041188,0.000000
4118.748138,-9770.718434,0.000000,536.266849
4118.748468,-10066.800811,444.123565,766.095498
4118.748798,-10214.842000,-222.061783,919.314598
4118.749127,-9474.636058,0.000000,766.095498
4118.749457,-9548.656652,74.020594,459.657299
4118.749787,-9918.759623,370.102971,-306.438199
4118.750117,-9474.636058,0.000000,-153.219100
4118.750447,-9252.574275,592.164754,-459.657299
4118.750777,-8882.471304,444.123565,-842.705048
4118.751106,-9622.677246,740.205942,-153.219100
4118.751436,-9992.780217,592.164754,-153.219100
4118.751766,-9992.780217,444.123565,-76.609550
4118.752096,-10214.842000,444.123565,-612.876398
4118.752426,-9992.780217,74.020594,-459.657299
4118.752755,-9770.718434,444.123565,-689.485948
4118.753085,-9474.636058,518.144159,-766.095498
4118.753415,-9104.533087,444.123565,-306.438199
4118.753745,-10140.821405,296.082377,766.095498
4118.754075,-10510.924376,444.123565,1378.971896
4118.754405,-9992.780217,518.144159,919.314598
4118.754734,-9992.780217,0.000000,306.438199
4118.755064,-10214.842000,0.000000,76.609550
4118.755394,-9992.780217,-592.164754,306.438199
4118.755724,-10066.800811,-592.164754,0.000000
4118.756054,-9474.636058,-296.082377,536.266849
4118.756383,-9326.594869,-148.041188,1378.971896
4118.756713,-9252.574275,0.000000,1149.143247
4118.757043,-9474.636058,-148.041188,919.314598
4118.757373,-10584.944971,0.000000,919.314598
4118.757703,-10955.047942,74.020594,229.828649
4118.758032,-10510.924376,-740.205942,306.438199
4118.758362,-9030.512492,-592.164754,1991.848295
4118.758692,-9474.636058,-592.164754,2528.115143
4118.759022,-9918.759623,-296.082377,1149.143247
4118.759352,-9844.739029,-296.082377,383.047749
4118.759682,-9770.718434,0.000000,0.000000
4118.760011,-9474.636058,0.000000,-383.047749
4118.760341,-9770.718434,148.041188,76.609550
4118.760671,-9844.739029,444.123565,1149.143247
4118.761001,-9178.553681,-222.061783,612.876398
4118.761331,-9400.615463,-148.041188,-842.705048
4118.761660,-9696.697840,-370.102971,-1225.752797
4118.761990,-9622.677246,-518.144159,-766.095498
4118.762320,-9400.615463,-222.061783,459.657299
4118.762650,-9474.636058,0.000000,842.705048
4118.762980,-10288.862594,148.041188,1608.800546
4118.763310,-10807.006753,0.000000,689.485948
4118.763639,-9622.677246,0.000000,-612.876398
4118.763969,-10140.821405,296.082377,-766.095498
4118.764299,-9918.759623,222.061783,-689.485948
4118.764629,-9548.656652,0.000000,0.000000
4118.764959,-8734.430116,296.082377,-306.438199
4118.765288,-10214.842000,740.205942,-612.876398
4118.765618,-10510.924376,370.102971,-1302.362347
4118.765948,-10214.842000,370.102971,-1455.581446
4118.766278,-10584.944971,814.226536,-306.438199
4118.766608,-9622.677246,592.164754,76.609550
4118.766938,-10288.862594,0.000000,612.876398
4118.767267,-10066.800811,370.102971,689.485948
4118.767597,-9844.739029,222.061783,0.000000
4118.767927,-10436.903782,592.164754,76.609550
4118.768257,-10955.047942,592.164754,229.828649
4118.768587,-9770.718434,148.041188,153.219100
4118.768916,-8734.430116,148.041188,306.438199
4118.769246,-9326.594869,148.041188,919.314598
4118.769576,-9918.759623,0.000000,2068.457845
4118.769906,-10510.924376,296.082377,1149.143247
4118.770236,-9474.636058,0.000000,383.047749
4118.770565,-9252.574275,-222.061783,0.000000
4118.770895,-9622.677246,0.000000,383.047749
4118.771225,-9992.780217,-74.020594,536.266849
4118.771555,-9252.574275,-74.020594,76.609550
4118.771885,-9030.512492,-518.144159,153.219100
4118.772215,-9474.636058,148.041188,536.266849
4118.772544,-9400.615463,74.020594,76.609550
4118.772874,-9474.636058,-148.041188,-612.876398
4118.773204,-9474.636058,74.020594,-612.876398
4118.773534,-9844.739029,-518.144159,-306.438199
4118.773864,-9474.636058,0.000000,76.609550
4118.774193,-8734.430116,-222.061783,1225.752797
4118.774523,-9326.594869,74.020594,612.876398
4118.774853,-9770.718434,74.020594,-306.438199
4118.775183,-9696.697840,0.000000,-612.876398
4118.775513,-10066.800811,74.020594,-229.828649
4118.775843,-10362.883188,0.000000,306.438199
4118.776172,-9770.718434,0.000000,1455.581446
4118.776502,-10066.800811,444.123565,1378.971896
4118.776832,-10362.883188,74.020594,612.876398
4118.777162,-9918.759623,0.000000,-306.438199
4118.777492,-9548.656652,148.041188,-689.485948
4118.777821,-9918.759623,296.082377,0.000000
4118.778151,-10436.903782,1110.308913,383.047749
4118.778481,-10732.986159,740.205942,919.314598
4118.778811,-10288.862594,518.144159,229.828649
4118.779141,-10732.986159,296.082377,-229.828649
4118.779471,-11251.130318,0.000000,0.000000
4118.779800,-10362.883188,-222.061783,0.000000
4118.780130,-9326.594869,0.000000,1225.752797
4118.780460,-9030.512492,-444.123565,1532.190996
4118.780790,-9400.615463,-740.205942,995.924147
4118.781120,-9844.739029,-740.205942,612.876398
4118.781449,-10807.006753,-222.061783,383.047749
4118.781779,-10066.800811,-592.164754,459.657299
4118.782109,-9548.656652,-444.123565,1072.533697
4118.782439,-9252.574275,-444.123565,1149.143247
4118.782769,-9474.636058,0.000000,1608.800546
4118.783098,-8882.471304,-74.020594,-153.219100
4118.783428,-9696.697840,-444.123565,-766.095498
4118.783758,-9992.780217,-370.102971,-459.657299
4118.784088,-9844.739029,-666.185348,612.876398
4118.784418,-9030.512492,-666.185348,612.876398
4118.784748,-8956.491898,-518.144159,612.876398
4118.785077,-9178.553681,-444.123565,-76.609550
4118.785407,-9326.594869,-592.164754,-76.609550
4118.785737,-8586.388927,74.020594,-459.657299
4118.786067,-9178.553681,0.000000,76.609550
4118.786397,-10214.842000,666.185348,153.219100
4118.786726,-10066.800811,148.041188,766.095498
4118.787056,-10140.821405,592.164754,766.095498
4118.787386,-9400.615463,444.123565,-1302.362347
4118.787716,-9622.677246,148.041188,-1302.362347
4118.788046,-10214.842000,592.164754,-536.266849
4118.788376,-9992.780217,814.226536,766.095498
4118.788705,-10584.944971,740.205942,229.828649
4118.789035,-10140.821405,666.185348,-459.657299
4118.789365,-10140.821405,592.164754,-1149.143247
4118.789695,-9770.718434,1110.308913,-1225.752797
4118.790025,-9918.759623,740.205942,-306.438199
4118.790354,-10214.842000,666.185348,536.266849
4118.790684,-10214.842000,666.185348,229.828649
4118.791014,-9992.780217,444.123565,229.828649
4118.791344,-10510.924376,296.082377,612.876398
4118.791674,-10362.883188,518.144159,536.266849
4118.792004,-10214.842000,74.020594,612.876398
4118.792333,-9622.677246,0.000000,995.924147
4118.792663,-9474.636058,518.144159,2145.067394
4118.792993,-9474.636058,-222.061783,919.314598
4118.793323,-9104.533087,370.102971,0.000000
4118.793653,-9918.759623,666.185348,-536.266849
4118.793982,-9844.739029,0.000000,-1149.143247
4118.794312,-8808.450710,518.144159,-842.705048
4118.794642,-9178.553681,148.041188,612.876398
4118.794972,-9918.759623,370.102971,995.924147
4118.795302,-10140.821405,592.164754,842.705048
4118.795631,-9844.739029,0.000000,0.000000
4118.795961,-9474.636058,0.000000,0.000000
4118.796291,-10288.862594,0.000000,153.219100
4118.796621,-10140.821405,-296.082377,1302.362347
4118.796951,-9400.615463,0.000000,1685.410096
4118.797281,-9252.574275,148.041188,842.705048
4118.797610,-9178.553681,148.041188,0.000000
4118.797940,-9474.636058,740.205942,-1149.143247
4118.798270,-10214.842000,1036.288319,0.000000
4118.798600,-9918.759623,592.164754,-689.485948
4118.798930,-10658.965565,222.061783,0.000000
4118.799259,-10066.800811,74.020594,612.876398
4118.799589,-10066.800811,-592.164754,459.657299
4118.799919,-10214.842000,-222.061783,0.000000
4118.800249,-8956.491898,-740.205942,-76.609550
4118.800579,-9104.533087,74.020594,-383.047749
4118.800909,-9474.636058,444.123565,689.485948
4118.801238,-10955.047942,518.144159,1072.533697
4118.801568,-10288.862594,444.123565,842.705048
4118.801898,-10140.821405,0.000000,76.609550
4118.802228,-10732.986159,-370.102971,-76.609550
4118.802558,-10140.821405,-1184.329507,536.266849
4118.802887,-9474.636058,-888.247130,0.000000
4118.803217,-8586.388927,-1184.329507,229.828649
4118.803547,-8364.327145,-370.102971,383.047749
4118.803877,-9548.656652,148.041188,459.657299
4118.804207,-10436.903782,0.000000,229.828649
4118.804537,-10140.821405,0.000000,459.657299
4118.804866,-9844.739029,-666.185348,919.314598
4118.805196,-10214.842000,-1184.329507,689.485948
4118.805526,-10214.842000,-962.267725,995.924147
4118.805856,-8808.450710,-1702.473667,536.266849
4118.806186,-8364.327145,-1184.329507,766.095498
4118.806515,-9474.636058,-222.061783,1072.533697
4118.806845,-10510.924376,0.000000,1302.362347
4118.807175,-9992.780217,-74.020594,766.095498
4118.807505,-9548.656652,148.041188,459.657299
4118.807835,-10658.965565,-74.020594,536.266849
4118.808164,-10436.903782,-666.185348,0.000000
4118.808494,-9326.594869,-666.185348,0.000000
4118.808824,-9474.636058,-370.102971,0.000000
4118.809154,-9696.697840,-370.102971,-995.924147
4118.809484,-9770.718434,-74.020594,-689.485948
4118.809814,-9992.780217,518.144159,-689.485948
4118.810143,-9622.677246,222.061783,306.438199
4118.810473,-10807.006753,444.123565,766.095498
4118.810803,-11103.089130,592.164754,1225.752797
4118.811133,-10510.924376,296.082377,842.705048
4118.811463,-10140.821405,-74.020594,-306.438199
4118.811792,-9178.553681,-296.082377,-306.438199
4118.812122,-9104.533087,0.000000,-76.609550
4118.812452,-9992.780217,0.000000,766.095498
4118.812782,-9400.615463,0.000000,229.828649
4118.813112,-9696.697840,222.061783,0.000000
4118.813442,-9918.759623,740.205942,-306.438199
4118.813771,-10288.862594,666.185348,-153.219100
4118.814101,-9844.739029,444.123565,-383.047749
4118.814431,-9696.697840,0.000000,-229.828649
4118.814761,-9696.697840,74.020594,153.219100
4118.815091,-9474.636058,222.061783,306.438199
4118.815420,-9844.739029,370.102971,536.266849
4118.815750,-9844.739029,0.000000,306.438199
4118.816080,-9474.636058,148.041188,153.219100
4118.816410,-9622.677246,1036.288319,229.828649
4118.816740,-9770.718434,592.164754,459.657299
4118.817070,-9474.636058,740.205942,-459.657299
4118.817399,-8882.471304,74.020594,-766.095498
4118.817729,-9474.636058,370.102971,-459.657299
4118.818059,-9918.759623,0.000000,-459.657299
4118.818389,-9696.697840,74.020594,-229.828649
4118.818719,-9622.677246,592.164754,995.924147
4118.819048,-9770.718434,740.205942,995.924147
4118.819378,-9844.739029,740.205942,76.609550
4118.819708,-10140.821405,1332.370696,306.438199
4118.820038,-10140.821405,1110.308913,383.047749
4118.820368,-10140.821405,1036.288319,229.828649
4118.820697,-10510.924376,888.247130,229.828649
4118.821027,-10436.903782,592.164754,919.314598
4118.821357,-9696.697840,518.144159,-153.219100
4118.821687,-9474.636058,296.082377,-689.485948
4118.822017,-9548.656652,222.061783,-383.047749
4118.822347,-9770.718434,296.082377,536.266849
4118.822676,-9992.780217,148.041188,1302.362347
4118.823006,-9918.759623,666.185348,919.314598
4118.823336,-10362.883188,518.144159,306.438199
4118.823666,-10584.944971,74.020594,-689.485948
4118.823996,-9548.656652,74.020594,-536.266849
4118.824325,-9252.574275,-518.144159,0.000000
4118.824655,-9770.718434,-222.061783,766.095498
4118.824985,-9474.636058,-148.041188,1302.362347
4118.825315,-9400.615463,-296.082377,612.876398
4118.825645,-9474.636058,74.020594,-383.047749
4118.825975,-9474.636058,74.020594,-1378.971896
4118.826304,-9474.636058,-148.041188,-919.314598
4118.826634,-9992.780217,0.000000,153.219100
4118.826964,-10362.883188,-74.020594,842.705048
4118.827294,-9326.594869,-888.247130,1149.143247
4118.827624,-9178.553681,-592.164754,536.266849
4118.827953,-10140.821405,-296.082377,-153.219100
4118.828283,-10510.924376,-666.185348,-306.438199
4118.828613,-9474.636058,-740.205942,76.609550
4118.828943,-9104.533087,-740.205942,919.314598
4118.829273,-10140.821405,-296.082377,1378.971896
4118.829603,-9622.677246,-370.102971,1149.143247
4118.829932,-9400.615463,-222.061783,306.438199
4118.830262,-9770.718434,-148.041188,-536.266849
4118.830592,-11103.089130,-296.082377,-995.924147
4118.830922,-10510.924376,-296.082377,-766.095498
4118.831252,-9326.594869,-740.205942,612.876398
4118.831581,-9252.574275,148.041188,766.095498
4118.831911,-10214.842000,-222.061783,306.438199
4118.832241,-10436.903782,-740.205942,153.219100
4118.832571,-9548.656652,-296.082377,0.000000
4118.832900,-9400.615463,0.000000,459.657299
4118.833230,-10658.965565,-74.020594,536.266849
4118.833560,-10732.986159,-370.102971,1225.752797
4118.833889,-10140.821405,-222.061783,1532.190996
4118.834219,-9252.574275,-666.185348,1149.143247
4118.834549,-9400.615463,-444.123565,612.876398
4118.834878,-10214.842000,-222.061783,383.047749
4118.835208,-8956.491898,148.041188,0.000000
4118.835538,-8734.430116,-370.102971,0.000000
4118.835868,-9548.656652,296.082377,919.314598
4118.836197,-10584.944971,518.144159,1149.143247
4118.836527,-9918.759623,444.123565,536.266849
4118.836857,-9178.553681,222.061783,-1072.533697
4118.837186,-9474.636058,0.000000,-1072.533697
4118.837516,-9992.780217,740.205942,0.000000
4118.837846,-10362.883188,74.020594,383.047749
4118.838175,-9918.759623,518.144159,383.047749
4118.838505,-8734.430116,74.020594,383.047749
4118.838835,-9178.553681,444.123565,0.000000
4118.839165,-9844.739029,444.123565,-306.438199
4118.839494,-9548.656652,444.123565,-689.485948
4118.839824,-9844.739029,962.267725,0.000000
4118.840154,-10066.800811,592.164754,-153.219100
4118.840483,-10214.842000,592.164754,306.438199
4118.840813,-9400.615463,444.123565,383.047749
4118.841143,-9178.553681,370.102971,-153.219100
4118.841472,-9992.780217,518.144159,-536.266849
4118.841802,-9918.759623,814.226536,-995.924147
4118.842132,-9622.677246,666.185348,0.000000
4118.842462,-9770.718434,666.185348,0.000000
4118.842791,-9918.759623,518.144159,383.047749
4118.843121,-10732.986159,296.082377,459.657299
4118.843451,-10881.027347,370.102971,-766.095498
4118.843780,-10066.800811,222.061783,-766.095498
4118.844110,-10214.842000,74.020594,0.000000
4118.844440,-9622.677246,74.020594,1149.143247
4118.844770,-9844.739029,370.102971,1302.362347
4118.845099,-9474.636058,592.164754,1378.971896
4118.845429,-9992.780217,222.061783,306.438199
4118.845759,-9844.739029,0.000000,-229.828649
4118.846088,-10066.800811,0.000000,-76.609550
4118.846418,-10732.986159,-222.061783,536.266849
4118.846748,-9918.759623,-296.082377,1532.190996
4118.847077,-8882.471304,-962.267725,766.095498
4118.847407,-8660.409521,-962.267725,0.000000
4118.847737,-9104.533087,-814.226536,-536.266849
4118.848067,-9400.615463,-74.020594,76.609550
4118.848396,-9326.594869,-370.102971,766.095498
4118.848726,-9474.636058,-74.020594,1302.362347
4118.849056,-9622.677246,592.164754,842.705048
4118.849385,-9844.739029,0.000000,459.657299
4118.849715,-10362.883188,0.000000,-612.876398
4118.850045,-10214.842000,-74.020594,-153.219100
4118.850374,-10288.862594,-222.061783,0.000000
4118.850704,-8734.430116,-74.020594,306.438199
4118.851034,-8660.409521,0.000000,153.219100
4118.851364,-9178.553681,222.061783,0.000000
4118.851693,-10066.800811,148.041188,-459.657299
4118.852023,-11029.068536,148.041188,-766.095498
4118.852353,-10881.027347,370.102971,-383.047749
4118.852682,-10584.944971,74.020594,689.485948
4118.853012,-10362.883188,222.061783,1225.752797
4118.853342,-9622.677246,0.000000,995.924147
4118.853671,-8660.409521,0.000000,383.047749
4118.854001,-9548.656652,148.041188,-76.609550
4118.854331,-10955.047942,518.144159,0.000000
4118.854661,-10584.944971,-222.061783,76.609550
4118.854990,-9400.615463,0.000000,1072.533697
4118.855320,-9622.677246,0.000000,1302.362347
4118.855650,-9844.739029,0.000000,1072.533697
4118.855979,-9474.636058,-296.082377,0.000000
4118.856309,-9400.615463,0.000000,0.000000
4118.856639,-9992.780217,0.000000,766.095498
4118.856968,-10807.006753,148.041188,1608.800546
4118.857298,-10510.924376,-148.041188,1838.629195
4118.857628,-9992.780217,0.000000,766.095498
4118.857958,-9104.533087,0.000000,-919.314598
4118.858287,-9474.636058,-444.123565,-1149.143247
4118.858617,-9252.574275,-222.061783,-536.266849
4118.858947,-9030.512492,-74.020594,229.828649
4118.859276,-9178.553681,444.123565,689.485948
4118.859606,-9474.636058,370.102971,0.000000
4118.859936,-9844.739029,74.020594,-383.047749
4118.860265,-10066.800811,-148.041188,0.000000
4118.860595,-10510.924376,-666.185348,-766.095498
4118.860925,-10288.862594,-444.123565,689.485948
4118.861255,-9030.512492,-962.267725,1302.362347
4118.861584,-8734.430116,-518.144159,1072.533697
4118.861914,-8438.347739,0.000000,383.047749
4118.862244,-10362.883188,740.205942,-842.705048
4118.862573,-10658.965565,592.164754,-766.095498
4118.862903,-9918.759623,148.041188,-612.876398
4118.863233,-9400.615463,370.102971,-76.609550
4118.863562,-10214.842000,740.205942,153.219100
4118.863892,-9844.739029,0.000000,76.609550
4118.864222,-9474.636058,0.000000,-612.876398
4118.864552,-9474.636058,888.247130,-1455.581446
4118.864881,-9770.718434,740.205942,-1762.019645
4118.865211,-10288.862594,222.061783,306.438199
4118.865541,-9844.739029,740.205942,919.314598
4118.865870,-10362.883188,814.226536,919.314598
4118.866200,-10288.862594,1036.288319,153.219100
4118.866530,-10288.862594,370.102971,-459.657299
4118.866859,-10510.924376,740.205942,-229.828649
4118.867189,-9696.697840,296.082377,0.000000
4118.867519,-9400.615463,296.082377,459.657299
4118.867849,-9548.656652,444.123565,766.095498
4118.868178,-9548.656652,74.020594,153.219100
4118.868508,-9622.677246,296.082377,0.000000
4118.868838,-9474.636058,0.000000,-229.828649
4118.869167,-9992.780217,222.061783,0.000000
4118.869497,-9548.656652,-74.020594,919.314598
4118.869827,-9030.512492,-370.102971,1225.752797
4118.870156,-9548.656652,-296.082377,1072.533697
4118.870486,-9474.636058,-592.164754,689.485948
4118.870816,-9548.656652,-370.102971,229.828649
4118.871146,-10066.800811,-148.041188,689.485948
4118.871475,-9326.594869,0.000000,1302.362347
4118.871805,-9548.656652,296.082377,1072.533697
4118.872135,-9548.656652,740.205942,919.314598
4118.872464,-10510.924376,370.102971,76.609550
4118.872794,-10288.862594,370.102971,-612.876398
4118.873124,-9696.697840,-74.020594,-1302.362347
4118.873453,-9178.553681,74.020594,-1072.533697
4118.873783,-8956.491898,-370.102971,-1072.533697
4118.874113,-9474.636058,-370.102971,-689.485948
4118.874443,-9474.636058,-518.144159,306.438199
4118.874772,-9178.553681,0.000000,0.000000
4118.875102,-9474.636058,0.000000,459.657299
4118.875432,-9474.636058,-222.061783,153.219100
4118.875761,-10510.924376,-296.082377,689.485948
4118.876091,-10140.821405,-740.205942,1225.752797
4118.876421,-9622.677246,-518.144159,995.924147
4118.876750,-9548.656652,-888.247130,229.828649
4118.877080,-10362.883188,-148.041188,76.609550
4118.877410,-10140.821405,-370.102971,306.438199
4118.877740,-9474.636058,-666.185348,76.609550
4118.878069,-9696.697840,296.082377,76.609550
4118.878399,-9992.780217,296.082377,689.485948
4118.878729,-10066.800811,518.144159,383.047749
4118.879058,-9770.718434,296.082377,0.000000
4118.879388,-10881.027347,74.020594,-459.657299
4118.879718,-10807.006753,0.000000,0.000000
4118.880047,-9992.780217,-592.164754,-76.609550
4118.880377,-9770.718434,-370.102971,842.705048
4118.880707,-9548.656652,-518.144159,1455.581446
4118.881037,-9696.697840,0.000000,1378.971896
4118.881366,-9326.594869,74.020594,766.095498
4118.881696,-9548.656652,444.123565,76.609550
4118.882026,-9548.656652,-74.020594,-229.828649
4118.882355,-10140.821405,296.082377,-153.219100
4118.882685,-9918.759623,518.144159,153.219100
4118.883015,-9844.739029,0.000000,229.828649
4118.883344,-9474.636058,148.041188,-689.485948
4118.883674,-8586.388927,-740.205942,-766.095498
4118.884004,-8586.388927,148.041188,-766.095498
4118.884334,-9030.512492,0.000000,-383.047749
4118.884663,-9844.739029,296.082377,-306.438199
4118.884993,-10214.842000,0.000000,766.095498
4118.885323,-9770.718434,296.082377,1072.533697
4118.885652,-9622.677246,222.061783,995.924147
4118.885982,-9770.718434,222.061783,153.219100
4118.886312,-9844.739029,296.082377,0.000000
4118.886641,-9844.739029,0.000000,76.609550
4118.886971,-9992.780217,296.082377,383.047749
4118.887301,-10288.862594,592.164754,459.657299
4118.887631,-9918.759623,518.144159,76.609550
4118.887960,-9252.574275,370.102971,0.000000
4118.888290,-8882.471304,148.041188,76.609550
4118.888620,-10362.883188,666.185348,229.828649
4118.888949,-10362.883188,814.226536,-383.047749
4118.889279,-10066.800811,518.144159,-459.657299
4118.889609,-9400.615463,740.205942,-689.485948
4118.889938,-9548.656652,666.185348,0.000000
4118.890268,-10510.924376,592.164754,612.876398
4118.890598,-10214.842000,444.123565,229.828649
4118.890928,-9622.677246,518.144159,0.000000
4118.891257,-9474.636058,222.061783,0.000000
4118.891587,-9918.759623,74.020594,459.657299
4118.891917,-9918.759623,666.185348,919.314598
4118.892246,-9992.780217,222.061783,689.485948
4118.892576,-10066.800811,-296.082377,76.609550
4118.892906,-9696.697840,-592.164754,0.000000
4118.893236,-9918.759623,-444.123565,689.485948
4118.893565,-9474.636058,-518.144159,536.266849
4118.893895,-9326.594869,-148.041188,1149.143247
4118.894225,-9770.718434,-518.144159,1149.143247
4118.894554,-9474.636058,-370.102971,1072.533697
4118.894884,-9622.677246,-592.164754,766.095498
4118.895214,-9992.780217,-592.164754,306.438199
4118.895543,-9844.739029,-814.226536,-689.485948
4118.895873,-9326.594869,-222.061783,-459.657299
4118.896203,-8808.450710,-296.082377,0.000000
4118.896533,-9104.533087,-222.061783,0.000000
4118.896862,-9548.656652,296.082377,-153.219100
4118.897192,-10140.821405,296.082377,-689.485948
4118.897522,-9770.718434,518.144159,-1455.581446
4118.897851,-10066.800811,-222.061783,-459.657299
4118.898181,-9548.656652,0.000000,0.000000
4118.898511,-9178.553681,-444.123565,383.047749
4118.898840,-9622.677246,-296.082377,0.000000
4118.899170,-9844.739029,0.000000,459.657299
4118.899500,-9918.759623,0.000000,459.657299
4118.899830,-9992.780217,296.082377,306.438199
4118.900159,-9770.718434,518.144159,-306.438199
4118.900489,-9918.759623,222.061783,0.000000
4118.900819,-10288.862594,444.123565,0.000000
4118.901148,-10140.821405,222.061783,76.609550
4118.901478,-9770.718434,296.082377,229.828649
4118.901808,-10288.862594,814.226536,689.485948
4118.902137,-10658.965565,444.123565,383.047749
4118.902467,-10362.883188,74.020594,0.000000
4118.902797,-9400.615463,370.102971,-536.266849
4118.903127,-9548.656652,444.123565,459.657299
4118.903456,-9622.677246,148.041188,0.000000
4118.903786,-9400.615463,148.041188,612.876398
4118.904116,-9696.697840,296.082377,1225.752797
4118.904445,-10362.883188,296.082377,1302.362347
4118.904775,-10066.800811,0.000000,459.657299
4118.905105,-9252.574275,-444.123565,0.000000
4118.905434,-9252.574275,0.000000,76.609550
4118.905764,-9474.636058,-370.102971,919.314598
4118.906094,-9252.574275,-370.102971,1532.190996
4118.906424,-9030.512492,-148.041188,1608.800546
4118.906753,-9104.533087,148.041188,459.657299
4118.907083,-9548.656652,296.082377,-459.657299
4118.907413,-10362.883188,296.082377,-689.485948
4118.907742,-10066.800811,296.082377,153.219100
4118.908072,-9622.677246,148.041188,612.876398
4118.908402,-9622.677246,222.061783,229.828649
4118.908731,-9474.636058,-74.020594,229.828649
4118.909061,-10362.883188,222.061783,459.657299
4118.909391,-10066.800811,148.041188,229.828649
4118.909721,-9770.718434,-370.102971,153.219100
4118.910050,-10214.842000,74.020594,995.924147
4118.910380,-10436.903782,74.020594,1838.629195
4118.910710,-10140.821405,148.041188,842.705048
4118.911039,-9918.759623,296.082377,-459.657299
4118.911369,-9918.759623,296.082377,-995.924147
4118.911699,-10362.883188,518.144159,-689.485948
4118.912028,-9622.677246,-148.041188,-919.314598
4118.912358,-9992.780217,-148.041188,-383.047749
4118.912688,-9992.780217,-296.082377,995.924147
4118.913018,-9400.615463,0.000000,842.705048
4118.913347,-9770.718434,-666.185348,-229.828649
4118.913677,-10362.883188,74.020594,76.609550
4118.914007,-10510.924376,74.020594,612.876398
4118.914336,-10066.800811,0.000000,612.876398
4118.914666,-9918.759623,74.020594,536.266849
4118.914996,-10066.800811,0.000000,842.705048
4118.915325,-9844.739029,-370.102971,229.828649
4118.915655,-9992.780217,-370.102971,0.000000
4118.915985,-9548.656652,0.000000,-842.705048
4118.916315,-9474.636058,-518.144159,-766.095498
4118.916644,-9178.553681,-222.061783,-76.609550
4118.916974,-9104.533087,-444.123565,76.609550
4118.917304,-8882.471304,-74.020594,0.000000
4118.917633,-9844.739029,-592.164754,306.438199
4118.917963,-10214.842000,-74.020594,153.219100
4118.918293,-9696.697840,-296.082377,306.438199
4118.918622,-9400.615463,-592.164754,536.266849
4118.918952,-8660.409521,-148.041188,536.266849
4118.919282,-9104.533087,0.000000,842.705048
4118.919612,-9252.574275,74.020594,919.314598
4118.919941,-9992.780217,296.082377,383.047749
4118.920271,-10362.883188,370.102971,153.219100
4118.920601,-10362.883188,740.205942,76.609550
4118.920930,-10066.800811,592.164754,0.000000
4118.921260,-9992.780217,370.102971,0.000000
4118.921590,-9548.656652,370.102971,-153.219100
4118.921919,-9252.574275,592.164754,-1072.533697
4118.922249,-8734.430116,296.082377,-766.095498
4118.922579,-10066.800811,1110.308913,-612.876398
4118.922909,-10584.944971,740.205942,-842.705048
4118.923238,-10214.842000,666.185348,-612.876398
4118.923568,-10140.821405,592.164754,0.000000
4118.923898,-10362.883188,518.144159,306.438199
4118.924227,-10362.883188,370.102971,612.876398
4118.924557,-9326.594869,-296.082377,459.657299
4118.924887,-9770.718434,444.123565,842.705048
4118.925216,-9992.780217,222.061783,536.266849
4118.925546,-10510.924376,0.000000,612.876398
4118.925876,-10214.842000,148.041188,689.485948
4118.926206,-9622.677246,-370.102971,612.876398
4118.926535,-9326.594869,370.102971,229.828649
4118.926865,-9252.574275,74.020594,0.000000
4118.927195,-9770.718434,0.000000,383.047749
4118.927524,-9400.615463,74.020594,459.657299
4118.927854,-10140.821405,222.061783,766.095498
4118.928184,-10510.924376,370.102971,1072.533697
4118.928513,-9844.739029,74.020594,612.876398
4118.928843,-9030.512492,0.000000,383.047749
4118.929173,-9030.512492,0.000000,-383.047749
4118.929503,-10140.821405,296.082377,0.000000
4118.929832,-9770.718434,-370.102971,306.438199
4118.930162,-9474.636058,296.082377,76.609550
4118.930492,-9252.574275,370.102971,-229.828649
4118.930821,-9696.697840,74.020594,-229.828649
4118.931151,-9992.780217,-74.020594,229.828649
4118.931481,-9178.553681,-518.144159,459.657299
4118.931810,-9548.656652,0.000000,229.828649
4118.932140,-9992.780217,-518.144159,229.828649
4118.932470,-9400.615463,-518.144159,-536.266849
4118.932800,-9548.656652,-444.123565,0.000000
4118.933129,-10362.883188,0.000000,153.219100
4118.933459,-9992.780217,-592.164754,612.876398
4118.933789,-9104.533087,-592.164754,842.705048
4118.934118,-9178.553681,0.000000,536.266849
4118.934448,-9844.739029,0.000000,229.828649
4118.934778,-10955.047942,296.082377,0.000000
4118.935108,-10955.047942,370.102971,-459.657299
4118.935437,-10510.924376,74.020594,229.828649
4118.935767,-9548.656652,518.144159,229.828649
4118.936097,-9770.718434,-148.041188,306.438199
4118.936427,-10140.821405,74.020594,306.438199
4118.936756,-9992.780217,74.020594,0.000000
4118.937086,-10140.821405,0.000000,383.047749
4118.937416,-10584.944971,222.061783,459.657299
4118.937746,-10584.944971,0.000000,1302.362347
4118.938075,-9252.574275,-518.144159,1302.362347
4118.938405,-8956.491898,-222.061783,1072.533697
4118.938735,-9474.636058,148.041188,612.876398
4118.939065,-9918.759623,-518.144159,383.047749
4118.939394,-9622.677246,0.000000,76.609550
4118.939724,-10066.800811,222.061783,306.438199
4118.940054,-9252.574275,222.061783,383.047749
4118.940384,-9104.533087,0.000000,229.828649
4118.940713,-9696.697840,0.000000,0.000000
4118.941043,-9622.677246,-148.041188,-383.047749
4118.941373,-8956.491898,-444.123565,0.000000
4118.941702,-8882.471304,-296.082377,153.219100
4118.942032,-9104.533087,0.000000,459.657299
4118.942362,-9844.739029,296.082377,919.314598
4118.942692,-9770.718434,592.164754,536.266849
4118.943021,-9844.739029,592.164754,76.609550
4118.943351,-10214.842000,666.185348,-766.095498
4118.943681,-9696.697840,-518.144159,-1532.190996
4118.944011,-9548.656652,0.000000,-459.657299
4118.944340,-9474.636058,222.061783,153.219100
4118.944670,-9474.636058,148.041188,383.047749
4118.945000,-9474.636058,0.000000,0.000000
4118.945330,-9844.739029,222.061783,-306.438199
4118.945659,-10807.006753,370.102971,153.219100
4118.945989,-10288.862594,0.000000,-383.047749
4118.946319,-10066.800811,370.102971,-459.657299
4118.946649,-9400.615463,444.123565,0.000000
4118.946978,-9548.656652,296.082377,459.657299
4118.947308,-10066.800811,148.041188,842.705048
4118.947638,-10658.965565,0.000000,76.609550
4118.947968,-11177.109724,518.144159,-383.047749
4118.948297,-10362.883188,74.020594,-766.095498
4118.948627,-9992.780217,0.000000,76.609550
4118.948957,-9474.636058,0.000000,995.924147
4118.949287,-9474.636058,74.020594,1302.362347
4118.949616,-9696.697840,-296.082377,919.314598
4118.949946,-9918.759623,0.000000,383.047749
4118.950276,-9474.636058,0.000000,-919.314598
4118.950605,-9770.718434,0.000000,153.219100
4118.950935,-9992.780217,0.000000,689.485948
4118.951265,-9992.780217,-74.020594,1608.800546
4118.951595,-9326.594869,0.000000,995.924147
4118.951924,-8808.450710,-444.123565,0.000000
4118.952254,-9104.533087,-222.061783,-306.438199
4118.952584,-9918.759623,222.061783,-229.828649
4118.952914,-9696.697840,148.041188,153.219100
4118.953243,-9474.636058,370.102971,383.047749
4118.953573,-9770.718434,370.102971,383.047749
4118.953903,-10510.924376,592.164754,1149.143247
4118.954233,-10436.903782,592.164754,229.828649
4118.954562,-10436.903782,592.164754,-76.609550
4118.954892,-9844.739029,296.082377,-229.828649
4118.955222,-9770.718434,148.041188,0.000000
4118.955552,-10140.821405,370.102971,0.000000
4118.955881,-9844.739029,148.041188,76.609550
4118.956211,-9548.656652,222.061783,459.657299
4118.956541,-9548.656652,0.000000,1072.533697
4118.956871,-9918.759623,0.000000,995.924147
4118.957200,-10584.944971,0.000000,1149.143247
4118.957530,-10066.800811,0.000000,919.314598
4118.957860,-9918.759623,0.000000,612.876398
4118.958189,-9844.739029,-222.061783,536.266849
4118.958519,-9178.553681,0.000000,306.438199
4118.958849,-9474.636058,-222.061783,306.438199
4118.959179,-9622.677246,296.082377,459.657299
4118.959508,-9770.718434,-74.020594,-306.438199
4118.959838,-10140.821405,74.020594,-612.876398
4118.960168,-10066.800811,222.061783,-306.438199
4118.960498,-10288.862594,-222.061783,306.438199
4118.960827,-9400.615463,-518.144159,612.876398
4118.961157,-8734.430116,-814.226536,612.876398
4118.961487,-9474.636058,-296.082377,229.828649
4118.961817,-9474.636058,-74.020594,536.266849
4118.962146,-9844.739029,-222.061783,383.047749
4118.962476,-9770.718434,-888.247130,306.438199
4118.962806,-9622.677246,-740.205942,229.828649
4118.963136,-9252.574275,-444.123565,842.705048
4118.963465,-9326.594869,-222.061783,919.314598
4118.963795,-9770.718434,222.061783,383.047749
4118.964125,-9696.697840,370.102971,-306.438199
4118.964455,-9770.718434,222.061783,-919.314598
4118.964784,-10658.965565,592.164754,-842.705048
4118.965114,-10066.800811,296.082377,76.609550
4118.965444,-9696.697840,74.020594,-306.438199
4118.965774,-9474.636058,-148.041188,-766.095498
4118.966103,-10066.800811,74.020594,-383.047749
4118.966433,-9844.739029,0.000000,0.000000
4118.966763,-9622.677246,444.123565,0.000000
4118.967092,-10436.903782,888.247130,842.705048
4118.967422,-9918.759623,518.144159,919.314598
4118.967752,-10066.800811,370.102971,306.438199
4118.968082,-10066.800811,370.102971,0.000000
4118.968411,-10140.821405,444.123565,536.266849
4118.968741,-10140.821405,0.000000,153.219100
4118.969071,-9104.533087,74.020594,-76.609550
4118.969401,-9178.553681,370.102971,0.000000
4118.969730,-9104.533087,74.020594,229.828649
4118.970060,-9696.697840,296.082377,0.000000
4118.970390,-9696.697840,444.123565,0.000000
4118.970720,-9770.718434,222.061783,229.828649
4118.971049,-9992.780217,370.102971,766.095498
4118.971379,-10214.842000,296.082377,1225.752797
4118.971709,-10214.842000,444.123565,1072.533697
4118.972039,-9030.512492,74.020594,0.000000
4118.972368,-9030.512492,222.061783,-842.705048
4118.972698,-9400.615463,296.082377,-383.047749
4118.973028,-9992.780217,518.144159,153.219100
4118.973358,-9326.594869,222.061783,0.000000
4118.973687,-9474.636058,0.000000,229.828649
4118.974017,-9844.739029,518.144159,383.047749
4118.974347,-9326.594869,222.061783,0.000000
4118.974676,-9030.512492,222.061783,-383.047749
4118.975006,-9548.656652,148.041188,306.438199
4118.975336,-10510.924376,518.144159,919.314598
4118.975666,-10140.821405,148.041188,459.657299
4118.975995,-9696.697840,-518.144159,-536.266849
4118.976325,-9770.718434,-370.102971,76.609550
4118.976655,-9252.574275,-740.205942,1302.362347
4118.976985,-9844.739029,-370.102971,1455.581446
4118.977314,-10288.862594,-148.041188,1608.800546
4118.977644,-9844.739029,-370.102971,766.095498
4118.977974,-9770.718434,-444.123565,459.657299
4118.978304,-9474.636058,74.020594,229.828649
4118.978633,-9474.636058,-370.102971,612.876398
4118.978963,-9918.759623,-370.102971,612.876398
4118.979293,-9696.697840,-370.102971,536.266849
4118.979623,-10510.924376,0.000000,459.657299
4118.979952,-10214.842000,-148.041188,0.000000
4118.980282,-8882.471304,-740.205942,-842.705048
4118.980612,-9400.615463,-592.164754,-76.609550
4118.980942,-9696.697840,-148.041188,1072.533697
4118.981271,-9844.739029,-148.041188,306.438199
4118.981601,-9548.656652,-222.061783,459.657299
4118.981931,-10362.883188,74.020594,536.266849
4118.982260,-10658.965565,-370.102971,842.705048
4118.982590,-10510.924376,-592.164754,153.219100
4118.982920,-9178.553681,-592.164754,-153.219100
4118.983250,-8956.491898,-1036.288319,76.609550
4118.983579,-8808.450710,-370.102971,229.828649
4118.983909,-8734.430116,-518.144159,-459.657299
4118.984239,-9696.697840,0.000000,459.657299
4118.984569,-10288.862594,148.041188,689.485948
4118.984898,-10881.027347,296.082377,612.876398
4118.985228,-10362.883188,0.000000,536.266849
4118.985558,-10510.924376,0.000000,536.266849
4118.985888,-10066.800811,0.000000,0.000000
4118.986217,-9844.739029,-444.123565,689.485948
4118.986547,-9918.759623,0.000000,229.828649
4118.986877,-8882.471304,0.000000,383.047749
4118.987207,-9030.512492,74.020594,-153.219100
4118.987536,-9696.697840,740.205942,76.609550
4118.987866,-10214.842000,592.164754,229.828649
4118.988196,-9474.636058,296.082377,-306.438199
4118.988526,-8808.450710,0.000000,-76.609550
4118.988855,-9918.759623,888.247130,0.000000
4118.989185,-10140.821405,0.000000,383.047749
4118.989515,-9992.780217,-148.041188,306.438199
4118.989845,-10140.821405,0.000000,383.047749
4118.990174,-10140.821405,222.061783,766.095498
4118.990504,-9622.677246,74.020594,612.876398
4118.990834,-9178.553681,0.000000,76.609550
4118.991163,-9252.574275,666.185348,306.438199
4118.991493,-9622.677246,592.164754,153.219100
4118.991823,-9992.780217,666.185348,-459.657299
4118.992153,-9548.656652,148.041188,-1378.971896
4118.992482,-8734.430116,518.144159,-919.314598
4118.992812,-8956.491898,0.000000,-383.047749
4118.993142,-9474.636058,0.000000,459.657299
4118.993472,-9696.697840,0.000000,536.266849
4118.993801,-9104.533087,0.000000,612.876398
4118.994131,-9696.697840,370.102971,76.609550
4118.994461,-10658.965565,1036.288319,612.876398
4118.994791,-10955.047942,296.082377,689.485948
4118.995120,-9622.677246,296.082377,766.095498
4118.995450,-9400.615463,814.226536,0.000000
4118.995780,-9844.739029,666.185348,-383.047749
4118.996110,-10066.800811,296.082377,-536.266849
4118.996439,-9918.759623,296.082377,-229.828649
4118.996769,-9844.739029,444.123565,0.000000
4118.997099,-9992.780217,370.102971,76.609550
4118.997429,-9474.636058,148.041188,0.000000
4118.997758,-9474.636058,148.041188,536.266849
4118.998088,-9326.594869,0.000000,459.657299
4118.998418,-9770.718434,148.041188,766.095498
4118.998747,-10584.944971,222.061783,1149.143247
4118.999077,-10510.924376,148.041188,689.485948
4118.999407,-9622.677246,0.000000,919.314598
4118.999737,-9696.697840,0.000000,306.438199
4119.000066,-10362.883188,296.082377,383.047749
4119.000396,-9770.718434,0.000000,-153.219100
4119.000726,-9548.656652,0.000000,-842.705048
4119.001056,-9400.615463,74.020594,-1072.533697
4119.001385,-10140.821405,148.041188,-306.438199
4119.001715,-10140.821405,518.144159,0.000000
4119.002045,-9770.718434,0.000000,-459.657299
4119.002375,-10140.821405,370.102971,0.000000
4119.002704,-9918.759623,-666.185348,153.219100
4119.003034,-9030.512492,-814.226536,229.828649
4119.003364,-9178.553681,-592.164754,842.705048
4119.003694,-9992.780217,-444.123565,1302.362347
4119.004023,-9918.759623,-444.123565,1072.533697
4119.004353,-8956.491898,-888.247130,842.705048
4119.004683,-8882.471304,-222.061783,612.876398
4119.005013,-9918.759623,0.000000,536.266849
4119.005342,-10807.006753,0.000000,229.828649
4119.005672,-10214.842000,-296.082377,0.000000
4119.006002,-9400.615463,-444.123565,0.000000
4119.006332,-9548.656652,0.000000,153.219100
4119.006661,-9844.739029,-666.185348,536.266849
4119.006991,-9474.636058,148.041188,536.266849
4119.007321,-9474.636058,-148.041188,0.000000
4119.007650,-9992.780217,148.041188,-76.609550
4119.007980,-10140.821405,74.020594,-153.219100
4119.008310,-10362.883188,370.102971,0.000000
4119.008640,-9696.697840,296.082377,-459.657299
4119.008969,-10362.883188,296.082377,76.609550
4119.009299,-10510.924376,296.082377,459.657299
4119.009629,-9474.636058,-592.164754,76.609550
4119.009959,-8956.491898,0.000000,383.047749
4119.010288,-9548.656652,-444.123565,919.314598
4119.010618,-10362.883188,0.000000,689.485948
4119.010948,-9696.697840,0.000000,995.924147
4119.011278,-9104.533087,-296.082377,995.924147
4119.011607,-9548.656652,0.000000,766.095498
4119.011937,-10140.821405,0.000000,-306.438199
4119.012267,-9770.718434,296.082377,0.000000
4119.012597,-8956.491898,370.102971,-153.219100
4119.012926,-9918.759623,740.205942,229.828649
4119.013256,-10214.842000,444.123565,153.219100
4119.013586,-10584.944971,222.061783,459.657299
4119.013916,-9918.759623,444.123565,-306.438199
4119.014245,-9400.615463,-444.123565,-536.266849
4119.014575,-9548.656652,0.000000,-536.266849
4119.014905,-9844.739029,-148.041188,0.000000
4119.015234,-9770.718434,-222.061783,612.876398
4119.015564,-9400.615463,222.061783,612.876398
4119.015894,-10066.800811,518.144159,995.924147
4119.016224,-10362.883188,1036.288319,1072.533697
4119.016553,-9622.677246,222.061783,0.000000
4119.016883,-10214.842000,370.102971,-383.047749
4119.017213,-10214.842000,444.123565,-229.828649
4119.017543,-9770.718434,296.082377,0.000000
4119.017872,-8808.450710,-222.061783,-383.047749
4119.018202,-8438.347739,-148.041188,306.438199
4119.018532,-9770.718434,370.102971,766.095498
4119.018862,-9918.759623,296.082377,459.657299
4119.019191,-9770.718434,0.000000,0.000000
4119.019521,-10362.883188,592.164754,842.705048
4119.019851,-10732.986159,444.123565,689.485948
4119.020181,-10214.842000,148.041188,766.095498
4119.020510,-9548.656652,222.061783,76.609550
4119.020840,-10066.800811,222.061783,76.609550
4119.021170,-9548.656652,222.061783,-383.047749
4119.021500,-9696.697840,222.061783,-612.876398
4119.021829,-9844.739029,444.123565,-766.095498
4119.022159,-9474.636058,518.144159,0.000000
4119.022489,-9696.697840,370.102971,153.219100
4119.022819,-9474.636058,74.020594,76.609550
4119.023148,-9252.574275,0.000000,306.438199
4119.023478,-9622.677246,74.020594,229.828649
4119.023808,-9844.739029,0.000000,153.219100
4119.024137,-9770.718434,0.000000,0.000000
4119.024467,-9474.636058,74.020594,153.219100
4119.024797,-9844.739029,0.000000,1072.533697
4119.025127,-9918.759623,0.000000,995.924147
4119.025456,-9770.718434,0.000000,1072.533697
4119.025786,-10066.800811,222.061783,76.609550
4119.026116,-9992.780217,0.000000,0.000000
4119.026446,-9992.780217,0.000000,76.609550
4119.026775,-9844.739029,444.123565,1072.533697
4119.027105,-9770.718434,-370.102971,536.266849
4119.027435,-9770.718434,-148.041188,1455.581446
4119.027765,-9918.759623,-444.123565,1762.019645
4119.028094,-10436.903782,-370.102971,919.314598
4119.028424,-10140.821405,0.000000,0.000000
4119.028754,-10362.883188,-222.061783,-306.438199
4119.029084,-9474.636058,-444.123565,229.828649
4119.029413,-9400.615463,-814.226536,995.924147
4119.029743,-9918.759623,0.000000,1455.581446
4119.030073,-9770.718434,-592.164754,1072.533697
4119.030403,-9770.718434,-296.082377,0.000000
4119.030732,-9030.512492,-740.205942,-766.095498
4119.031062,-9992.780217,0.000000,-459.657299
4119.031392,-9548.656652,-370.102971,0.000000
4119.031721,-9252.574275,-74.020594,76.609550
4119.032051,-9696.697840,-148.041188,383.047749
4119.032381,-9548.656652,-296.082377,229.828649
4119.032711,-9992.780217,-296.082377,-383.047749
4119.033040,-10066.800811,-740.205942,-612.876398
4119.033370,-9844.739029,-222.061783,-459.657299
4119.033700,-9326.594869,-444.123565,-76.609550
4119.034030,-9400.615463,-518.144159,153.219100
4119.034359,-9992.780217,148.041188,689.485948
4119.034689,-9992.780217,0.000000,383.047749
4119.035019,-10140.821405,444.123565,-919.314598
4119.035349,-9696.697840,0.000000,-842.705048
4119.035678,-9992.780217,0.000000,-229.828649
4119.036008,-9770.718434,0.000000,229.828649
4119.036338,-9844.739029,0.000000,919.314598
4119.036668,-9400.615463,0.000000,842.705048
4119.036997,-9474.636058,-370.102971,-536.266849
4119.037327,-9770.718434,444.123565,-459.657299
4119.037657,-10658.965565,444.123565,-306.438199
4119.037986,-10288.862594,518.144159,0.000000
4119.038316,-9252.574275,666.185348,536.266849
4119.038646,-10066.800811,962.267725,689.485948
4119.038976,-11177.109724,518.144159,995.924147
4119.039305,-10140.821405,74.020594,306.438199
4119.039635,-9104.533087,296.082377,-306.438199
4119.039965,-9252.574275,148.041188,153.219100
4119.040294,-10066.800811,296.082377,842.705048
4119.040624,-9622.677246,444.123565,536.266849
4119.040954,-8882.471304,592.164754,0.000000
4119.041284,-9844.739029,814.226536,0.000000
4119.041613,-10362.883188,814.226536,-383.047749
4119.041943,-9844.739029,666.185348,-689.485948
4119.042273,-9030.512492,370.102971,0.000000
4119.042603,-9326.594869,0.000000,229.828649
4119.042932,-9326.594869,148.041188,459.657299
4119.043262,-9770.718434,0.000000,229.828649
4119.043592,-9326.594869,518.144159,-76.609550
4119.043921,-8882.471304,740.205942,229.828649
4119.044251,-9770.718434,666.185348,-76.609550
4119.044581,-10214.842000,888.247130,-459.657299
4119.044911,-10214.842000,518.144159,0.000000
4119.045240,-9548.656652,0.000000,0.000000
4119.045570,-10288.862594,148.041188,0.000000
4119.045900,-9696.697840,222.061783,306.438199
4119.046229,-9696.697840,370.102971,-153.219100
4119.046559,-9474.636058,666.185348,229.828649
4119.046889,-10066.800811,518.144159,-459.657299
4119.047219,-10510.924376,740.205942,-383.047749
4119.047548,-9992.780217,296.082377,-383.047749
4119.047878,-10066.800811,74.020594,153.219100
4119.048208,-10288.862594,370.102971,689.485948
4119.048538,-10807.006753,74.020594,689.485948
4119.048867,-9844.739029,-222.061783,153.219100
4119.049197,-9400.615463,-296.082377,-459.657299
4119.049527,-9474.636058,-222.061783,-459.657299
4119.049856,-9474.636058,-444.123565,306.438199
4119.050186,-9918.759623,-370.102971,459.657299
4119.050516,-10214.842000,-74.020594,383.047749
4119.050846,-9844.739029,-148.041188,0.000000
4119.051175,-9548.656652,-296.082377,0.000000
4119.051505,-9918.759623,-296.082377,0.000000
4119.051835,-9992.780217,-370.102971,0.000000
4119.052165,-9104.533087,-592.164754,612.876398
4119.052494,-9104.533087,-518.144159,459.657299
4119.052824,-9474.636058,-148.041188,536.266849
4119.053154,-9696.697840,-222.061783,153.219100
4119.053483,-9770.718434,-148.041188,-306.438199
4119.053813,-9400.615463,-518.144159,-306.438199
4119.054143,-9548.656652,0.000000,-689.485948
4119.054473,-9400.615463,-74.020594,76.609550
4119.054802,-9252.574275,-296.082377,306.438199
4119.055132,-9400.615463,0.000000,1149.143247
4119.055462,-9844.739029,222.061783,459.657299
4119.055791,-10066.800811,-370.102971,306.438199
4119.056121,-9992.780217,-296.082377,536.266849
4119.056451,-9696.697840,0.000000,1072.533697
4119.056781,-9474.636058,-814.226536,1149.143247
4119.057110,-9844.739029,0.000000,1302.362347
4119.057440,-9474.636058,0.000000,689.485948
4119.057770,-9548.656652,148.041188,0.000000
4119.058100,-9548.656652,592.164754,-229.828649
4119.058429,-10510.924376,444.123565,153.219100
4119.058759,-10510.924376,592.164754,306.438199
4119.059089,-9474.636058,0.000000,0.000000
4119.059418,-9770.718434,740.205942,76.609550
4119.059748,-10436.903782,0.000000,536.266849
4119.060078,-10658.965565,-148.041188,459.657299
4119.060408,-9548.656652,-296.082377,459.657299
4119.060737,-8956.491898,74.020594,459.657299
4119.061067,-9400.615463,370.102971,842.705048
4119.061397,-9474.636058,296.082377,612.876398
4119.061726,-10436.903782,296.082377,612.876398
4119.062056,-10732.986159,444.123565,612.876398
4119.062386,-10214.842000,0.000000,459.657299
4119.062716,-9622.677246,0.000000,459.657299
4119.063045,-9918.759623,0.000000,0.000000
4119.063375,-8882.471304,0.000000,-383.047749
4119.063705,-8882.471304,-370.102971,-612.876398
4119.064035,-9844.739029,296.082377,-229.828649
4119.064364,-9696.697840,0.000000,536.266849
4119.064694,-9844.739029,74.020594,1072.533697
4119.065024,-9622.677246,148.041188,229.828649
4119.065353,-10066.800811,-296.082377,-229.828649
4119.065683,-8956.491898,-222.061783,-536.266849
4119.066013,-9474.636058,-444.123565,-306.438199
4119.066343,-9992.780217,148.041188,1455.581446
4119.066672,-9918.759623,-370.102971,1608.800546
4119.067002,-9474.636058,222.061783,995.924147
4119.067332,-9030.512492,0.000000,0.000000
4119.067661,-9844.739029,0.000000,-766.095498
4119.067991,-9844.739029,0.000000,-919.314598
4119.068321,-9474.636058,0.000000,-306.438199
4119.068651,-9844.739029,518.144159,842.705048
4119.068980,-10214.842000,74.020594,1072.533697
4119.069310,-10066.800811,222.061783,76.609550
4119.069640,-9178.553681,-222.061783,-842.705048
4119.069970,-9474.636058,148.041188,-1302.362347
4119.070299,-9844.739029,222.061783,-153.219100
4119.070629,-10288.862594,444.123565,612.876398
4119.070959,-9992.780217,222.061783,995.924147
4119.071288,-9696.697840,0.000000,-229.828649
4119.071618,-9622.677246,0.000000,-766.095498
4119.071948,-9622.677246,-518.144159,-842.705048
4119.072278,-9622.677246,0.000000,153.219100
4119.072607,-9474.636058,-296.082377,995.924147
4119.072937,-9622.677246,0.000000,1378.971896
4119.073267,-10214.842000,370.102971,306.438199
4119.073596,-10362.883188,222.061783,-612.876398
4119.073926,-9918.759623,0.000000,-612.876398
4119.074256,-9622.677246,0.000000,-153.219100
4119.074586,-9548.656652,74.020594,383.047749
4119.074915,-8586.388927,444.123565,229.828649
4119.075245,-9400.615463,222.061783,766.095498
4119.075575,-10066.800811,444.123565,0.000000
4119.075905,-10214.842000,296.082377,-76.609550
4119.076234,-10288.862594,296.082377,-306.438199
4119.076564,-10140.821405,148.041188,612.876398
4119.076894,-9696.697840,444.123565,842.705048
4119.077223,-9252.574275,296.082377,919.314598
4119.077553,-9548.656652,370.102971,306.438199
4119.077883,-9770.718434,1110.308913,-1149.143247
4119.078213,-10288.862594,740.205942,-459.657299
4119.078542,-10584.944971,296.082377,0.000000
4119.078872,-9844.739029,370.102971,919.314598
4119.079202,-9696.697840,296.082377,229.828649
4119.079531,-9548.656652,-444.123565,383.047749
4119.079861,-9326.594869,-296.082377,536.266849
4119.080191,-9622.677246,-148.041188,536.266849
4119.080521,-10214.842000,814.226536,459.657299
4119.080850,-10214.842000,0.000000,919.314598
4119.081180,-9844.739029,0.000000,1455.581446
4119.081510,-9178.553681,-148.041188,1149.143247
4119.081840,-9844.739029,-148.041188,76.609550
4119.082169,-10436.903782,370.102971,536.266849
4119.082499,-10362.883188,-444.123565,842.705048
4119.082829,-9770.718434,0.000000,766.095498
4119.083158,-9400.615463,-296.082377,306.438199
4119.083488,-9918.759623,0.000000,-153.219100
4119.083818,-9474.636058,74.020594,229.828649
4119.084148,-9548.656652,0.000000,-76.609550
4119.084477,-9622.677246,0.000000,153.219100
4119.084807,-10362.883188,148.041188,766.095498
4119.085137,-10214.842000,222.061783,536.266849
4119.085466,-9770.718434,0.000000,0.000000
4119.085796,-9770.718434,-296.082377,-459.657299
4119.086126,-9474.636058,-222.061783,-842.705048
4119.086456,-9474.636058,0.000000,-306.438199
4119.086785,-9252.574275,-296.082377,0.000000
4119.087115,-9400.615463,-296.082377,536.266849
4119.087445,-9918.759623,-592.164754,689.485948
4119.087775,-10140.821405,-148.041188,459.657299
4119.088104,-9918.759623,-370.102971,995.924147
4119.088434,-9918.759623,0.000000,919.314598
4119.088764,-10140.821405,0.000000,306.438199
4119.089093,-10214.842000,0.000000,229.828649
4119.089423,-9400.615463,-296.082377,76.609550
4119.089753,-9918.759623,74.020594,0.000000
4119.090083,-10214.842000,148.041188,-76.609550
4119.090412,-10436.903782,-222.061783,-229.828649
4119.090742,-9030.512492,296.082377,76.609550
4119.091072,-9252.574275,0.000000,-689.485948
4119.091402,-10807.006753,296.082377,459.657299
4119.091731,-10214.842000,-740.205942,153.219100
4119.092061,-8956.491898,0.000000,306.438199
4119.092391,-9770.718434,296.082377,612.876398
4119.092720,-11251.130318,444.123565,689.485948
4119.093050,-10436.903782,0.000000,689.485948
4119.093380,-8956.491898,222.061783,612.876398
4119.093710,-9474.636058,370.102971,689.485948
4119.094039,-10214.842000,0.000000,1149.143247
4119.094369,-9622.677246,370.102971,229.828649
4119.094699,-8734.430116,370.102971,0.000000
4119.095028,-9326.594869,518.144159,-536.266849
4119.095358,-10658.965565,888.247130,-689.485948
4119.095688,-10584.944971,592.164754,-612.876398
4119.096018,-9400.615463,444.123565,-689.485948
4119.096347,-8586.388927,370.102971,-383.047749
4119.096677,-9770.718434,666.185348,0.000000
4119.097007,-9992.780217,148.041188,383.047749
4119.097337,-9696.697840,370.102971,689.485948
4119.097666,-8882.471304,222.061783,536.266849
4119.097996,-10066.800811,74.020594,766.095498
4119.098326,-10288.862594,148.041188,1608.800546
4119.098655,-9252.574275,-370.102971,919.314598
4119.098985,-8438.347739,518.144159,612.876398
4119.099315,-9252.574275,222.061783,383.047749
4119.099645,-10288.862594,740.205942,0.000000
4119.099974,-9548.656652,666.185348,-612.876398
4119.100304,-9548.656652,814.226536,-536.266849
4119.100634,-9992.780217,888.247130,-229.828649
4119.100963,-10288.862594,666.185348,0.000000
4119.101293,-9992.780217,518.144159,0.000000
4119.101623,-9400.615463,740.205942,-383.047749
4119.101953,-9696.697840,592.164754,0.000000
4119.102282,-10288.862594,370.102971,76.609550
4119.102612,-9844.739029,296.082377,229.828649
4119.102942,-10140.821405,296.082377,459.657299
4119.103272,-9548.656652,-222.061783,229.828649
4119.103601,-10288.862594,-518.144159,383.047749
4119.103931,-9918.759623,148.041188,766.095498
4119.104261,-9548.656652,-74.020594,383.047749
4119.104590,-9252.574275,0.000000,153.219100
4119.104920,-9104.533087,-370.102971,612.876398
4119.105250,-10140.821405,0.000000,459.657299
4119.105580,-10214.842000,0.000000,306.438199
4119.105909,-9918.759623,-518.144159,153.219100
4119.106239,-9474.636058,-444.123565,459.657299
4119.106569,-9696.697840,-444.123565,689.485948
4119.106898,-9696.697840,-1184.329507,612.876398
4119.107228,-9400.615463,-740.205942,766.095498
4119.107558,-9474.636058,-666.185348,766.095498
4119.107888,-10066.800811,-222.061783,919.314598
4119.108217,-10066.800811,-518.144159,919.314598
4119.108547,-10288.862594,-444.123565,1378.971896
4119.108877,-10288.862594,0.000000,995.924147
4119.109207,-10066.800811,0.000000,689.485948
4119.109536,-9770.718434,-148.041188,-612.876398
4119.109866,-9474.636058,0.000000,-919.314598
4119.110196,-9252.574275,0.000000,-995.924147
4119.110525,-9696.697840,148.041188,-612.876398
4119.110855,-9844.739029,74.020594,0.000000
4119.111185,-9918.759623,-74.020594,0.000000
4119.111515,-9844.739029,-148.041188,536.266849
4119.111844,-9992.780217,0.000000,153.219100
4119.112174,-9844.739029,-592.164754,-229.828649
4119.112504,-9992.780217,-74.020594,153.219100
4119.112833,-9770.718434,-148.041188,689.485948
4119.113163,-10288.862594,74.020594,1608.800546
4119.113493,-10362.883188,444.123565,1072.533697
4119.113823,-9696.697840,0.000000,76.609550
4119.114152,-9474.636058,296.082377,-76.609550
4119.114482,-9400.615463,0.000000,0.000000
4119.114812,-10066.800811,74.020594,0.000000
4119.115142,-9474.636058,-296.082377,459.657299
4119.115471,-9104.533087,0.000000,459.657299
4119.115801,-9104.533087,296.082377,-229.828649
4119.116131,-9104.533087,74.020594,-459.657299
4119.116460,-9770.718434,518.144159,76.609550
4119.116790,-9770.718434,0.000000,-76.609550
4119.117120,-9918.759623,518.144159,0.000000
4119.117450,-9252.574275,0.000000,842.705048
4119.117779,-9400.615463,296.082377,536.266849
4119.118109,-8956.491898,0.000000,383.047749
4119.118439,-9548.656652,0.000000,229.828649
4119.118768,-10140.821405,296.082377,229.828649
4119.119098,-10510.924376,444.123565,0.000000
4119.119428,-10214.842000,592.164754,76.609550
4119.119758,-9696.697840,222.061783,229.828649
4119.120087,-9770.718434,222.061783,383.047749
4119.120417,-8956.491898,0.000000,-383.047749
4119.120747,-9400.615463,296.082377,-689.485948
4119.121077,-9400.615463,370.102971,-229.828649
4119.121406,-9992.780217,74.020594,0.000000
4119.121736,-10362.883188,222.061783,153.219100
4119.122066,-10140.821405,0.000000,689.485948
4119.122395,-10288.862594,444.123565,612.876398
4119.122725,-9770.718434,0.000000,612.876398
4119.123055,-9548.656652,-444.123565,306.438199
4119.123385,-9474.636058,74.020594,76.609550
4119.123714,-9474.636058,222.061783,229.828649
4119.124044,-9992.780217,518.144159,919.314598
4119.124374,-10214.842000,148.041188,995.924147
4119.124703,-10140.821405,0.000000,229.828649
4119.125033,-9474.636058,0.000000,-536.266849
4119.125363,-9252.574275,0.000000,-383.047749
4119.125693,-9622.677246,222.061783,153.219100
4119.126022,-9474.636058,222.061783,536.266849
4119.126352,-9474.636058,74.020594,0.000000
4119.126682,-9474.636058,370.102971,0.000000
4119.127012,-9770.718434,666.185348,0.000000
4119.127341,-10288.862594,444.123565,919.314598
4119.127671,-9844.739029,222.061783,0.000000
4119.128001,-10140.821405,148.041188,0.000000
4119.128330,-10140.821405,0.000000,306.438199
4119.128660,-9992.780217,-74.020594,76.609550
4119.128990,-9474.636058,148.041188,536.266849
4119.129320,-9030.512492,74.020594,459.657299
4119.129649,-10066.800811,296.082377,612.876398
4119.129979,-10658.965565,148.041188,459.657299
4119.130309,-10362.883188,0.000000,153.219100
4119.130638,-9918.759623,-74.020594,229.828649
4119.130968,-9548.656652,-222.061783,0.000000
4119.131298,-9104.533087,0.000000,766.095498
4119.131628,-9622.677246,222.061783,1378.971896
4119.131957,-9474.636058,-370.102971,383.047749
4119.132287,-9474.636058,-370.102971,306.438199
4119.132617,-10140.821405,0.000000,306.438199
4119.132947,-9696.697840,0.000000,919.314598
4119.133276,-9548.656652,-666.185348,612.876398
4119.133606,-9696.697840,-370.102971,919.314598
4119.133936,-10140.821405,-518.144159,995.924147
4119.134265,-10066.800811,-148.041188,612.876398
4119.134595,-9474.636058,0.000000,306.438199
4119.134925,-9400.615463,0.000000,306.438199
4119.135255,-9548.656652,222.061783,229.828649
4119.135584,-9622.677246,-296.082377,-153.219100
4119.135914,-10140.821405,444.123565,-612.876398
4119.136244,-9548.656652,74.020594,-459.657299
4119.136574,-10066.800811,-148.041188,-153.219100
4119.136904,-9548.656652,0.000000,689.485948
4119.137233,-9474.636058,296.082377,1455.581446
4119.137563,-9992.780217,148.041188,536.266849
4119.137893,-9992.780217,0.000000,153.219100
4119.138223,-10140.821405,74.020594,0.000000
4119.138552,-9770.718434,370.102971,-229.828649
4119.138882,-9992.780217,222.061783,-229.828649
4119.139212,-10510.924376,518.144159,306.438199
4119.139542,-10066.800811,0.000000,306.438199
4119.139872,-9474.636058,222.061783,-383.047749
4119.140201,-9104.533087,-444.123565,-766.095498
4119.140531,-9622.677246,74.020594,153.219100
4119.140861,-9918.759623,0.000000,1225.752797
4119.141191,-10584.944971,0.000000,1225.752797
4119.141520,-9770.718434,-296.082377,842.705048
4119.141850,-9252.574275,0.000000,-536.266849
4119.142180,-9252.574275,0.000000,-229.828649
4119.142510,-9992.780217,222.061783,229.828649
4119.142839,-10881.027347,296.082377,842.705048
4119.143169,-10140.821405,74.020594,1149.143247
4119.143499,-9770.718434,222.061783,153.219100
4119.143829,-9474.636058,0.000000,153.219100
4119.144159,-9844.739029,0.000000,0.000000
4119.144488,-9918.759623,296.082377,-229.828649
4119.144818,-9844.739029,0.000000,0.000000
4119.145148,-9696.697840,0.000000,0.000000
4119.145478,-9326.594869,0.000000,76.609550
4119.145807,-9326.594869,-148.041188,995.924147
4119.146137,-9474.636058,296.082377,76.609550
4119.146467,-9548.656652,0.000000,-689.485948
4119.146797,-9326.594869,0.000000,-766.095498
4119.147127,-9548.656652,0.000000,0.000000
4119.147456,-9622.677246,0.000000,306.438199
4119.147786,-9178.553681,0.000000,919.314598
4119.148116,-9474.636058,0.000000,612.876398
4119.148446,-10066.800811,444.123565,306.438199
4119.148775,-9992.780217,0.000000,-383.047749
4119.149105,-9104.533087,222.061783,-612.876398
4119.149435,-8660.409521,592.164754,-153.219100
4119.149765,-9918.759623,444.123565,766.095498
4119.150094,-10658.965565,444.123565,1149.143247
4119.150424,-9992.780217,518.144159,153.219100
4119.150754,-10140.821405,592.164754,-229.828649
4119.151084,-10362.883188,370.102971,-766.095498
4119.151414,-10214.842000,0.000000,-306.438199
4119.151743,-9548.656652,148.041188,306.438199
4119.152073,-9400.615463,370.102971,1302.362347
4119.152403,-9844.739029,296.082377,1072.533697
4119.152733,-10881.027347,296.082377,766.095498
4119.153062,-10362.883188,444.123565,689.485948
4119.153392,-10140.821405,0.000000,689.485948
4119.153722,-10214.842000,74.020594,612.876398
4119.154052,-9326.594869,-148.041188,536.266849
4119.154381,-8734.430116,-296.082377,842.705048
4119.154711,-8586.388927,-148.041188,-229.828649
4119.155041,-9400.615463,-370.102971,76.609550
4119.155371,-9992.780217,0.000000,459.657299
4119.155701,-9400.615463,0.000000,842.705048
4119.156030,-9104.533087,-296.082377,459.657299
4119.156360,-9474.636058,-518.144159,229.828649
4119.156690,-9548.656652,-518.144159,306.438199
4119.157020,-9770.718434,-814.226536,842.705048
4119.157349,-9548.656652,0.000000,612.876398
4119.157679,-9770.718434,0.000000,0.000000
4119.158009,-9770.718434,0.000000,0.000000
4119.158339,-9548.656652,-222.061783,0.000000
4119.158669,-9622.677246,0.000000,536.266849
4119.158998,-9918.759623,0.000000,306.438199
4119.159328,-9696.697840,-296.082377,0.000000
4119.159658,-9474.636058,74.020594,0.000000
4119.159988,-9696.697840,74.020594,-536.266849
4119.160317,-9770.718434,-370.102971,-306.438199
4119.160647,-10362.883188,74.020594,0.000000
4119.160977,-10584.944971,-148.041188,689.485948
4119.161307,-10140.821405,-222.061783,995.924147
4119.161636,-9918.759623,-148.041188,995.924147
4119.161966,-10066.800811,-296.082377,842.705048
4119.162296,-10140.821405,0.000000,306.438199
4119.162626,-9474.636058,370.102971,229.828649
4119.162956,-10066.800811,0.000000,153.219100
4119.163285,-9918.759623,444.123565,0.000000
4119.163615,-10140.821405,296.082377,0.000000
4119.163945,-9918.759623,0.000000,-459.657299
4119.164275,-9770.718434,370.102971,-536.266849
4119.164604,-9622.677246,-370.102971,-383.047749
4119.164934,-9252.574275,-444.123565,383.047749
4119.165264,-9178.553681,0.000000,1149.143247
4119.165594,-9474.636058,296.082377,1149.143247
4119.165924,-9548.656652,518.144159,612.876398
4119.166253,-9918.759623,814.226536,-536.266849
4119.166583,-10362.883188,592.164754,306.438199
4119.166913,-11177.109724,370.102971,383.047749
4119.167243,-10584.944971,74.020594,0.000000
4119.167572,-9474.636058,-592.164754,306.438199
4119.167902,-8882.471304,-148.041188,306.438199
4119.168232,-8142.265362,-148.041188,459.657299
4119.168562,-8438.347739,0.000000,153.219100
4119.168891,-9326.594869,370.102971,612.876398
4119.169221,-10288.862594,592.164754,0.000000
4119.169551,-10881.027347,666.185348,-459.657299
4119.169881,-10066.800811,370.102971,-919.314598
4119.170211,-9474.636058,592.164754,-153.219100
4119.170540,-9178.553681,0.000000,0.000000
4119.170870,-9474.636058,148.041188,76.609550
4119.171200,-9844.739029,518.144159,306.438199
4119.171530,-9474.636058,222.061783,-459.657299
4119.171859,-9548.656652,296.082377,-689.485948
4119.172189,-9696.697840,74.020594,0.000000
4119.172519,-10214.842000,296.082377,536.266849
4119.172849,-9992.780217,222.061783,919.314598
4119.173178,-9622.677246,370.102971,229.828649
4119.173508,-9918.759623,814.226536,0.000000
4119.173838,-10066.800811,814.226536,-1225.752797
4119.174168,-10362.883188,1110.308913,-1302.362347
4119.174498,-9474.636058,740.205942,-459.657299
4119.174827,-9770.718434,592.164754,76.609550
4119.175157,-10214.842000,0.000000,0.000000
4119.175487,-9622.677246,0.000000,-536.266849
4119.175817,-9770.718434,74.020594,76.609550
4119.176146,-10140.821405,0.000000,306.438199
4119.176476,-10214.842000,-370.102971,536.266849
4119.176806,-9400.615463,-518.144159,995.924147
4119.177136,-9474.636058,-222.061783,995.924147
4119.177466,-9548.656652,74.020594,1455.581446
4119.177795,-9844.739029,0.000000,919.314598
4119.178125,-10658.965565,74.020594,766.095498
4119.178455,-9918.759623,222.061783,76.609550
4119.178785,-9696.697840,-74.020594,0.000000
4119.179114,-9622.677246,-666.185348,-689.485948
4119.179444,-9474.636058,-296.082377,0.000000
4119.179774,-8734.430116,-370.102971,689.485948
4119.180104,-9474.636058,-370.102971,459.657299
4119.180433,-10436.903782,296.082377,1149.143247
4119.180763,-10807.006753,0.000000,842.705048
4119.181093,-10140.821405,148.041188,306.438199
4119.181423,-9400.615463,-296.082377,306.438199
4119.181753,-9770.718434,148.041188,919.314598
4119.182082,-9474.636058,0.000000,689.485948
4119.182412,-9918.759623,0.000000,306.438199
4119.182742,-9474.636058,-888.247130,0.000000
4119.183072,-9400.615463,-296.082377,-689.485948
4119.183401,-9400.615463,-444.123565,-689.485948
4119.183731,-9474.636058,0.000000,0.000000
4119.184061,-8882.471304,-74.020594,306.438199
4119.184391,-9252.574275,-74.020594,383.047749
4119.184720,-9770.718434,0.000000,612.876398
4119.185050,-10658.965565,-370.102971,612.876398
4119.185380,-10732.986159,-148.041188,383.047749
4119.185710,-10140.821405,-370.102971,842.705048
4119.186040,-9992.780217,-222.061783,306.438199
4119.186369,-9178.553681,-592.164754,612.876398
4119.186699,-9474.636058,-814.226536,536.266849
4119.187029,-9326.594869,-444.123565,1149.143247
4119.187359,-9696.697840,222.061783,229.828649
4119.187688,-10288.862594,0.000000,-459.657299
4119.188018,-9770.718434,0.000000,-766.095498
4119.188348,-9770.718434,74.020594,229.828649
4119.188678,-9844.739029,-592.164754,76.609550
4119.189008,-9770.718434,-592.164754,0.000000
4119.189337,-9696.697840,-222.061783,995.924147
4119.189667,-9474.636058,0.000000,766.095498
4119.189997,-9548.656652,222.061783,383.047749
4119.190327,-9696.697840,444.123565,0.000000
4119.190656,-10362.883188,296.082377,-153.219100
4119.190986,-10362.883188,370.102971,0.000000
4119.191316,-9548.656652,148.041188,-229.828649
4119.191646,-10214.842000,222.061783,0.000000
4119.191975,-9400.615463,-74.020594,76.609550
4119.192305,-9030.512492,0.000000,-766.095498
4119.192635,-9252.574275,148.041188,-995.924147
4119.192965,-10288.862594,666.185348,-153.219100
4119.193295,-10140.821405,1110.308913,689.485948
4119.193624,-10362.883188,592.164754,766.095498
4119.193954,-10214.842000,1036.288319,383.047749
4119.194284,-9918.759623,888.247130,0.000000
4119.194614,-9992.780217,666.185348,-612.876398
4119.194943,-9252.574275,222.061783,-766.095498
4119.195273,-9474.636058,518.144159,-153.219100
4119.195603,-9178.553681,74.020594,-229.828649
4119.195933,-9104.533087,444.123565,383.047749
4119.196263,-10066.800811,444.123565,1149.143247
4119.196592,-9918.759623,296.082377,689.485948
4119.196922,-10510.924376,518.144159,0.000000
4119.197252,-10214.842000,740.205942,-536.266849
4119.197582,-9548.656652,370.102971,612.876398
4119.197911,-9326.594869,444.123565,689.485948
4119.198241,-9992.780217,370.102971,919.314598
4119.198571,-10140.821405,888.247130,842.705048
4119.198901,-9696.697840,296.082377,383.047749
4119.199230,-9622.677246,370.102971,-536.266849
4119.199560,-9622.677246,-74.020594,-383.047749
4119.199890,-9844.739029,-222.061783,306.438199
4119.200220,-9030.512492,-370.102971,842.705048
4119.200550,-9326.594869,-296.082377,1072.533697
4119.200879,-9844.739029,148.041188,1302.362347
4119.201209,-10214.842000,-222.061783,612.876398
4119.201539,-9622.677246,0.000000,-229.828649
4119.201869,-9992.780217,-148.041188,0.000000
4119.202198,-10436.903782,148.041188,995.924147
4119.202528,-9844.739029,-814.226536,536.266849
4119.202858,-9326.594869,-814.226536,-153.219100
4119.203188,-9770.718434,-444.123565,229.828649
4119.203517,-9770.718434,-222.061783,-306.438199
4119.203847,-9696.697840,-740.205942,-1225.752797
4119.204177,-9030.512492,-1110.308913,-919.314598
4119.204507,-9252.574275,0.000000,383.047749
4119.204837,-10214.842000,-518.144159,919.314598
4119.205166,-10658.965565,-296.082377,536.266849
4119.205496,-9918.759623,-740.205942,536.266849
4119.205826,-8956.491898,-1110.308913,0.000000
4119.206156,-9252.574275,-814.226536,76.609550
4119.206485,-9844.739029,-518.144159,383.047749
4119.206815,-9622.677246,-592.164754,689.485948
4119.207145,-8956.491898,-518.144159,-229.828649
4119.207475,-9548.656652,-148.041188,0.000000
4119.207805,-10288.862594,0.000000,229.828649
4119.208134,-10584.944971,-222.061783,0.000000
4119.208464,-10066.800811,0.000000,-306.438199
4119.208794,-9474.636058,-370.102971,229.828649
4119.209124,-9696.697840,0.000000,306.438199
4119.209453,-9696.697840,-740.205942,1149.143247
4119.209783,-9548.656652,-74.020594,1149.143247
4119.210113,-9992.780217,74.020594,1225.752797
4119.210443,-10436.903782,0.000000,689.485948
4119.210772,-10732.986159,0.000000,459.657299
4119.211102,-9992.780217,0.000000,459.657299
4119.211432,-9622.677246,518.144159,76.609550
4119.211762,-9030.512492,74.020594,0.000000
4119.212092,-9548.656652,0.000000,0.000000
4119.212421,-9844.739029,222.061783,0.000000
4119.212751,-9474.636058,148.041188,-76.609550
4119.213081,-9696.697840,222.061783,-383.047749
4119.213411,-10214.842000,814.226536,0.000000
4119.213740,-10288.862594,444.123565,306.438199
4119.214070,-9326.594869,148.041188,229.828649
4119.214400,-9104.533087,222.061783,0.000000
4119.214730,-9474.636058,74.020594,0.000000
4119.215060,-9400.615463,592.164754,-383.047749
4119.215389,-9918.759623,296.082377,0.000000
4119.215719,-10066.800811,740.205942,536.266849
4119.216049,-9696.697840,296.082377,306.438199
4119.216379,-8882.471304,148.041188,-536.266849
4119.216708,-9474.636058,370.102971,-459.657299
4119.217038,-9326.594869,444.123565,153.219100
4119.217368,-9696.697840,518.144159,0.000000
4119.217698,-9326.594869,666.185348,153.219100
4119.218027,-9474.636058,888.247130,-76.609550
4119.218357,-10214.842000,1258.350101,-536.266849
4119.218687,-10436.903782,592.164754,-689.485948
4119.219017,-10066.800811,962.267725,-995.924147
4119.219347,-9474.636058,444.123565,-689.485948
4119.219676,-9474.636058,740.205942,-76.609550
4119.220006,-9474.636058,0.000000,536.266849
4119.220336,-9548.656652,518.144159,995.924147
4119.220666,-10214.842000,814.226536,766.095498
4119.220995,-10732.986159,444.123565,383.047749
4119.221325,-10214.842000,444.123565,842.705048
4119.221655,-9548.656652,0.000000,766.095498
4119.221985,-9400.615463,444.123565,306.438199
4119.222314,-9622.677246,296.082377,383.047749
4119.222644,-10140.821405,740.205942,383.047749
4119.222974,-9400.615463,370.102971,76.609550
4119.223304,-9400.615463,0.000000,0.000000
4119.223634,-9992.780217,370.102971,153.219100
4119.223963,-10140.821405,-370.102971,612.876398
4119.224293,-9474.636058,0.000000,689.485948
4119.224623,-9400.615463,-592.164754,612.876398
4119.224953,-10214.842000,-74.020594,306.438199
4119.225282,-9918.759623,-296.082377,229.828649
4119.225612,-9326.594869,0.000000,229.828649
4119.225942,-9400.615463,296.082377,229.828649
4119.226272,-9844.739029,0.000000,0.000000
4119.226602,-9992.780217,74.020594,153.219100
4119.226931,-10140.821405,74.020594,229.828649
4119.227261,-10066.800811,-222.061783,-153.219100
4119.227591,-9548.656652,-666.185348,383.047749
4119.227921,-9548.656652,-962.267725,383.047749
4119.228250,-9252.574275,-888.247130,689.485948
4119.228580,-9400.615463,-592.164754,842.705048
4119.228910,-9696.697840,-518.144159,459.657299
4119.229240,-10140.821405,-148.041188,842.705048
4119.229569,-10066.800811,222.061783,536.266849
4119.229899,-9770.718434,0.000000,0.000000
4119.230229,-10436.903782,-148.041188,383.047749
4119.230559,-10510.924376,0.000000,459.657299
4119.230889,-9770.718434,-1184.329507,0.000000
4119.231218,-9474.636058,-1184.329507,459.657299
4119.231548,-9474.636058,-666.185348,612.876398
4119.231878,-10510.924376,-666.185348,612.876398
4119.232208,-9474.636058,-962.267725,0.000000
4119.232537,-9252.574275,0.000000,766.095498
4119.232867,-9844.739029,74.020594,2298.286494
4119.233197,-10732.986159,0.000000,1455.581446
4119.233527,-10436.903782,148.041188,842.705048
4119.233857,-9474.636058,-444.123565,76.609550
4119.234186,-9326.594869,0.000000,-229.828649
4119.234516,-9252.574275,-296.082377,-536.266849
4119.234846,-9918.759623,-148.041188,229.828649
4119.235176,-9918.759623,518.144159,459.657299
4119.235506,-9104.533087,296.082377,-153.219100
4119.235835,-10362.883188,370.102971,-229.828649
4119.236165,-9696.697840,0.000000,-459.657299
4119.236495,-9400.615463,518.144159,-612.876398
4119.236825,-9030.512492,814.226536,153.219100
4119.237155,-9844.739029,296.082377,689.485948
4119.237485,-10436.903782,444.123565,919.314598
4119.237814,-9844.739029,148.041188,-76.609550
4119.238144,-9918.759623,222.061783,-612.876398
4119.238474,-9622.677246,74.020594,-153.219100
4119.238804,-8956.491898,444.123565,153.219100
4119.239134,-8586.388927,296.082377,919.314598
4119.239463,-9918.759623,444.123565,1302.362347
4119.239793,-10732.986159,0.000000,229.828649
4119.240123,-9474.636058,148.041188,-1302.362347
4119.240453,-9030.512492,666.185348,-995.924147
4119.240783,-10066.800811,666.185348,-842.705048
4119.241112,-9992.780217,592.164754,612.876398
4119.241442,-8956.491898,0.000000,689.485948
4119.241772,-9104.533087,666.185348,229.828649
4119.242102,-10140.821405,814.226536,-306.438199
4119.242432,-10732.986159,222.061783,-536.266849
4119.242762,-9622.677246,370.102971,0.000000
4119.243091,-9326.594869,592.164754,0.000000
4119.243421,-10214.842000,444.123565,153.219100
4119.243751,-10510.924376,222.061783,76.609550
4119.244081,-9844.739029,296.082377,153.219100
4119.244411,-8512.368333,-148.041188,-383.047749
4119.244740,-9474.636058,222.061783,-76.609550
4119.245070,-11177.109724,296.082377,459.657299
4119.245400,-9844.739029,74.020594,306.438199
4119.245730,-9030.512492,444.123565,536.266849
4119.246060,-9770.718434,444.123565,229.828649
4119.246389,-11473.192101,592.164754,842.705048
4119.246719,-10658.965565,-296.082377,306.438199
4119.247049,-8808.450710,148.041188,-536.266849
4119.247379,-8512.368333,0.000000,-612.876398
4119.247709,-9326.594869,148.041188,0.000000
4119.248039,-9326.594869,0.000000,153.219100
4119.248368,-9548.656652,518.144159,153.219100
4119.248698,-10658.965565,518.144159,612.876398
4119.249028,-10881.027347,0.000000,229.828649
4119.249358,-10436.903782,0.000000,383.047749
4119.249688,-8438.347739,-518.144159,536.266849
4119.250017,-9178.553681,-296.082377,229.828649
4119.250347,-9770.718434,-296.082377,612.876398
4119.250677,-9844.739029,0.000000,842.705048
4119.251007,-9400.615463,222.061783,459.657299
4119.251337,-9030.512492,0.000000,-766.095498
4119.251667,-9548.656652,74.020594,-459.657299
4119.251996,-10140.821405,0.000000,0.000000
4119.252326,-10436.903782,0.000000,153.219100
4119.252656,-9696.697840,-148.041188,-306.438199
4119.252986,-9770.718434,-296.082377,76.609550
4119.253316,-9844.739029,0.000000,1072.533697
4119.253645,-9548.656652,0.000000,1225.752797
4119.253975,-10140.821405,296.082377,383.047749
4119.254305,-10436.903782,0.000000,689.485948
4119.254635,-10510.924376,-148.041188,842.705048
4119.254965,-9252.574275,-592.164754,459.657299
4119.255294,-9104.533087,0.000000,0.000000
4119.255624,-9548.656652,-370.102971,1149.143247
4119.255954,-9326.594869,-666.185348,842.705048
4119.256284,-9474.636058,0.000000,0.000000
4119.256614,-9696.697840,74.020594,-306.438199
4119.256944,-9548.656652,0.000000,-459.657299
4119.257273,-9622.677246,-296.082377,0.000000
4119.257603,-9770.718434,0.000000,766.095498
4119.257933,-9992.780217,0.000000,1302.362347
4119.258263,-10066.800811,-296.082377,383.047749
4119.258593,-9474.636058,-592.164754,0.000000
4119.258922,-9622.677246,-296.082377,153.219100
4119.259252,-10066.800811,0.000000,153.219100
4119.259582,-9252.574275,0.000000,153.219100
4119.259912,-8956.491898,0.000000,0.000000
4119.260242,-10214.842000,296.082377,536.266849
4119.260571,-10140.821405,-296.082377,-229.828649
4119.260901,-10066.800811,370.102971,76.609550
4119.261231,-9326.594869,0.000000,0.000000
4119.261561,-10066.800811,0.000000,306.438199
4119.261891,-9622.677246,0.000000,0.000000
4119.262221,-9844.739029,-148.041188,153.219100
4119.262550,-9400.615463,222.061783,76.609550
4119.262880,-9548.656652,74.020594,0.000000
4119.263210,-10140.821405,148.041188,0.000000
4119.263540,-10066.800811,370.102971,536.266849
4119.263870,-10140.821405,296.082377,766.095498
4119.264199,-9918.759623,0.000000,383.047749
4119.264529,-10362.883188,518.144159,766.095498
4119.264859,-10584.944971,444.123565,536.266849
4119.265189,-9178.553681,370.102971,153.219100
4119.265519,-9030.512492,0.000000,76.609550
4119.265849,-9474.636058,666.185348,459.657299
4119.266178,-10140.821405,518.144159,612.876398
4119.266508,-9770.718434,222.061783,76.609550
4119.266838,-9548.656652,0.000000,306.438199
4119.267168,-9844.739029,148.041188,536.266849
4119.267498,-9992.780217,74.020594,689.485948
4119.267827,-9326.594869,0.000000,76.609550
4119.268157,-9622.677246,592.164754,153.219100
4119.268487,-9992.780217,666.185348,383.047749
4119.268817,-10214.842000,370.102971,459.657299
4119.269147,-9918.759623,444.123565,612.876398
4119.269476,-9696.697840,518.144159,0.000000
4119.269806,-9548.656652,296.082377,0.000000
4119.270136,-9918.759623,0.000000,0.000000
4119.270466,-9696.697840,296.082377,-612.876398
4119.270796,-9326.594869,740.205942,-306.438199
4119.271126,-9326.594869,222.061783,-459.657299
4119.271455,-9918.759623,518.144159,536.266849
4119.271785,-9696.697840,296.082377,766.095498
4119.272115,-9622.677246,444.123565,0.000000
4119.272445,-9696.697840,0.000000,-383.047749
4119.272775,-10214.842000,74.020594,-306.438199
4119.273104,-9918.759623,148.041188,0.000000
4119.273434,-9474.636058,148.041188,76.609550
4119.273764,-9474.636058,222.061783,459.657299
4119.274094,-10140.821405,-296.082377,612.876398
4119.274424,-9326.594869,0.000000,-76.609550
4119.274754,-9696.697840,0.000000,-459.657299
4119.275083,-10140.821405,296.082377,153.219100
4119.275413,-9400.615463,0.000000,459.657299
4119.275743,-8586.388927,-222.061783,612.876398
4119.276073,-8660.409521,592.164754,842.705048
4119.276403,-10140.821405,444.123565,459.657299
4119.276732,-11177.109724,592.164754,0.000000
4119.277062,-10732.986159,222.061783,-612.876398
4119.277392,-9992.780217,0.000000,-306.438199
4119.277722,-9400.615463,0.000000,153.219100
4119.278052,-9326.594869,-74.020594,766.095498
4119.278381,-9252.574275,74.020594,1455.581446
4119.278711,-9400.615463,-296.082377,306.438199
4119.279041,-10288.862594,74.020594,-306.438199
4119.279371,-10807.006753,444.123565,612.876398
4119.279701,-10881.027347,148.041188,766.095498
4119.280031,-9770.718434,0.000000,766.095498
4119.280360,-9400.615463,-370.102971,76.609550
4119.280690,-9474.636058,148.041188,995.924147
4119.281020,-9104.533087,-740.205942,383.047749
4119.281350,-9474.636058,0.000000,-612.876398
4119.281680,-9992.780217,-74.020594,-153.219100
4119.282009,-10362.883188,-296.082377,229.828649
4119.282339,-9252.574275,-592.164754,229.828649
4119.282669,-9252.574275,-592.164754,153.219100
4119.282999,-9548.656652,-888.247130,766.095498
4119.283329,-9992.780217,-666.185348,536.266849
4119.283658,-9548.656652,148.041188,919.314598
4119.283988,-9474.636058,0.000000,153.219100
4119.284318,-10362.883188,444.123565,383.047749
4119.284648,-10288.862594,148.041188,0.000000
4119.284978,-10584.944971,370.102971,-229.828649
4119.285308,-9474.636058,0.000000,0.000000
4119.285637,-9548.656652,-592.164754,229.828649
4119.285967,-10140.821405,-592.164754,612.876398
4119.286297,-9252.574275,-222.061783,306.438199
4119.286627,-9104.533087,0.000000,459.657299
4119.286957,-9474.636058,296.082377,76.609550
4119.287286,-10807.006753,592.164754,689.485948
4119.287616,-10807.006753,444.123565,919.314598
4119.287946,-9844.739029,518.144159,383.047749
4119.288276,-9696.697840,592.164754,-153.219100
4119.288606,-9918.759623,222.061783,0.000000
4119.288936,-9548.656652,0.000000,76.609550
4119.289265,-8290.306550,592.164754,-306.438199
4119.289595,-8216.285956,296.082377,-1225.752797
4119.289925,-9622.677246,518.144159,-919.314598
4119.290255,-10436.903782,666.185348,-459.657299
4119.290585,-10140.821405,740.205942,-689.485948
4119.290914,-9474.636058,814.226536,-689.485948
4119.291244,-9992.780217,1036.288319,-842.705048
4119.291574,-9770.718434,1480.411884,-153.219100
4119.291904,-9548.656652,1036.288319,-306.438199
4119.292234,-9326.594869,1924.535449,-995.924147
4119.292563,-9992.780217,1480.411884,-1378.971896
4119.292893,-11103.089130,1480.411884,-1685.410096
4119.293223,-9696.697840,1850.514855,-2145.067394
4119.293553,-8956.491898,1554.432478,-2451.505594
4119.293883,-8882.471304,1332.370696,-2604.724693
4119.294213,-9474.636058,1554.432478,-1608.800546
4119.294542,-9548.656652,1924.535449,-995.924147
4119.294872,-8956.491898,1776.494261,-1072.533697
4119.295202,-10140.821405,2590.720797,-1685.410096
4119.295532,-10658.965565,2294.638420,-1762.019645
4119.295862,-10658.965565,2442.679609,-2068.457845
4119.296191,-9770.718434,1554.432478,-2987.772442
4119.296521,-9252.574275,1554.432478,-2834.553343
4119.296851,-9400.615463,1628.453072,-2221.676944
4119.297181,-8438.347739,2072.576638,-1302.362347
4119.297511,-8882.471304,2516.700203,-1991.848295
4119.297840,-9622.677246,3256.906145,-1762.019645
4119.298170,-10288.862594,2960.823768,-2145.067394
4119.298500,-10584.944971,3478.967927,-1838.629195
4119.298830,-10436.903782,3627.009116,-2451.505594
4119.299160,-11399.171507,3330.926739,-2451.505594
4119.299490,-11177.109724,3108.864956,-2987.772442
4119.299819,-9400.615463,2442.679609,-2834.553343
4119.300149,-8364.327145,2442.679609,-2451.505594
4119.300479,-8364.327145,2516.700203,-1608.800546
4119.300809,-8882.471304,2738.761985,-612.876398
4119.301139,-9400.615463,2664.741391,-1302.362347
4119.301468,-9178.553681,3108.864956,-2987.772442
4119.301798,-11029.068536,2738.761985,-2757.943793
4119.302128,-11177.109724,2812.782580,-2068.457845
4119.302458,-9770.718434,2368.659014,-1608.800546
4119.302788,-9178.553681,2442.679609,-1302.362347
4119.303118,-8882.471304,2886.803174,-1532.190996
4119.303447,-10362.883188,2812.782580,-1532.190996
4119.303777,-10140.821405,2960.823768,-2528.115143
4119.304107,-9918.759623,3404.947333,-3447.429741
4119.304437,-9400.615463,3034.844362,-2834.553343
4119.304767,-9696.697840,2812.782580,-2145.067394
4119.305096,-9918.759623,2812.782580,-2528.115143
4119.305426,-9548.656652,1998.556043,-3217.601092
4119.305756,-9252.574275,2294.638420,-3370.820191
4119.306086,-9400.615463,1258.350101,-2451.505594
4119.306416,-10288.862594,1998.556043,-536.266849
4119.306745,-9622.677246,1628.453072,76.609550
4119.307075,-9548.656652,1850.514855,153.219100
4119.307405,-9400.615463,1776.494261,-229.828649
4119.307735,-10066.800811,1406.391290,-842.705048
4119.308065,-10140.821405,1776.494261,-1149.143247
4119.308395,-10436.903782,2146.597232,-1378.971896
4119.308724,-9918.759623,2590.720797,-1838.629195
4119.309054,-8882.471304,2442.679609,-2068.457845
4119.309384,-9252.574275,2072.576638,-3753.867940
4119.309714,-9992.780217,1628.453072,-3370.820191
4119.310044,-10658.965565,1776.494261,-2145.067394
4119.310373,-9992.780217,1036.288319,-1378.971896
4119.310703,-8660.409521,962.267725,-536.266849
4119.311033,-8068.244768,2072.576638,-1225.752797
