#time,accel_x,accel_y,accel_z
4096.607819,-9844.739029,0.000000,766.095498
4096.608149,-9770.718434,74.020594,459.657299
4096.608479,-9770.718434,0.000000,76.609550
4096.608809,-9918.759623,0.000000,0.000000
4096.609139,-9696.697840,74.020594,0.000000
4096.609469,-9992.780217,-296.082377,229.828649
4096.609800,-9548.656652,0.000000,612.876398
4096.610130,-9844.739029,74.020594,306.438199
4096.610460,-9918.759623,74.020594,306.438199
4096.610790,-9770.718434,370.102971,-383.047749
4096.611120,-9770.718434,518.144159,0.000000
4096.611450,-10214.842000,370.102971,229.828649
4096.611780,-10066.800811,148.041188,459.657299
4096.612110,-9622.677246,0.000000,229.828649
4096.612440,-9696.697840,0.000000,766.095498
4096.612770,-9696.697840,0.000000,306.438199
4096.613100,-9622.677246,-222.061783,0.000000
4096.613431,-9844.739029,74.020594,612.876398
4096.613761,-10066.800811,148.041188,459.657299
4096.614091,-9918.759623,0.000000,766.095498
4096.614421,-9696.697840,74.020594,536.266849
4096.614751,-9844.739029,-296.082377,612.876398
4096.615081,-9252.574275,-296.082377,1225.752797
4096.615411,-9474.636058,-444.123565,1149.143247
4096.615741,-9622.677246,-444.123565,1838.629195
4096.616071,-10066.800811,-370.102971,1378.971896
4096.616401,-10066.800811,-444.123565,612.876398
4096.616731,-9622.677246,-370.102971,-459.657299
4096.617062,-9474.636058,-444.123565,-306.438199
4096.617392,-9548.656652,0.000000,0.000000
4096.617722,-9918.759623,-444.123565,1072.533697
4096.618052,-9844.739029,-444.123565,2374.896044
4096.618382,-9400.615463,-592.164754,2528.115143
4096.618712,-9474.636058,-592.164754,2221.676944
4096.619042,-9770.718434,-962.267725,1762.019645
4096.619372,-10066.800811,-962.267725,2221.676944
4096.619702,-9992.780217,-1184.329507,2451.505594
4096.620032,-9992.780217,-1036.288319,3064.381992
4096.620362,-10066.800811,-1110.308913,3447.429741
4096.620693,-9918.759623,-666.185348,2911.162892
4096.621023,-10362.883188,-814.226536,2451.505594
4096.621353,-9770.718434,-666.185348,2145.067394
4096.621683,-10214.842000,-518.144159,1455.581446
4096.622013,-10214.842000,-666.185348,1608.800546
4096.622343,-9992.780217,-1332.370696,2298.286494
4096.622673,-10140.821405,-1998.556043,3064.381992
4096.623003,-10066.800811,-2442.679609,3217.601092
4096.623333,-9992.780217,-3256.906145,2987.772442
4096.623663,-9030.512492,-3552.988522,2528.115143
4096.623993,-8364.327145,-3849.070898,3064.381992
4096.624324,-8660.409521,-3256.906145,3753.867940
4096.624654,-9400.615463,-2960.823768,4443.353888
4096.624984,-9918.759623,-2738.761985,4826.401637
4096.625314,-10288.862594,-2368.659014,3753.867940
4096.625644,-11325.150913,-2886.803174,2681.334243
4096.625974,-11103.089130,-2738.761985,1915.238745
4096.626304,-10288.862594,-3034.844362,1072.533697
4096.626634,-9548.656652,-2442.679609,842.705048
4096.626964,-9030.512492,-3256.906145,1532.190996
4096.627294,-9178.553681,-3256.906145,1991.848295
4096.627624,-8808.450710,-3404.947333,2221.676944
4096.627955,-8956.491898,-3701.029710,2911.162892
4096.628285,-9992.780217,-4145.153275,2604.724693
4096.628615,-9844.739029,-4145.153275,2911.162892
4096.628945,-9770.718434,-4367.215058,3447.429741
4096.629275,-9178.553681,-4441.235652,4136.915689
4096.629605,-9844.739029,-3627.009116,4290.134789
4096.629935,-10436.903782,-3034.844362,2604.724693
4096.630265,-10881.027347,-1998.556043,1685.410096
4096.630595,-10066.800811,-2590.720797,1072.533697
4096.630925,-10436.903782,-2146.597232,1225.752797
4096.631256,-10066.800811,-2960.823768,1378.971896
4096.631586,-9918.759623,-3108.864956,1838.629195
4096.631916,-9622.677246,-3404.947333,1915.238745
4096.632246,-9252.574275,-3552.988522,1532.190996
4096.632576,-8882.471304,-3849.070898,1455.581446
4096.632906,-9178.553681,-3330.926739,2451.505594
4096.633236,-10436.903782,-2812.782580,3753.867940
4096.633566,-10658.965565,-2294.638420,4749.792088
4096.633896,-10658.965565,-1924.535449,3600.648841
4096.634226,-9696.697840,-2294.638420,2528.115143
4096.634556,-9178.553681,-2516.700203,1532.190996
4096.634887,-9770.718434,-2368.659014,1991.848295
4096.635217,-9992.780217,-2590.720797,3140.991542
4096.635547,-9104.533087,-2220.617826,3907.087040
4096.635877,-8734.430116,-2146.597232,2911.162892
4096.636207,-9474.636058,-1850.514855,1225.752797
4096.636537,-10214.842000,-1554.432478,995.924147
4096.636867,-10214.842000,-1258.350101,1302.362347
4096.637197,-9548.656652,-1406.391290,2374.896044
4096.637527,-8808.450710,-1554.432478,3370.820191
4096.637857,-8882.471304,-1258.350101,3753.867940
4096.638187,-9918.759623,-962.267725,3370.820191
4096.638518,-10436.903782,-666.185348,2451.505594
4096.638848,-10658.965565,-592.164754,1685.410096
4096.639178,-10510.924376,-370.102971,1532.190996
4096.639508,-10140.821405,-592.164754,2528.115143
4096.639838,-9770.718434,-592.164754,2987.772442
4096.640168,-10066.800811,-444.123565,3064.381992
4096.640498,-9918.759623,-814.226536,536.266849
4096.640828,-9474.636058,-666.185348,76.609550
4096.641158,-9400.615463,-740.205942,229.828649
4096.641488,-9548.656652,-592.164754,1915.238745
4096.641818,-9992.780217,-370.102971,2604.724693
4096.642149,-9770.718434,-740.205942,2451.505594
4096.642479,-10066.800811,-1258.350101,1685.410096
4096.642809,-10214.842000,-814.226536,1762.019645
4096.643139,-10066.800811,-888.247130,2221.676944
4096.643469,-9844.739029,-1036.288319,2068.457845
4096.643799,-10140.821405,-740.205942,3294.210641
4096.644129,-10436.903782,-888.247130,3294.210641
4096.644459,-10288.862594,-888.247130,2298.286494
4096.644789,-9844.739029,-814.226536,1455.581446
4096.645119,-9104.533087,-1554.432478,-229.828649
4096.645449,-9400.615463,-1480.411884,1072.533697
4096.645780,-10066.800811,-1406.391290,2528.115143
4096.646110,-9992.780217,-1628.453072,3140.991542
4096.646440,-8956.491898,-1924.535449,2068.457845
4096.646770,-8882.471304,-2220.617826,1455.581446
4096.647100,-9770.718434,-2368.659014,1991.848295
4096.647430,-10955.047942,-2146.597232,3294.210641
4096.647760,-10214.842000,-2960.823768,3983.696590
4096.648090,-10066.800811,-2368.659014,4136.915689
4096.648420,-9178.553681,-2294.638420,3217.601092
4096.648750,-9918.759623,-2368.659014,2068.457845
4096.649080,-11103.089130,-2146.597232,1302.362347
4096.649411,-10362.883188,-1924.535449,919.314598
4096.649741,-9474.636058,-2664.741391,995.924147
4096.650071,-8290.306550,-2886.803174,766.095498
4096.650401,-8660.409521,-2442.679609,1762.019645
4096.650731,-9548.656652,-2146.597232,2681.334243
4096.651061,-10288.862594,-2590.720797,1302.362347
4096.651391,-9992.780217,-2812.782580,1072.533697
4096.651721,-9178.553681,-3478.967927,2451.505594
4096.652051,-10288.862594,-3108.864956,3524.039291
4096.652381,-10658.965565,-2368.659014,4443.353888
4096.652711,-10288.862594,-2294.638420,2911.162892
4096.653042,-9400.615463,-2072.576638,306.438199
4096.653372,-9474.636058,-1554.432478,-459.657299
4096.653702,-10510.924376,-962.267725,153.219100
4096.654032,-10140.821405,-1184.329507,1685.410096
4096.654362,-9474.636058,-1110.308913,2604.724693
4096.654692,-9474.636058,-1702.473667,2604.724693
4096.655022,-9992.780217,-1776.494261,1149.143247
4096.655352,-10510.924376,-1850.514855,459.657299
4096.655682,-9918.759623,-1628.453072,536.266849
4096.656012,-9400.615463,-1332.370696,1225.752797
4096.656342,-9474.636058,-148.041188,536.266849
4096.656673,-10140.821405,-1036.288319,153.219100
4096.657003,-9770.718434,-370.102971,-229.828649
4096.657333,-10066.800811,-370.102971,306.438199
4096.657663,-10066.800811,296.082377,-459.657299
4096.657993,-9252.574275,-148.041188,0.000000
4096.658323,-8956.491898,296.082377,153.219100
4096.658653,-8734.430116,370.102971,612.876398
4096.658983,-9770.718434,296.082377,383.047749
4096.659313,-11251.130318,370.102971,-842.705048
4096.659643,-10214.842000,-740.205942,-459.657299
4096.659974,-8882.471304,0.000000,1072.533697
4096.660304,-8512.368333,-444.123565,2298.286494
4096.660634,-9252.574275,518.144159,2145.067394
4096.660964,-8882.471304,1184.329507,383.047749
4096.661294,-9400.615463,1258.350101,-1072.533697
4096.661624,-10214.842000,1332.370696,-536.266849
4096.661954,-10066.800811,2368.659014,76.609550
4096.662284,-10362.883188,1554.432478,0.000000
4096.662614,-10436.903782,1628.453072,-306.438199
4096.662944,-10436.903782,1406.391290,-919.314598
4096.663274,-9474.636058,666.185348,-919.314598
4096.663604,-9178.553681,222.061783,-1378.971896
4096.663934,-8364.327145,518.144159,-612.876398
4096.664264,-8438.347739,1036.288319,0.000000
4096.664594,-8438.347739,1406.391290,0.000000
4096.664924,-9178.553681,1406.391290,459.657299
4096.665254,-10881.027347,1628.453072,153.219100
4096.665584,-11695.253884,1776.494261,0.000000
4096.665914,-11547.212695,1554.432478,0.000000
4096.666244,-10066.800811,1110.308913,-383.047749
4096.666574,-9252.574275,1258.350101,0.000000
4096.666904,-9622.677246,962.267725,0.000000
4096.667234,-9844.739029,444.123565,-459.657299
4096.667564,-8956.491898,0.000000,-1532.190996
4096.667894,-8438.347739,148.041188,-1072.533697
4096.668224,-8882.471304,370.102971,-306.438199
4096.668554,-9474.636058,888.247130,536.266849
4096.668884,-9992.780217,1184.329507,-229.828649
4096.669214,-10214.842000,1184.329507,-306.438199
4096.669544,-11325.150913,1480.411884,0.000000
4096.669874,-12435.459826,1110.308913,919.314598
4096.670204,-11547.212695,740.205942,1072.533697
4096.670534,-9992.780217,0.000000,1072.533697
4096.670864,-9030.512492,-592.164754,689.485948
4096.671194,-9104.533087,-296.082377,383.047749
4096.671525,-9030.512492,-370.102971,0.000000
4096.671855,-8364.327145,-740.205942,-689.485948
4096.672185,-8956.491898,222.061783,0.000000
4096.672515,-10362.883188,518.144159,536.266849
4096.672845,-10807.006753,148.041188,689.485948
4096.673175,-10584.944971,444.123565,76.609550
4096.673505,-10510.924376,-296.082377,0.000000
4096.673835,-10066.800811,-444.123565,612.876398
4096.674165,-9474.636058,-370.102971,0.000000
4096.674495,-9104.533087,-444.123565,459.657299
4096.674825,-9474.636058,-296.082377,919.314598
4096.675155,-9548.656652,-370.102971,919.314598
4096.675485,-9474.636058,-222.061783,612.876398
4096.675815,-9696.697840,-222.061783,153.219100
4096.676145,-10214.842000,0.000000,-612.876398
4096.676475,-10510.924376,296.082377,383.047749
4096.676805,-9770.718434,148.041188,-306.438199
4096.677135,-9548.656652,-222.061783,-383.047749
4096.677465,-9992.780217,0.000000,153.219100
4096.677795,-10140.821405,-222.061783,995.924147
4096.678125,-9474.636058,0.000000,842.705048
4096.678455,-9252.574275,0.000000,0.000000
4096.678785,-9770.718434,-444.123565,-1685.410096
4096.679115,-9474.636058,-444.123565,229.828649
4096.679445,-9474.636058,-296.082377,689.485948
4096.679775,-9844.739029,-296.082377,1149.143247
4096.680105,-9548.656652,-370.102971,842.705048
4096.680435,-9696.697840,0.000000,0.000000
4096.680765,-9548.656652,0.000000,459.657299
4096.681095,-10066.800811,74.020594,459.657299
4096.681425,-10362.883188,0.000000,383.047749
4096.681755,-9918.759623,222.061783,383.047749
4096.682085,-9104.533087,74.020594,-76.609550
4096.682415,-8808.450710,-296.082377,-612.876398
4096.682745,-9326.594869,0.000000,-1225.752797
4096.683075,-9548.656652,-74.020594,-1378.971896
4096.683405,-9474.636058,0.000000,76.609550
4096.683735,-9252.574275,-592.164754,1072.533697
4096.684065,-9548.656652,-592.164754,1532.190996
4096.684395,-10436.903782,-148.041188,1455.581446
4096.684725,-10214.842000,-518.144159,0.000000
4096.685055,-9918.759623,-518.144159,0.000000
4096.685385,-9326.594869,0.000000,766.095498
4096.685715,-9770.718434,0.000000,1149.143247
4096.686045,-9696.697840,370.102971,766.095498
4096.686375,-9548.656652,0.000000,0.000000
4096.686705,-9548.656652,148.041188,-766.095498
4096.687035,-10140.821405,74.020594,-612.876398
4096.687365,-9548.656652,444.123565,-1608.800546
4096.687695,-9400.615463,0.000000,0.000000
4096.688025,-9178.553681,222.061783,306.438199
4096.688355,-9548.656652,0.000000,383.047749
4096.688685,-10436.903782,518.144159,459.657299
4096.689015,-10658.965565,444.123565,0.000000
4096.689345,-10658.965565,370.102971,76.609550
4096.689675,-9992.780217,592.164754,459.657299
4096.690005,-9252.574275,370.102971,459.657299
4096.690335,-9104.533087,888.247130,612.876398
4096.690665,-9770.718434,666.185348,-76.609550
4096.690995,-10140.821405,740.205942,-612.876398
4096.691325,-10362.883188,592.164754,-919.314598
4096.691655,-9474.636058,740.205942,-536.266849
4096.691985,-9400.615463,222.061783,306.438199
4096.692315,-9104.533087,444.123565,383.047749
4096.692645,-8956.491898,814.226536,-306.438199
4096.692975,-9622.677246,814.226536,0.000000
4096.693305,-10955.047942,962.267725,0.000000
4096.693635,-11103.089130,888.247130,383.047749
4096.693965,-10510.924376,666.185348,1072.533697
4096.694295,-9770.718434,148.041188,612.876398
4096.694625,-9918.759623,444.123565,-306.438199
4096.694955,-8734.430116,888.247130,-383.047749
4096.695285,-8956.491898,444.123565,-1302.362347
4096.695615,-9104.533087,148.041188,-1072.533697
4096.695945,-9474.636058,1258.350101,-153.219100
4096.696275,-9844.739029,740.205942,766.095498
4096.696605,-9844.739029,148.041188,76.609550
4096.696935,-9548.656652,0.000000,-229.828649
4096.697265,-9918.759623,-370.102971,459.657299
4096.697595,-9918.759623,0.000000,76.609550
4096.697925,-9474.636058,-666.185348,842.705048
4096.698256,-8956.491898,0.000000,1532.190996
4096.698586,-9474.636058,0.000000,1532.190996
4096.698916,-10436.903782,370.102971,919.314598
4096.699246,-9992.780217,0.000000,689.485948
4096.699576,-9696.697840,148.041188,-76.609550
4096.699906,-9622.677246,-296.082377,536.266849
4096.700236,-9400.615463,-370.102971,689.485948
4096.700566,-9474.636058,-518.144159,-153.219100
4096.700896,-9178.553681,-740.205942,-383.047749
4096.701226,-9178.553681,-370.102971,0.000000
4096.701556,-9474.636058,74.020594,153.219100
4096.701886,-10214.842000,-222.061783,689.485948
4096.702216,-10214.842000,-592.164754,1149.143247
4096.702546,-10362.883188,-148.041188,1302.362347
4096.702876,-10288.862594,-148.041188,536.266849
4096.703206,-9844.739029,-444.123565,-383.047749
4096.703536,-9548.656652,-740.205942,-536.266849
4096.703866,-9844.739029,-592.164754,76.609550
4096.704196,-9844.739029,-370.102971,1072.533697
4096.704526,-10066.800811,-370.102971,1225.752797
4096.704856,-9992.780217,-222.061783,766.095498
4096.705186,-9918.759623,-888.247130,459.657299
4096.705516,-9770.718434,-370.102971,-536.266849
4096.705846,-9400.615463,-444.123565,-919.314598
4096.706176,-9770.718434,-962.267725,0.000000
4096.706506,-9844.739029,-592.164754,536.266849
4096.706836,-9844.739029,-592.164754,995.924147
4096.707166,-10214.842000,-370.102971,842.705048
4096.707496,-10955.047942,-592.164754,0.000000
4096.707826,-10584.944971,-518.144159,0.000000
4096.708156,-9770.718434,-296.082377,0.000000
4096.708486,-8956.491898,-666.185348,306.438199
4096.708816,-9178.553681,-666.185348,919.314598
4096.709146,-9622.677246,-814.226536,612.876398
4096.709476,-9548.656652,-444.123565,459.657299
4096.709806,-9844.739029,-666.185348,536.266849
4096.710136,-9844.739029,-148.041188,766.095498
4096.710466,-9992.780217,-444.123565,766.095498
4096.710796,-9474.636058,-148.041188,689.485948
4096.711126,-8956.491898,148.041188,612.876398
4096.711456,-10140.821405,592.164754,919.314598
4096.711786,-10288.862594,0.000000,0.000000
4096.712116,-9844.739029,148.041188,-459.657299
4096.712446,-9326.594869,0.000000,306.438199
4096.712776,-9326.594869,0.000000,0.000000
4096.713106,-9178.553681,74.020594,536.266849
4096.713436,-9252.574275,592.164754,-153.219100
4096.713766,-9548.656652,0.000000,-612.876398
4096.714096,-9918.759623,592.164754,-459.657299
4096.714426,-10288.862594,814.226536,306.438199
4096.714756,-10140.821405,962.267725,153.219100
4096.715086,-9178.553681,888.247130,459.657299
4096.715416,-9918.759623,814.226536,0.000000
4096.715746,-10881.027347,814.226536,306.438199
4096.716076,-9770.718434,740.205942,-383.047749
4096.716406,-9252.574275,592.164754,0.000000
4096.716736,-9622.677246,666.185348,76.609550
4096.717066,-10807.006753,1184.329507,153.219100
4096.717396,-10584.944971,740.205942,-612.876398
4096.717726,-9104.533087,592.164754,-919.314598
4096.718056,-9400.615463,0.000000,-229.828649
4096.718386,-9548.656652,592.164754,842.705048
4096.718716,-9696.697840,592.164754,689.485948
4096.719046,-9178.553681,296.082377,536.266849
4096.719376,-10288.862594,592.164754,229.828649
4096.719706,-11029.068536,444.123565,459.657299
4096.720036,-10732.986159,222.061783,1378.971896
4096.720366,-9696.697840,296.082377,1302.362347
4096.720696,-9474.636058,444.123565,1149.143247
4096.721026,-9474.636058,222.061783,536.266849
4096.721356,-9400.615463,0.000000,-689.485948
4096.721686,-9252.574275,74.020594,-1302.362347
4096.722016,-9844.739029,296.082377,-612.876398
4096.722346,-10732.986159,370.102971,383.047749
4096.722676,-10658.965565,74.020594,919.314598
4096.723006,-9474.636058,74.020594,306.438199
4096.723336,-9548.656652,-518.144159,-459.657299
4096.723666,-9844.739029,-296.082377,0.000000
4096.723996,-9548.656652,-518.144159,0.000000
4096.724326,-9400.615463,-148.041188,459.657299
4096.724657,-9548.656652,-296.082377,1762.019645
4096.724987,-10584.944971,-370.102971,1532.190996
4096.725317,-9992.780217,-592.164754,919.314598
4096.725647,-9326.594869,-666.185348,306.438199
4096.725977,-9696.697840,-444.123565,689.485948
4096.726307,-9548.656652,-370.102971,766.095498
4096.726637,-9474.636058,-148.041188,459.657299
4096.726967,-9326.594869,-444.123565,536.266849
4096.727297,-10658.965565,74.020594,153.219100
4096.727627,-11399.171507,148.041188,306.438199
4096.727957,-10140.821405,-444.123565,0.000000
4096.728287,-8882.471304,-148.041188,-229.828649
4096.728617,-9104.533087,-296.082377,153.219100
4096.728947,-10436.903782,148.041188,1149.143247
4096.729277,-9918.759623,-370.102971,919.314598
4096.729607,-9474.636058,-444.123565,306.438199
4096.729937,-9474.636058,0.000000,0.000000
4096.730267,-10140.821405,148.041188,536.266849
4096.730597,-9770.718434,-74.020594,842.705048
4096.730927,-9326.594869,-296.082377,919.314598
4096.731257,-9770.718434,74.020594,919.314598
4096.731587,-10140.821405,148.041188,1072.533697
4096.731917,-10288.862594,74.020594,306.438199
4096.732247,-9400.615463,0.000000,0.000000
4096.732577,-9696.697840,74.020594,-383.047749
4096.732907,-10584.944971,0.000000,0.000000
4096.733237,-9474.636058,0.000000,689.485948
4096.733567,-8956.491898,-222.061783,383.047749
4096.733897,-9326.594869,222.061783,0.000000
4096.734227,-9474.636058,74.020594,153.219100
4096.734557,-9400.615463,-296.082377,76.609550
4096.734887,-9548.656652,0.000000,0.000000
4096.735217,-9918.759623,0.000000,612.876398
4096.735547,-10288.862594,74.020594,1149.143247
4096.735877,-9400.615463,74.020594,766.095498
4096.736207,-9400.615463,222.061783,0.000000
4096.736537,-10140.821405,148.041188,0.000000
4096.736867,-10214.842000,296.082377,0.000000
4096.737197,-9844.739029,222.061783,459.657299
4096.737527,-9548.656652,0.000000,689.485948
4096.737857,-10066.800811,-296.082377,919.314598
4096.738187,-9696.697840,0.000000,536.266849
4096.738517,-9252.574275,-222.061783,0.000000
4096.738847,-9178.553681,148.041188,-383.047749
4096.739177,-9844.739029,222.061783,0.000000
4096.739507,-10140.821405,296.082377,459.657299
4096.739837,-10140.821405,370.102971,459.657299
4096.740167,-9548.656652,74.020594,0.000000
4096.740497,-9992.780217,444.123565,-306.438199
4096.740827,-9474.636058,74.020594,-383.047749
4096.741157,-9622.677246,148.041188,536.266849
4096.741487,-9770.718434,518.144159,842.705048
4096.741817,-10584.944971,740.205942,689.485948
4096.742147,-10658.965565,740.205942,0.000000
4096.742477,-9992.780217,370.102971,-919.314598
4096.742807,-9548.656652,0.000000,-1149.143247
4096.743137,-9474.636058,-222.061783,153.219100
4096.743467,-9400.615463,-222.061783,842.705048
4096.743797,-8512.368333,0.000000,919.314598
4096.744127,-8956.491898,222.061783,229.828649
4096.744457,-9992.780217,518.144159,0.000000
4096.744787,-10955.047942,0.000000,306.438199
4096.745117,-9844.739029,0.000000,153.219100
4096.745447,-9178.553681,-740.205942,229.828649
4096.745777,-9474.636058,0.000000,76.609550
4096.746107,-9400.615463,-518.144159,689.485948
4096.746437,-9178.553681,-444.123565,306.438199
4096.746767,-9474.636058,0.000000,0.000000
4096.747097,-9696.697840,222.061783,153.219100
4096.747427,-10140.821405,518.144159,689.485948
4096.747757,-10066.800811,444.123565,842.705048
4096.748087,-10140.821405,370.102971,76.609550
4096.748417,-10066.800811,74.020594,-383.047749
4096.748747,-9252.574275,0.000000,0.000000
4096.749077,-9326.594869,0.000000,0.000000
4096.749407,-9474.636058,296.082377,0.000000
4096.749737,-9918.759623,74.020594,459.657299
4096.750067,-9474.636058,518.144159,229.828649
4096.750397,-10066.800811,0.000000,76.609550
4096.750727,-10584.944971,74.020594,0.000000
4096.751058,-10214.842000,0.000000,229.828649
4096.751388,-9178.553681,0.000000,536.266849
4096.751718,-8586.388927,-148.041188,995.924147
4096.752048,-9030.512492,0.000000,689.485948
4096.752378,-9622.677246,0.000000,383.047749
4096.752708,-10288.862594,592.164754,153.219100
4096.753038,-10510.924376,0.000000,-306.438199
4096.753368,-9918.759623,0.000000,-689.485948
4096.753698,-9696.697840,0.000000,306.438199
4096.754028,-9178.553681,222.061783,229.828649
4096.754358,-8882.471304,148.041188,-153.219100
4096.754688,-9548.656652,148.041188,306.438199
4096.755018,-10362.883188,370.102971,842.705048
4096.755348,-10658.965565,444.123565,689.485948
4096.755678,-10658.965565,370.102971,-306.438199
4096.756008,-9918.759623,-148.041188,-229.828649
4096.756338,-9770.718434,0.000000,536.266849
4096.756668,-9548.656652,-148.041188,459.657299
4096.756998,-9252.574275,0.000000,0.000000
4096.757328,-9252.574275,148.041188,229.828649
4096.757658,-9474.636058,444.123565,0.000000
4096.757988,-9326.594869,296.082377,-306.438199
4096.758318,-9992.780217,222.061783,-612.876398
4096.758648,-10066.800811,-74.020594,536.266849
4096.758978,-10584.944971,0.000000,919.314598
4096.759308,-10362.883188,0.000000,1072.533697
4096.759638,-9622.677246,-592.164754,995.924147
4096.759968,-9030.512492,-592.164754,1072.533697
4096.760298,-9918.759623,0.000000,1225.752797
4096.760628,-9770.718434,518.144159,306.438199
4096.760958,-9992.780217,444.123565,383.047749
4096.761288,-10214.842000,296.082377,153.219100
4096.761618,-10288.862594,148.041188,-153.219100
4096.761948,-9770.718434,222.061783,-459.657299
4096.762278,-9252.574275,0.000000,-1072.533697
4096.762608,-9178.553681,0.000000,-766.095498
4096.762938,-9326.594869,0.000000,76.609550
4096.763268,-9178.553681,-222.061783,-383.047749
4096.763598,-9548.656652,-74.020594,153.219100
4096.763928,-9918.759623,-74.020594,229.828649
4096.764258,-10214.842000,222.061783,76.609550
4096.764588,-9992.780217,148.041188,1225.752797
4096.764918,-9844.739029,222.061783,1149.143247
4096.765248,-9918.759623,0.000000,842.705048
4096.765578,-9770.718434,0.000000,766.095498
4096.765907,-9770.718434,0.000000,383.047749
4096.766237,-9474.636058,0.000000,383.047749
4096.766567,-9104.533087,0.000000,-383.047749
4096.766897,-9474.636058,0.000000,0.000000
4096.767227,-8882.471304,0.000000,0.000000
4096.767557,-9252.574275,0.000000,-383.047749
4096.767887,-9918.759623,0.000000,-306.438199
4096.768216,-9918.759623,-370.102971,536.266849
4096.768546,-9400.615463,-296.082377,0.000000
4096.768876,-9474.636058,-370.102971,919.314598
4096.769206,-9770.718434,-296.082377,459.657299
4096.769536,-10066.800811,-74.020594,536.266849
4096.769866,-10140.821405,296.082377,459.657299
4096.770196,-9918.759623,444.123565,536.266849
4096.770526,-9770.718434,74.020594,0.000000
4096.770855,-9622.677246,74.020594,0.000000
4096.771185,-9622.677246,444.123565,-919.314598
4096.771515,-9622.677246,518.144159,-1072.533697
4096.771845,-10066.800811,518.144159,-1302.362347
4096.772175,-10362.883188,296.082377,-383.047749
4096.772505,-9992.780217,370.102971,306.438199
4096.772835,-9622.677246,444.123565,536.266849
4096.773164,-10214.842000,222.061783,0.000000
4096.773494,-10584.944971,148.041188,229.828649
4096.773824,-9918.759623,-74.020594,0.000000
4096.774154,-9548.656652,148.041188,383.047749
4096.774484,-9474.636058,0.000000,612.876398
4096.774814,-10066.800811,222.061783,842.705048
4096.775144,-9770.718434,148.041188,689.485948
4096.775473,-9992.780217,0.000000,0.000000
4096.775803,-10288.862594,518.144159,-842.705048
4096.776133,-10436.903782,0.000000,-306.438199
4096.776463,-9548.656652,-370.102971,76.609550
4096.776793,-9030.512492,-444.123565,1072.533697
4096.777123,-9474.636058,296.082377,919.314598
4096.777453,-9992.780217,0.000000,612.876398
4096.777782,-9474.636058,0.000000,383.047749
4096.778112,-9474.636058,296.082377,229.828649
4096.778442,-10436.903782,518.144159,919.314598
4096.778772,-10955.047942,296.082377,1608.800546
4096.779102,-10214.842000,148.041188,842.705048
4096.779432,-9326.594869,-222.061783,-383.047749
4096.779762,-9326.594869,0.000000,-612.876398
4096.780091,-9474.636058,-296.082377,-689.485948
4096.780421,-9400.615463,-222.061783,0.000000
4096.780751,-9104.533087,74.020594,153.219100
4096.781081,-9474.636058,148.041188,383.047749
4096.781411,-10140.821405,370.102971,536.266849
4096.781741,-10436.903782,-222.061783,536.266849
4096.782071,-9918.759623,-444.123565,229.828649
4096.782401,-10066.800811,-296.082377,229.828649
4096.782730,-9548.656652,-296.082377,842.705048
4096.783060,-9104.533087,-296.082377,919.314598
4096.783390,-9104.533087,-296.082377,459.657299
4096.783720,-9622.677246,0.000000,-229.828649
4096.784050,-10140.821405,0.000000,0.000000
4096.784380,-9844.739029,0.000000,612.876398
4096.784710,-9918.759623,-444.123565,229.828649
4096.785039,-9844.739029,-518.144159,383.047749
4096.785369,-9696.697840,-888.247130,689.485948
4096.785699,-9104.533087,-370.102971,536.266849
4096.786029,-9474.636058,-518.144159,536.266849
4096.786359,-10214.842000,-444.123565,459.657299
4096.786689,-10436.903782,0.000000,766.095498
4096.787019,-9770.718434,0.000000,689.485948
4096.787348,-9474.636058,-296.082377,76.609550
4096.787678,-9548.656652,0.000000,536.266849
4096.788008,-10362.883188,148.041188,536.266849
4096.788338,-9696.697840,0.000000,229.828649
4096.788668,-9326.594869,-148.041188,-919.314598
4096.788998,-10140.821405,-296.082377,-229.828649
4096.789328,-10436.903782,-296.082377,459.657299
4096.789657,-9548.656652,-518.144159,306.438199
4096.789987,-9030.512492,0.000000,0.000000
4096.790317,-9252.574275,0.000000,153.219100
4096.790647,-9770.718434,74.020594,0.000000
4096.790977,-10066.800811,518.144159,76.609550
4096.791307,-9770.718434,592.164754,-689.485948
4096.791637,-10436.903782,444.123565,153.219100
4096.791966,-10584.944971,740.205942,76.609550
4096.792296,-10288.862594,148.041188,-536.266849
4096.792626,-9622.677246,740.205942,-383.047749
4096.792956,-9326.594869,296.082377,-383.047749
4096.793286,-9844.739029,148.041188,0.000000
4096.793616,-9622.677246,518.144159,306.438199
4096.793946,-9622.677246,296.082377,76.609550
4096.794276,-9474.636058,592.164754,612.876398
4096.794605,-9696.697840,518.144159,153.219100
4096.794935,-10066.800811,518.144159,0.000000
4096.795265,-9326.594869,74.020594,-76.609550
4096.795595,-9326.594869,962.267725,612.876398
4096.795925,-10066.800811,666.185348,306.438199
4096.796255,-10436.903782,296.082377,383.047749
4096.796585,-9474.636058,296.082377,-306.438199
4096.796914,-8882.471304,666.185348,76.609550
4096.797244,-9548.656652,592.164754,459.657299
4096.797574,-9622.677246,592.164754,459.657299
4096.797904,-9548.656652,518.144159,-229.828649
4096.798234,-10510.924376,814.226536,0.000000
4096.798564,-10881.027347,888.247130,229.828649
4096.798894,-10807.006753,740.205942,689.485948
4096.799223,-9992.780217,592.164754,0.000000
4096.799553,-9548.656652,814.226536,-766.095498
4096.799883,-9326.594869,740.205942,-153.219100
4096.800213,-9326.594869,148.041188,-306.438199
4096.800543,-9400.615463,592.164754,0.000000
4096.800873,-9696.697840,518.144159,306.438199
4096.801203,-9992.780217,370.102971,459.657299
4096.801532,-9770.718434,0.000000,153.219100
4096.801862,-9474.636058,-148.041188,-689.485948
4096.802192,-9696.697840,0.000000,0.000000
4096.802522,-9696.697840,0.000000,1378.971896
4096.802852,-9770.718434,-296.082377,1608.800546
4096.803182,-9326.594869,-148.041188,1149.143247
4096.803512,-9770.718434,148.041188,1762.019645
4096.803841,-10436.903782,0.000000,612.876398
4096.804171,-10214.842000,0.000000,459.657299
4096.804501,-9918.759623,-592.164754,0.000000
4096.804831,-9622.677246,-296.082377,536.266849
4096.805161,-9104.533087,-592.164754,536.266849
4096.805491,-8734.430116,-666.185348,383.047749
4096.805821,-9474.636058,-296.082377,-306.438199
4096.806150,-9844.739029,74.020594,-153.219100
4096.806480,-10510.924376,0.000000,459.657299
4096.806810,-10362.883188,296.082377,1225.752797
4096.807140,-10807.006753,370.102971,536.266849
4096.807470,-10510.924376,0.000000,919.314598
4096.807800,-9770.718434,-444.123565,229.828649
4096.808130,-9548.656652,-740.205942,383.047749
4096.808460,-9992.780217,-370.102971,689.485948
4096.808789,-9548.656652,-444.123565,766.095498
4096.809119,-9252.574275,-518.144159,1149.143247
4096.809449,-9252.574275,-740.205942,919.314598
4096.809779,-10140.821405,-666.185348,612.876398
4096.810109,-10140.821405,-296.082377,689.485948
4096.810439,-9548.656652,-888.247130,536.266849
4096.810769,-8956.491898,-1184.329507,1072.533697
4096.811098,-9844.739029,-740.205942,1532.190996
4096.811428,-9992.780217,-740.205942,1302.362347
4096.811758,-10214.842000,-444.123565,1149.143247
4096.812088,-9696.697840,-296.082377,383.047749
4096.812418,-10214.842000,148.041188,-383.047749
4096.812748,-10214.842000,0.000000,-153.219100
4096.813078,-9548.656652,0.000000,-459.657299
4096.813407,-8808.450710,74.020594,-459.657299
4096.813737,-9400.615463,-148.041188,-383.047749
4096.814067,-10066.800811,-148.041188,-766.095498
4096.814397,-10066.800811,0.000000,76.609550
4096.814727,-9992.780217,0.000000,-229.828649
4096.815057,-9770.718434,0.000000,-383.047749
4096.815387,-9918.759623,222.061783,153.219100
4096.815716,-9622.677246,222.061783,306.438199
4096.816046,-9252.574275,0.000000,383.047749
4096.816376,-10140.821405,444.123565,995.924147
4096.816706,-10510.924376,370.102971,612.876398
4096.817036,-9992.780217,0.000000,76.609550
4096.817366,-9104.533087,0.000000,-766.095498
4096.817696,-9326.594869,148.041188,-919.314598
4096.818025,-9548.656652,370.102971,-306.438199
4096.818355,-9326.594869,444.123565,-229.828649
4096.818685,-8956.491898,0.000000,-229.828649
4096.819015,-9622.677246,962.267725,0.000000
4096.819345,-10510.924376,888.247130,76.609550
4096.819675,-10807.006753,814.226536,0.000000
4096.820005,-10140.821405,592.164754,229.828649
4096.820335,-9844.739029,592.164754,0.000000
4096.820664,-10214.842000,370.102971,536.266849
4096.820994,-9770.718434,740.205942,689.485948
4096.821324,-9178.553681,444.123565,1149.143247
4096.821654,-9474.636058,740.205942,76.609550
4096.821984,-9918.759623,1110.308913,0.000000
4096.822314,-10436.903782,1184.329507,0.000000
4096.822644,-10214.842000,1036.288319,-536.266849
4096.822973,-9992.780217,740.205942,-842.705048
4096.823303,-10214.842000,814.226536,-76.609550
4096.823633,-9696.697840,518.144159,-536.266849
4096.823963,-9548.656652,296.082377,-229.828649
4096.824293,-9326.594869,0.000000,-76.609550
4096.824623,-9992.780217,148.041188,459.657299
4096.824953,-10288.862594,222.061783,1302.362347
4096.825282,-9992.780217,0.000000,766.095498
4096.825612,-10066.800811,-74.020594,459.657299
4096.825942,-9770.718434,-222.061783,229.828649
4096.826272,-8956.491898,0.000000,153.219100
4096.826602,-9030.512492,0.000000,76.609550
4096.826932,-9400.615463,222.061783,306.438199
4096.827262,-9548.656652,148.041188,459.657299
4096.827591,-9770.718434,74.020594,383.047749
4096.827921,-10288.862594,222.061783,0.000000
4096.828251,-10436.903782,-74.020594,0.000000
4096.828581,-10066.800811,-370.102971,612.876398
4096.828911,-9474.636058,-370.102971,459.657299
4096.829241,-9326.594869,-592.164754,689.485948
4096.829571,-9770.718434,0.000000,306.438199
4096.829900,-10214.842000,-296.082377,842.705048
4096.830230,-9400.615463,0.000000,306.438199
4096.830560,-9770.718434,222.061783,0.000000
4096.830890,-9992.780217,-222.061783,0.000000
4096.831220,-9992.780217,0.000000,0.000000
4096.831550,-9548.656652,-148.041188,0.000000
4096.831880,-9548.656652,-1258.350101,-153.219100
4096.832210,-9326.594869,0.000000,1149.143247
4096.832539,-9918.759623,-444.123565,1302.362347
4096.832869,-10140.821405,-592.164754,919.314598
4096.833199,-9622.677246,-518.144159,0.000000
4096.833529,-10140.821405,-222.061783,-76.609550
4096.833859,-9992.780217,0.000000,-383.047749
4096.834189,-9622.677246,0.000000,0.000000
4096.834519,-9992.780217,-370.102971,1225.752797
4096.834848,-9992.780217,-148.041188,1302.362347
4096.835178,-9548.656652,-370.102971,919.314598
4096.835508,-10288.862594,-148.041188,919.314598
4096.835838,-10658.965565,74.020594,0.000000
4096.836168,-10658.965565,-74.020594,459.657299
4096.836498,-9770.718434,-518.144159,306.438199
4096.836828,-9252.574275,-222.061783,76.609550
4096.837157,-9548.656652,0.000000,306.438199
4096.837487,-9844.739029,370.102971,689.485948
4096.837817,-10066.800811,74.020594,76.609550
4096.838147,-9696.697840,148.041188,306.438199
4096.838477,-9992.780217,296.082377,-76.609550
4096.838807,-10214.842000,-222.061783,0.000000
4096.839137,-9104.533087,-444.123565,0.000000
4096.839466,-8808.450710,-444.123565,76.609550
4096.839796,-8956.491898,-148.041188,536.266849
4096.840126,-9918.759623,74.020594,612.876398
4096.840456,-9918.759623,296.082377,0.000000
4096.840786,-9326.594869,370.102971,153.219100
4096.841116,-9770.718434,666.185348,153.219100
4096.841446,-10288.862594,148.041188,0.000000
4096.841775,-9770.718434,518.144159,-306.438199
4096.842105,-9622.677246,518.144159,-766.095498
4096.842435,-9326.594869,444.123565,-612.876398
4096.842765,-9770.718434,370.102971,0.000000
4096.843095,-9474.636058,296.082377,0.000000
4096.843425,-9326.594869,888.247130,229.828649
4096.843755,-10066.800811,1258.350101,-383.047749
4096.844084,-10732.986159,1184.329507,0.000000
4096.844414,-10214.842000,962.267725,-229.828649
4096.844744,-9548.656652,296.082377,-536.266849
4096.845074,-9770.718434,74.020594,153.219100
4096.845404,-9918.759623,444.123565,1685.410096
4096.845734,-10288.862594,518.144159,1149.143247
4096.846064,-9770.718434,518.144159,229.828649
4096.846394,-9918.759623,740.205942,-536.266849
4096.846723,-10288.862594,888.247130,-459.657299
4096.847053,-10362.883188,740.205942,0.000000
4096.847383,-9770.718434,1110.308913,153.219100
4096.847713,-9548.656652,222.061783,689.485948
4096.848043,-10066.800811,222.061783,383.047749
4096.848373,-10066.800811,444.123565,-76.609550
4096.848703,-10288.862594,222.061783,0.000000
4096.849032,-10214.842000,-222.061783,0.000000
4096.849362,-9770.718434,-296.082377,459.657299
4096.849692,-9622.677246,296.082377,1685.410096
4096.850022,-9326.594869,0.000000,1532.190996
4096.850352,-9992.780217,222.061783,1225.752797
4096.850682,-10584.944971,222.061783,229.828649
4096.851012,-9844.739029,444.123565,153.219100
4096.851341,-9326.594869,0.000000,229.828649
4096.851671,-9104.533087,0.000000,0.000000
4096.852001,-9400.615463,0.000000,0.000000
4096.852331,-9400.615463,0.000000,-689.485948
4096.852661,-9178.553681,-666.185348,-1072.533697
4096.852991,-9622.677246,-370.102971,-612.876398
4096.853321,-9696.697840,-296.082377,383.047749
4096.853650,-10288.862594,-444.123565,766.095498
4096.853980,-10066.800811,0.000000,1608.800546
4096.854310,-9844.739029,-740.205942,689.485948
4096.854640,-9992.780217,-518.144159,689.485948
4096.854970,-9844.739029,-74.020594,306.438199
4096.855300,-9918.759623,-444.123565,842.705048
4096.855630,-10362.883188,0.000000,459.657299
4096.855959,-10436.903782,-222.061783,459.657299
4096.856289,-10066.800811,-370.102971,536.266849
4096.856619,-9474.636058,-444.123565,0.000000
4096.856949,-9770.718434,-74.020594,-536.266849
4096.857279,-10066.800811,-296.082377,536.266849
4096.857609,-9770.718434,0.000000,459.657299
4096.857939,-10066.800811,-296.082377,919.314598
4096.858269,-10436.903782,296.082377,766.095498
4096.858598,-10288.862594,-592.164754,459.657299
4096.858928,-9474.636058,-518.144159,919.314598
4096.859258,-9104.533087,-592.164754,842.705048
4096.859588,-9400.615463,-518.144159,612.876398
4096.859918,-10362.883188,-222.061783,842.705048
4096.860248,-9474.636058,-370.102971,306.438199
4096.860578,-9104.533087,-370.102971,153.219100
4096.860907,-9400.615463,-296.082377,306.438199
4096.861237,-9992.780217,0.000000,1072.533697
4096.861567,-9622.677246,0.000000,842.705048
4096.861897,-9474.636058,-74.020594,0.000000
4096.862227,-9770.718434,74.020594,-306.438199
4096.862557,-10362.883188,222.061783,536.266849
4096.862887,-9992.780217,-296.082377,0.000000
4096.863216,-9104.533087,-222.061783,76.609550
4096.863546,-9178.553681,0.000000,306.438199
4096.863876,-9918.759623,666.185348,1072.533697
4096.864206,-10140.821405,74.020594,536.266849
4096.864535,-9844.739029,222.061783,0.000000
4096.864865,-10066.800811,296.082377,-612.876398
4096.865195,-10288.862594,444.123565,-306.438199
4096.865524,-9696.697840,0.000000,-612.876398
4096.865854,-9104.533087,0.000000,0.000000
4096.866184,-9548.656652,444.123565,612.876398
4096.866513,-10658.965565,0.000000,919.314598
4096.866843,-10362.883188,0.000000,1149.143247
4096.867173,-9770.718434,0.000000,76.609550
4096.867503,-9844.739029,0.000000,0.000000
4096.867832,-10066.800811,370.102971,612.876398
4096.868162,-9844.739029,296.082377,153.219100
4096.868492,-9400.615463,296.082377,0.000000
4096.868821,-9474.636058,296.082377,-306.438199
4096.869151,-9918.759623,148.041188,306.438199
4096.869481,-10288.862594,370.102971,689.485948
4096.869810,-9770.718434,148.041188,0.000000
4096.870140,-9400.615463,0.000000,0.000000
4096.870470,-9770.718434,74.020594,0.000000
4096.870800,-9622.677246,0.000000,0.000000
4096.871129,-9400.615463,74.020594,459.657299
4096.871459,-9696.697840,592.164754,76.609550
4096.871789,-9918.759623,962.267725,536.266849
4096.872118,-9474.636058,888.247130,842.705048
4096.872448,-10066.800811,962.267725,229.828649
4096.872778,-9844.739029,222.061783,-612.876398
4096.873107,-10510.924376,592.164754,-459.657299
4096.873437,-9992.780217,444.123565,-689.485948
4096.873767,-9548.656652,370.102971,689.485948
4096.874096,-9326.594869,74.020594,153.219100
4096.874426,-9104.533087,444.123565,306.438199
4096.874756,-8882.471304,444.123565,229.828649
4096.875086,-9474.636058,1258.350101,-536.266849
4096.875415,-10362.883188,962.267725,0.000000
4096.875745,-10658.965565,1184.329507,153.219100
4096.876075,-10807.006753,814.226536,0.000000
4096.876404,-10436.903782,222.061783,229.828649
4096.876734,-10288.862594,74.020594,536.266849
4096.877064,-9696.697840,148.041188,0.000000
4096.877393,-9104.533087,148.041188,76.609550
4096.877723,-9104.533087,666.185348,-229.828649
4096.878053,-10066.800811,1036.288319,383.047749
4096.878383,-10510.924376,888.247130,0.000000
4096.878712,-10436.903782,666.185348,0.000000
4096.879042,-10066.800811,444.123565,229.828649
4096.879372,-9770.718434,148.041188,459.657299
4096.879701,-9622.677246,0.000000,153.219100
4096.880031,-9548.656652,-222.061783,229.828649
4096.880361,-9844.739029,-74.020594,0.000000
4096.880690,-9474.636058,0.000000,536.266849
4096.881020,-9696.697840,74.020594,0.000000
4096.881350,-9844.739029,222.061783,229.828649
4096.881679,-9622.677246,-444.123565,459.657299
4096.882009,-10066.800811,0.000000,306.438199
4096.882339,-10214.842000,-592.164754,842.705048
4096.882669,-9474.636058,-666.185348,306.438199
4096.882998,-8882.471304,-814.226536,0.000000
4096.883328,-9474.636058,-666.185348,459.657299
4096.883658,-9548.656652,0.000000,1149.143247
4096.883987,-9326.594869,0.000000,0.000000
4096.884317,-9770.718434,-370.102971,153.219100
4096.884647,-10140.821405,-518.144159,689.485948
4096.884976,-10732.986159,-592.164754,1608.800546
4096.885306,-10214.842000,-1184.329507,1915.238745
4096.885636,-9474.636058,-1036.288319,689.485948
4096.885965,-9252.574275,-1110.308913,766.095498
4096.886295,-9474.636058,-962.267725,0.000000
4096.886625,-10288.862594,-296.082377,153.219100
4096.886955,-10066.800811,-592.164754,383.047749
4096.887284,-10510.924376,-444.123565,842.705048
4096.887614,-10288.862594,-444.123565,1302.362347
4096.887944,-10066.800811,-740.205942,1915.238745
4096.888273,-9844.739029,-1110.308913,383.047749
4096.888603,-10066.800811,-814.226536,995.924147
4096.888933,-9992.780217,-814.226536,766.095498
4096.889262,-9770.718434,-592.164754,919.314598
4096.889592,-9548.656652,-888.247130,919.314598
4096.889922,-10066.800811,-370.102971,1072.533697
4096.890252,-10214.842000,-296.082377,995.924147
4096.890581,-10066.800811,-518.144159,383.047749
4096.890911,-10066.800811,0.000000,-612.876398
4096.891241,-9548.656652,-222.061783,0.000000
4096.891570,-9326.594869,0.000000,-153.219100
4096.891900,-9252.574275,-518.144159,76.609550
4096.892230,-9548.656652,-222.061783,689.485948
4096.892559,-10436.903782,0.000000,76.609550
4096.892889,-10214.842000,-74.020594,76.609550
4096.893219,-9622.677246,0.000000,0.000000
4096.893548,-9770.718434,148.041188,459.657299
4096.893878,-9548.656652,0.000000,306.438199
4096.894208,-9104.533087,-148.041188,153.219100
4096.894538,-9030.512492,296.082377,229.828649
4096.894867,-9622.677246,-148.041188,76.609550
4096.895197,-9992.780217,0.000000,153.219100
4096.895527,-9400.615463,370.102971,0.000000
4096.895856,-9622.677246,666.185348,383.047749
4096.896186,-10362.883188,962.267725,0.000000
4096.896516,-10658.965565,1036.288319,306.438199
4096.896845,-10436.903782,1036.288319,-766.095498
4096.897175,-9178.553681,370.102971,-842.705048
4096.897505,-9252.574275,666.185348,-383.047749
4096.897835,-9918.759623,740.205942,459.657299
4096.898164,-10214.842000,1036.288319,766.095498
4096.898494,-9918.759623,740.205942,536.266849
4096.898824,-10140.821405,666.185348,0.000000
4096.899153,-10288.862594,1110.308913,383.047749
4096.899483,-9992.780217,518.144159,0.000000
4096.899813,-9696.697840,888.247130,306.438199
4096.900142,-9326.594869,370.102971,766.095498
4096.900472,-9622.677246,592.164754,689.485948
4096.900802,-9548.656652,1036.288319,229.828649
4096.901131,-9622.677246,592.164754,229.828649
4096.901461,-9548.656652,296.082377,-383.047749
4096.901791,-9918.759623,814.226536,383.047749
4096.902121,-9844.739029,0.000000,689.485948
4096.902450,-9474.636058,370.102971,0.000000
4096.902780,-9474.636058,148.041188,459.657299
4096.903110,-9474.636058,222.061783,689.485948
4096.903439,-9474.636058,666.185348,383.047749
4096.903769,-9474.636058,222.061783,0.000000
4096.904099,-9844.739029,296.082377,-383.047749
4096.904428,-10288.862594,370.102971,0.000000
4096.904758,-9400.615463,296.082377,459.657299
4096.905088,-9696.697840,-370.102971,536.266849
4096.905418,-9992.780217,0.000000,153.219100
4096.905747,-10140.821405,0.000000,76.609550
4096.906077,-10140.821405,-296.082377,229.828649
4096.906407,-9992.780217,-444.123565,1072.533697
4096.906736,-9844.739029,-592.164754,766.095498
4096.907066,-9696.697840,-518.144159,766.095498
4096.907396,-9400.615463,-666.185348,0.000000
4096.907725,-9474.636058,-370.102971,153.219100
4096.908055,-10066.800811,-666.185348,153.219100
4096.908385,-10288.862594,-962.267725,919.314598
4096.908714,-9474.636058,-740.205942,995.924147
4096.909044,-9474.636058,-888.247130,383.047749
4096.909374,-9474.636058,-444.123565,-612.876398
4096.909704,-9918.759623,-666.185348,153.219100
4096.910033,-10066.800811,-666.185348,0.000000
4096.910363,-9992.780217,-592.164754,766.095498
4096.910693,-10584.944971,-518.144159,995.924147
4096.911022,-10288.862594,-518.144159,612.876398
4096.911352,-9548.656652,-592.164754,153.219100
4096.911682,-9400.615463,-518.144159,-459.657299
4096.912011,-10140.821405,-962.267725,-459.657299
4096.912341,-10510.924376,-222.061783,0.000000
4096.912671,-9844.739029,-444.123565,383.047749
4096.913000,-9474.636058,74.020594,229.828649
4096.913330,-9622.677246,-370.102971,76.609550
4096.913660,-9326.594869,-74.020594,-383.047749
4096.913990,-9400.615463,-444.123565,383.047749
4096.914319,-9770.718434,-222.061783,612.876398
4096.914649,-10584.944971,0.000000,1072.533697
4096.914979,-10066.800811,-370.102971,536.266849
4096.915308,-9030.512492,222.061783,-459.657299
4096.915638,-8734.430116,370.102971,-459.657299
4096.915968,-10362.883188,962.267725,0.000000
4096.916297,-10436.903782,444.123565,0.000000
4096.916627,-9844.739029,1332.370696,76.609550
4096.916957,-9400.615463,1184.329507,76.609550
4096.917287,-10658.965565,1036.288319,153.219100
4096.917616,-10510.924376,666.185348,76.609550
4096.917946,-9548.656652,444.123565,-536.266849
4096.918276,-8882.471304,666.185348,-306.438199
4096.918605,-9400.615463,592.164754,0.000000
4096.918935,-10066.800811,962.267725,536.266849
4096.919265,-9696.697840,814.226536,766.095498
4096.919594,-9696.697840,888.247130,459.657299
4096.919924,-10362.883188,1258.350101,689.485948
4096.920254,-10214.842000,962.267725,536.266849
4096.920583,-9400.615463,148.041188,-76.609550
4096.920913,-9178.553681,740.205942,306.438199
4096.921243,-9770.718434,814.226536,919.314598
4096.921573,-9992.780217,1110.308913,612.876398
4096.921902,-9252.574275,888.247130,0.000000
4096.922232,-8734.430116,592.164754,-1072.533697
4096.922562,-9992.780217,1258.350101,-459.657299
4096.922891,-10214.842000,814.226536,0.000000
4096.923221,-9696.697840,296.082377,536.266849
4096.923551,-8734.430116,0.000000,536.266849
4096.923880,-9548.656652,296.082377,1149.143247
4096.924210,-9918.759623,666.185348,1225.752797
4096.924540,-9474.636058,296.082377,536.266849
4096.924870,-9474.636058,444.123565,-306.438199
4096.925199,-10066.800811,370.102971,-229.828649
4096.925529,-10807.006753,518.144159,229.828649
4096.925859,-10066.800811,74.020594,0.000000
4096.926188,-9178.553681,-148.041188,-459.657299
4096.926518,-9326.594869,74.020594,-612.876398
4096.926848,-9548.656652,0.000000,-459.657299
4096.927177,-9918.759623,0.000000,0.000000
4096.927507,-9992.780217,0.000000,0.000000
4096.927837,-10362.883188,-148.041188,229.828649
4096.928166,-11177.109724,-148.041188,76.609550
4096.928496,-9992.780217,-592.164754,-76.609550
4096.928826,-9770.718434,-1258.350101,-306.438199
4096.929156,-9918.759623,-1036.288319,689.485948
4096.929485,-9622.677246,-1184.329507,995.924147
4096.929815,-9400.615463,-1110.308913,1225.752797
4096.930145,-9400.615463,-814.226536,536.266849
4096.930474,-9622.677246,-888.247130,459.657299
4096.930804,-10140.821405,-296.082377,0.000000
4096.931134,-9844.739029,-740.205942,0.000000
4096.931463,-9548.656652,-1258.350101,306.438199
4096.931793,-9178.553681,-888.247130,995.924147
4096.932123,-9992.780217,-518.144159,1302.362347
4096.932453,-9992.780217,-740.205942,612.876398
4096.932782,-9770.718434,-888.247130,-689.485948
4096.933112,-9918.759623,-888.247130,-459.657299
4096.933442,-10214.842000,-370.102971,-229.828649
4096.933771,-9770.718434,-592.164754,76.609550
4096.934101,-9474.636058,-888.247130,459.657299
4096.934431,-9622.677246,-444.123565,766.095498
4096.934760,-9992.780217,0.000000,1072.533697
4096.935090,-9918.759623,-518.144159,459.657299
4096.935420,-9696.697840,-666.185348,0.000000
4096.935749,-9622.677246,-370.102971,766.095498
4096.936079,-9252.574275,-296.082377,1072.533697
4096.936409,-9326.594869,-222.061783,536.266849
4096.936739,-9474.636058,-518.144159,229.828649
4096.937068,-9548.656652,-370.102971,153.219100
4096.937398,-9548.656652,-148.041188,536.266849
4096.937728,-9474.636058,0.000000,995.924147
4096.938057,-9992.780217,444.123565,842.705048
4096.938387,-9622.677246,222.061783,1225.752797
4096.938717,-9696.697840,444.123565,153.219100
4096.939046,-9400.615463,370.102971,0.000000
4096.939376,-9696.697840,296.082377,-153.219100
4096.939706,-10066.800811,962.267725,0.000000
4096.940035,-9844.739029,814.226536,229.828649
4096.940365,-9474.636058,740.205942,612.876398
4096.940695,-9548.656652,370.102971,612.876398
4096.941025,-9992.780217,1036.288319,459.657299
4096.941354,-10214.842000,1110.308913,-383.047749
4096.941684,-9918.759623,814.226536,-766.095498
4096.942014,-9696.697840,962.267725,0.000000
4096.942343,-10288.862594,888.247130,383.047749
4096.942673,-10510.924376,1110.308913,766.095498
4096.943003,-10288.862594,666.185348,459.657299
4096.943332,-9474.636058,962.267725,-919.314598
4096.943662,-9252.574275,444.123565,-459.657299
4096.943992,-9548.656652,740.205942,-536.266849
4096.944322,-9548.656652,148.041188,-306.438199
4096.944651,-10066.800811,518.144159,689.485948
4096.944981,-10584.944971,666.185348,612.876398
4096.945311,-10214.842000,74.020594,689.485948
4096.945640,-9548.656652,-370.102971,0.000000
4096.945970,-9252.574275,-370.102971,-383.047749
4096.946300,-9104.533087,0.000000,76.609550
4096.946629,-9178.553681,296.082377,0.000000
4096.946959,-9770.718434,74.020594,-536.266849
4096.947289,-9844.739029,444.123565,-689.485948
4096.947618,-10288.862594,0.000000,-383.047749
4096.947948,-10510.924376,0.000000,306.438199
4096.948278,-9770.718434,-814.226536,153.219100
4096.948608,-9104.533087,-666.185348,76.609550
4096.948937,-8808.450710,-444.123565,1072.533697
4096.949267,-9622.677246,-370.102971,383.047749
4096.949597,-9992.780217,-370.102971,383.047749
4096.949926,-10066.800811,0.000000,229.828649
4096.950256,-9992.780217,74.020594,229.828649
4096.950586,-9992.780217,74.020594,536.266849
4096.950915,-9548.656652,-518.144159,459.657299
4096.951245,-9622.677246,-740.205942,-229.828649
4096.951575,-9474.636058,-444.123565,-766.095498
4096.951905,-9474.636058,0.000000,-1302.362347
4096.952234,-9548.656652,74.020594,-919.314598
4096.952564,-9178.553681,74.020594,-689.485948
4096.952894,-9622.677246,296.082377,-306.438199
4096.953223,-10658.965565,148.041188,1149.143247
4096.953553,-10732.986159,0.000000,919.314598
4096.953883,-10214.842000,0.000000,459.657299
4096.954212,-9770.718434,0.000000,0.000000
4096.954542,-8956.491898,0.000000,-306.438199
4096.954872,-9030.512492,0.000000,229.828649
4096.955201,-10066.800811,444.123565,842.705048
4096.955531,-10510.924376,814.226536,383.047749
4096.955861,-10288.862594,0.000000,612.876398
4096.956191,-10362.883188,222.061783,612.876398
4096.956520,-9844.739029,-592.164754,766.095498
4096.956850,-9548.656652,0.000000,1225.752797
4096.957180,-9474.636058,148.041188,536.266849
4096.957509,-9548.656652,148.041188,229.828649
4096.957839,-9474.636058,296.082377,229.828649
4096.958169,-9622.677246,222.061783,153.219100
4096.958498,-10288.862594,222.061783,919.314598
4096.958828,-9918.759623,148.041188,919.314598
4096.959158,-9770.718434,0.000000,612.876398
4096.959488,-9326.594869,-222.061783,153.219100
4096.959817,-8808.450710,370.102971,76.609550
4096.960147,-8882.471304,0.000000,536.266849
4096.960477,-9844.739029,296.082377,383.047749
4096.960806,-10214.842000,888.247130,383.047749
4096.961136,-10658.965565,222.061783,536.266849
4096.961466,-11029.068536,148.041188,0.000000
4096.961795,-10140.821405,-222.061783,229.828649
4096.962125,-9622.677246,0.000000,306.438199
4096.962455,-8882.471304,74.020594,383.047749
4096.962784,-9178.553681,0.000000,766.095498
4096.963114,-9474.636058,74.020594,842.705048
4096.963444,-9992.780217,592.164754,0.000000
4096.963773,-9770.718434,222.061783,0.000000
4096.964103,-10066.800811,370.102971,-766.095498
4096.964432,-9918.759623,74.020594,-842.705048
4096.964762,-9178.553681,222.061783,-76.609550
4096.965092,-9030.512492,-148.041188,-842.705048
4096.965421,-9548.656652,-518.144159,-383.047749
4096.965751,-10140.821405,-296.082377,766.095498
4096.966081,-10288.862594,0.000000,995.924147
4096.966410,-9844.739029,74.020594,612.876398
4096.966740,-9474.636058,148.041188,383.047749
4096.967069,-9844.739029,148.041188,0.000000
4096.967399,-9918.759623,518.144159,-459.657299
4096.967729,-10288.862594,592.164754,-536.266849
4096.968058,-10362.883188,296.082377,-306.438199
4096.968388,-10288.862594,296.082377,-306.438199
4096.968718,-9992.780217,296.082377,-1302.362347
4096.969047,-9326.594869,74.020594,-383.047749
4096.969377,-9622.677246,148.041188,-153.219100
4096.969706,-9844.739029,0.000000,689.485948
4096.970036,-9992.780217,0.000000,536.266849
4096.970366,-9696.697840,0.000000,306.438199
4096.970695,-9992.780217,-148.041188,459.657299
4096.971025,-10066.800811,-370.102971,459.657299
4096.971354,-9622.677246,-296.082377,919.314598
4096.971684,-8438.347739,-518.144159,1685.410096
4096.972014,-9326.594869,-148.041188,919.314598
4096.972343,-10288.862594,148.041188,919.314598
4096.972673,-11103.089130,0.000000,-229.828649
4096.973003,-9770.718434,0.000000,-383.047749
4096.973332,-9104.533087,0.000000,153.219100
4096.973662,-9474.636058,0.000000,766.095498
4096.973991,-9474.636058,222.061783,689.485948
4096.974321,-9252.574275,0.000000,153.219100
4096.974651,-9474.636058,0.000000,-153.219100
4096.974980,-10140.821405,296.082377,153.219100
4096.975310,-10658.965565,518.144159,-383.047749
4096.975640,-9992.780217,222.061783,-76.609550
4096.975969,-9474.636058,518.144159,229.828649
4096.976299,-9474.636058,0.000000,612.876398
4096.976628,-9770.718434,296.082377,1149.143247
4096.976958,-9548.656652,0.000000,766.095498
4096.977288,-9326.594869,370.102971,229.828649
4096.977617,-9696.697840,296.082377,1455.581446
4096.977947,-10140.821405,222.061783,536.266849
4096.978276,-9474.636058,74.020594,0.000000
4096.978606,-9178.553681,222.061783,-689.485948
4096.978936,-10066.800811,518.144159,383.047749
4096.979265,-9992.780217,444.123565,995.924147
4096.979595,-9918.759623,444.123565,1149.143247
4096.979925,-9548.656652,0.000000,766.095498
4096.980254,-9918.759623,370.102971,766.095498
4096.980584,-10140.821405,148.041188,0.000000
4096.980913,-9844.739029,444.123565,0.000000
4096.981243,-9992.780217,222.061783,-153.219100
4096.981573,-9918.759623,222.061783,459.657299
4096.981902,-10510.924376,-74.020594,842.705048
4096.982232,-9992.780217,0.000000,229.828649
4096.982561,-9474.636058,-296.082377,-842.705048
4096.982891,-9696.697840,148.041188,-459.657299
4096.983221,-9474.636058,-592.164754,-383.047749
4096.983550,-9104.533087,-296.082377,0.000000
4096.983880,-9252.574275,0.000000,229.828649
4096.984210,-10436.903782,0.000000,1532.190996
4096.984539,-10955.047942,0.000000,919.314598
4096.984869,-9844.739029,-1036.288319,919.314598
4096.985198,-10066.800811,-666.185348,229.828649
4096.985528,-9992.780217,-740.205942,536.266849
4096.985858,-9918.759623,-518.144159,76.609550
4096.986187,-8586.388927,-814.226536,-383.047749
4096.986517,-8586.388927,0.000000,-383.047749
4096.986847,-9696.697840,296.082377,0.000000
4096.987176,-10732.986159,296.082377,-229.828649
4096.987506,-11029.068536,444.123565,153.219100
4096.987835,-10510.924376,0.000000,0.000000
4096.988165,-10658.965565,-592.164754,536.266849
4096.988495,-10362.883188,-518.144159,1072.533697
4096.988824,-9474.636058,-592.164754,153.219100
4096.989154,-9178.553681,-370.102971,0.000000
4096.989483,-9696.697840,0.000000,0.000000
4096.989813,-10066.800811,296.082377,842.705048
4096.990143,-9918.759623,74.020594,1225.752797
4096.990472,-10955.047942,962.267725,842.705048
4096.990802,-10732.986159,74.020594,306.438199
4096.991132,-9844.739029,-74.020594,-1225.752797
4096.991461,-8956.491898,-444.123565,-1685.410096
4096.991791,-9178.553681,0.000000,-1149.143247
4096.992120,-9400.615463,0.000000,-383.047749
4096.992450,-9178.553681,-222.061783,383.047749
4096.992780,-8882.471304,-148.041188,383.047749
4096.993109,-9474.636058,74.020594,766.095498
4096.993439,-10288.862594,0.000000,306.438199
4096.993769,-10140.821405,74.020594,306.438199
4096.994098,-9474.636058,74.020594,459.657299
4096.994428,-9400.615463,148.041188,612.876398
4096.994757,-9326.594869,296.082377,536.266849
4096.995087,-9844.739029,444.123565,689.485948
4096.995417,-9622.677246,296.082377,0.000000
4096.995746,-9696.697840,592.164754,-459.657299
4096.996076,-10214.842000,962.267725,-306.438199
4096.996405,-9844.739029,962.267725,-612.876398
4096.996735,-9696.697840,148.041188,-459.657299
4096.997065,-9622.677246,518.144159,-536.266849
4096.997394,-9474.636058,592.164754,0.000000
4096.997724,-9548.656652,592.164754,919.314598
4096.998054,-9104.533087,370.102971,1302.362347
4096.998383,-10288.862594,296.082377,1225.752797
4096.998713,-10658.965565,740.205942,842.705048
4096.999042,-10214.842000,296.082377,153.219100
4096.999372,-10140.821405,222.061783,76.609550
4096.999702,-9918.759623,148.041188,459.657299
4097.000031,-9622.677246,444.123565,1302.362347
4097.000361,-9696.697840,0.000000,1072.533697
4097.000691,-9918.759623,148.041188,383.047749
4097.001020,-10214.842000,148.041188,229.828649
4097.001350,-10066.800811,444.123565,536.266849
4097.001679,-9918.759623,370.102971,-153.219100
4097.002009,-9474.636058,222.061783,0.000000
4097.002339,-9918.759623,0.000000,383.047749
4097.002668,-10066.800811,222.061783,459.657299
4097.002998,-9548.656652,0.000000,612.876398
4097.003327,-9474.636058,74.020594,76.609550
4097.003657,-9770.718434,0.000000,0.000000
4097.003987,-9844.739029,0.000000,612.876398
4097.004316,-9030.512492,0.000000,306.438199
4097.004646,-9252.574275,-74.020594,76.609550
4097.004976,-9400.615463,370.102971,-536.266849
4097.005305,-9770.718434,592.164754,-229.828649
4097.005635,-9918.759623,370.102971,0.000000
4097.005964,-9844.739029,74.020594,0.000000
4097.006294,-10881.027347,0.000000,-612.876398
4097.006624,-10510.924376,-148.041188,-689.485948
4097.006953,-9474.636058,-444.123565,-612.876398
4097.007283,-8438.347739,-814.226536,0.000000
4097.007613,-9400.615463,-592.164754,536.266849
4097.007942,-9548.656652,-296.082377,919.314598
4097.008272,-9252.574275,-592.164754,153.219100
4097.008601,-9844.739029,0.000000,153.219100
4097.008931,-10584.944971,0.000000,229.828649
4097.009261,-10807.006753,148.041188,842.705048
4097.009590,-9696.697840,0.000000,536.266849
4097.009920,-9622.677246,-518.144159,153.219100
4097.010249,-9992.780217,-666.185348,0.000000
4097.010579,-9548.656652,-444.123565,0.000000
4097.010909,-9474.636058,-444.123565,0.000000
4097.011238,-9770.718434,0.000000,-229.828649
4097.011568,-10066.800811,296.082377,-459.657299
4097.011898,-9696.697840,0.000000,153.219100
4097.012227,-9104.533087,148.041188,-153.219100
4097.012557,-9400.615463,-296.082377,383.047749
4097.012886,-10436.903782,-222.061783,842.705048
4097.013216,-10510.924376,74.020594,1762.019645
4097.013546,-9918.759623,-74.020594,1302.362347
4097.013875,-9696.697840,0.000000,1225.752797
4097.014205,-9474.636058,-296.082377,459.657299
4097.014534,-9548.656652,148.041188,0.000000
4097.014864,-8882.471304,0.000000,-459.657299
4097.015194,-9696.697840,0.000000,0.000000
4097.015523,-9474.636058,74.020594,306.438199
4097.015853,-9622.677246,0.000000,0.000000
4097.016183,-9918.759623,0.000000,689.485948
4097.016512,-9770.718434,0.000000,306.438199
4097.016842,-10288.862594,-296.082377,612.876398
4097.017171,-9622.677246,518.144159,612.876398
4097.017501,-9104.533087,0.000000,76.609550
4097.017831,-9474.636058,296.082377,459.657299
4097.018160,-10436.903782,370.102971,1302.362347
4097.018490,-11177.109724,518.144159,1608.800546
4097.018820,-10807.006753,222.061783,1072.533697
4097.019149,-10140.821405,0.000000,-229.828649
4097.019479,-9844.739029,-222.061783,0.000000
4097.019808,-9252.574275,148.041188,0.000000
4097.020138,-8660.409521,0.000000,0.000000
4097.020468,-9400.615463,370.102971,153.219100
4097.020797,-10066.800811,740.205942,153.219100
4097.021127,-10807.006753,666.185348,-229.828649
4097.021456,-9622.677246,444.123565,-306.438199
4097.021786,-9622.677246,296.082377,-383.047749
4097.022116,-10436.903782,370.102971,459.657299
4097.022445,-10510.924376,0.000000,229.828649
4097.022775,-9622.677246,-518.144159,-612.876398
4097.023105,-9474.636058,-518.144159,-842.705048
4097.023434,-10140.821405,-518.144159,383.047749
4097.023764,-10140.821405,-518.144159,1455.581446
4097.024093,-9326.594869,-222.061783,1225.752797
4097.024423,-9326.594869,-296.082377,612.876398
4097.024753,-9770.718434,0.000000,76.609550
4097.025082,-10658.965565,-222.061783,76.609550
4097.025412,-9770.718434,-444.123565,0.000000
4097.025742,-9178.553681,-148.041188,612.876398
4097.026071,-9252.574275,-592.164754,383.047749
4097.026401,-9770.718434,-370.102971,383.047749
4097.026730,-9622.677246,-740.205942,76.609550
4097.027060,-9178.553681,-740.205942,-612.876398
4097.027390,-8734.430116,-444.123565,0.000000
4097.027719,-9770.718434,148.041188,995.924147
4097.028049,-9918.759623,222.061783,459.657299
4097.028378,-9844.739029,0.000000,0.000000
4097.028708,-9622.677246,518.144159,-306.438199
4097.029038,-9844.739029,666.185348,-229.828649
4097.029367,-10362.883188,814.226536,153.219100
4097.029697,-10732.986159,1110.308913,0.000000
4097.030027,-10436.903782,962.267725,-766.095498
4097.030356,-10214.842000,518.144159,-689.485948
4097.030686,-9770.718434,296.082377,-842.705048
4097.031015,-9770.718434,0.000000,-459.657299
4097.031345,-9918.759623,592.164754,383.047749
4097.031675,-9474.636058,296.082377,842.705048
4097.032004,-9918.759623,148.041188,1149.143247
4097.032334,-10066.800811,74.020594,229.828649
4097.032664,-9992.780217,296.082377,612.876398
4097.032993,-9992.780217,518.144159,995.924147
4097.033323,-10066.800811,296.082377,842.705048
4097.033652,-9844.739029,74.020594,1378.971896
4097.033982,-9474.636058,296.082377,459.657299
4097.034312,-9400.615463,592.164754,-689.485948
4097.034641,-9474.636058,74.020594,-153.219100
4097.034971,-9696.697840,0.000000,76.609550
4097.035300,-9770.718434,296.082377,919.314598
4097.035630,-9918.759623,740.205942,1072.533697
4097.035960,-9474.636058,0.000000,689.485948
4097.036289,-9474.636058,148.041188,76.609550
4097.036619,-9178.553681,0.000000,-766.095498
4097.036949,-9696.697840,296.082377,-383.047749
4097.037278,-9622.677246,148.041188,0.000000
4097.037608,-9622.677246,-222.061783,459.657299
4097.037937,-9918.759623,148.041188,612.876398
4097.038267,-9474.636058,-370.102971,0.000000
4097.038597,-9474.636058,-148.041188,76.609550
4097.038926,-9178.553681,-444.123565,0.000000
4097.039256,-9400.615463,-666.185348,0.000000
4097.039586,-9696.697840,0.000000,1225.752797
4097.039915,-10140.821405,-148.041188,1225.752797
4097.040245,-10658.965565,0.000000,0.000000
4097.040574,-9474.636058,74.020594,-229.828649
4097.040904,-9696.697840,-370.102971,-383.047749
4097.041234,-10066.800811,-148.041188,-229.828649
4097.041563,-9992.780217,-444.123565,0.000000
4097.041893,-9770.718434,-370.102971,0.000000
4097.042222,-9252.574275,0.000000,766.095498
4097.042552,-10510.924376,0.000000,383.047749
4097.042882,-10807.006753,222.061783,459.657299
4097.043211,-10288.862594,0.000000,383.047749
4097.043541,-9474.636058,-296.082377,536.266849
4097.043871,-9474.636058,-296.082377,459.657299
4097.044200,-9992.780217,296.082377,1225.752797
4097.044530,-10214.842000,0.000000,919.314598
4097.044859,-10066.800811,0.000000,536.266849
4097.045189,-9844.739029,-518.144159,-153.219100
4097.045519,-9770.718434,148.041188,-536.266849
4097.045848,-9770.718434,-296.082377,306.438199
4097.046178,-9178.553681,0.000000,0.000000
4097.046508,-9104.533087,-592.164754,612.876398
4097.046837,-9696.697840,74.020594,689.485948
4097.047167,-10436.903782,296.082377,229.828649
4097.047496,-9992.780217,222.061783,0.000000
4097.047826,-9844.739029,222.061783,-153.219100
4097.048156,-9992.780217,0.000000,306.438199
4097.048485,-9844.739029,148.041188,919.314598
4097.048815,-9252.574275,0.000000,76.609550
4097.049144,-8882.471304,222.061783,0.000000
4097.049474,-9918.759623,444.123565,459.657299
4097.049804,-10288.862594,518.144159,383.047749
4097.050133,-10288.862594,74.020594,0.000000
4097.050463,-9844.739029,74.020594,-229.828649
4097.050793,-9992.780217,296.082377,0.000000
4097.051122,-9918.759623,592.164754,306.438199
4097.051452,-8808.450710,370.102971,0.000000
4097.051781,-9400.615463,592.164754,-306.438199
4097.052111,-10881.027347,740.205942,612.876398
4097.052441,-10955.047942,518.144159,153.219100
4097.052770,-10288.862594,0.000000,229.828649
4097.053100,-8734.430116,-74.020594,0.000000
4097.053429,-9400.615463,0.000000,919.314598
4097.053759,-9992.780217,0.000000,1838.629195
4097.054089,-9770.718434,-222.061783,612.876398
4097.054418,-9474.636058,0.000000,0.000000
4097.054748,-9548.656652,0.000000,306.438199
4097.055078,-10214.842000,444.123565,689.485948
4097.055407,-10066.800811,222.061783,919.314598
4097.055737,-9400.615463,-296.082377,383.047749
4097.056066,-9474.636058,148.041188,229.828649
4097.056396,-10066.800811,296.082377,-153.219100
4097.056726,-9696.697840,148.041188,-689.485948
4097.057055,-8808.450710,-148.041188,-76.609550
4097.057385,-9400.615463,0.000000,1072.533697
4097.057715,-10510.924376,74.020594,1302.362347
4097.058044,-9992.780217,-296.082377,536.266849
4097.058374,-8660.409521,0.000000,-1378.971896
4097.058703,-9474.636058,370.102971,0.000000
4097.059033,-10362.883188,666.185348,612.876398
4097.059363,-10584.944971,370.102971,306.438199
4097.059692,-9992.780217,592.164754,-306.438199
4097.060022,-10140.821405,222.061783,0.000000
4097.060351,-10214.842000,0.000000,-842.705048
4097.060681,-9770.718434,0.000000,-536.266849
4097.061011,-8734.430116,0.000000,-306.438199
4097.061340,-9622.677246,444.123565,766.095498
4097.061670,-10214.842000,666.185348,0.000000
4097.062000,-10436.903782,444.123565,-536.266849
4097.062329,-10436.903782,148.041188,-383.047749
4097.062659,-10658.965565,222.061783,766.095498
4097.062988,-10584.944971,-148.041188,1991.848295
4097.063318,-10140.821405,-444.123565,1225.752797
4097.063648,-9252.574275,-740.205942,0.000000
4097.063977,-9178.553681,-444.123565,76.609550
4097.064307,-9474.636058,-148.041188,-229.828649
4097.064637,-9474.636058,296.082377,459.657299
4097.064966,-9770.718434,222.061783,919.314598
4097.065296,-10436.903782,0.000000,459.657299
4097.065625,-10140.821405,-518.144159,229.828649
4097.065955,-9622.677246,-666.185348,766.095498
4097.066285,-9548.656652,-814.226536,0.000000
4097.066614,-9844.739029,-296.082377,536.266849
4097.066944,-9474.636058,74.020594,842.705048
4097.067274,-9178.553681,296.082377,995.924147
4097.067603,-9474.636058,0.000000,0.000000
4097.067933,-10288.862594,0.000000,0.000000
4097.068263,-9918.759623,0.000000,383.047749
4097.068592,-9474.636058,0.000000,383.047749
4097.068922,-9474.636058,370.102971,0.000000
4097.069252,-9548.656652,74.020594,-153.219100
4097.069581,-10066.800811,518.144159,-76.609550
4097.069911,-9474.636058,148.041188,0.000000
4097.070241,-9696.697840,296.082377,-306.438199
4097.070570,-9622.677246,222.061783,306.438199
4097.070900,-9844.739029,222.061783,229.828649
4097.071230,-9622.677246,444.123565,76.609550
4097.071559,-9844.739029,148.041188,-306.438199
4097.071889,-10362.883188,222.061783,76.609550
4097.072219,-10066.800811,0.000000,306.438199
4097.072548,-9030.512492,0.000000,689.485948
4097.072878,-9474.636058,0.000000,842.705048
4097.073208,-9770.718434,148.041188,919.314598
4097.073537,-10066.800811,296.082377,766.095498
4097.073867,-10362.883188,444.123565,995.924147
4097.074196,-10510.924376,666.185348,229.828649
4097.074526,-10288.862594,0.000000,536.266849
4097.074856,-9178.553681,0.000000,0.000000
4097.075185,-8438.347739,0.000000,-536.266849
4097.075515,-9548.656652,148.041188,-306.438199
4097.075845,-10214.842000,666.185348,0.000000
4097.076174,-10140.821405,370.102971,0.000000
4097.076504,-9844.739029,0.000000,0.000000
4097.076834,-10066.800811,0.000000,-459.657299
4097.077163,-10140.821405,-148.041188,76.609550
4097.077493,-8956.491898,-518.144159,383.047749
4097.077823,-8660.409521,-444.123565,766.095498
4097.078152,-9474.636058,-296.082377,842.705048
4097.078482,-10288.862594,370.102971,919.314598
4097.078812,-10658.965565,444.123565,1225.752797
4097.079141,-9992.780217,74.020594,229.828649
4097.079471,-9992.780217,0.000000,-229.828649
4097.079801,-10066.800811,148.041188,0.000000
4097.080130,-9844.739029,-222.061783,153.219100
4097.080460,-8956.491898,-296.082377,0.000000
4097.080790,-9030.512492,0.000000,0.000000
4097.081119,-9770.718434,740.205942,0.000000
4097.081449,-10214.842000,592.164754,0.000000
4097.081779,-10510.924376,444.123565,-612.876398
4097.082108,-10658.965565,148.041188,-536.266849
4097.082438,-10510.924376,0.000000,0.000000
4097.082767,-9474.636058,-222.061783,0.000000
4097.083097,-8734.430116,74.020594,76.609550
4097.083427,-9030.512492,-296.082377,306.438199
4097.083756,-9770.718434,370.102971,536.266849
4097.084086,-10362.883188,0.000000,459.657299
4097.084416,-10658.965565,-222.061783,0.000000
4097.084745,-9918.759623,222.061783,153.219100
4097.085075,-10066.800811,-370.102971,766.095498
4097.085405,-9474.636058,-296.082377,306.438199
4097.085734,-8364.327145,-296.082377,153.219100
4097.086064,-9252.574275,74.020594,153.219100
4097.086394,-9548.656652,444.123565,-766.095498
4097.086723,-10140.821405,666.185348,-689.485948
4097.087053,-9696.697840,518.144159,-306.438199
4097.087383,-10066.800811,518.144159,76.609550
4097.087712,-10214.842000,222.061783,842.705048
4097.088042,-9696.697840,-370.102971,0.000000
4097.088372,-8956.491898,0.000000,-306.438199
4097.088701,-8660.409521,-370.102971,0.000000
4097.089031,-9622.677246,296.082377,459.657299
4097.089361,-10584.944971,74.020594,1225.752797
4097.089690,-9992.780217,518.144159,1149.143247
4097.090020,-9548.656652,74.020594,766.095498
4097.090350,-9918.759623,370.102971,229.828649
4097.090679,-10362.883188,222.061783,0.000000
4097.091009,-10066.800811,148.041188,229.828649
4097.091338,-9696.697840,0.000000,1302.362347
4097.091668,-9252.574275,148.041188,1378.971896
4097.091998,-9992.780217,74.020594,1072.533697
4097.092327,-9918.759623,-370.102971,306.438199
4097.092657,-10658.965565,444.123565,0.000000
4097.092987,-10214.842000,444.123565,-229.828649
4097.093316,-9770.718434,0.000000,229.828649
4097.093646,-9030.512492,0.000000,1072.533697
4097.093976,-9252.574275,296.082377,2068.457845
4097.094305,-10066.800811,296.082377,766.095498
4097.094635,-10955.047942,296.082377,0.000000
4097.094965,-10510.924376,0.000000,-995.924147
4097.095294,-9918.759623,-222.061783,-612.876398
4097.095624,-9178.553681,-222.061783,76.609550
4097.095954,-9474.636058,-74.020594,536.266849
4097.096283,-9400.615463,0.000000,689.485948
4097.096613,-9178.553681,0.000000,383.047749
4097.096943,-10140.821405,518.144159,-76.609550
4097.097272,-10066.800811,74.020594,-306.438199
4097.097602,-10510.924376,-296.082377,-612.876398
4097.097932,-9548.656652,-222.061783,76.609550
4097.098261,-9548.656652,-148.041188,995.924147
4097.098591,-9400.615463,-148.041188,536.266849
4097.098921,-9326.594869,-444.123565,76.609550
4097.099250,-10066.800811,74.020594,-766.095498
4097.099580,-9992.780217,0.000000,-76.609550
4097.099909,-9548.656652,148.041188,919.314598
4097.100239,-10214.842000,74.020594,536.266849
4097.100569,-10140.821405,-74.020594,0.000000
4097.100898,-9992.780217,-518.144159,-383.047749
4097.101228,-9770.718434,-518.144159,0.000000
4097.101558,-9622.677246,-814.226536,0.000000
4097.101887,-9770.718434,-296.082377,842.705048
4097.102217,-9474.636058,0.000000,919.314598
4097.102547,-9474.636058,-370.102971,766.095498
4097.102876,-9696.697840,74.020594,0.000000
4097.103206,-10362.883188,222.061783,229.828649
4097.103536,-10362.883188,296.082377,0.000000
4097.103865,-9400.615463,0.000000,-153.219100
4097.104195,-9400.615463,0.000000,0.000000
4097.104525,-9918.759623,0.000000,229.828649
4097.104854,-9770.718434,0.000000,153.219100
4097.105184,-9696.697840,-222.061783,689.485948
4097.105514,-9992.780217,-370.102971,995.924147
4097.105843,-10510.924376,74.020594,1532.190996
4097.106173,-10140.821405,148.041188,1149.143247
4097.106503,-9178.553681,148.041188,229.828649
4097.106832,-9326.594869,0.000000,76.609550
4097.107162,-9770.718434,444.123565,-229.828649
4097.107492,-10214.842000,814.226536,153.219100
4097.107821,-9770.718434,518.144159,459.657299
4097.108151,-10066.800811,814.226536,1072.533697
4097.108480,-9992.780217,370.102971,153.219100
4097.108810,-10140.821405,74.020594,0.000000
4097.109140,-9326.594869,0.000000,-76.609550
4097.109469,-9696.697840,-222.061783,766.095498
4097.109799,-9918.759623,222.061783,1532.190996
4097.110129,-9844.739029,592.164754,1762.019645
4097.110458,-9696.697840,518.144159,612.876398
4097.110788,-9844.739029,592.164754,-306.438199
4097.111118,-9918.759623,444.123565,-153.219100
4097.111447,-10140.821405,740.205942,-306.438199
4097.111777,-9104.533087,814.226536,-842.705048
4097.112107,-9030.512492,814.226536,-536.266849
4097.112436,-9548.656652,296.082377,306.438199
4097.112766,-10362.883188,888.247130,0.000000
4097.113096,-10066.800811,444.123565,-459.657299
4097.113425,-9474.636058,148.041188,-766.095498
4097.113755,-9918.759623,518.144159,153.219100
4097.114085,-10140.821405,962.267725,689.485948
4097.114414,-9548.656652,148.041188,0.000000
4097.114744,-9474.636058,444.123565,-153.219100
4097.115074,-9844.739029,296.082377,0.000000
4097.115403,-10510.924376,444.123565,0.000000
4097.115733,-9548.656652,0.000000,153.219100
4097.116063,-9622.677246,74.020594,459.657299
4097.116392,-9992.780217,74.020594,459.657299
4097.116722,-10140.821405,-592.164754,383.047749
4097.117051,-9696.697840,-370.102971,-306.438199
4097.117381,-9252.574275,-370.102971,0.000000
4097.117711,-9400.615463,0.000000,153.219100
4097.118040,-9400.615463,-296.082377,612.876398
4097.118370,-9474.636058,0.000000,766.095498
4097.118700,-9992.780217,-296.082377,459.657299
4097.119029,-10732.986159,-370.102971,995.924147
4097.119359,-10140.821405,-148.041188,306.438199
4097.119689,-9252.574275,-444.123565,0.000000
4097.120018,-8734.430116,-518.144159,153.219100
4097.120348,-9400.615463,0.000000,153.219100
4097.120678,-10066.800811,0.000000,0.000000
4097.121007,-10362.883188,0.000000,76.609550
4097.121337,-9844.739029,0.000000,-306.438199
4097.121667,-9400.615463,-518.144159,383.047749
4097.121996,-9548.656652,-444.123565,153.219100
4097.122326,-9252.574275,0.000000,229.828649
4097.122656,-9252.574275,-222.061783,0.000000
4097.122985,-9844.739029,-222.061783,-536.266849
4097.123315,-10066.800811,74.020594,229.828649
4097.123645,-10436.903782,0.000000,766.095498
4097.123974,-10140.821405,0.000000,612.876398
4097.124304,-10214.842000,-370.102971,995.924147
4097.124633,-9844.739029,0.000000,612.876398
4097.124963,-9326.594869,-518.144159,0.000000
4097.125293,-9918.759623,-296.082377,536.266849
4097.125622,-10288.862594,-74.020594,612.876398
4097.125952,-9918.759623,-222.061783,995.924147
4097.126282,-9770.718434,-444.123565,919.314598
4097.126611,-9992.780217,-444.123565,612.876398
4097.126941,-10584.944971,0.000000,229.828649
4097.127271,-10658.965565,0.000000,76.609550
4097.127600,-9474.636058,-518.144159,229.828649
4097.127930,-9548.656652,-518.144159,1302.362347
4097.128260,-9622.677246,0.000000,1225.752797
4097.128589,-9992.780217,74.020594,1302.362347
4097.128919,-9992.780217,-444.123565,229.828649
4097.129249,-10140.821405,0.000000,-536.266849
4097.129578,-10140.821405,0.000000,0.000000
4097.129908,-9326.594869,-148.041188,76.609550
4097.130238,-8808.450710,-222.061783,766.095498
4097.130567,-9400.615463,0.000000,1225.752797
4097.130897,-9474.636058,740.205942,995.924147
4097.131227,-9992.780217,518.144159,0.000000
4097.131556,-9548.656652,518.144159,-995.924147
4097.131886,-9696.697840,444.123565,-536.266849
4097.132216,-9918.759623,222.061783,612.876398
4097.132545,-9326.594869,518.144159,0.000000
4097.132875,-9104.533087,148.041188,229.828649
4097.133204,-9474.636058,0.000000,-76.609550
4097.133534,-9770.718434,296.082377,-612.876398
4097.133864,-9548.656652,148.041188,-229.828649
4097.134193,-9178.553681,148.041188,383.047749
4097.134523,-9696.697840,740.205942,1072.533697
4097.134853,-10362.883188,1036.288319,1225.752797
4097.135182,-10288.862594,888.247130,-536.266849
4097.135512,-9992.780217,518.144159,-995.924147
4097.135842,-9474.636058,666.185348,-229.828649
4097.136171,-9696.697840,888.247130,-229.828649
4097.136501,-9918.759623,444.123565,383.047749
4097.136831,-9326.594869,444.123565,0.000000
4097.137160,-10140.821405,666.185348,0.000000
4097.137490,-10436.903782,740.205942,0.000000
4097.137820,-10362.883188,444.123565,-459.657299
4097.138149,-9548.656652,888.247130,-1072.533697
4097.138479,-9474.636058,296.082377,0.000000
4097.138809,-9844.739029,592.164754,536.266849
4097.139138,-10066.800811,0.000000,612.876398
4097.139468,-10658.965565,74.020594,-229.828649
4097.139798,-9696.697840,148.041188,-153.219100
4097.140127,-9474.636058,0.000000,229.828649
4097.140457,-9178.553681,-296.082377,153.219100
4097.140787,-9548.656652,-296.082377,995.924147
4097.141116,-9844.739029,-370.102971,766.095498
4097.141446,-9622.677246,74.020594,229.828649
4097.141775,-9178.553681,0.000000,306.438199
4097.142105,-9030.512492,370.102971,0.000000
4097.142435,-9474.636058,370.102971,153.219100
4097.142764,-9918.759623,222.061783,0.000000
4097.143094,-10362.883188,0.000000,-1072.533697
4097.143424,-10436.903782,-148.041188,-383.047749
4097.143753,-9918.759623,-296.082377,0.000000
4097.144083,-9474.636058,-518.144159,995.924147
4097.144413,-9252.574275,-444.123565,1532.190996
4097.144742,-9548.656652,-740.205942,842.705048
4097.145072,-9548.656652,74.020594,689.485948
4097.145402,-9696.697840,148.041188,459.657299
4097.145731,-10066.800811,370.102971,306.438199
4097.146061,-10658.965565,222.061783,919.314598
4097.146391,-10066.800811,0.000000,995.924147
4097.146720,-9622.677246,-370.102971,612.876398
4097.147050,-9400.615463,-740.205942,459.657299
4097.147380,-9548.656652,-592.164754,0.000000
4097.147709,-9696.697840,-222.061783,0.000000
4097.148039,-9104.533087,-74.020594,-459.657299
4097.148369,-9548.656652,74.020594,76.609550
4097.148698,-9844.739029,0.000000,1149.143247
4097.149028,-10436.903782,-148.041188,1455.581446
4097.149358,-10288.862594,-444.123565,612.876398
4097.149687,-9474.636058,-518.144159,689.485948
4097.150017,-9474.636058,-222.061783,766.095498
4097.150346,-9400.615463,0.000000,536.266849
4097.150676,-10066.800811,-148.041188,-153.219100
4097.151006,-10066.800811,148.041188,-612.876398
4097.151335,-10214.842000,148.041188,-689.485948
4097.151665,-10214.842000,0.000000,-383.047749
4097.151995,-9992.780217,0.000000,229.828649
4097.152324,-9696.697840,-518.144159,536.266849
4097.152654,-9252.574275,-444.123565,459.657299
4097.152984,-8956.491898,-296.082377,766.095498
4097.153313,-9918.759623,0.000000,689.485948
4097.153643,-10436.903782,518.144159,689.485948
4097.153973,-10658.965565,370.102971,842.705048
4097.154302,-10510.924376,444.123565,766.095498
4097.154632,-10288.862594,0.000000,612.876398
4097.154962,-10066.800811,-370.102971,995.924147
4097.155291,-9474.636058,-222.061783,383.047749
4097.155621,-9178.553681,-74.020594,229.828649
4097.155951,-9252.574275,74.020594,-306.438199
4097.156280,-9104.533087,148.041188,-919.314598
4097.156610,-9548.656652,74.020594,76.609550
4097.156940,-9918.759623,222.061783,0.000000
4097.157269,-10140.821405,592.164754,383.047749
4097.157599,-10066.800811,74.020594,229.828649
4097.157929,-10362.883188,0.000000,0.000000
4097.158258,-9474.636058,0.000000,0.000000
4097.158588,-9548.656652,0.000000,153.219100
4097.158917,-9474.636058,222.061783,-383.047749
4097.159247,-9474.636058,296.082377,-306.438199
4097.159577,-9696.697840,444.123565,-383.047749
4097.159906,-9992.780217,592.164754,-383.047749
4097.160236,-9992.780217,518.144159,-306.438199
4097.160566,-9844.739029,444.123565,-612.876398
4097.160895,-9548.656652,592.164754,-153.219100
4097.161225,-9400.615463,222.061783,-612.876398
4097.161555,-9252.574275,222.061783,-383.047749
4097.161884,-9770.718434,370.102971,76.609550
4097.162214,-10436.903782,370.102971,229.828649
4097.162544,-10807.006753,518.144159,919.314598
4097.162873,-9918.759623,148.041188,766.095498
4097.163203,-10066.800811,444.123565,383.047749
4097.163533,-10362.883188,444.123565,0.000000
4097.163862,-9992.780217,148.041188,-229.828649
4097.164192,-9178.553681,0.000000,153.219100
4097.164522,-9178.553681,222.061783,536.266849
4097.164851,-9918.759623,518.144159,306.438199
4097.165181,-10658.965565,444.123565,612.876398
4097.165511,-10436.903782,0.000000,459.657299
4097.165840,-10140.821405,0.000000,689.485948
4097.166170,-9622.677246,-592.164754,919.314598
4097.166500,-9548.656652,0.000000,842.705048
4097.166829,-8660.409521,0.000000,612.876398
4097.167159,-8882.471304,0.000000,842.705048
4097.167489,-9474.636058,518.144159,0.000000
4097.167818,-9844.739029,370.102971,-306.438199
4097.168148,-10288.862594,-148.041188,0.000000
4097.168478,-10214.842000,0.000000,153.219100
4097.168807,-9844.739029,-666.185348,612.876398
4097.169137,-9104.533087,-518.144159,306.438199
4097.169467,-8438.347739,-888.247130,0.000000
4097.169796,-9030.512492,0.000000,229.828649
4097.170126,-9178.553681,370.102971,0.000000
4097.170456,-9844.739029,518.144159,0.000000
4097.170785,-10807.006753,592.164754,229.828649
4097.171115,-11103.089130,740.205942,153.219100
4097.171445,-11251.130318,296.082377,0.000000
4097.171774,-9696.697840,-222.061783,-612.876398
4097.172104,-8734.430116,-592.164754,-459.657299
4097.172434,-9178.553681,-296.082377,306.438199
4097.172763,-9474.636058,148.041188,0.000000
4097.173093,-10066.800811,222.061783,612.876398
4097.173422,-9992.780217,0.000000,0.000000
4097.173752,-10658.965565,0.000000,229.828649
4097.174082,-10955.047942,0.000000,459.657299
4097.174411,-10436.903782,-296.082377,383.047749
4097.174741,-9622.677246,-222.061783,0.000000
4097.175071,-9178.553681,-740.205942,919.314598
4097.175400,-9178.553681,-148.041188,689.485948
4097.175730,-9178.553681,-370.102971,919.314598
4097.176060,-9770.718434,222.061783,612.876398
4097.176389,-10658.965565,592.164754,459.657299
4097.176719,-10732.986159,-222.061783,153.219100
4097.177049,-9844.739029,-222.061783,-229.828649
4097.177378,-9326.594869,-740.205942,0.000000
4097.177708,-9400.615463,0.000000,0.000000
4097.178038,-9400.615463,-74.020594,-76.609550
4097.178367,-9474.636058,74.020594,0.000000
4097.178697,-9178.553681,0.000000,0.000000
4097.179027,-9918.759623,444.123565,229.828649
4097.179356,-10436.903782,148.041188,229.828649
4097.179686,-10066.800811,222.061783,153.219100
4097.180016,-9622.677246,-296.082377,229.828649
4097.180345,-9326.594869,-370.102971,153.219100
4097.180675,-9030.512492,-814.226536,612.876398
4097.181005,-8882.471304,-444.123565,995.924147
4097.181334,-9104.533087,-148.041188,459.657299
4097.181664,-10140.821405,222.061783,689.485948
4097.181994,-10510.924376,74.020594,383.047749
4097.182323,-10584.944971,0.000000,-306.438199
4097.182653,-10140.821405,0.000000,-383.047749
4097.182983,-9844.739029,-296.082377,229.828649
4097.183312,-8956.491898,0.000000,153.219100
4097.183642,-9030.512492,0.000000,919.314598
4097.183972,-9474.636058,0.000000,153.219100
4097.184301,-10510.924376,74.020594,76.609550
4097.184631,-10881.027347,518.144159,-689.485948
4097.184961,-9548.656652,0.000000,0.000000
4097.185290,-9474.636058,-370.102971,76.609550
4097.185620,-9474.636058,-296.082377,1072.533697
4097.185950,-9844.739029,296.082377,689.485948
4097.186279,-9622.677246,370.102971,689.485948
4097.186609,-10066.800811,0.000000,0.000000
4097.186939,-10732.986159,370.102971,383.047749
4097.187268,-10881.027347,74.020594,689.485948
4097.187598,-9326.594869,0.000000,0.000000
4097.187928,-9326.594869,-370.102971,0.000000
4097.188257,-9474.636058,-222.061783,76.609550
4097.188587,-9326.594869,296.082377,0.000000
4097.188917,-8808.450710,0.000000,766.095498
4097.189246,-9474.636058,0.000000,153.219100
4097.189576,-10510.924376,296.082377,229.828649
4097.189906,-10214.842000,0.000000,76.609550
4097.190235,-9252.574275,0.000000,306.438199
4097.190565,-9030.512492,-148.041188,229.828649
4097.190895,-9474.636058,-222.061783,612.876398
4097.191224,-10066.800811,222.061783,612.876398
4097.191554,-9548.656652,-222.061783,536.266849
4097.191884,-9474.636058,592.164754,153.219100
4097.192213,-9696.697840,148.041188,383.047749
4097.192543,-10436.903782,148.041188,0.000000
4097.192873,-9844.739029,148.041188,-459.657299
4097.193202,-9326.594869,0.000000,0.000000
4097.193532,-9992.780217,0.000000,-383.047749
4097.193862,-9992.780217,0.000000,153.219100
4097.194191,-9474.636058,222.061783,612.876398
4097.194521,-8882.471304,148.041188,153.219100
4097.194851,-9770.718434,592.164754,919.314598
4097.195180,-10288.862594,814.226536,0.000000
4097.195510,-9770.718434,296.082377,-842.705048
4097.195840,-9918.759623,666.185348,-766.095498
4097.196169,-10362.883188,518.144159,-76.609550
4097.196499,-10140.821405,592.164754,536.266849
4097.196828,-9474.636058,0.000000,0.000000
4097.197158,-9474.636058,0.000000,-229.828649
4097.197488,-9548.656652,0.000000,383.047749
4097.197817,-10066.800811,0.000000,536.266849
4097.198147,-9252.574275,0.000000,306.438199
4097.198477,-9400.615463,222.061783,689.485948
4097.198806,-9400.615463,740.205942,842.705048
4097.199136,-10436.903782,370.102971,459.657299
4097.199466,-9918.759623,222.061783,-383.047749
4097.199795,-9770.718434,0.000000,-459.657299
4097.200125,-9844.739029,0.000000,153.219100
4097.200455,-9770.718434,0.000000,383.047749
4097.200784,-8734.430116,-370.102971,153.219100
4097.201114,-9030.512492,0.000000,0.000000
4097.201444,-9696.697840,370.102971,-383.047749
4097.201773,-10140.821405,666.185348,0.000000
4097.202103,-10066.800811,74.020594,306.438199
4097.202433,-10214.842000,296.082377,459.657299
4097.202762,-10214.842000,0.000000,919.314598
4097.203092,-9696.697840,0.000000,995.924147
4097.203422,-9474.636058,-444.123565,229.828649
4097.203751,-9622.677246,-370.102971,383.047749
4097.204081,-9770.718434,-370.102971,612.876398
4097.204411,-9844.739029,-222.061783,1225.752797
4097.204740,-9548.656652,0.000000,1378.971896
4097.205070,-9844.739029,222.061783,766.095498
4097.205400,-10066.800811,148.041188,153.219100
4097.205729,-10510.924376,296.082377,-76.609550
4097.206059,-9844.739029,0.000000,0.000000
4097.206389,-9548.656652,-296.082377,459.657299
4097.206718,-9548.656652,-518.144159,383.047749
4097.207048,-9548.656652,-370.102971,689.485948
4097.207378,-8808.450710,-666.185348,689.485948
4097.207707,-9400.615463,-518.144159,76.609550
4097.208037,-10140.821405,-222.061783,383.047749
4097.208367,-10436.903782,-518.144159,612.876398
4097.208696,-9474.636058,-222.061783,0.000000
4097.209026,-9400.615463,-666.185348,229.828649
4097.209356,-9030.512492,-296.082377,153.219100
4097.209685,-9844.739029,148.041188,536.266849
4097.210015,-9622.677246,0.000000,0.000000
4097.210345,-9844.739029,296.082377,0.000000
4097.210674,-10140.821405,222.061783,0.000000
4097.211004,-10362.883188,0.000000,0.000000
4097.211334,-9770.718434,0.000000,-612.876398
4097.211663,-9400.615463,0.000000,-842.705048
4097.211993,-9326.594869,0.000000,-536.266849
4097.212323,-9548.656652,74.020594,229.828649
4097.212652,-9548.656652,74.020594,153.219100
4097.212982,-10066.800811,666.185348,-229.828649
4097.213312,-10510.924376,296.082377,306.438199
4097.213641,-9918.759623,0.000000,-229.828649
4097.213971,-9770.718434,74.020594,-383.047749
4097.214301,-9474.636058,0.000000,153.219100
4097.214630,-9770.718434,148.041188,383.047749
4097.214960,-9696.697840,222.061783,842.705048
4097.215290,-9844.739029,0.000000,306.438199
4097.215619,-9844.739029,518.144159,383.047749
4097.215949,-9400.615463,666.185348,-306.438199
4097.216279,-10066.800811,592.164754,-612.876398
4097.216608,-10288.862594,592.164754,-229.828649
4097.216938,-9622.677246,0.000000,-306.438199
4097.217268,-8660.409521,666.185348,229.828649
4097.217597,-9474.636058,666.185348,536.266849
4097.217927,-9918.759623,74.020594,0.000000
4097.218257,-9844.739029,518.144159,229.828649
4097.218586,-9474.636058,296.082377,-383.047749
4097.218916,-9770.718434,222.061783,229.828649
4097.219245,-10066.800811,666.185348,383.047749
4097.219575,-9474.636058,148.041188,306.438199
4097.219905,-9030.512492,592.164754,229.828649
4097.220234,-9474.636058,592.164754,766.095498
4097.220564,-10436.903782,148.041188,229.828649
4097.220894,-10436.903782,814.226536,-153.219100
4097.221223,-9622.677246,296.082377,-459.657299
4097.221553,-9474.636058,592.164754,-536.266849
4097.221883,-9474.636058,518.144159,612.876398
4097.222212,-9770.718434,148.041188,766.095498
4097.222542,-9844.739029,74.020594,76.609550
4097.222872,-9918.759623,518.144159,-383.047749
4097.223201,-10214.842000,-74.020594,536.266849
4097.223531,-10510.924376,0.000000,1149.143247
4097.223861,-9770.718434,-444.123565,995.924147
4097.224190,-8882.471304,-444.123565,459.657299
4097.224520,-9252.574275,-518.144159,766.095498
4097.224850,-10214.842000,0.000000,689.485948
4097.225179,-9918.759623,-370.102971,229.828649
4097.225509,-10066.800811,-222.061783,842.705048
4097.225839,-9992.780217,-296.082377,689.485948
4097.226168,-9992.780217,-370.102971,1225.752797
4097.226498,-9696.697840,-592.164754,383.047749
4097.226828,-9030.512492,-592.164754,-306.438199
4097.227157,-9474.636058,148.041188,-1072.533697
4097.227487,-9696.697840,-296.082377,-306.438199
4097.227817,-10214.842000,0.000000,306.438199
4097.228146,-9548.656652,-592.164754,919.314598
4097.228476,-9918.759623,-518.144159,459.657299
4097.228806,-10214.842000,-74.020594,153.219100
4097.229135,-10066.800811,-740.205942,-536.266849
4097.229465,-9770.718434,-666.185348,-306.438199
4097.229795,-9252.574275,-962.267725,612.876398
4097.230124,-9400.615463,-444.123565,995.924147
4097.230454,-9400.615463,-370.102971,689.485948
4097.230784,-9696.697840,0.000000,536.266849
4097.231113,-10214.842000,-74.020594,0.000000
4097.231443,-10584.944971,222.061783,-306.438199
4097.231773,-10140.821405,74.020594,0.000000
4097.232102,-9770.718434,-148.041188,-536.266849
4097.232432,-9622.677246,-296.082377,76.609550
4097.232762,-9104.533087,74.020594,229.828649
4097.233091,-9474.636058,74.020594,0.000000
4097.233421,-9252.574275,0.000000,383.047749
4097.233751,-10140.821405,74.020594,383.047749
4097.234080,-11103.089130,148.041188,1072.533697
4097.234410,-10881.027347,222.061783,919.314598
4097.234740,-9548.656652,0.000000,766.095498
4097.235069,-9178.553681,0.000000,229.828649
4097.235399,-9770.718434,0.000000,766.095498
4097.235729,-9844.739029,370.102971,0.000000
4097.236058,-9770.718434,148.041188,995.924147
4097.236388,-9696.697840,296.082377,919.314598
4097.236718,-9770.718434,296.082377,689.485948
4097.237047,-10140.821405,740.205942,306.438199
4097.237377,-9474.636058,444.123565,-459.657299
4097.237707,-9548.656652,148.041188,-536.266849
4097.238036,-9548.656652,74.020594,-229.828649
4097.238366,-9548.656652,148.041188,842.705048
4097.238696,-9474.636058,148.041188,995.924147
4097.239025,-9844.739029,222.061783,612.876398
4097.239355,-10066.800811,518.144159,0.000000
4097.239685,-9548.656652,0.000000,-766.095498
4097.240014,-9252.574275,222.061783,-1225.752797
4097.240344,-9474.636058,0.000000,0.000000
4097.240674,-9474.636058,444.123565,229.828649
4097.241003,-9548.656652,666.185348,689.485948
4097.241333,-9326.594869,888.247130,-842.705048
4097.241663,-10214.842000,518.144159,-766.095498
4097.241992,-10066.800811,370.102971,-1455.581446
4097.242322,-10066.800811,370.102971,-689.485948
4097.242651,-9326.594869,740.205942,229.828649
4097.242981,-9252.574275,222.061783,919.314598
4097.243311,-9622.677246,296.082377,995.924147
4097.243640,-10140.821405,296.082377,229.828649
4097.243970,-10288.862594,0.000000,-306.438199
4097.244300,-10510.924376,518.144159,-459.657299
4097.244629,-10436.903782,666.185348,153.219100
4097.244959,-10288.862594,444.123565,842.705048
4097.245289,-9548.656652,148.041188,0.000000
4097.245618,-9992.780217,592.164754,-842.705048
4097.245948,-10214.842000,74.020594,-459.657299
4097.246278,-9918.759623,0.000000,306.438199
4097.246607,-9400.615463,-592.164754,612.876398
4097.246937,-9770.718434,370.102971,2068.457845
4097.247267,-9844.739029,-148.041188,1762.019645
4097.247596,-10288.862594,-148.041188,995.924147
4097.247926,-9400.615463,0.000000,-306.438199
4097.248256,-9696.697840,0.000000,0.000000
4097.248585,-9696.697840,148.041188,306.438199
4097.248915,-9770.718434,222.061783,995.924147
4097.249245,-9548.656652,-444.123565,1072.533697
4097.249574,-9474.636058,-222.061783,536.266849
4097.249904,-9400.615463,0.000000,536.266849
4097.250234,-9992.780217,-148.041188,-612.876398
4097.250563,-9474.636058,-370.102971,-1225.752797
4097.250893,-9400.615463,-148.041188,-153.219100
4097.251223,-9844.739029,666.185348,459.657299
4097.251552,-10140.821405,0.000000,842.705048
4097.251882,-9844.739029,-296.082377,-306.438199
4097.252212,-9178.553681,-296.082377,-459.657299
4097.252541,-10140.821405,222.061783,536.266849
4097.252871,-10807.006753,0.000000,766.095498
4097.253201,-10066.800811,-592.164754,76.609550
4097.253530,-9844.739029,-296.082377,0.000000
4097.253860,-9844.739029,-74.020594,0.000000
4097.254190,-9696.697840,222.061783,689.485948
4097.254519,-9622.677246,74.020594,76.609550
4097.254849,-10140.821405,222.061783,0.000000
4097.255179,-10140.821405,74.020594,919.314598
4097.255508,-10214.842000,296.082377,459.657299
4097.255838,-9622.677246,74.020594,0.000000
4097.256168,-10066.800811,518.144159,0.000000
4097.256497,-10140.821405,444.123565,76.609550
4097.256827,-9770.718434,0.000000,919.314598
4097.257157,-9622.677246,0.000000,612.876398
4097.257486,-9918.759623,0.000000,1302.362347
4097.257816,-9992.780217,0.000000,1455.581446
4097.258146,-9622.677246,-296.082377,306.438199
4097.258475,-8734.430116,-74.020594,-383.047749
4097.258805,-9030.512492,0.000000,0.000000
4097.259135,-9918.759623,74.020594,306.438199
4097.259464,-10288.862594,0.000000,995.924147
4097.259794,-9992.780217,-222.061783,1225.752797
4097.260124,-9696.697840,-444.123565,306.438199
4097.260453,-9844.739029,-444.123565,306.438199
4097.260783,-9622.677246,-370.102971,76.609550
4097.261113,-9548.656652,74.020594,229.828649
4097.261442,-9252.574275,0.000000,459.657299
4097.261772,-9622.677246,592.164754,0.000000
4097.262102,-10288.862594,444.123565,383.047749
4097.262431,-10140.821405,0.000000,0.000000
4097.262761,-9992.780217,148.041188,-306.438199
4097.263091,-9918.759623,0.000000,0.000000
4097.263420,-9770.718434,-222.061783,-306.438199
4097.263750,-9178.553681,-444.123565,0.000000
4097.264080,-9252.574275,148.041188,153.219100
4097.264409,-10214.842000,592.164754,76.609550
4097.264739,-10881.027347,222.061783,459.657299
4097.265069,-9992.780217,370.102971,842.705048
4097.265398,-9992.780217,296.082377,536.266849
4097.265728,-10288.862594,592.164754,383.047749
4097.266058,-10214.842000,148.041188,-383.047749
4097.266387,-9918.759623,0.000000,-612.876398
4097.266717,-9548.656652,-296.082377,0.000000
4097.267047,-9770.718434,370.102971,0.000000
4097.267376,-9548.656652,0.000000,383.047749
4097.267706,-9030.512492,222.061783,-153.219100
4097.268036,-9622.677246,666.185348,0.000000
4097.268365,-10510.924376,518.144159,536.266849
4097.268695,-10436.903782,592.164754,536.266849
4097.269025,-10140.821405,370.102971,459.657299
4097.269354,-9474.636058,-148.041188,153.219100
4097.269684,-9474.636058,148.041188,0.000000
4097.270014,-9178.553681,222.061783,612.876398
4097.270343,-9252.574275,-148.041188,0.000000
4097.270673,-9622.677246,296.082377,153.219100
4097.271003,-10066.800811,74.020594,383.047749
4097.271333,-9844.739029,666.185348,459.657299
4097.271662,-9548.656652,518.144159,229.828649
4097.271992,-9622.677246,296.082377,76.609550
4097.272322,-9770.718434,296.082377,0.000000
4097.272651,-9548.656652,0.000000,306.438199
4097.272981,-9844.739029,-296.082377,76.609550
4097.273311,-10214.842000,0.000000,306.438199
4097.273640,-9770.718434,0.000000,229.828649
4097.273970,-9252.574275,0.000000,0.000000
4097.274300,-9252.574275,0.000000,-383.047749
4097.274629,-10140.821405,74.020594,536.266849
4097.274959,-10436.903782,518.144159,919.314598
4097.275289,-9622.677246,0.000000,612.876398
4097.275618,-9326.594869,74.020594,229.828649
4097.275948,-9474.636058,222.061783,0.000000
4097.276278,-10214.842000,148.041188,383.047749
4097.276607,-10214.842000,0.000000,0.000000
4097.276937,-10214.842000,0.000000,153.219100
4097.277267,-9770.718434,0.000000,0.000000
4097.277597,-9844.739029,0.000000,689.485948
4097.277926,-9770.718434,0.000000,919.314598
4097.278256,-10288.862594,-444.123565,689.485948
4097.278586,-9992.780217,296.082377,1149.143247
4097.278915,-9770.718434,-74.020594,229.828649
4097.279245,-9252.574275,0.000000,-153.219100
4097.279575,-10140.821405,370.102971,0.000000
4097.279904,-10288.862594,592.164754,612.876398
4097.280234,-10362.883188,74.020594,0.000000
4097.280564,-9992.780217,222.061783,0.000000
4097.280893,-9918.759623,-296.082377,0.000000
4097.281223,-9770.718434,222.061783,229.828649
4097.281553,-9696.697840,-518.144159,76.609550
4097.281882,-9474.636058,-518.144159,0.000000
4097.282212,-9696.697840,-296.082377,612.876398
4097.282542,-9770.718434,-740.205942,229.828649
4097.282872,-9992.780217,0.000000,612.876398
4097.283201,-9326.594869,-592.164754,536.266849
4097.283531,-9844.739029,-370.102971,536.266849
4097.283861,-9474.636058,-296.082377,995.924147
4097.284190,-9844.739029,0.000000,0.000000
4097.284520,-9770.718434,-444.123565,306.438199
4097.284850,-9992.780217,-370.102971,-306.438199
4097.285179,-9474.636058,-370.102971,-306.438199
4097.285509,-9548.656652,0.000000,689.485948
4097.285839,-9326.594869,-296.082377,612.876398
4097.286168,-9622.677246,-148.041188,76.609550
4097.286498,-9400.615463,296.082377,0.000000
4097.286828,-9918.759623,296.082377,0.000000
4097.287157,-9918.759623,518.144159,-689.485948
4097.287487,-10288.862594,814.226536,0.000000
4097.287817,-9770.718434,148.041188,229.828649
4097.288147,-9474.636058,222.061783,306.438199
4097.288476,-8956.491898,222.061783,995.924147
4097.288806,-10214.842000,0.000000,612.876398
4097.289136,-10362.883188,-518.144159,536.266849
4097.289465,-10214.842000,0.000000,536.266849
4097.289795,-9104.533087,518.144159,306.438199
4097.290125,-9178.553681,666.185348,383.047749
4097.290454,-9770.718434,592.164754,0.000000
4097.290784,-10362.883188,814.226536,76.609550
4097.291114,-10214.842000,222.061783,0.000000
4097.291443,-10584.944971,666.185348,76.609550
4097.291773,-9770.718434,296.082377,-76.609550
4097.292103,-9400.615463,148.041188,-76.609550
4097.292432,-8290.306550,148.041188,0.000000
4097.292762,-9252.574275,74.020594,153.219100
4097.293092,-10362.883188,222.061783,-306.438199
4097.293421,-10214.842000,296.082377,-383.047749
4097.293751,-9622.677246,444.123565,76.609550
4097.294081,-10066.800811,1036.288319,306.438199
4097.294411,-10214.842000,518.144159,995.924147
4097.294740,-9992.780217,148.041188,536.266849
4097.295070,-8956.491898,296.082377,-612.876398
4097.295400,-9622.677246,518.144159,0.000000
4097.295729,-10510.924376,222.061783,0.000000
4097.296059,-10066.800811,-148.041188,229.828649
4097.296389,-9104.533087,-296.082377,919.314598
4097.296718,-9474.636058,74.020594,1302.362347
4097.297048,-9770.718434,0.000000,536.266849
4097.297378,-9622.677246,0.000000,153.219100
4097.297707,-8512.368333,0.000000,0.000000
4097.298037,-9326.594869,74.020594,612.876398
4097.298367,-10807.006753,740.205942,1225.752797
4097.298696,-10214.842000,222.061783,459.657299
4097.299026,-9400.615463,-296.082377,-1149.143247
4097.299356,-9474.636058,74.020594,-919.314598
4097.299686,-10066.800811,0.000000,459.657299
4097.300015,-10066.800811,0.000000,689.485948
4097.300345,-9400.615463,0.000000,383.047749
4097.300675,-9770.718434,-74.020594,229.828649
4097.301004,-10066.800811,74.020594,-766.095498
4097.301334,-9992.780217,0.000000,-229.828649
4097.301664,-9474.636058,0.000000,-383.047749
4097.301993,-9622.677246,444.123565,0.000000
4097.302323,-10510.924376,0.000000,153.219100
4097.302653,-10288.862594,-592.164754,153.219100
4097.302982,-9696.697840,-370.102971,0.000000
4097.303312,-9770.718434,-592.164754,306.438199
4097.303642,-9696.697840,-592.164754,306.438199
4097.303971,-9696.697840,0.000000,919.314598
4097.304301,-8956.491898,0.000000,919.314598
4097.304631,-9770.718434,222.061783,459.657299
4097.304961,-10362.883188,0.000000,0.000000
4097.305290,-10807.006753,74.020594,153.219100
4097.305620,-9770.718434,0.000000,76.609550
4097.305950,-9992.780217,148.041188,919.314598
4097.306279,-10214.842000,148.041188,689.485948
4097.306609,-9474.636058,-666.185348,0.000000
4097.306939,-8956.491898,-666.185348,0.000000
4097.307268,-9252.574275,0.000000,0.000000
4097.307598,-9992.780217,-74.020594,919.314598
4097.307928,-9770.718434,148.041188,1149.143247
4097.308257,-9178.553681,296.082377,766.095498
4097.308587,-9622.677246,-370.102971,153.219100
4097.308917,-10066.800811,0.000000,459.657299
4097.309246,-10140.821405,0.000000,612.876398
4097.309576,-9844.739029,-592.164754,459.657299
4097.309906,-9474.636058,-370.102971,0.000000
4097.310235,-9326.594869,-370.102971,459.657299
4097.310565,-9400.615463,-444.123565,689.485948
4097.310895,-9030.512492,-296.082377,76.609550
4097.311225,-9178.553681,-74.020594,536.266849
4097.311554,-9770.718434,0.000000,153.219100
4097.311884,-10066.800811,296.082377,229.828649
4097.312214,-10066.800811,0.000000,76.609550
4097.312543,-10436.903782,222.061783,0.000000
4097.312873,-9696.697840,0.000000,383.047749
4097.313203,-9548.656652,0.000000,0.000000
4097.313532,-9622.677246,-148.041188,-153.219100
4097.313862,-10140.821405,-222.061783,536.266849
4097.314192,-9844.739029,-370.102971,766.095498
4097.314521,-9844.739029,222.061783,229.828649
4097.314851,-9474.636058,296.082377,229.828649
4097.315181,-9770.718434,222.061783,0.000000
4097.315510,-10436.903782,592.164754,383.047749
4097.315840,-9918.759623,0.000000,-383.047749
4097.316170,-9992.780217,148.041188,-153.219100
4097.316500,-10066.800811,0.000000,0.000000
4097.316829,-10436.903782,222.061783,612.876398
4097.317159,-9548.656652,0.000000,536.266849
4097.317489,-9770.718434,0.000000,0.000000
4097.317818,-10436.903782,222.061783,229.828649
4097.318148,-10362.883188,296.082377,1149.143247
4097.318478,-10140.821405,0.000000,536.266849
4097.318807,-9696.697840,222.061783,1072.533697
4097.319137,-9992.780217,74.020594,689.485948
4097.319467,-9844.739029,0.000000,1378.971896
4097.319796,-9178.553681,0.000000,612.876398
4097.320126,-9474.636058,148.041188,153.219100
4097.320456,-10066.800811,222.061783,0.000000
4097.320785,-10214.842000,444.123565,459.657299
4097.321115,-9548.656652,370.102971,-459.657299
4097.321445,-9252.574275,370.102971,-383.047749
4097.321775,-9622.677246,444.123565,-1149.143247
4097.322104,-10436.903782,518.144159,-612.876398
4097.322434,-10436.903782,148.041188,689.485948
4097.322764,-10288.862594,-444.123565,383.047749
4097.323093,-9918.759623,0.000000,1072.533697
4097.323423,-9178.553681,0.000000,766.095498
4097.323753,-8364.327145,0.000000,1225.752797
4097.324082,-8808.450710,222.061783,612.876398
4097.324412,-9474.636058,296.082377,612.876398
4097.324742,-11029.068536,370.102971,536.266849
4097.325071,-10510.924376,370.102971,-383.047749
4097.325401,-9770.718434,0.000000,-1302.362347
4097.325731,-9252.574275,74.020594,-459.657299
4097.326060,-9252.574275,-518.144159,76.609550
4097.326390,-9104.533087,0.000000,-459.657299
4097.326720,-9474.636058,444.123565,-383.047749
4097.327049,-9844.739029,222.061783,0.000000
4097.327379,-10658.965565,518.144159,459.657299
4097.327709,-10732.986159,148.041188,766.095498
4097.328039,-10140.821405,-444.123565,536.266849
4097.328368,-9474.636058,-370.102971,612.876398
4097.328698,-9548.656652,-592.164754,919.314598
4097.329028,-9252.574275,0.000000,383.047749
4097.329357,-9622.677246,0.000000,0.000000
4097.329687,-9770.718434,0.000000,0.000000
4097.330017,-10140.821405,0.000000,0.000000
4097.330346,-10214.842000,296.082377,612.876398
4097.330676,-10362.883188,-148.041188,536.266849
4097.331006,-9770.718434,-222.061783,153.219100
4097.331335,-9696.697840,-296.082377,766.095498
4097.331665,-9400.615463,0.000000,0.000000
4097.331995,-9844.739029,0.000000,459.657299
4097.332324,-9696.697840,-148.041188,229.828649
4097.332654,-9992.780217,148.041188,383.047749
4097.332984,-9622.677246,0.000000,459.657299
4097.333314,-10066.800811,-148.041188,-229.828649
4097.333643,-9400.615463,222.061783,383.047749
4097.333973,-9918.759623,74.020594,612.876398
4097.334303,-10066.800811,222.061783,536.266849
4097.334632,-10140.821405,-148.041188,766.095498
4097.334962,-9474.636058,-370.102971,383.047749
4097.335292,-8956.491898,0.000000,919.314598
4097.335621,-9400.615463,0.000000,536.266849
4097.335951,-9918.759623,74.020594,0.000000
4097.336281,-9992.780217,296.082377,-153.219100
4097.336610,-9474.636058,296.082377,-306.438199
4097.336940,-9252.574275,444.123565,-76.609550
4097.337270,-9992.780217,370.102971,689.485948
4097.337599,-9770.718434,370.102971,306.438199
4097.337929,-9474.636058,296.082377,0.000000
4097.338259,-9474.636058,148.041188,-306.438199
4097.338589,-10214.842000,518.144159,-153.219100
4097.338918,-10436.903782,0.000000,229.828649
4097.339248,-10732.986159,296.082377,689.485948
4097.339578,-10140.821405,370.102971,459.657299
4097.339907,-9992.780217,74.020594,1072.533697
4097.340237,-9104.533087,0.000000,536.266849
4097.340567,-9474.636058,74.020594,919.314598
4097.340896,-9844.739029,0.000000,842.705048
4097.341226,-10658.965565,518.144159,229.828649
4097.341556,-9992.780217,740.205942,153.219100
4097.341885,-9548.656652,222.061783,0.000000
4097.342215,-9400.615463,592.164754,0.000000
4097.342545,-10140.821405,0.000000,0.000000
4097.342874,-9474.636058,0.000000,-459.657299
4097.343204,-9030.512492,-296.082377,0.000000
4097.343534,-9252.574275,-370.102971,0.000000
4097.343863,-10214.842000,-222.061783,995.924147
4097.344193,-10288.862594,0.000000,919.314598
4097.344523,-9178.553681,-222.061783,383.047749
4097.344853,-8882.471304,0.000000,76.609550
4097.345182,-9770.718434,0.000000,919.314598
4097.345512,-9992.780217,-222.061783,383.047749
4097.345842,-9844.739029,222.061783,76.609550
4097.346171,-8956.491898,0.000000,-459.657299
4097.346501,-9474.636058,-370.102971,-459.657299
4097.346831,-9918.759623,74.020594,-689.485948
4097.347160,-9252.574275,0.000000,-536.266849
4097.347490,-8882.471304,0.000000,-612.876398
4097.347820,-9326.594869,0.000000,76.609550
4097.348149,-10955.047942,444.123565,689.485948
4097.348479,-9992.780217,222.061783,0.000000
4097.348809,-9696.697840,222.061783,-689.485948
4097.349138,-10510.924376,666.185348,0.000000
4097.349468,-10881.027347,444.123565,76.609550
4097.349798,-10140.821405,222.061783,383.047749
4097.350128,-8808.450710,0.000000,153.219100
4097.350457,-9622.677246,0.000000,766.095498
4097.350787,-10584.944971,0.000000,153.219100
4097.351117,-10436.903782,0.000000,0.000000
4097.351446,-9992.780217,-444.123565,-153.219100
4097.351776,-9992.780217,0.000000,536.266849
4097.352106,-10140.821405,0.000000,766.095498
4097.352435,-9844.739029,-518.144159,1072.533697
4097.352765,-9326.594869,74.020594,536.266849
4097.353095,-9844.739029,74.020594,612.876398
4097.353424,-10362.883188,518.144159,229.828649
4097.353754,-9918.759623,222.061783,383.047749
4097.354084,-9770.718434,0.000000,0.000000
4097.354413,-9622.677246,0.000000,153.219100
4097.354743,-9992.780217,-222.061783,0.000000
4097.355073,-9252.574275,-666.185348,-919.314598
4097.355403,-8512.368333,-666.185348,-153.219100
4097.355732,-8808.450710,-1036.288319,842.705048
4097.356062,-9770.718434,74.020594,1608.800546
4097.356392,-9696.697840,444.123565,1915.238745
4097.356721,-10288.862594,370.102971,459.657299
4097.357051,-9918.759623,74.020594,-459.657299
4097.357381,-9844.739029,0.000000,-383.047749
4097.357710,-9252.574275,0.000000,-919.314598
4097.358040,-9104.533087,222.061783,-153.219100
4097.358370,-8882.471304,-222.061783,-459.657299
4097.358699,-8956.491898,0.000000,-459.657299
4097.359029,-9178.553681,0.000000,-536.266849
4097.359359,-9622.677246,0.000000,0.000000
4097.359688,-10362.883188,0.000000,383.047749
4097.360018,-10732.986159,0.000000,919.314598
4097.360348,-10066.800811,0.000000,766.095498
4097.360677,-9622.677246,0.000000,919.314598
4097.361007,-10436.903782,0.000000,306.438199
4097.361337,-10362.883188,444.123565,229.828649
4097.361667,-9622.677246,222.061783,76.609550
4097.361996,-9844.739029,148.041188,-612.876398
4097.362326,-9770.718434,296.082377,0.000000
4097.362656,-10288.862594,0.000000,153.219100
4097.362985,-9844.739029,444.123565,-536.266849
4097.363315,-9252.574275,-296.082377,-842.705048
4097.363645,-9252.574275,0.000000,-766.095498
4097.363974,-9622.677246,222.061783,766.095498
4097.364304,-9696.697840,0.000000,995.924147
4097.364634,-10362.883188,148.041188,1149.143247
4097.364963,-10362.883188,370.102971,459.657299
4097.365293,-10510.924376,296.082377,766.095498
4097.365623,-9548.656652,-222.061783,383.047749
4097.365953,-9696.697840,-444.123565,536.266849
4097.366282,-9030.512492,0.000000,1149.143247
4097.366612,-9474.636058,-74.020594,995.924147
4097.366942,-9178.553681,-222.061783,153.219100
4097.367271,-9178.553681,-296.082377,-306.438199
4097.367601,-9400.615463,0.000000,-383.047749
4097.367931,-9992.780217,0.000000,-229.828649
4097.368260,-9844.739029,518.144159,-229.828649
4097.368590,-9622.677246,74.020594,76.609550
4097.368920,-9178.553681,222.061783,153.219100
4097.369250,-9696.697840,518.144159,919.314598
4097.369579,-9992.780217,74.020594,842.705048
4097.369909,-10658.965565,148.041188,229.828649
4097.370239,-10436.903782,296.082377,153.219100
4097.370568,-9548.656652,0.000000,842.705048
4097.370898,-9104.533087,0.000000,536.266849
4097.371228,-9326.594869,0.000000,229.828649
4097.371557,-9178.553681,74.020594,-306.438199
4097.371887,-9622.677246,592.164754,-153.219100
4097.372217,-9844.739029,518.144159,0.000000
4097.372547,-10658.965565,962.267725,-459.657299
4097.372876,-10436.903782,740.205942,-766.095498
4097.373206,-10362.883188,518.144159,-306.438199
4097.373536,-9844.739029,222.061783,0.000000
4097.373865,-10658.965565,0.000000,536.266849
4097.374195,-10140.821405,-444.123565,919.314598
4097.374525,-9474.636058,-222.061783,919.314598
4097.374855,-8882.471304,-444.123565,383.047749
4097.375184,-9400.615463,370.102971,383.047749
4097.375514,-9992.780217,444.123565,383.047749
4097.375844,-10955.047942,222.061783,536.266849
4097.376173,-10658.965565,518.144159,-76.609550
4097.376503,-10436.903782,-444.123565,766.095498
4097.376833,-9548.656652,-666.185348,229.828649
4097.377162,-8882.471304,-518.144159,76.609550
4097.377492,-7920.203579,-888.247130,229.828649
4097.377822,-9104.533087,-592.164754,842.705048
4097.378152,-9622.677246,-296.082377,612.876398
4097.378481,-10362.883188,0.000000,1378.971896
4097.378811,-10140.821405,74.020594,1072.533697
4097.379141,-10362.883188,0.000000,995.924147
4097.379470,-9696.697840,0.000000,0.000000
4097.379800,-9474.636058,148.041188,-459.657299
4097.380130,-9326.594869,0.000000,-306.438199
4097.380459,-9696.697840,370.102971,-459.657299
4097.380789,-9474.636058,592.164754,0.000000
4097.381119,-9770.718434,296.082377,-995.924147
4097.381449,-9696.697840,222.061783,-1225.752797
4097.381778,-10288.862594,0.000000,-1302.362347
4097.382108,-9992.780217,0.000000,383.047749
4097.382438,-9918.759623,0.000000,1149.143247
4097.382767,-9104.533087,-814.226536,153.219100
4097.383097,-9474.636058,-296.082377,306.438199
4097.383427,-9918.759623,888.247130,1072.533697
4097.383756,-10732.986159,444.123565,153.219100
4097.384086,-9918.759623,0.000000,-153.219100
4097.384416,-9252.574275,222.061783,0.000000
4097.384746,-9696.697840,222.061783,842.705048
4097.385075,-10362.883188,296.082377,229.828649
4097.385405,-9474.636058,-370.102971,-612.876398
4097.385735,-9474.636058,74.020594,-459.657299
4097.386064,-8882.471304,148.041188,229.828649
4097.386394,-9844.739029,-74.020594,383.047749
4097.386724,-9696.697840,148.041188,536.266849
4097.387054,-9992.780217,222.061783,919.314598
4097.387383,-10510.924376,222.061783,919.314598
4097.387713,-10066.800811,0.000000,919.314598
4097.388043,-9918.759623,74.020594,383.047749
4097.388372,-9770.718434,0.000000,689.485948
4097.388702,-9548.656652,296.082377,689.485948
4097.389032,-9696.697840,-814.226536,76.609550
4097.389361,-9622.677246,-296.082377,76.609550
4097.389691,-9622.677246,-370.102971,383.047749
4097.390021,-9622.677246,0.000000,153.219100
4097.390351,-9474.636058,296.082377,459.657299
4097.390680,-9844.739029,0.000000,766.095498
4097.391010,-10140.821405,518.144159,153.219100
4097.391340,-10214.842000,296.082377,153.219100
4097.391669,-9770.718434,74.020594,0.000000
4097.391999,-9474.636058,74.020594,612.876398
4097.392329,-10140.821405,148.041188,919.314598
4097.392658,-10214.842000,0.000000,766.095498
4097.392988,-9844.739029,0.000000,306.438199
4097.393318,-9400.615463,0.000000,-842.705048
4097.393648,-9474.636058,0.000000,-612.876398
4097.393977,-9696.697840,222.061783,0.000000
4097.394307,-9252.574275,74.020594,76.609550
4097.394637,-9252.574275,444.123565,383.047749
4097.394966,-9548.656652,0.000000,229.828649
4097.395296,-10066.800811,222.061783,-536.266849
4097.395626,-10066.800811,0.000000,-612.876398
4097.395955,-9474.636058,0.000000,-459.657299
4097.396285,-9696.697840,0.000000,536.266849
4097.396615,-9548.656652,-296.082377,1225.752797
4097.396945,-9030.512492,-370.102971,229.828649
4097.397274,-9326.594869,0.000000,-459.657299
4097.397604,-9770.718434,0.000000,-153.219100
4097.397934,-10955.047942,444.123565,612.876398
4097.398263,-9770.718434,74.020594,842.705048
4097.398593,-9474.636058,-222.061783,919.314598
4097.398923,-9918.759623,518.144159,842.705048
4097.399253,-10732.986159,296.082377,383.047749
4097.399582,-10066.800811,0.000000,-919.314598
4097.399912,-9030.512492,-74.020594,-536.266849
4097.400242,-9770.718434,148.041188,689.485948
4097.400571,-10584.944971,148.041188,1149.143247
4097.400901,-9844.739029,0.000000,689.485948
4097.401231,-9474.636058,148.041188,0.000000
4097.401560,-9474.636058,148.041188,-383.047749
4097.401890,-10214.842000,0.000000,0.000000
4097.402220,-9844.739029,0.000000,0.000000
4097.402550,-9252.574275,0.000000,383.047749
4097.402879,-9474.636058,74.020594,919.314598
4097.403209,-9474.636058,-370.102971,612.876398
4097.403539,-9844.739029,-370.102971,0.000000
4097.403868,-9918.759623,-296.082377,-689.485948
4097.404198,-9474.636058,148.041188,-306.438199
4097.404528,-9400.615463,-592.164754,919.314598
4097.404857,-9252.574275,222.061783,536.266849
4097.405187,-9400.615463,296.082377,842.705048
4097.405517,-10510.924376,74.020594,306.438199
4097.405847,-10436.903782,370.102971,0.000000
4097.406176,-9474.636058,-370.102971,459.657299
4097.406506,-9548.656652,74.020594,612.876398
4097.406836,-10140.821405,0.000000,153.219100
4097.407165,-9992.780217,-1036.288319,0.000000
4097.407495,-8660.409521,0.000000,-689.485948
4097.407825,-9030.512492,74.020594,0.000000
4097.408154,-10214.842000,370.102971,0.000000
4097.408484,-10436.903782,74.020594,1685.410096
4097.408814,-9696.697840,-740.205942,2145.067394
4097.409144,-10066.800811,0.000000,1225.752797
4097.409473,-10881.027347,148.041188,306.438199
4097.409803,-10807.006753,-74.020594,536.266849
4097.410133,-8808.450710,-370.102971,0.000000
4097.410462,-8364.327145,-296.082377,459.657299
4097.410792,-9548.656652,-296.082377,1072.533697
4097.411122,-10584.944971,444.123565,1378.971896
4097.411452,-9770.718434,0.000000,153.219100
4097.411781,-9918.759623,444.123565,-842.705048
4097.412111,-10362.883188,148.041188,-383.047749
4097.412441,-10362.883188,148.041188,229.828649
4097.412770,-9326.594869,222.061783,383.047749
4097.413100,-9178.553681,222.061783,689.485948
4097.413430,-10140.821405,444.123565,229.828649
4097.413759,-10362.883188,370.102971,-766.095498
4097.414089,-9622.677246,-518.144159,-1302.362347
4097.414419,-9770.718434,0.000000,0.000000
4097.414749,-10214.842000,-296.082377,842.705048
4097.415078,-9770.718434,-296.082377,1378.971896
4097.415408,-8364.327145,-222.061783,612.876398
4097.415738,-8660.409521,-444.123565,842.705048
4097.416067,-9770.718434,74.020594,153.219100
4097.416397,-10510.924376,148.041188,459.657299
4097.416727,-9622.677246,296.082377,76.609550
4097.417056,-9474.636058,296.082377,-229.828649
4097.417386,-9696.697840,0.000000,229.828649
4097.417716,-10584.944971,222.061783,0.000000
4097.418046,-9400.615463,592.164754,-689.485948
4097.418375,-9030.512492,222.061783,-766.095498
4097.418705,-9326.594869,518.144159,0.000000
4097.419035,-10214.842000,814.226536,995.924147
4097.419364,-10214.842000,296.082377,306.438199
4097.419694,-10732.986159,518.144159,-229.828649
4097.420024,-10881.027347,370.102971,-306.438199
4097.420353,-10066.800811,-148.041188,383.047749
4097.420683,-8512.368333,0.000000,536.266849
4097.421013,-8882.471304,148.041188,842.705048
4097.421343,-9252.574275,444.123565,919.314598
4097.421672,-9696.697840,444.123565,459.657299
4097.422002,-9844.739029,74.020594,-76.609550
4097.422332,-10362.883188,444.123565,-229.828649
4097.422661,-10658.965565,370.102971,-459.657299
4097.422991,-9918.759623,0.000000,0.000000
4097.423321,-8586.388927,-148.041188,-383.047749
4097.423651,-8586.388927,0.000000,0.000000
4097.423980,-9622.677246,0.000000,383.047749
4097.424310,-9696.697840,148.041188,76.609550
4097.424640,-9474.636058,0.000000,76.609550
4097.424969,-10214.842000,74.020594,76.609550
4097.425299,-10066.800811,0.000000,383.047749
4097.425629,-10066.800811,-518.144159,919.314598
4097.425958,-8808.450710,-74.020594,-383.047749
4097.426288,-9030.512492,-592.164754,76.609550
4097.426618,-9770.718434,222.061783,306.438199
4097.426948,-10066.800811,0.000000,383.047749
4097.427277,-9252.574275,296.082377,536.266849
4097.427607,-10066.800811,148.041188,-306.438199
4097.427937,-10362.883188,518.144159,-612.876398
4097.428266,-10288.862594,-74.020594,-306.438199
4097.428596,-8734.430116,148.041188,-306.438199
4097.428926,-9400.615463,0.000000,306.438199
4097.429255,-10214.842000,222.061783,0.000000
4097.429585,-10288.862594,0.000000,383.047749
4097.429915,-10066.800811,-370.102971,229.828649
4097.430245,-10066.800811,0.000000,459.657299
4097.430574,-10066.800811,222.061783,1149.143247
4097.430904,-10066.800811,0.000000,766.095498
4097.431234,-9326.594869,0.000000,306.438199
4097.431563,-9474.636058,0.000000,1149.143247
4097.431893,-10584.944971,0.000000,842.705048
4097.432223,-10658.965565,-148.041188,766.095498
4097.432552,-9400.615463,-518.144159,459.657299
4097.432882,-8956.491898,0.000000,0.000000
4097.433212,-9474.636058,-296.082377,689.485948
4097.433542,-9622.677246,-296.082377,1072.533697
4097.433871,-9178.553681,-148.041188,536.266849
4097.434201,-9696.697840,0.000000,-459.657299
4097.434531,-10510.924376,0.000000,536.266849
4097.434860,-10066.800811,-222.061783,995.924147
4097.435190,-9844.739029,-222.061783,919.314598
4097.435520,-9696.697840,0.000000,76.609550
4097.435850,-9992.780217,222.061783,-383.047749
4097.436179,-9548.656652,-518.144159,-383.047749
4097.436509,-8734.430116,74.020594,-459.657299
4097.436839,-9474.636058,148.041188,0.000000
4097.437168,-9622.677246,296.082377,76.609550
4097.437498,-10436.903782,0.000000,383.047749
4097.437828,-9548.656652,-444.123565,-229.828649
4097.438157,-9474.636058,-370.102971,-766.095498
4097.438487,-10140.821405,0.000000,612.876398
4097.438817,-9548.656652,-518.144159,689.485948
4097.439147,-8734.430116,-296.082377,306.438199
4097.439476,-9178.553681,148.041188,536.266849
4097.439806,-9992.780217,148.041188,76.609550
4097.440136,-10807.006753,370.102971,459.657299
4097.440465,-10881.027347,222.061783,0.000000
4097.440795,-10066.800811,-222.061783,-689.485948
4097.441125,-9178.553681,-222.061783,-383.047749
4097.441454,-8438.347739,-222.061783,-459.657299
4097.441784,-8882.471304,-740.205942,-306.438199
4097.442114,-9844.739029,-666.185348,-229.828649
4097.442444,-10214.842000,0.000000,153.219100
4097.442773,-9696.697840,444.123565,689.485948
4097.443103,-10066.800811,0.000000,1455.581446
4097.443433,-10066.800811,0.000000,842.705048
4097.443762,-9844.739029,-222.061783,536.266849
4097.444092,-9770.718434,74.020594,76.609550
4097.444422,-9548.656652,0.000000,153.219100
4097.444751,-9548.656652,-296.082377,229.828649
4097.445081,-9104.533087,0.000000,76.609550
4097.445411,-8808.450710,296.082377,689.485948
4097.445741,-10140.821405,666.185348,0.000000
4097.446070,-11029.068536,814.226536,-306.438199
4097.446400,-10288.862594,740.205942,-536.266849
