#time,accel_x,accel_y,accel_z
4176.721383,-9918.759623,74.020594,229.828649
4176.721712,-9770.718434,74.020594,459.657299
4176.722042,-9844.739029,0.000000,0.000000
4176.722372,-9844.739029,74.020594,153.219100
4176.722702,-9770.718434,74.020594,0.000000
4176.723032,-9696.697840,0.000000,153.219100
4176.723361,-9474.636058,0.000000,0.000000
4176.723691,-9548.656652,222.061783,153.219100
4176.724021,-9918.759623,148.041188,76.609550
4176.724351,-9696.697840,0.000000,0.000000
4176.724681,-9770.718434,0.000000,-306.438199
4176.725010,-10214.842000,0.000000,-153.219100
4176.725340,-9992.780217,0.000000,76.609550
4176.725670,-9622.677246,-370.102971,76.609550
4176.726000,-9696.697840,-148.041188,842.705048
4176.726330,-9548.656652,-444.123565,1532.190996
4176.726659,-9696.697840,0.000000,995.924147
4176.726989,-9770.718434,74.020594,766.095498
4176.727319,-9992.780217,0.000000,229.828649
4176.727649,-9918.759623,-222.061783,612.876398
4176.727979,-10066.800811,296.082377,842.705048
4176.728308,-9844.739029,222.061783,919.314598
4176.728638,-9622.677246,0.000000,842.705048
4176.728968,-9844.739029,0.000000,1455.581446
4176.729298,-10066.800811,-222.061783,1608.800546
4176.729628,-10066.800811,-296.082377,919.314598
4176.729958,-9770.718434,0.000000,229.828649
4176.730287,-9474.636058,-444.123565,-612.876398
4176.730617,-9770.718434,-518.144159,153.219100
4176.730947,-9696.697840,-666.185348,1225.752797
4176.731277,-10140.821405,-518.144159,1838.629195
4176.731607,-9548.656652,-814.226536,2068.457845
4176.731936,-9252.574275,-592.164754,2604.724693
4176.732266,-9326.594869,-740.205942,2068.457845
4176.732596,-9622.677246,-888.247130,2145.067394
4176.732926,-9844.739029,-962.267725,2145.067394
4176.733256,-9622.677246,-592.164754,2451.505594
4176.733585,-9992.780217,-296.082377,2681.334243
4176.733915,-9918.759623,-666.185348,2528.115143
4176.734245,-10584.944971,-592.164754,2145.067394
4176.734575,-10658.965565,-518.144159,1915.238745
4176.734905,-10214.842000,-444.123565,1838.629195
4176.735234,-9918.759623,-370.102971,1072.533697
4176.735564,-9474.636058,-962.267725,1225.752797
4176.735894,-9622.677246,-888.247130,2221.676944
4176.736224,-9696.697840,-1184.329507,2298.286494
4176.736554,-9548.656652,-1258.350101,2528.115143
4176.736883,-9252.574275,-1776.494261,2298.286494
4176.737213,-9252.574275,-2146.597232,2298.286494
4176.737543,-9474.636058,-2368.659014,2834.553343
4176.737873,-9696.697840,-1850.514855,3447.429741
4176.738203,-10214.842000,-2294.638420,3677.258390
4176.738532,-10658.965565,-2072.576638,3524.039291
4176.738862,-10807.006753,-2368.659014,3447.429741
4176.739192,-11103.089130,-1776.494261,2451.505594
4176.739522,-11029.068536,-1776.494261,2145.067394
4176.739852,-11251.130318,-1850.514855,1532.190996
4176.740181,-10584.944971,-2220.617826,1762.019645
4176.740511,-9696.697840,-3034.844362,1915.238745
4176.740841,-9326.594869,-3552.988522,2987.772442
4176.741171,-8438.347739,-4145.153275,3370.820191
4176.741501,-9844.739029,-4515.256246,4213.525239
4176.741830,-9400.615463,-4811.338623,3677.258390
4176.742160,-8956.491898,-4959.379811,2681.334243
4176.742490,-9178.553681,-4589.276840,3064.381992
4176.742820,-9474.636058,-4737.318029,3600.648841
4176.743150,-9622.677246,-3849.070898,4136.915689
4176.743479,-9844.739029,-3256.906145,3677.258390
4176.743809,-9400.615463,-3256.906145,2528.115143
4176.744139,-9548.656652,-3552.988522,1225.752797
4176.744469,-10362.883188,-3552.988522,536.266849
4176.744799,-9474.636058,-4219.173869,1532.190996
4176.745128,-9178.553681,-4293.194464,2451.505594
4176.745458,-8734.430116,-4367.215058,1915.238745
4176.745788,-8438.347739,-4663.297435,1149.143247
4176.746118,-8512.368333,-4441.235652,1072.533697
4176.746448,-9474.636058,-4145.153275,2374.896044
4176.746777,-10881.027347,-3330.926739,3753.867940
4176.747107,-10732.986159,-3182.885551,4213.525239
4176.747437,-10214.842000,-3256.906145,3294.210641
4176.747767,-9622.677246,-2960.823768,2911.162892
4176.748097,-10658.965565,-3478.967927,2221.676944
4176.748426,-11621.233289,-3108.864956,3217.601092
4176.748756,-11325.150913,-2886.803174,3983.696590
4176.749086,-10362.883188,-2738.761985,3064.381992
4176.749416,-10140.821405,-2664.741391,2451.505594
4176.749746,-10807.006753,-1998.556043,1608.800546
4176.750075,-10881.027347,-1924.535449,2221.676944
4176.750405,-10881.027347,-1924.535449,2145.067394
4176.750735,-10140.821405,-2146.597232,2451.505594
4176.751065,-9992.780217,-1998.556043,3524.039291
4176.751395,-10140.821405,-2146.597232,4213.525239
4176.751724,-10362.883188,-2220.617826,3677.258390
4176.752054,-10584.944971,-1776.494261,3140.991542
4176.752384,-10140.821405,-1850.514855,2681.334243
4176.752714,-10362.883188,-1406.391290,3217.601092
4176.753044,-9992.780217,-1184.329507,3524.039291
4176.753374,-9474.636058,-1184.329507,3524.039291
4176.753703,-9252.574275,-740.205942,2374.896044
4176.754033,-9104.533087,-740.205942,766.095498
4176.754363,-9030.512492,-962.267725,76.609550
4176.754693,-8734.430116,-740.205942,1685.410096
4176.755023,-8956.491898,-740.205942,2221.676944
4176.755352,-9252.574275,-592.164754,1532.190996
4176.755682,-9104.533087,-740.205942,1302.362347
4176.756012,-9326.594869,-666.185348,1149.143247
4176.756342,-9622.677246,0.000000,1608.800546
4176.756672,-9178.553681,0.000000,1072.533697
4176.757001,-9252.574275,-296.082377,1225.752797
4176.757331,-9992.780217,222.061783,2528.115143
4176.757661,-11325.150913,592.164754,2681.334243
4176.757991,-10807.006753,444.123565,1302.362347
4176.758321,-9622.677246,296.082377,-383.047749
4176.758650,-8882.471304,0.000000,-229.828649
4176.758980,-9770.718434,814.226536,1149.143247
4176.759310,-10510.924376,370.102971,1915.238745
4176.759640,-9622.677246,74.020594,1532.190996
4176.759970,-9474.636058,-296.082377,1072.533697
4176.760299,-10214.842000,-296.082377,1149.143247
4176.760629,-11251.130318,-888.247130,2451.505594
4176.760959,-10955.047942,-1110.308913,2911.162892
4176.761289,-10140.821405,-1258.350101,3753.867940
4176.761619,-10288.862594,-962.267725,3370.820191
4176.761948,-9770.718434,-888.247130,2911.162892
4176.762278,-10955.047942,-1184.329507,2834.553343
4176.762608,-11029.068536,-962.267725,2451.505594
4176.762938,-10510.924376,-1554.432478,1762.019645
4176.763268,-9474.636058,-2368.659014,1455.581446
4176.763597,-8882.471304,-2960.823768,2451.505594
4176.763927,-9326.594869,-2960.823768,3524.039291
4176.764257,-9474.636058,-3478.967927,3217.601092
4176.764587,-9104.533087,-3849.070898,2068.457845
4176.764917,-8364.327145,-3775.050304,3064.381992
4176.765246,-9474.636058,-4145.153275,3983.696590
4176.765576,-10288.862594,-3552.988522,4903.011187
4176.765906,-10140.821405,-3849.070898,4749.792088
4176.766236,-9400.615463,-3997.112087,3600.648841
4176.766566,-9474.636058,-3775.050304,2911.162892
4176.766895,-10658.965565,-3034.844362,2451.505594
4176.767225,-11473.192101,-3552.988522,2681.334243
4176.767555,-10066.800811,-2812.782580,2834.553343
4176.767885,-9104.533087,-4219.173869,1991.848295
4176.768215,-9622.677246,-3552.988522,1685.410096
4176.768544,-9992.780217,-4145.153275,2145.067394
4176.768874,-9844.739029,-4219.173869,2145.067394
4176.769204,-9178.553681,-4293.194464,2451.505594
4176.769534,-9696.697840,-3923.091493,2987.772442
4176.769864,-10881.027347,-3478.967927,3907.087040
4176.770193,-11547.212695,-3330.926739,4673.182538
4176.770523,-11399.171507,-3108.864956,4136.915689
4176.770853,-10955.047942,-3552.988522,3600.648841
4176.771183,-10584.944971,-2960.823768,2528.115143
4176.771513,-10288.862594,-2812.782580,2911.162892
4176.771842,-10140.821405,-2220.617826,2145.067394
4176.772172,-10362.883188,-2368.659014,2221.676944
4176.772502,-9992.780217,-1850.514855,1455.581446
4176.772832,-9918.759623,-2294.638420,1072.533697
4176.773162,-9992.780217,-2368.659014,1072.533697
4176.773491,-10140.821405,-2146.597232,1762.019645
4176.773821,-9326.594869,-2368.659014,1149.143247
4176.774151,-8882.471304,-2146.597232,2068.457845
4176.774481,-9400.615463,-2220.617826,3753.867940
4176.774811,-9992.780217,-2368.659014,4290.134789
4176.775140,-9770.718434,-2368.659014,3983.696590
4176.775470,-9474.636058,-2368.659014,2451.505594
4176.775800,-9474.636058,-2220.617826,2451.505594
4176.776130,-9992.780217,-1850.514855,3600.648841
4176.776460,-8882.471304,-2072.576638,3217.601092
4176.776790,-7698.141797,-1702.473667,2145.067394
4176.777119,-9030.512492,-740.205942,1608.800546
4176.777449,-10140.821405,-962.267725,842.705048
4176.777779,-10362.883188,-518.144159,229.828649
4176.778109,-9992.780217,-740.205942,383.047749
4176.778439,-8956.491898,-962.267725,1685.410096
4176.778768,-9252.574275,-1110.308913,2757.943793
4176.779098,-8882.471304,-1258.350101,2834.553343
4176.779428,-9178.553681,-1036.288319,2221.676944
4176.779758,-9844.739029,-592.164754,1915.238745
4176.780087,-11029.068536,-592.164754,2068.457845
4176.780417,-11029.068536,-148.041188,2681.334243
4176.780747,-10807.006753,-444.123565,2221.676944
4176.781077,-9622.677246,0.000000,2145.067394
4176.781406,-9548.656652,74.020594,612.876398
4176.781736,-9622.677246,444.123565,-383.047749
4176.782066,-9992.780217,370.102971,-383.047749
4176.782396,-10732.986159,1184.329507,689.485948
4176.782725,-10288.862594,222.061783,995.924147
4176.783055,-11177.109724,296.082377,229.828649
4176.783385,-10066.800811,-518.144159,0.000000
4176.783714,-9474.636058,-1036.288319,459.657299
4176.784044,-9474.636058,-518.144159,1455.581446
4176.784374,-9474.636058,-962.267725,2528.115143
4176.784704,-9696.697840,-296.082377,2298.286494
4176.785033,-10436.903782,0.000000,1991.848295
4176.785363,-11103.089130,148.041188,1378.971896
4176.785693,-10658.965565,-1258.350101,766.095498
4176.786023,-8882.471304,-666.185348,919.314598
4176.786352,-8660.409521,-1258.350101,2221.676944
4176.786682,-9622.677246,-444.123565,2528.115143
4176.787012,-9992.780217,-592.164754,919.314598
4176.787341,-9770.718434,-370.102971,-459.657299
4176.787671,-9992.780217,0.000000,-1838.629195
4176.788001,-9918.759623,0.000000,-1072.533697
4176.788331,-11029.068536,-444.123565,0.000000
4176.788660,-9992.780217,-740.205942,153.219100
4176.788990,-7698.141797,-1036.288319,153.219100
4176.789320,-8882.471304,-814.226536,459.657299
4176.789650,-9770.718434,-962.267725,153.219100
4176.789979,-9548.656652,-444.123565,536.266849
4176.790309,-9030.512492,-444.123565,1685.410096
4176.790639,-9548.656652,-148.041188,995.924147
4176.790969,-10732.986159,-444.123565,1225.752797
4176.791298,-10807.006753,0.000000,919.314598
4176.791628,-10732.986159,-888.247130,76.609550
4176.791958,-9474.636058,-814.226536,995.924147
4176.792287,-8956.491898,-1332.370696,1302.362347
4176.792617,-9104.533087,-1036.288319,1455.581446
4176.792947,-9326.594869,74.020594,612.876398
4176.793277,-9622.677246,0.000000,-995.924147
4176.793606,-10066.800811,222.061783,-1072.533697
4176.793936,-10732.986159,1036.288319,-612.876398
4176.794266,-10658.965565,296.082377,-153.219100
4176.794596,-10732.986159,0.000000,919.314598
4176.794925,-9844.739029,-814.226536,76.609550
4176.795255,-9696.697840,-1184.329507,-459.657299
4176.795585,-9252.574275,-888.247130,306.438199
4176.795915,-9326.594869,-1110.308913,306.438199
4176.796244,-8734.430116,-740.205942,1149.143247
4176.796574,-9030.512492,-296.082377,1225.752797
4176.796904,-8956.491898,-296.082377,229.828649
4176.797233,-9474.636058,0.000000,306.438199
4176.797563,-9844.739029,666.185348,-612.876398
4176.797893,-10362.883188,74.020594,-1149.143247
4176.798223,-10584.944971,296.082377,-842.705048
4176.798552,-9992.780217,-444.123565,-229.828649
4176.798882,-8734.430116,-666.185348,689.485948
4176.799212,-8660.409521,0.000000,689.485948
4176.799542,-9400.615463,-666.185348,76.609550
4176.799871,-9844.739029,-444.123565,306.438199
4176.800201,-9104.533087,-296.082377,842.705048
4176.800531,-9474.636058,296.082377,842.705048
4176.800861,-9992.780217,444.123565,1149.143247
4176.801190,-10881.027347,666.185348,689.485948
4176.801520,-10955.047942,592.164754,306.438199
4176.801850,-10732.986159,814.226536,-536.266849
4176.802179,-10584.944971,296.082377,-1225.752797
4176.802509,-10214.842000,148.041188,-306.438199
4176.802839,-9104.533087,148.041188,306.438199
4176.803169,-8956.491898,222.061783,689.485948
4176.803498,-9400.615463,666.185348,76.609550
4176.803828,-10288.862594,814.226536,0.000000
4176.804158,-10955.047942,370.102971,-306.438199
4176.804488,-9178.553681,222.061783,-76.609550
4176.804817,-9400.615463,888.247130,0.000000
4176.805147,-9696.697840,1184.329507,919.314598
4176.805477,-10436.903782,1110.308913,383.047749
4176.805806,-11547.212695,1554.432478,-766.095498
4176.806136,-10140.821405,666.185348,-1915.238745
4176.806466,-9474.636058,518.144159,-1532.190996
4176.806796,-8586.388927,518.144159,919.314598
4176.807125,-9030.512492,222.061783,1455.581446
4176.807455,-8956.491898,592.164754,459.657299
4176.807785,-8808.450710,592.164754,-612.876398
4176.808115,-9770.718434,1332.370696,-1532.190996
4176.808444,-10288.862594,1702.473667,0.000000
4176.808774,-10732.986159,1480.411884,459.657299
4176.809104,-11399.171507,1332.370696,689.485948
4176.809434,-10066.800811,1184.329507,1072.533697
4176.809763,-9474.636058,1110.308913,536.266849
4176.810093,-9474.636058,1406.391290,-459.657299
4176.810423,-10732.986159,814.226536,0.000000
4176.810752,-10362.883188,74.020594,689.485948
4176.811082,-9696.697840,518.144159,612.876398
4176.811412,-9474.636058,370.102971,1149.143247
4176.811742,-9474.636058,74.020594,689.485948
4176.812071,-9696.697840,222.061783,612.876398
4176.812401,-10066.800811,74.020594,306.438199
4176.812731,-9844.739029,444.123565,-76.609550
4176.813061,-9252.574275,148.041188,0.000000
4176.813390,-9770.718434,74.020594,1072.533697
4176.813720,-10288.862594,-444.123565,1378.971896
4176.814050,-9992.780217,0.000000,153.219100
4176.814380,-8956.491898,-962.267725,-842.705048
4176.814709,-9326.594869,-592.164754,-612.876398
4176.815039,-9252.574275,-888.247130,0.000000
4176.815369,-9252.574275,-962.267725,229.828649
4176.815698,-8734.430116,-666.185348,0.000000
4176.816028,-9104.533087,-370.102971,-995.924147
4176.816358,-9918.759623,-518.144159,-383.047749
4176.816688,-9918.759623,-814.226536,-612.876398
4176.817017,-8882.471304,-518.144159,0.000000
4176.817347,-8808.450710,-444.123565,383.047749
4176.817677,-10288.862594,-666.185348,1532.190996
4176.818007,-10807.006753,-740.205942,1532.190996
4176.818336,-9918.759623,-1036.288319,-306.438199
4176.818666,-9326.594869,-962.267725,-306.438199
4176.818996,-10436.903782,-740.205942,-842.705048
4176.819325,-10288.862594,-222.061783,229.828649
4176.819655,-9252.574275,-592.164754,766.095498
4176.819985,-9474.636058,0.000000,689.485948
4176.820315,-9548.656652,0.000000,383.047749
4176.820644,-11547.212695,-370.102971,229.828649
4176.820974,-10881.027347,-222.061783,383.047749
4176.821304,-10807.006753,-888.247130,766.095498
4176.821634,-10140.821405,-518.144159,919.314598
4176.821963,-8956.491898,-1406.391290,229.828649
4176.822293,-8808.450710,-518.144159,153.219100
4176.822623,-8734.430116,-444.123565,459.657299
4176.822953,-10510.924376,296.082377,995.924147
4176.823282,-11177.109724,518.144159,1455.581446
4176.823612,-9918.759623,-370.102971,0.000000
4176.823942,-9474.636058,814.226536,153.219100
4176.824271,-9696.697840,592.164754,306.438199
4176.824601,-10214.842000,-222.061783,229.828649
4176.824931,-9548.656652,0.000000,995.924147
4176.825261,-8808.450710,74.020594,0.000000
4176.825590,-9030.512492,222.061783,-766.095498
4176.825920,-9474.636058,148.041188,-919.314598
4176.826250,-9474.636058,370.102971,-689.485948
4176.826580,-9844.739029,518.144159,459.657299
4176.826909,-9030.512492,444.123565,-306.438199
4176.827239,-8068.244768,148.041188,-153.219100
4176.827569,-8956.491898,370.102971,842.705048
4176.827899,-10066.800811,444.123565,995.924147
4176.828228,-11695.253884,444.123565,1762.019645
4176.828558,-10732.986159,1480.411884,919.314598
4176.828888,-9104.533087,148.041188,-76.609550
4176.829217,-8956.491898,444.123565,306.438199
4176.829547,-9770.718434,740.205942,0.000000
4176.829877,-9844.739029,148.041188,-153.219100
4176.830207,-9252.574275,1036.288319,0.000000
4176.830536,-9030.512492,962.267725,-689.485948
4176.830866,-10066.800811,1258.350101,-306.438199
4176.831196,-10732.986159,1332.370696,-842.705048
4176.831526,-11251.130318,370.102971,-1225.752797
4176.831855,-9918.759623,370.102971,-153.219100
4176.832185,-9474.636058,370.102971,0.000000
4176.832515,-10436.903782,592.164754,1378.971896
4176.832845,-9770.718434,888.247130,612.876398
4176.833174,-9178.553681,444.123565,-1455.581446
4176.833504,-9326.594869,740.205942,-1838.629195
4176.833834,-9918.759623,962.267725,-1915.238745
4176.834163,-10362.883188,444.123565,-306.438199
4176.834493,-10140.821405,0.000000,689.485948
4176.834823,-9696.697840,-148.041188,919.314598
4176.835153,-9252.574275,-666.185348,612.876398
4176.835482,-8956.491898,-222.061783,76.609550
4176.835812,-10140.821405,-370.102971,306.438199
4176.836142,-10584.944971,-74.020594,1378.971896
4176.836472,-10362.883188,-148.041188,1455.581446
4176.836801,-9770.718434,-370.102971,1378.971896
4176.837131,-9030.512492,-222.061783,1455.581446
4176.837461,-9178.553681,-222.061783,0.000000
4176.837790,-9178.553681,-296.082377,-689.485948
4176.838120,-9104.533087,-444.123565,-842.705048
4176.838450,-9474.636058,-1184.329507,76.609550
4176.838780,-10214.842000,-296.082377,1302.362347
4176.839109,-9918.759623,-370.102971,383.047749
4176.839439,-9844.739029,-370.102971,-459.657299
4176.839769,-9918.759623,-740.205942,-689.485948
4176.840099,-9622.677246,-740.205942,153.219100
4176.840428,-9918.759623,-888.247130,1225.752797
4176.840758,-9474.636058,-666.185348,153.219100
4176.841088,-9474.636058,-296.082377,0.000000
4176.841418,-8586.388927,-222.061783,-536.266849
4176.841747,-10140.821405,-222.061783,-383.047749
4176.842077,-11103.089130,0.000000,459.657299
4176.842407,-10658.965565,-444.123565,383.047749
4176.842736,-9918.759623,0.000000,153.219100
4176.843066,-9030.512492,-518.144159,229.828649
4176.843396,-10288.862594,296.082377,0.000000
4176.843726,-10658.965565,-370.102971,0.000000
4176.844055,-10140.821405,-296.082377,0.000000
4176.844385,-9474.636058,-296.082377,1225.752797
4176.844715,-9622.677246,296.082377,1608.800546
4176.845045,-10066.800811,-222.061783,306.438199
4176.845374,-10140.821405,0.000000,-229.828649
4176.845704,-9696.697840,0.000000,0.000000
4176.846034,-10436.903782,-148.041188,842.705048
4176.846364,-10066.800811,0.000000,1532.190996
4176.846693,-9474.636058,-370.102971,1991.848295
4176.847023,-8882.471304,148.041188,1302.362347
4176.847353,-9474.636058,0.000000,229.828649
4176.847682,-9918.759623,444.123565,-459.657299
4176.848012,-10584.944971,296.082377,919.314598
4176.848342,-9844.739029,518.144159,1532.190996
4176.848672,-9474.636058,296.082377,536.266849
4176.849001,-9918.759623,888.247130,-689.485948
4176.849331,-9918.759623,74.020594,-1378.971896
4176.849661,-9326.594869,222.061783,-1532.190996
4176.849991,-8660.409521,518.144159,-842.705048
4176.850320,-9030.512492,518.144159,76.609550
4176.850650,-9918.759623,962.267725,1302.362347
4176.850980,-10214.842000,518.144159,612.876398
4176.851310,-9918.759623,592.164754,-536.266849
4176.851639,-9474.636058,-666.185348,-459.657299
4176.851969,-9548.656652,0.000000,383.047749
4176.852299,-9252.574275,-666.185348,1532.190996
4176.852628,-9252.574275,74.020594,2145.067394
4176.852958,-10436.903782,148.041188,1991.848295
4176.853288,-10658.965565,666.185348,383.047749
4176.853618,-10732.986159,370.102971,-919.314598
4176.853947,-10066.800811,592.164754,-536.266849
4176.854277,-9918.759623,370.102971,995.924147
4176.854607,-9770.718434,444.123565,1455.581446
4176.854937,-9030.512492,222.061783,536.266849
4176.855266,-9548.656652,0.000000,-383.047749
4176.855596,-9918.759623,0.000000,-995.924147
4176.855926,-10510.924376,148.041188,153.219100
4176.856255,-10066.800811,222.061783,383.047749
4176.856585,-9400.615463,296.082377,0.000000
4176.856915,-9844.739029,444.123565,76.609550
4176.857245,-10140.821405,592.164754,0.000000
4176.857574,-10658.965565,-148.041188,0.000000
4176.857904,-9844.739029,0.000000,0.000000
4176.858234,-9696.697840,-222.061783,536.266849
4176.858564,-9844.739029,-74.020594,1149.143247
4176.858893,-9548.656652,-444.123565,612.876398
4176.859223,-9474.636058,-222.061783,0.000000
4176.859553,-9622.677246,-148.041188,-766.095498
4176.859883,-9326.594869,-592.164754,-1149.143247
4176.860212,-9030.512492,0.000000,-459.657299
4176.860542,-9474.636058,666.185348,153.219100
4176.860872,-10214.842000,148.041188,229.828649
4176.861201,-10584.944971,518.144159,995.924147
4176.861531,-10288.862594,148.041188,612.876398
4176.861861,-10881.027347,296.082377,919.314598
4176.862191,-10584.944971,-74.020594,689.485948
4176.862520,-9696.697840,0.000000,383.047749
4176.862850,-8956.491898,74.020594,0.000000
4176.863180,-9252.574275,592.164754,-306.438199
4176.863510,-9548.656652,444.123565,0.000000
4176.863839,-10584.944971,222.061783,-76.609550
4176.864169,-9770.718434,74.020594,-1072.533697
4176.864499,-9474.636058,370.102971,-612.876398
4176.864829,-9992.780217,296.082377,-689.485948
4176.865158,-10436.903782,296.082377,0.000000
4176.865488,-9474.636058,-592.164754,1072.533697
4176.865818,-8586.388927,148.041188,842.705048
4176.866147,-10436.903782,444.123565,459.657299
4176.866477,-11399.171507,222.061783,0.000000
4176.866807,-9178.553681,0.000000,-306.438199
4176.867137,-8142.265362,148.041188,-383.047749
4176.867466,-9622.677246,814.226536,0.000000
4176.867796,-10955.047942,222.061783,383.047749
4176.868126,-10140.821405,518.144159,766.095498
4176.868456,-8216.285956,-222.061783,153.219100
4176.868785,-9474.636058,148.041188,76.609550
4176.869115,-10510.924376,222.061783,306.438199
4176.869445,-9770.718434,-666.185348,76.609550
4176.869774,-8660.409521,-74.020594,842.705048
4176.870104,-8956.491898,0.000000,1225.752797
4176.870434,-10807.006753,296.082377,2298.286494
4176.870764,-10436.903782,-222.061783,1532.190996
4176.871093,-8956.491898,444.123565,995.924147
4176.871423,-9252.574275,148.041188,0.000000
4176.871753,-10658.965565,592.164754,-383.047749
4176.872083,-10955.047942,0.000000,459.657299
4176.872412,-9770.718434,370.102971,2374.896044
4176.872742,-9696.697840,592.164754,1302.362347
4176.873072,-10362.883188,0.000000,306.438199
4176.873402,-9252.574275,-518.144159,-536.266849
4176.873731,-8882.471304,-592.164754,-459.657299
4176.874061,-9622.677246,-74.020594,459.657299
4176.874391,-10214.842000,-370.102971,459.657299
4176.874720,-9622.677246,-370.102971,459.657299
4176.875050,-8586.388927,-296.082377,0.000000
4176.875379,-9030.512492,-444.123565,-383.047749
4176.875709,-10436.903782,-444.123565,536.266849
4176.876039,-9622.677246,-518.144159,459.657299
4176.876369,-9474.636058,-666.185348,689.485948
4176.876698,-9474.636058,-1110.308913,612.876398
4176.877028,-9696.697840,-888.247130,536.266849
4176.877358,-10214.842000,-814.226536,536.266849
4176.877687,-10436.903782,-74.020594,-612.876398
4176.878017,-10362.883188,-444.123565,-153.219100
4176.878347,-10214.842000,222.061783,459.657299
4176.878677,-9252.574275,0.000000,-536.266849
4176.879006,-8734.430116,222.061783,-536.266849
4176.879336,-10214.842000,370.102971,-612.876398
4176.879666,-11177.109724,148.041188,-766.095498
4176.879996,-10510.924376,-444.123565,-612.876398
4176.880325,-9548.656652,74.020594,0.000000
4176.880655,-9844.739029,-444.123565,689.485948
4176.880985,-9992.780217,-148.041188,1378.971896
4176.881314,-8438.347739,-666.185348,-459.657299
4176.881644,-8438.347739,-592.164754,-536.266849
4176.881974,-9400.615463,296.082377,0.000000
4176.882304,-10955.047942,518.144159,536.266849
4176.882633,-10732.986159,814.226536,229.828649
4176.882963,-9844.739029,888.247130,-459.657299
4176.883293,-9844.739029,592.164754,-919.314598
4176.883623,-10436.903782,814.226536,-919.314598
4176.883952,-9696.697840,518.144159,-1302.362347
4176.884282,-9474.636058,222.061783,-383.047749
4176.884612,-9548.656652,518.144159,-689.485948
4176.884941,-9622.677246,740.205942,-689.485948
4176.885271,-8956.491898,592.164754,-689.485948
4176.885601,-8882.471304,370.102971,-919.314598
4176.885931,-9400.615463,74.020594,0.000000
4176.886260,-9992.780217,518.144159,1072.533697
4176.886590,-9992.780217,0.000000,1378.971896
4176.886920,-9844.739029,518.144159,1072.533697
4176.887249,-9992.780217,814.226536,1149.143247
4176.887579,-10288.862594,296.082377,1685.410096
4176.887909,-9104.533087,444.123565,1149.143247
4176.888239,-9770.718434,592.164754,536.266849
4176.888568,-9770.718434,814.226536,0.000000
4176.888898,-9918.759623,0.000000,0.000000
4176.889228,-9770.718434,518.144159,0.000000
4176.889558,-9326.594869,148.041188,306.438199
4176.889887,-9622.677246,370.102971,76.609550
4176.890217,-9326.594869,222.061783,229.828649
4176.890547,-8734.430116,0.000000,-153.219100
4176.890876,-9474.636058,888.247130,1149.143247
4176.891206,-10732.986159,666.185348,1149.143247
4176.891536,-11621.233289,740.205942,1685.410096
4176.891866,-10362.883188,222.061783,919.314598
4176.892195,-9326.594869,0.000000,229.828649
4176.892525,-9474.636058,518.144159,-383.047749
4176.892855,-9992.780217,-370.102971,-689.485948
4176.893185,-9030.512492,0.000000,-766.095498
4176.893514,-9474.636058,148.041188,-612.876398
4176.893844,-9918.759623,148.041188,0.000000
4176.894174,-9918.759623,0.000000,612.876398
4176.894503,-10140.821405,0.000000,229.828649
4176.894833,-9918.759623,-148.041188,76.609550
4176.895163,-10436.903782,-296.082377,766.095498
4176.895493,-10436.903782,-740.205942,1302.362347
4176.895822,-10066.800811,-888.247130,842.705048
4176.896152,-9252.574275,-444.123565,1072.533697
4176.896482,-9992.780217,-444.123565,689.485948
4176.896812,-10881.027347,0.000000,306.438199
4176.897141,-10510.924376,0.000000,0.000000
4176.897471,-9918.759623,148.041188,-383.047749
4176.897801,-9400.615463,-592.164754,612.876398
4176.898130,-9622.677246,74.020594,689.485948
4176.898460,-9918.759623,-518.144159,689.485948
4176.898790,-10140.821405,-222.061783,0.000000
4176.899120,-9918.759623,-370.102971,-919.314598
4176.899449,-9548.656652,-74.020594,-1072.533697
4176.899779,-10436.903782,-296.082377,306.438199
4176.900109,-10140.821405,-666.185348,1532.190996
4176.900439,-9844.739029,0.000000,536.266849
4176.900768,-8808.450710,-888.247130,-536.266849
4176.901098,-8438.347739,-740.205942,-459.657299
4176.901428,-8956.491898,-1036.288319,306.438199
4176.901757,-9844.739029,-740.205942,1225.752797
4176.902087,-9770.718434,-222.061783,1685.410096
4176.902417,-9474.636058,-222.061783,536.266849
4176.902747,-9548.656652,-370.102971,-459.657299
4176.903076,-9400.615463,-370.102971,-842.705048
4176.903406,-10066.800811,-296.082377,689.485948
4176.903736,-9474.636058,-888.247130,1072.533697
4176.904065,-9030.512492,0.000000,842.705048
4176.904395,-8956.491898,0.000000,0.000000
4176.904725,-9918.759623,148.041188,-76.609550
4176.905055,-11547.212695,518.144159,76.609550
4176.905384,-10807.006753,518.144159,0.000000
4176.905714,-9844.739029,148.041188,459.657299
4176.906044,-9400.615463,296.082377,766.095498
4176.906374,-8956.491898,74.020594,459.657299
4176.906703,-9548.656652,666.185348,-76.609550
4176.907033,-10510.924376,148.041188,-1532.190996
4176.907363,-10436.903782,518.144159,-383.047749
4176.907692,-9992.780217,296.082377,919.314598
4176.908022,-9548.656652,592.164754,1149.143247
4176.908352,-9474.636058,148.041188,1149.143247
4176.908682,-9696.697840,370.102971,0.000000
4176.909011,-9474.636058,222.061783,-612.876398
4176.909341,-9548.656652,1110.308913,-383.047749
4176.909671,-9770.718434,74.020594,0.000000
4176.910001,-10140.821405,592.164754,766.095498
4176.910330,-10214.842000,370.102971,1225.752797
4176.910660,-10140.821405,0.000000,76.609550
4176.910990,-9844.739029,-592.164754,-229.828649
4176.911319,-9474.636058,-296.082377,-306.438199
4176.911649,-8364.327145,-518.144159,-306.438199
4176.911979,-8660.409521,0.000000,306.438199
4176.912309,-9548.656652,148.041188,766.095498
4176.912638,-10288.862594,222.061783,842.705048
4176.912968,-10510.924376,518.144159,0.000000
4176.913298,-10658.965565,296.082377,-229.828649
4176.913628,-9918.759623,74.020594,-536.266849
4176.913957,-9030.512492,74.020594,459.657299
4176.914287,-8956.491898,0.000000,76.609550
4176.914617,-9400.615463,74.020594,76.609550
4176.914946,-9770.718434,370.102971,-689.485948
4176.915276,-10066.800811,74.020594,-766.095498
4176.915606,-9474.636058,444.123565,-459.657299
4176.915936,-9622.677246,666.185348,-229.828649
4176.916265,-9696.697840,1036.288319,-536.266849
4176.916595,-10658.965565,592.164754,-1302.362347
4176.916925,-10288.862594,74.020594,-306.438199
4176.917255,-9844.739029,222.061783,919.314598
4176.917584,-10288.862594,222.061783,766.095498
4176.917914,-9770.718434,370.102971,1149.143247
4176.918244,-9030.512492,296.082377,-766.095498
4176.918573,-8882.471304,0.000000,-1685.410096
4176.918903,-9696.697840,518.144159,-1685.410096
4176.919233,-10288.862594,814.226536,-306.438199
4176.919563,-9918.759623,444.123565,76.609550
4176.919892,-10362.883188,962.267725,1072.533697
4176.920222,-9992.780217,370.102971,919.314598
4176.920552,-10214.842000,296.082377,306.438199
4176.920881,-10066.800811,296.082377,459.657299
4176.921211,-10658.965565,148.041188,536.266849
4176.921541,-10881.027347,370.102971,1532.190996
4176.921871,-10658.965565,444.123565,1149.143247
4176.922200,-10214.842000,370.102971,766.095498
4176.922530,-9326.594869,74.020594,-383.047749
4176.922860,-9474.636058,296.082377,-1072.533697
4176.923190,-9474.636058,592.164754,-76.609550
4176.923519,-9474.636058,1258.350101,536.266849
4176.923849,-9770.718434,74.020594,1685.410096
4176.924179,-9918.759623,-296.082377,1838.629195
4176.924508,-10362.883188,-370.102971,1225.752797
4176.924838,-10436.903782,-888.247130,1378.971896
4176.925168,-9252.574275,-1110.308913,536.266849
4176.925498,-8438.347739,-814.226536,383.047749
4176.925827,-9104.533087,-370.102971,536.266849
4176.926157,-9918.759623,74.020594,689.485948
4176.926487,-9844.739029,-296.082377,306.438199
4176.926817,-8808.450710,-148.041188,0.000000
4176.927146,-9474.636058,74.020594,-766.095498
4176.927476,-9918.759623,-444.123565,-306.438199
4176.927806,-10214.842000,-444.123565,153.219100
4176.928135,-10140.821405,-74.020594,536.266849
4176.928465,-9548.656652,-518.144159,1149.143247
4176.928795,-9844.739029,-666.185348,689.485948
4176.929125,-10140.821405,0.000000,536.266849
4176.929454,-9548.656652,0.000000,0.000000
4176.929784,-9770.718434,-74.020594,-689.485948
4176.930114,-10436.903782,0.000000,0.000000
4176.930444,-10658.965565,-222.061783,536.266849
4176.930773,-10066.800811,-370.102971,1149.143247
4176.931103,-9696.697840,-740.205942,1225.752797
4176.931433,-9770.718434,-296.082377,459.657299
4176.931762,-9548.656652,-592.164754,-612.876398
4176.932092,-9548.656652,74.020594,-229.828649
4176.932422,-9992.780217,0.000000,612.876398
4176.932752,-10288.862594,-296.082377,1532.190996
4176.933081,-9622.677246,-444.123565,1378.971896
4176.933411,-9992.780217,-444.123565,612.876398
4176.933741,-10066.800811,-296.082377,-689.485948
4176.934070,-9474.636058,-518.144159,0.000000
4176.934400,-9918.759623,-592.164754,229.828649
4176.934730,-9474.636058,518.144159,612.876398
4176.935060,-9474.636058,-222.061783,612.876398
4176.935389,-9844.739029,0.000000,76.609550
4176.935719,-10140.821405,74.020594,-153.219100
4176.936049,-11251.130318,148.041188,-1072.533697
4176.936379,-9622.677246,-370.102971,-995.924147
4176.936708,-8438.347739,-814.226536,-76.609550
4176.937038,-8364.327145,-666.185348,689.485948
4176.937368,-9030.512492,296.082377,1302.362347
4176.937697,-9474.636058,-888.247130,0.000000
4176.938027,-10066.800811,370.102971,-383.047749
4176.938357,-10066.800811,444.123565,76.609550
4176.938687,-10807.006753,0.000000,536.266849
4176.939016,-10584.944971,-222.061783,612.876398
4176.939346,-9326.594869,-370.102971,1455.581446
4176.939676,-8512.368333,0.000000,842.705048
4176.940006,-9030.512492,0.000000,-383.047749
4176.940335,-10066.800811,0.000000,-766.095498
4176.940665,-10066.800811,592.164754,-919.314598
4176.940995,-9474.636058,444.123565,-842.705048
4176.941324,-10066.800811,962.267725,0.000000
4176.941654,-9992.780217,1110.308913,459.657299
4176.941984,-10214.842000,296.082377,-306.438199
4176.942314,-9622.677246,296.082377,-306.438199
4176.942643,-9400.615463,518.144159,-229.828649
4176.942973,-10288.862594,592.164754,0.000000
4176.943303,-9474.636058,888.247130,153.219100
4176.943633,-9030.512492,518.144159,0.000000
4176.943962,-9622.677246,814.226536,-383.047749
4176.944292,-9252.574275,296.082377,-766.095498
4176.944622,-10807.006753,444.123565,-153.219100
4176.944951,-9696.697840,296.082377,153.219100
4176.945281,-8660.409521,74.020594,1149.143247
4176.945611,-9252.574275,518.144159,766.095498
4176.945941,-10066.800811,518.144159,383.047749
4176.946270,-10658.965565,444.123565,229.828649
4176.946600,-10288.862594,592.164754,536.266849
4176.946930,-9622.677246,592.164754,995.924147
4176.947260,-9770.718434,962.267725,1532.190996
4176.947589,-10214.842000,962.267725,1149.143247
4176.947919,-10214.842000,148.041188,229.828649
4176.948249,-9770.718434,148.041188,-306.438199
4176.948578,-10510.924376,74.020594,-536.266849
4176.948908,-10066.800811,0.000000,-153.219100
4176.949238,-9104.533087,222.061783,919.314598
4176.949568,-8660.409521,444.123565,1455.581446
4176.949897,-9178.553681,222.061783,995.924147
4176.950227,-10436.903782,0.000000,0.000000
4176.950557,-11621.233289,74.020594,229.828649
4176.950886,-10658.965565,-296.082377,306.438199
4176.951216,-9326.594869,-222.061783,76.609550
4176.951546,-8882.471304,-296.082377,153.219100
4176.951876,-8956.491898,-444.123565,-306.438199
4176.952205,-8882.471304,-370.102971,-1225.752797
4176.952535,-8734.430116,370.102971,-995.924147
4176.952865,-10140.821405,444.123565,-612.876398
4176.953195,-10510.924376,518.144159,0.000000
4176.953524,-10436.903782,518.144159,383.047749
4176.953854,-10510.924376,74.020594,459.657299
4176.954184,-9622.677246,-370.102971,-689.485948
4176.954513,-9326.594869,-518.144159,-1608.800546
4176.954843,-8956.491898,-962.267725,-1149.143247
4176.955173,-9178.553681,-222.061783,-306.438199
4176.955503,-10140.821405,0.000000,766.095498
4176.955832,-9992.780217,-666.185348,76.609550
4176.956162,-9770.718434,-444.123565,0.000000
4176.956492,-8882.471304,-148.041188,306.438199
4176.956822,-9400.615463,-888.247130,1072.533697
4176.957151,-9844.739029,-370.102971,1455.581446
4176.957481,-10066.800811,-592.164754,1302.362347
4176.957811,-10881.027347,222.061783,612.876398
4176.958140,-10066.800811,-740.205942,-383.047749
4176.958470,-9844.739029,-148.041188,-76.609550
4176.958800,-9400.615463,-296.082377,459.657299
4176.959130,-9548.656652,74.020594,919.314598
4176.959459,-9622.677246,-592.164754,1149.143247
4176.959789,-9770.718434,-296.082377,229.828649
4176.960119,-9548.656652,0.000000,766.095498
4176.960449,-9696.697840,-370.102971,383.047749
4176.960778,-10214.842000,0.000000,766.095498
4176.961108,-11177.109724,0.000000,1072.533697
4176.961438,-9548.656652,0.000000,766.095498
4176.961767,-8882.471304,-814.226536,842.705048
4176.962097,-9474.636058,0.000000,919.314598
4176.962427,-9474.636058,0.000000,459.657299
4176.962757,-9992.780217,148.041188,76.609550
4176.963086,-9326.594869,0.000000,0.000000
4176.963416,-8808.450710,-296.082377,-153.219100
4176.963746,-9178.553681,-370.102971,842.705048
4176.964076,-9474.636058,-74.020594,689.485948
4176.964405,-10066.800811,148.041188,306.438199
4176.964735,-9844.739029,0.000000,-383.047749
4176.965065,-9696.697840,370.102971,-536.266849
4176.965394,-10362.883188,296.082377,-153.219100
4176.965724,-9992.780217,592.164754,76.609550
4176.966054,-9918.759623,296.082377,536.266849
4176.966384,-9696.697840,518.144159,1225.752797
4176.966713,-9326.594869,148.041188,612.876398
4176.967043,-9844.739029,296.082377,153.219100
4176.967373,-10140.821405,148.041188,-229.828649
4176.967702,-9992.780217,592.164754,383.047749
4176.968032,-9918.759623,962.267725,306.438199
4176.968362,-10362.883188,1110.308913,-229.828649
4176.968692,-9918.759623,518.144159,-459.657299
4176.969021,-9844.739029,370.102971,-306.438199
4176.969351,-9548.656652,666.185348,-229.828649
4176.969681,-10436.903782,666.185348,0.000000
4176.970011,-9622.677246,518.144159,-229.828649
4176.970340,-8660.409521,444.123565,-766.095498
4176.970670,-9030.512492,518.144159,-459.657299
4176.971000,-10510.924376,518.144159,-995.924147
4176.971329,-10658.965565,888.247130,-459.657299
4176.971659,-9252.574275,0.000000,153.219100
4176.971989,-8660.409521,-222.061783,-76.609550
4176.972319,-9252.574275,-370.102971,689.485948
4176.972648,-9844.739029,-148.041188,1608.800546
4176.972978,-10214.842000,-740.205942,919.314598
4176.973308,-8660.409521,-666.185348,0.000000
4176.973638,-8290.306550,-444.123565,689.485948
4176.973967,-9696.697840,148.041188,842.705048
4176.974297,-10584.944971,0.000000,689.485948
4176.974627,-10288.862594,222.061783,612.876398
4176.974956,-9696.697840,0.000000,0.000000
4176.975286,-9474.636058,-148.041188,-153.219100
4176.975616,-9474.636058,-222.061783,459.657299
4176.975946,-10288.862594,-296.082377,919.314598
4176.976275,-10510.924376,296.082377,0.000000
4176.976605,-9918.759623,-148.041188,-612.876398
4176.976935,-9770.718434,0.000000,-1532.190996
4176.977265,-9474.636058,-740.205942,-153.219100
4176.977594,-8956.491898,-148.041188,612.876398
4176.977924,-9474.636058,296.082377,689.485948
4176.978254,-11251.130318,148.041188,459.657299
4176.978584,-11325.150913,-296.082377,383.047749
4176.978914,-10140.821405,-370.102971,383.047749
4176.979244,-10362.883188,-148.041188,536.266849
4176.979574,-9326.594869,-666.185348,689.485948
4176.979903,-9178.553681,-370.102971,766.095498
4176.980233,-8734.430116,-370.102971,612.876398
4176.980563,-9252.574275,0.000000,76.609550
4176.980893,-10732.986159,222.061783,0.000000
4176.981223,-11399.171507,0.000000,0.000000
4176.981553,-10955.047942,74.020594,229.828649
4176.981883,-9326.594869,74.020594,306.438199
4176.982213,-9696.697840,-222.061783,0.000000
4176.982542,-9178.553681,-1036.288319,229.828649
4176.982872,-8956.491898,0.000000,1072.533697
4176.983202,-10288.862594,518.144159,1915.238745
4176.983532,-11769.274478,148.041188,919.314598
4176.983862,-10584.944971,-370.102971,842.705048
4176.984192,-9178.553681,-962.267725,995.924147
4176.984522,-9326.594869,-1110.308913,1302.362347
4176.984851,-9548.656652,-1036.288319,1532.190996
4176.985181,-9992.780217,-518.144159,1149.143247
4176.985511,-8734.430116,-296.082377,0.000000
4176.985841,-8438.347739,666.185348,-1532.190996
4176.986171,-10732.986159,296.082377,-1302.362347
4176.986501,-11029.068536,592.164754,229.828649
4176.986831,-11177.109724,592.164754,1225.752797
4176.987160,-9696.697840,0.000000,-229.828649
4176.987490,-8216.285956,-888.247130,-1302.362347
4176.987820,-8364.327145,-370.102971,-995.924147
4176.988150,-8882.471304,148.041188,-153.219100
4176.988480,-10140.821405,296.082377,-383.047749
4176.988810,-10362.883188,888.247130,-612.876398
4176.989140,-9770.718434,222.061783,-689.485948
4176.989470,-9622.677246,518.144159,689.485948
4176.989799,-9844.739029,592.164754,842.705048
4176.990129,-10658.965565,666.185348,229.828649
4176.990459,-9400.615463,0.000000,-306.438199
4176.990789,-8882.471304,0.000000,-1149.143247
4176.991119,-8808.450710,370.102971,-612.876398
4176.991449,-10584.944971,814.226536,306.438199
4176.991779,-10881.027347,592.164754,383.047749
4176.992108,-9696.697840,518.144159,229.828649
4176.992438,-9474.636058,1110.308913,-76.609550
4176.992768,-9548.656652,74.020594,153.219100
4176.993098,-10510.924376,666.185348,306.438199
4176.993428,-9844.739029,888.247130,612.876398
4176.993758,-10807.006753,148.041188,76.609550
4176.994088,-9622.677246,148.041188,-459.657299
4176.994418,-9326.594869,0.000000,-766.095498
4176.994747,-9252.574275,444.123565,766.095498
4176.995077,-9326.594869,222.061783,0.000000
4176.995407,-10510.924376,814.226536,0.000000
4176.995737,-9918.759623,0.000000,153.219100
4176.996067,-9696.697840,814.226536,-459.657299
4176.996397,-9622.677246,296.082377,-459.657299
4176.996727,-9474.636058,-222.061783,-689.485948
4176.997056,-9918.759623,74.020594,0.000000
4176.997386,-9030.512492,-444.123565,1072.533697
4176.997716,-9474.636058,740.205942,383.047749
4176.998046,-10066.800811,296.082377,306.438199
4176.998376,-11029.068536,-222.061783,0.000000
4176.998706,-10140.821405,-222.061783,536.266849
4176.999036,-9252.574275,-370.102971,76.609550
4176.999366,-9844.739029,0.000000,536.266849
4176.999695,-9252.574275,222.061783,842.705048
4177.000025,-10066.800811,0.000000,995.924147
4177.000355,-9474.636058,74.020594,766.095498
4177.000685,-10881.027347,222.061783,153.219100
4177.001015,-10732.986159,-296.082377,766.095498
4177.001345,-10214.842000,-592.164754,1302.362347
4177.001675,-9696.697840,-296.082377,1225.752797
4177.002004,-8512.368333,-1110.308913,1225.752797
4177.002334,-9622.677246,0.000000,229.828649
4177.002664,-9474.636058,-592.164754,0.000000
4177.002994,-9400.615463,-296.082377,-919.314598
4177.003324,-10066.800811,518.144159,153.219100
4177.003654,-10658.965565,592.164754,1302.362347
4177.003984,-10807.006753,222.061783,842.705048
4177.004314,-10214.842000,0.000000,459.657299
4177.004643,-9548.656652,0.000000,-1072.533697
4177.004973,-9474.636058,0.000000,-612.876398
4177.005303,-9770.718434,-518.144159,306.438199
4177.005633,-9474.636058,-592.164754,842.705048
4177.005963,-9400.615463,-370.102971,1302.362347
4177.006293,-9474.636058,0.000000,76.609550
4177.006623,-9992.780217,-148.041188,-766.095498
4177.006952,-9548.656652,0.000000,-306.438199
4177.007282,-9918.759623,0.000000,306.438199
4177.007612,-9770.718434,148.041188,1455.581446
4177.007942,-9992.780217,518.144159,842.705048
4177.008272,-9474.636058,0.000000,-536.266849
4177.008602,-9030.512492,0.000000,-612.876398
4177.008932,-10066.800811,0.000000,-229.828649
4177.009262,-10881.027347,0.000000,536.266849
4177.009591,-10214.842000,-444.123565,689.485948
4177.009921,-8808.450710,74.020594,842.705048
4177.010251,-8142.265362,0.000000,229.828649
4177.010581,-8956.491898,0.000000,-536.266849
4177.010911,-10214.842000,0.000000,0.000000
4177.011241,-11103.089130,148.041188,536.266849
4177.011571,-10436.903782,0.000000,536.266849
4177.011900,-9548.656652,-74.020594,153.219100
4177.012230,-8956.491898,-74.020594,-306.438199
4177.012560,-9400.615463,296.082377,0.000000
4177.012890,-9474.636058,0.000000,153.219100
4177.013220,-9474.636058,370.102971,-459.657299
4177.013550,-9770.718434,-74.020594,153.219100
4177.013880,-10510.924376,74.020594,1149.143247
4177.014210,-10066.800811,-148.041188,689.485948
4177.014539,-10140.821405,0.000000,689.485948
4177.014869,-9844.739029,444.123565,0.000000
4177.015199,-10066.800811,-370.102971,-689.485948
4177.015529,-9030.512492,0.000000,-459.657299
4177.015859,-9104.533087,-296.082377,76.609550
4177.016189,-10510.924376,592.164754,842.705048
4177.016519,-10732.986159,-222.061783,153.219100
4177.016848,-10214.842000,-148.041188,229.828649
4177.017178,-9326.594869,74.020594,919.314598
4177.017508,-9104.533087,-296.082377,536.266849
4177.017838,-9326.594869,-444.123565,766.095498
4177.018168,-10214.842000,148.041188,1608.800546
4177.018498,-10140.821405,296.082377,1838.629195
4177.018828,-10881.027347,222.061783,1149.143247
4177.019158,-10658.965565,518.144159,0.000000
4177.019487,-10140.821405,740.205942,-459.657299
4177.019817,-9548.656652,740.205942,-153.219100
4177.020147,-10362.883188,222.061783,-229.828649
4177.020477,-9770.718434,518.144159,-153.219100
4177.020807,-9622.677246,444.123565,383.047749
4177.021137,-9474.636058,370.102971,-229.828649
4177.021467,-9622.677246,148.041188,-689.485948
4177.021796,-10140.821405,370.102971,76.609550
4177.022126,-10362.883188,-370.102971,229.828649
4177.022456,-9770.718434,0.000000,766.095498
4177.022786,-9400.615463,444.123565,1149.143247
4177.023116,-9548.656652,888.247130,689.485948
4177.023446,-10288.862594,370.102971,612.876398
4177.023776,-8882.471304,518.144159,-459.657299
4177.024106,-9474.636058,296.082377,-1072.533697
4177.024435,-10510.924376,814.226536,-383.047749
4177.024765,-9474.636058,-222.061783,-1072.533697
4177.025095,-8734.430116,-148.041188,-766.095498
4177.025425,-8142.265362,74.020594,-612.876398
4177.025755,-9252.574275,0.000000,76.609550
4177.026085,-9770.718434,0.000000,-612.876398
4177.026415,-8882.471304,222.061783,-766.095498
4177.026744,-9622.677246,370.102971,689.485948
4177.027074,-10140.821405,444.123565,766.095498
4177.027404,-11177.109724,370.102971,1302.362347
4177.027734,-10214.842000,-222.061783,995.924147
4177.028064,-9474.636058,-222.061783,-383.047749
4177.028394,-9918.759623,-444.123565,-536.266849
4177.028724,-10436.903782,-814.226536,76.609550
4177.029054,-8956.491898,-666.185348,-153.219100
4177.029383,-8660.409521,74.020594,383.047749
4177.029713,-9622.677246,518.144159,842.705048
4177.030043,-11103.089130,370.102971,383.047749
4177.030373,-10066.800811,444.123565,0.000000
4177.030703,-9104.533087,148.041188,-1149.143247
4177.031033,-10436.903782,74.020594,-766.095498
4177.031363,-10140.821405,0.000000,0.000000
4177.031692,-10214.842000,-296.082377,766.095498
4177.032022,-9474.636058,-74.020594,383.047749
4177.032352,-9104.533087,-370.102971,-383.047749
4177.032682,-9918.759623,0.000000,459.657299
4177.033012,-9326.594869,-592.164754,919.314598
4177.033342,-10807.006753,-296.082377,995.924147
4177.033672,-9770.718434,-222.061783,1532.190996
4177.034001,-10362.883188,0.000000,995.924147
4177.034331,-10214.842000,296.082377,1455.581446
4177.034661,-9992.780217,74.020594,842.705048
4177.034991,-10732.986159,814.226536,229.828649
4177.035321,-10436.903782,148.041188,0.000000
4177.035651,-9252.574275,370.102971,-689.485948
4177.035981,-8586.388927,0.000000,0.000000
4177.036311,-10362.883188,0.000000,612.876398
4177.036640,-10732.986159,74.020594,1378.971896
4177.036970,-9474.636058,0.000000,1532.190996
4177.037300,-8882.471304,-592.164754,766.095498
4177.037630,-9178.553681,-592.164754,919.314598
4177.037960,-9844.739029,-296.082377,1838.629195
4177.038290,-9474.636058,74.020594,766.095498
4177.038620,-9474.636058,222.061783,612.876398
4177.038949,-10214.842000,74.020594,383.047749
4177.039279,-10288.862594,222.061783,153.219100
4177.039609,-9696.697840,370.102971,76.609550
4177.039939,-8586.388927,148.041188,-1762.019645
4177.040269,-9178.553681,740.205942,-1762.019645
4177.040599,-9474.636058,296.082377,-995.924147
4177.040929,-9104.533087,0.000000,-995.924147
4177.041259,-9474.636058,74.020594,76.609550
4177.041588,-10510.924376,74.020594,689.485948
4177.041918,-10807.006753,74.020594,0.000000
4177.042248,-10288.862594,-592.164754,-153.219100
4177.042578,-10436.903782,0.000000,306.438199
4177.042908,-9918.759623,0.000000,1149.143247
4177.043238,-10288.862594,-370.102971,1455.581446
4177.043568,-9844.739029,-222.061783,1149.143247
4177.043897,-9252.574275,0.000000,1225.752797
4177.044227,-9844.739029,592.164754,229.828649
4177.044557,-10436.903782,-444.123565,-919.314598
4177.044887,-9992.780217,-518.144159,-612.876398
4177.045217,-8882.471304,-518.144159,153.219100
4177.045547,-9474.636058,-370.102971,536.266849
4177.045877,-9178.553681,-592.164754,0.000000
4177.046207,-9104.533087,-444.123565,0.000000
4177.046536,-9104.533087,-370.102971,-536.266849
4177.046866,-9844.739029,148.041188,153.219100
4177.047196,-9770.718434,296.082377,76.609550
4177.047526,-10362.883188,148.041188,1225.752797
4177.047856,-9252.574275,74.020594,383.047749
4177.048186,-8734.430116,-370.102971,0.000000
4177.048516,-9622.677246,-444.123565,0.000000
4177.048845,-10436.903782,-444.123565,536.266849
4177.049175,-10214.842000,-222.061783,842.705048
4177.049505,-9548.656652,-592.164754,-229.828649
4177.049835,-9474.636058,-444.123565,-919.314598
4177.050165,-9474.636058,0.000000,-383.047749
4177.050495,-8882.471304,-296.082377,306.438199
4177.050825,-10288.862594,592.164754,1378.971896
4177.051155,-11399.171507,0.000000,995.924147
4177.051484,-10288.862594,222.061783,-153.219100
4177.051814,-9030.512492,-296.082377,-536.266849
4177.052144,-9474.636058,518.144159,-383.047749
4177.052474,-10881.027347,0.000000,-229.828649
4177.052804,-9992.780217,0.000000,-536.266849
4177.053134,-8734.430116,-222.061783,536.266849
4177.053464,-9696.697840,666.185348,1072.533697
4177.053793,-10807.006753,0.000000,1378.971896
4177.054123,-11103.089130,518.144159,153.219100
4177.054453,-9030.512492,518.144159,76.609550
4177.054783,-8586.388927,666.185348,-536.266849
4177.055113,-10288.862594,1184.329507,-612.876398
4177.055443,-11325.150913,592.164754,-766.095498
4177.055773,-10362.883188,962.267725,-1455.581446
4177.056103,-8438.347739,296.082377,-536.266849
4177.056432,-9104.533087,222.061783,0.000000
4177.056762,-8808.450710,0.000000,536.266849
4177.057092,-9104.533087,370.102971,306.438199
4177.057422,-9474.636058,370.102971,919.314598
4177.057752,-10658.965565,222.061783,0.000000
4177.058082,-10510.924376,222.061783,612.876398
4177.058412,-9548.656652,370.102971,1072.533697
4177.058741,-9844.739029,740.205942,1225.752797
4177.059071,-9918.759623,962.267725,689.485948
4177.059401,-9696.697840,814.226536,-995.924147
4177.059731,-8734.430116,666.185348,-1378.971896
4177.060061,-9178.553681,1332.370696,-689.485948
4177.060391,-11029.068536,740.205942,306.438199
4177.060721,-10658.965565,296.082377,459.657299
4177.061051,-9696.697840,74.020594,459.657299
4177.061380,-8956.491898,-296.082377,0.000000
4177.061710,-9400.615463,0.000000,-612.876398
4177.062040,-9252.574275,0.000000,-153.219100
4177.062370,-9104.533087,148.041188,689.485948
4177.062700,-9992.780217,592.164754,1685.410096
4177.063030,-10732.986159,370.102971,1455.581446
4177.063360,-10955.047942,814.226536,0.000000
4177.063689,-10732.986159,74.020594,-1149.143247
4177.064019,-9770.718434,-444.123565,-1608.800546
4177.064349,-8734.430116,-888.247130,-459.657299
4177.064679,-8660.409521,-814.226536,1302.362347
4177.065009,-8438.347739,-148.041188,1072.533697
4177.065339,-9474.636058,-518.144159,306.438199
4177.065669,-10362.883188,0.000000,-612.876398
4177.065999,-9918.759623,0.000000,-306.438199
4177.066328,-10732.986159,0.000000,536.266849
4177.066658,-10140.821405,-518.144159,995.924147
4177.066988,-9104.533087,-222.061783,1608.800546
4177.067318,-8734.430116,0.000000,383.047749
4177.067648,-9992.780217,74.020594,-459.657299
4177.067978,-11251.130318,222.061783,-1225.752797
4177.068308,-10807.006753,-222.061783,-766.095498
4177.068637,-9548.656652,-148.041188,0.000000
4177.068967,-9178.553681,-888.247130,1302.362347
4177.069297,-9844.739029,-666.185348,1225.752797
4177.069627,-10362.883188,-666.185348,1072.533697
4177.069957,-9474.636058,-296.082377,995.924147
4177.070287,-9400.615463,-370.102971,-459.657299
4177.070617,-10436.903782,74.020594,153.219100
4177.070947,-10066.800811,74.020594,766.095498
4177.071276,-10584.944971,444.123565,536.266849
4177.071606,-9252.574275,296.082377,-995.924147
4177.071936,-9548.656652,-296.082377,-1532.190996
4177.072266,-9548.656652,-296.082377,-153.219100
4177.072596,-9400.615463,-592.164754,1225.752797
4177.072926,-9992.780217,148.041188,1149.143247
4177.073256,-10214.842000,222.061783,1455.581446
4177.073585,-10881.027347,370.102971,612.876398
4177.073915,-9696.697840,74.020594,0.000000
4177.074245,-10214.842000,444.123565,-995.924147
4177.074575,-10436.903782,888.247130,-306.438199
4177.074905,-10066.800811,0.000000,0.000000
4177.075235,-9178.553681,222.061783,842.705048
4177.075565,-8586.388927,0.000000,306.438199
4177.075894,-10214.842000,-148.041188,536.266849
4177.076224,-10288.862594,0.000000,76.609550
4177.076554,-9178.553681,-222.061783,0.000000
4177.076884,-8512.368333,-444.123565,76.609550
4177.077214,-8660.409521,0.000000,229.828649
4177.077544,-10658.965565,370.102971,1532.190996
4177.077874,-11103.089130,444.123565,306.438199
4177.078204,-9622.677246,148.041188,-689.485948
4177.078533,-9326.594869,222.061783,76.609550
4177.078863,-10362.883188,740.205942,536.266849
4177.079193,-10140.821405,518.144159,842.705048
4177.079523,-10214.842000,0.000000,536.266849
4177.079853,-10288.862594,740.205942,153.219100
4177.080182,-9844.739029,74.020594,459.657299
4177.080512,-10362.883188,370.102971,229.828649
4177.080842,-9326.594869,0.000000,0.000000
4177.081172,-9770.718434,-296.082377,842.705048
4177.081501,-9400.615463,518.144159,-459.657299
4177.081831,-8586.388927,-518.144159,-689.485948
4177.082161,-9622.677246,518.144159,-153.219100
4177.082491,-9770.718434,814.226536,459.657299
4177.082820,-11399.171507,74.020594,0.000000
4177.083150,-10436.903782,518.144159,0.000000
4177.083480,-10288.862594,0.000000,536.266849
4177.083810,-10140.821405,-370.102971,1455.581446
4177.084139,-8660.409521,-370.102971,306.438199
4177.084469,-9400.615463,296.082377,306.438199
4177.084799,-9474.636058,148.041188,-76.609550
4177.085129,-9548.656652,740.205942,76.609550
4177.085458,-10436.903782,0.000000,766.095498
4177.085788,-10807.006753,962.267725,-612.876398
4177.086118,-10436.903782,0.000000,612.876398
4177.086447,-9696.697840,0.000000,536.266849
4177.086777,-9030.512492,0.000000,919.314598
4177.087107,-10066.800811,0.000000,383.047749
4177.087437,-9548.656652,0.000000,0.000000
4177.087766,-9474.636058,0.000000,766.095498
4177.088096,-10362.883188,296.082377,1302.362347
4177.088426,-11029.068536,370.102971,919.314598
4177.088756,-10436.903782,222.061783,612.876398
4177.089085,-8956.491898,0.000000,-842.705048
4177.089415,-8956.491898,296.082377,-459.657299
4177.089745,-9992.780217,148.041188,689.485948
4177.090075,-10066.800811,444.123565,842.705048
4177.090404,-9918.759623,0.000000,459.657299
4177.090734,-9474.636058,296.082377,-229.828649
4177.091064,-10510.924376,666.185348,-306.438199
4177.091393,-10140.821405,370.102971,-229.828649
4177.091723,-9326.594869,74.020594,0.000000
4177.092053,-9178.553681,296.082377,0.000000
4177.092383,-9844.739029,0.000000,0.000000
4177.092712,-10362.883188,296.082377,-153.219100
4177.093042,-10436.903782,592.164754,536.266849
4177.093372,-9992.780217,-74.020594,-76.609550
4177.093702,-9400.615463,-222.061783,0.000000
4177.094031,-8808.450710,-814.226536,76.609550
4177.094361,-9474.636058,-222.061783,0.000000
4177.094691,-10214.842000,-222.061783,766.095498
4177.095021,-10436.903782,-444.123565,1302.362347
4177.095350,-10362.883188,-370.102971,1838.629195
4177.095680,-10140.821405,-222.061783,1302.362347
4177.096010,-9474.636058,-592.164754,536.266849
4177.096340,-9326.594869,-666.185348,-229.828649
4177.096669,-9326.594869,-296.082377,-229.828649
4177.096999,-9030.512492,0.000000,0.000000
4177.097329,-9474.636058,444.123565,766.095498
4177.097658,-9474.636058,740.205942,229.828649
4177.097988,-9844.739029,370.102971,0.000000
4177.098318,-10140.821405,0.000000,-383.047749
4177.098648,-10436.903782,0.000000,-689.485948
4177.098977,-9770.718434,-814.226536,0.000000
4177.099307,-9400.615463,-740.205942,459.657299
4177.099637,-8290.306550,-888.247130,306.438199
4177.099967,-8956.491898,-370.102971,229.828649
4177.100296,-10066.800811,222.061783,689.485948
4177.100626,-11103.089130,0.000000,766.095498
4177.100956,-10214.842000,0.000000,1225.752797
4177.101286,-9104.533087,0.000000,766.095498
4177.101615,-10288.862594,-296.082377,1378.971896
4177.101945,-10510.924376,-370.102971,612.876398
4177.102275,-10140.821405,-592.164754,76.609550
4177.102604,-8956.491898,-1184.329507,-459.657299
4177.102934,-9252.574275,-1184.329507,-1149.143247
4177.103264,-8956.491898,-592.164754,306.438199
4177.103594,-10066.800811,0.000000,1991.848295
4177.103923,-10288.862594,0.000000,1915.238745
4177.104253,-10288.862594,-370.102971,-383.047749
4177.104583,-9104.533087,-74.020594,-1762.019645
4177.104913,-8512.368333,0.000000,-995.924147
4177.105242,-9918.759623,-74.020594,1455.581446
4177.105572,-10362.883188,0.000000,1149.143247
4177.105902,-10214.842000,0.000000,995.924147
4177.106232,-10362.883188,-222.061783,536.266849
4177.106561,-9992.780217,-888.247130,0.000000
4177.106891,-10436.903782,0.000000,766.095498
4177.107221,-10066.800811,-148.041188,153.219100
4177.107551,-8808.450710,0.000000,0.000000
4177.107880,-8660.409521,74.020594,-459.657299
4177.108210,-9252.574275,1036.288319,-689.485948
4177.108540,-10066.800811,1036.288319,-153.219100
4177.108869,-9844.739029,814.226536,-306.438199
4177.109199,-9770.718434,222.061783,-612.876398
4177.109529,-10066.800811,148.041188,-536.266849
4177.109859,-9770.718434,0.000000,-76.609550
4177.110188,-9104.533087,-296.082377,383.047749
4177.110518,-8956.491898,0.000000,842.705048
4177.110848,-9844.739029,592.164754,1072.533697
4177.111178,-10066.800811,740.205942,689.485948
4177.111507,-9696.697840,1776.494261,0.000000
4177.111837,-10658.965565,1480.411884,-766.095498
4177.112167,-11251.130318,1554.432478,-536.266849
4177.112497,-10732.986159,1184.329507,-229.828649
4177.112826,-9918.759623,962.267725,612.876398
4177.113156,-9992.780217,814.226536,459.657299
4177.113486,-8882.471304,814.226536,-612.876398
4177.113815,-8882.471304,-370.102971,-612.876398
4177.114145,-9104.533087,74.020594,-76.609550
4177.114475,-9548.656652,296.082377,1225.752797
4177.114805,-11103.089130,518.144159,2298.286494
4177.115134,-9622.677246,-444.123565,919.314598
4177.115464,-8512.368333,222.061783,459.657299
4177.115794,-9400.615463,222.061783,842.705048
4177.116124,-11399.171507,666.185348,383.047749
4177.116453,-10955.047942,0.000000,153.219100
4177.116783,-8512.368333,-518.144159,-536.266849
4177.117113,-8586.388927,148.041188,0.000000
4177.117443,-10140.821405,148.041188,1532.190996
4177.117772,-10214.842000,0.000000,842.705048
4177.118102,-8808.450710,-444.123565,-153.219100
4177.118432,-8512.368333,0.000000,-766.095498
4177.118762,-9548.656652,0.000000,-459.657299
4177.119091,-10510.924376,-296.082377,1149.143247
4177.119421,-9622.677246,-296.082377,1762.019645
4177.119751,-9474.636058,0.000000,842.705048
4177.120080,-10955.047942,592.164754,76.609550
4177.120410,-10436.903782,-370.102971,-459.657299
4177.120740,-10066.800811,-370.102971,153.219100
4177.121070,-8808.450710,0.000000,1149.143247
4177.121399,-9474.636058,148.041188,536.266849
4177.121729,-9918.759623,0.000000,-383.047749
4177.122059,-8734.430116,-444.123565,-1685.410096
4177.122389,-9844.739029,148.041188,-1532.190996
4177.122718,-10584.944971,0.000000,-612.876398
4177.123048,-11251.130318,0.000000,-153.219100
4177.123378,-9770.718434,148.041188,842.705048
4177.123708,-8808.450710,-518.144159,1225.752797
4177.124037,-9992.780217,0.000000,1149.143247
4177.124367,-10807.006753,-296.082377,383.047749
4177.124697,-11251.130318,222.061783,612.876398
4177.125026,-10362.883188,0.000000,919.314598
4177.125356,-10140.821405,222.061783,383.047749
4177.125686,-10362.883188,-444.123565,-459.657299
4177.126016,-8660.409521,-222.061783,-1685.410096
4177.126345,-8216.285956,-296.082377,-1455.581446
4177.126675,-9474.636058,370.102971,-229.828649
4177.127005,-10362.883188,-296.082377,612.876398
4177.127335,-10140.821405,-370.102971,1149.143247
4177.127664,-8956.491898,-962.267725,995.924147
4177.127994,-9178.553681,-1258.350101,919.314598
4177.128324,-10436.903782,-518.144159,1762.019645
4177.128654,-9622.677246,-1036.288319,1378.971896
4177.128983,-8660.409521,-518.144159,76.609550
4177.129313,-9252.574275,444.123565,383.047749
4177.129643,-11029.068536,888.247130,229.828649
4177.129973,-11103.089130,74.020594,0.000000
4177.130302,-8734.430116,370.102971,-612.876398
4177.130632,-8216.285956,0.000000,-1225.752797
4177.130962,-8734.430116,74.020594,-919.314598
4177.131291,-9770.718434,0.000000,76.609550
4177.131621,-10881.027347,-296.082377,0.000000
4177.131951,-11029.068536,-370.102971,229.828649
4177.132281,-10436.903782,-444.123565,0.000000
4177.132610,-8882.471304,-962.267725,153.219100
4177.132940,-8808.450710,-148.041188,995.924147
4177.133270,-9474.636058,296.082377,1685.410096
4177.133600,-10584.944971,592.164754,995.924147
4177.133929,-10140.821405,518.144159,-536.266849
4177.134259,-9252.574275,0.000000,-919.314598
4177.134589,-10066.800811,0.000000,-459.657299
4177.134919,-10807.006753,444.123565,995.924147
4177.135248,-9622.677246,-74.020594,536.266849
4177.135578,-8290.306550,-666.185348,-919.314598
4177.135908,-8364.327145,-740.205942,-842.705048
4177.136237,-10510.924376,-296.082377,689.485948
4177.136567,-11473.192101,444.123565,1608.800546
4177.136897,-10214.842000,74.020594,1455.581446
4177.137227,-9622.677246,-370.102971,1225.752797
4177.137556,-9770.718434,-74.020594,1302.362347
4177.137886,-9844.739029,0.000000,612.876398
4177.138216,-9400.615463,0.000000,0.000000
4177.138546,-9252.574275,74.020594,-229.828649
4177.138875,-9844.739029,888.247130,-306.438199
4177.139205,-9622.677246,1184.329507,-536.266849
4177.139535,-10214.842000,666.185348,-689.485948
4177.139865,-10658.965565,370.102971,-919.314598
4177.140194,-10510.924376,296.082377,-919.314598
4177.140524,-10066.800811,-222.061783,0.000000
4177.140854,-9178.553681,592.164754,-383.047749
4177.141183,-9178.553681,0.000000,0.000000
4177.141513,-10362.883188,222.061783,536.266849
4177.141843,-10807.006753,296.082377,842.705048
4177.142173,-10214.842000,814.226536,153.219100
4177.142502,-9844.739029,666.185348,0.000000
4177.142832,-9992.780217,370.102971,-153.219100
4177.143162,-10066.800811,0.000000,536.266849
4177.143492,-9400.615463,370.102971,536.266849
4177.143821,-8808.450710,-370.102971,-306.438199
4177.144151,-9326.594869,-222.061783,-919.314598
4177.144481,-8660.409521,222.061783,-1225.752797
4177.144811,-8882.471304,74.020594,-1608.800546
4177.145140,-9400.615463,222.061783,-1225.752797
4177.145470,-10362.883188,888.247130,766.095498
4177.145800,-10955.047942,222.061783,1302.362347
4177.146130,-10140.821405,0.000000,306.438199
4177.146459,-8734.430116,0.000000,-842.705048
4177.146789,-9104.533087,0.000000,0.000000
4177.147119,-9622.677246,1036.288319,689.485948
4177.147448,-10066.800811,592.164754,-76.609550
4177.147778,-9474.636058,518.144159,-1455.581446
4177.148108,-9696.697840,666.185348,-766.095498
4177.148438,-9918.759623,0.000000,383.047749
4177.148767,-10510.924376,814.226536,153.219100
4177.149097,-10510.924376,0.000000,153.219100
4177.149427,-9104.533087,-222.061783,0.000000
4177.149757,-8660.409521,0.000000,153.219100
4177.150086,-10066.800811,370.102971,1149.143247
4177.150416,-10658.965565,74.020594,1608.800546
4177.150746,-10066.800811,370.102971,536.266849
4177.151076,-9918.759623,0.000000,0.000000
4177.151405,-10066.800811,74.020594,0.000000
4177.151735,-10140.821405,74.020594,1302.362347
4177.152065,-9770.718434,-444.123565,1378.971896
4177.152394,-9770.718434,-74.020594,1072.533697
4177.152724,-9030.512492,-666.185348,536.266849
4177.153054,-9622.677246,-148.041188,153.219100
4177.153384,-9992.780217,74.020594,612.876398
4177.153713,-9770.718434,-518.144159,1378.971896
4177.154043,-10066.800811,0.000000,1378.971896
4177.154373,-10436.903782,-148.041188,842.705048
4177.154703,-9770.718434,0.000000,-383.047749
4177.155032,-9178.553681,-74.020594,-689.485948
4177.155362,-9992.780217,0.000000,-995.924147
4177.155692,-10658.965565,74.020594,-153.219100
4177.156022,-9992.780217,-444.123565,536.266849
4177.156351,-9252.574275,-888.247130,766.095498
4177.156681,-8438.347739,-370.102971,0.000000
4177.157011,-10066.800811,-296.082377,459.657299
4177.157341,-10140.821405,-962.267725,383.047749
4177.157670,-10362.883188,222.061783,1225.752797
4177.158000,-9474.636058,-296.082377,1455.581446
4177.158330,-9474.636058,222.061783,536.266849
4177.158659,-9474.636058,296.082377,-306.438199
4177.158989,-10584.944971,296.082377,-689.485948
4177.159319,-10955.047942,666.185348,-919.314598
4177.159649,-10658.965565,-222.061783,0.000000
4177.159978,-9474.636058,-296.082377,-612.876398
4177.160308,-8586.388927,-444.123565,229.828649
4177.160638,-9400.615463,0.000000,689.485948
4177.160968,-10140.821405,296.082377,153.219100
4177.161297,-10584.944971,148.041188,459.657299
4177.161627,-9474.636058,296.082377,-306.438199
4177.161957,-9400.615463,518.144159,306.438199
4177.162287,-10288.862594,148.041188,612.876398
4177.162616,-10732.986159,296.082377,995.924147
4177.162946,-9770.718434,0.000000,76.609550
4177.163276,-9104.533087,-296.082377,-612.876398
4177.163605,-8882.471304,74.020594,-1378.971896
4177.163935,-9622.677246,222.061783,-689.485948
4177.164265,-9548.656652,518.144159,0.000000
4177.164595,-9104.533087,0.000000,459.657299
4177.164924,-9548.656652,370.102971,459.657299
4177.165254,-9326.594869,444.123565,0.000000
4177.165584,-10510.924376,222.061783,766.095498
4177.165914,-10214.842000,-518.144159,1072.533697
4177.166243,-9844.739029,222.061783,1455.581446
4177.166573,-9548.656652,370.102971,1685.410096
4177.166903,-8438.347739,148.041188,612.876398
4177.167233,-8882.471304,666.185348,0.000000
4177.167562,-10140.821405,592.164754,-536.266849
4177.167892,-10807.006753,1110.308913,-1072.533697
4177.168222,-10584.944971,888.247130,0.000000
4177.168552,-9770.718434,592.164754,-842.705048
4177.168881,-9326.594869,444.123565,-76.609550
4177.169211,-9770.718434,222.061783,153.219100
4177.169541,-10140.821405,0.000000,536.266849
4177.169870,-9844.739029,74.020594,0.000000
4177.170200,-10066.800811,0.000000,459.657299
4177.170530,-10584.944971,370.102971,842.705048
4177.170860,-10510.924376,370.102971,689.485948
4177.171189,-9696.697840,592.164754,766.095498
4177.171519,-9548.656652,444.123565,536.266849
4177.171849,-10658.965565,370.102971,0.000000
4177.172179,-10362.883188,592.164754,-153.219100
4177.172508,-10362.883188,0.000000,-153.219100
4177.172838,-9770.718434,-148.041188,153.219100
4177.173168,-9400.615463,-296.082377,689.485948
4177.173498,-9918.759623,0.000000,995.924147
4177.173827,-9474.636058,-666.185348,0.000000
4177.174157,-9474.636058,-296.082377,76.609550
4177.174487,-9548.656652,-296.082377,919.314598
4177.174816,-9622.677246,0.000000,1225.752797
4177.175146,-9326.594869,0.000000,919.314598
4177.175476,-9400.615463,0.000000,-153.219100
4177.175806,-9770.718434,74.020594,-766.095498
4177.176135,-9844.739029,222.061783,-689.485948
4177.176465,-9326.594869,222.061783,-459.657299
4177.176795,-10140.821405,148.041188,229.828649
4177.177125,-9770.718434,592.164754,383.047749
4177.177454,-9252.574275,222.061783,-919.314598
4177.177784,-9992.780217,444.123565,-1302.362347
4177.178114,-9844.739029,222.061783,-306.438199
4177.178444,-9918.759623,0.000000,0.000000
4177.178773,-9844.739029,518.144159,0.000000
4177.179103,-9326.594869,74.020594,-383.047749
4177.179433,-10140.821405,370.102971,306.438199
4177.179763,-10510.924376,0.000000,612.876398
4177.180093,-10214.842000,148.041188,1072.533697
4177.180423,-9844.739029,-444.123565,1302.362347
4177.180752,-9474.636058,0.000000,1378.971896
4177.181082,-9474.636058,-518.144159,1302.362347
4177.181412,-9474.636058,-444.123565,153.219100
4177.181742,-9474.636058,-444.123565,-612.876398
4177.182072,-9844.739029,-814.226536,-229.828649
4177.182402,-9252.574275,0.000000,383.047749
4177.182731,-9696.697840,0.000000,1455.581446
4177.183061,-10362.883188,-296.082377,995.924147
4177.183391,-9548.656652,-370.102971,0.000000
4177.183721,-9400.615463,0.000000,459.657299
4177.184051,-9548.656652,-222.061783,383.047749
4177.184381,-10066.800811,0.000000,306.438199
4177.184710,-10140.821405,-888.247130,459.657299
4177.185040,-9104.533087,0.000000,0.000000
4177.185370,-8808.450710,-148.041188,-383.047749
4177.185700,-9474.636058,296.082377,-1072.533697
4177.186030,-9548.656652,222.061783,-459.657299
4177.186360,-10140.821405,444.123565,0.000000
4177.186690,-10066.800811,296.082377,-153.219100
4177.187019,-10510.924376,296.082377,229.828649
4177.187349,-9992.780217,0.000000,536.266849
4177.187679,-9178.553681,-370.102971,0.000000
4177.188009,-9030.512492,0.000000,-153.219100
4177.188339,-9622.677246,-814.226536,-383.047749
4177.188669,-10066.800811,-296.082377,-76.609550
4177.188998,-10658.965565,0.000000,689.485948
4177.189328,-10436.903782,74.020594,842.705048
4177.189658,-9548.656652,0.000000,1072.533697
4177.189988,-9178.553681,0.000000,995.924147
4177.190318,-9474.636058,74.020594,1302.362347
4177.190648,-10288.862594,74.020594,612.876398
4177.190977,-10288.862594,444.123565,-766.095498
4177.191307,-9400.615463,296.082377,-689.485948
4177.191637,-9992.780217,296.082377,459.657299
4177.191967,-10807.006753,222.061783,1685.410096
4177.192297,-10658.965565,814.226536,1072.533697
4177.192627,-9622.677246,148.041188,-229.828649
4177.192956,-9178.553681,592.164754,-1378.971896
4177.193286,-9844.739029,296.082377,-153.219100
4177.193616,-10214.842000,518.144159,919.314598
4177.193946,-10436.903782,666.185348,1608.800546
4177.194276,-9548.656652,370.102971,76.609550
4177.194606,-8808.450710,296.082377,-919.314598
4177.194935,-9770.718434,74.020594,153.219100
4177.195265,-10510.924376,888.247130,-153.219100
4177.195595,-9474.636058,296.082377,153.219100
4177.195925,-9326.594869,0.000000,-153.219100
4177.196255,-9030.512492,74.020594,-689.485948
4177.196585,-8956.491898,666.185348,76.609550
4177.196914,-9030.512492,148.041188,-842.705048
4177.197244,-9474.636058,370.102971,-306.438199
4177.197574,-9622.677246,222.061783,842.705048
4177.197904,-10140.821405,592.164754,689.485948
4177.198234,-10066.800811,444.123565,612.876398
4177.198564,-10436.903782,222.061783,919.314598
4177.198894,-9696.697840,0.000000,76.609550
4177.199223,-9622.677246,0.000000,0.000000
4177.199553,-9992.780217,888.247130,306.438199
4177.199883,-9400.615463,370.102971,229.828649
4177.200213,-9030.512492,444.123565,383.047749
4177.200543,-9400.615463,814.226536,-689.485948
4177.200873,-10807.006753,296.082377,-689.485948
4177.201202,-10732.986159,148.041188,-306.438199
4177.201532,-10066.800811,0.000000,459.657299
4177.201862,-9104.533087,0.000000,1072.533697
4177.202192,-9474.636058,-370.102971,76.609550
4177.202522,-10066.800811,-296.082377,459.657299
4177.202852,-10066.800811,0.000000,919.314598
4177.203181,-9992.780217,222.061783,229.828649
4177.203511,-9770.718434,148.041188,76.609550
4177.203841,-9992.780217,370.102971,-76.609550
4177.204171,-9770.718434,74.020594,-229.828649
4177.204501,-9252.574275,-592.164754,306.438199
4177.204831,-9548.656652,-518.144159,-153.219100
4177.205160,-9918.759623,-296.082377,0.000000
4177.205490,-10288.862594,-666.185348,-153.219100
4177.205820,-8438.347739,-592.164754,0.000000
4177.206150,-8882.471304,-370.102971,612.876398
4177.206480,-10584.944971,-74.020594,995.924147
4177.206810,-11177.109724,-296.082377,1378.971896
4177.207139,-10362.883188,-962.267725,842.705048
4177.207469,-8956.491898,-666.185348,0.000000
4177.207799,-9474.636058,-370.102971,383.047749
4177.208129,-10140.821405,-148.041188,1302.362347
4177.208459,-9474.636058,0.000000,229.828649
4177.208789,-9474.636058,74.020594,0.000000
4177.209118,-10288.862594,0.000000,-306.438199
4177.209448,-11177.109724,370.102971,0.000000
4177.209778,-9770.718434,-518.144159,689.485948
4177.210108,-8956.491898,0.000000,612.876398
4177.210438,-9030.512492,0.000000,459.657299
4177.210768,-10584.944971,370.102971,-536.266849
4177.211098,-9770.718434,74.020594,-766.095498
4177.211427,-9770.718434,0.000000,153.219100
4177.211757,-10140.821405,296.082377,1608.800546
4177.212087,-10658.965565,-370.102971,2298.286494
4177.212417,-9918.759623,-74.020594,1149.143247
4177.212747,-8808.450710,0.000000,0.000000
4177.213077,-9622.677246,-296.082377,229.828649
4177.213406,-10510.924376,0.000000,842.705048
4177.213736,-10955.047942,370.102971,1072.533697
4177.214066,-9252.574275,-370.102971,153.219100
4177.214396,-8882.471304,444.123565,-229.828649
4177.214726,-9104.533087,0.000000,0.000000
4177.215056,-9252.574275,222.061783,-766.095498
4177.215385,-9844.739029,222.061783,-459.657299
4177.215715,-9696.697840,-370.102971,76.609550
4177.216045,-8956.491898,-296.082377,153.219100
4177.216375,-9400.615463,0.000000,612.876398
4177.216705,-9770.718434,0.000000,689.485948
4177.217035,-9918.759623,74.020594,536.266849
4177.217364,-10658.965565,-74.020594,536.266849
4177.217694,-10362.883188,222.061783,536.266849
4177.218024,-9474.636058,444.123565,1302.362347
4177.218354,-10066.800811,518.144159,306.438199
4177.218684,-9400.615463,666.185348,-459.657299
4177.219014,-9548.656652,296.082377,-229.828649
4177.219343,-9770.718434,148.041188,-919.314598
4177.219673,-9992.780217,296.082377,-1378.971896
4177.220003,-9696.697840,-296.082377,-919.314598
4177.220333,-9400.615463,-518.144159,-306.438199
4177.220663,-9178.553681,296.082377,0.000000
4177.220993,-9696.697840,0.000000,1302.362347
4177.221322,-10066.800811,740.205942,689.485948
4177.221652,-10140.821405,296.082377,842.705048
4177.221982,-9992.780217,148.041188,153.219100
4177.222312,-10510.924376,0.000000,153.219100
4177.222642,-11325.150913,222.061783,459.657299
4177.222972,-9918.759623,296.082377,0.000000
4177.223302,-9252.574275,296.082377,-1225.752797
4177.223631,-9992.780217,222.061783,-1378.971896
4177.223961,-9622.677246,74.020594,-1149.143247
4177.224291,-9844.739029,666.185348,0.000000
4177.224621,-9770.718434,222.061783,306.438199
4177.224951,-9844.739029,222.061783,-76.609550
4177.225281,-9400.615463,74.020594,0.000000
4177.225610,-9030.512492,74.020594,612.876398
4177.225940,-10140.821405,74.020594,1532.190996
4177.226270,-11029.068536,518.144159,1149.143247
4177.226600,-10510.924376,-666.185348,-459.657299
4177.226930,-9770.718434,-222.061783,0.000000
4177.227260,-8438.347739,0.000000,306.438199
4177.227589,-9400.615463,444.123565,536.266849
4177.227919,-9770.718434,740.205942,0.000000
4177.228249,-9326.594869,518.144159,-306.438199
4177.228579,-9474.636058,518.144159,-612.876398
4177.228909,-10510.924376,518.144159,-459.657299
4177.229239,-11547.212695,74.020594,-766.095498
4177.229568,-9844.739029,74.020594,383.047749
4177.229898,-7920.203579,-740.205942,0.000000
4177.230228,-8808.450710,444.123565,612.876398
4177.230558,-10140.821405,74.020594,459.657299
4177.230888,-10362.883188,444.123565,76.609550
4177.231218,-9548.656652,0.000000,383.047749
4177.231547,-9770.718434,296.082377,306.438199
4177.231877,-11177.109724,148.041188,842.705048
4177.232207,-9770.718434,222.061783,612.876398
4177.232537,-8808.450710,-444.123565,153.219100
4177.232867,-8586.388927,0.000000,-459.657299
4177.233197,-9992.780217,222.061783,-766.095498
4177.233526,-10584.944971,296.082377,-1072.533697
4177.233856,-9548.656652,222.061783,-536.266849
4177.234186,-9474.636058,74.020594,689.485948
4177.234516,-9918.759623,-666.185348,1149.143247
4177.234846,-9992.780217,-370.102971,1149.143247
4177.235176,-9030.512492,-888.247130,766.095498
4177.235506,-8956.491898,-592.164754,612.876398
4177.235835,-9548.656652,0.000000,612.876398
4177.236165,-11029.068536,-296.082377,536.266849
4177.236495,-10436.903782,-592.164754,689.485948
4177.236825,-9252.574275,-444.123565,153.219100
4177.237155,-8586.388927,-518.144159,306.438199
4177.237485,-9844.739029,-370.102971,-229.828649
4177.237814,-9104.533087,-222.061783,76.609550
4177.238144,-9326.594869,-296.082377,1302.362347
4177.238474,-9696.697840,296.082377,536.266849
4177.238804,-10436.903782,-370.102971,383.047749
4177.239134,-10955.047942,-592.164754,-229.828649
4177.239464,-9474.636058,-888.247130,0.000000
4177.239793,-9252.574275,-444.123565,995.924147
4177.240123,-10214.842000,74.020594,1455.581446
4177.240453,-10140.821405,-74.020594,536.266849
4177.240783,-9770.718434,370.102971,0.000000
4177.241113,-9474.636058,370.102971,-306.438199
4177.241443,-10658.965565,222.061783,-612.876398
4177.241772,-11547.212695,444.123565,-689.485948
4177.242102,-9622.677246,222.061783,-766.095498
4177.242432,-8586.388927,-370.102971,-612.876398
4177.242762,-8660.409521,0.000000,-76.609550
4177.243092,-10140.821405,-370.102971,612.876398
4177.243422,-10214.842000,74.020594,842.705048
4177.243751,-9178.553681,-222.061783,1149.143247
4177.244081,-9622.677246,-296.082377,1225.752797
4177.244411,-10510.924376,-74.020594,842.705048
4177.244741,-10066.800811,296.082377,1302.362347
4177.245071,-9548.656652,-370.102971,766.095498
4177.245401,-9400.615463,666.185348,-459.657299
4177.245730,-9770.718434,814.226536,-995.924147
4177.246060,-10066.800811,370.102971,-153.219100
4177.246390,-9474.636058,962.267725,-612.876398
4177.246720,-9474.636058,296.082377,229.828649
4177.247050,-9992.780217,666.185348,0.000000
4177.247380,-9918.759623,74.020594,-689.485948
4177.247709,-9326.594869,296.082377,-153.219100
4177.248039,-8956.491898,0.000000,459.657299
4177.248369,-9770.718434,296.082377,1762.019645
4177.248699,-11103.089130,518.144159,1915.238745
4177.249029,-10584.944971,666.185348,1302.362347
4177.249359,-9696.697840,444.123565,536.266849
4177.249689,-9548.656652,222.061783,-306.438199
4177.250018,-10214.842000,148.041188,229.828649
4177.250348,-9770.718434,74.020594,0.000000
4177.250678,-8808.450710,444.123565,0.000000
4177.251008,-8882.471304,296.082377,0.000000
4177.251338,-9770.718434,148.041188,-689.485948
4177.251668,-10436.903782,148.041188,-229.828649
4177.251997,-10288.862594,74.020594,459.657299
4177.252327,-9178.553681,370.102971,612.876398
4177.252657,-8882.471304,0.000000,459.657299
4177.252987,-9770.718434,518.144159,0.000000
4177.253317,-9770.718434,518.144159,-612.876398
4177.253647,-10214.842000,74.020594,-536.266849
4177.253976,-10214.842000,518.144159,0.000000
4177.254306,-10288.862594,370.102971,459.657299
4177.254636,-9474.636058,222.061783,383.047749
4177.254966,-9104.533087,0.000000,0.000000
4177.255296,-9178.553681,222.061783,-766.095498
4177.255626,-10362.883188,74.020594,-1455.581446
4177.255955,-10288.862594,888.247130,-1378.971896
4177.256285,-9178.553681,222.061783,0.000000
4177.256615,-9474.636058,222.061783,76.609550
4177.256945,-10362.883188,370.102971,842.705048
4177.257275,-10510.924376,0.000000,842.705048
4177.257605,-9992.780217,148.041188,-612.876398
4177.257934,-9548.656652,0.000000,-306.438199
4177.258264,-10288.862594,-296.082377,0.000000
4177.258594,-10436.903782,74.020594,536.266849
4177.258924,-9992.780217,518.144159,459.657299
4177.259254,-9770.718434,0.000000,0.000000
4177.259584,-9696.697840,-148.041188,-383.047749
4177.259913,-8956.491898,-296.082377,-383.047749
4177.260243,-9400.615463,-888.247130,229.828649
4177.260573,-10436.903782,-592.164754,1991.848295
4177.260903,-9992.780217,-666.185348,1532.190996
4177.261233,-9770.718434,-814.226536,459.657299
4177.261563,-9178.553681,-370.102971,-76.609550
4177.261893,-9696.697840,-370.102971,689.485948
4177.262222,-10807.006753,222.061783,689.485948
4177.262552,-9992.780217,0.000000,919.314598
4177.262882,-9622.677246,296.082377,1072.533697
4177.263212,-9474.636058,-518.144159,229.828649
4177.263542,-10362.883188,0.000000,459.657299
4177.263872,-10288.862594,-370.102971,153.219100
4177.264201,-8956.491898,592.164754,-612.876398
4177.264531,-8660.409521,222.061783,-612.876398
4177.264861,-9474.636058,444.123565,0.000000
4177.265191,-9918.759623,666.185348,153.219100
4177.265521,-10436.903782,444.123565,76.609550
4177.265851,-10436.903782,370.102971,0.000000
4177.266180,-10510.924376,148.041188,536.266849
4177.266510,-9474.636058,222.061783,1072.533697
4177.266840,-8512.368333,148.041188,383.047749
4177.267170,-9178.553681,518.144159,306.438199
4177.267500,-10658.965565,296.082377,689.485948
4177.267830,-10658.965565,592.164754,0.000000
4177.268159,-9844.739029,222.061783,-842.705048
4177.268489,-9844.739029,444.123565,-76.609550
4177.268819,-9696.697840,-740.205942,995.924147
4177.269149,-9622.677246,-592.164754,1455.581446
4177.269479,-8956.491898,-296.082377,842.705048
4177.269809,-9400.615463,-296.082377,766.095498
4177.270138,-9622.677246,148.041188,459.657299
4177.270468,-10066.800811,0.000000,229.828649
4177.270798,-10807.006753,0.000000,1149.143247
4177.271128,-10584.944971,0.000000,842.705048
4177.271458,-10140.821405,296.082377,766.095498
4177.271788,-9030.512492,-814.226536,0.000000
4177.272117,-9030.512492,-296.082377,-536.266849
4177.272447,-9252.574275,-222.061783,306.438199
4177.272777,-10140.821405,74.020594,919.314598
4177.273107,-10362.883188,444.123565,689.485948
4177.273437,-9770.718434,148.041188,-612.876398
4177.273767,-9844.739029,444.123565,-1072.533697
4177.274097,-9622.677246,518.144159,-766.095498
4177.274426,-10436.903782,296.082377,76.609550
4177.274756,-10140.821405,0.000000,459.657299
4177.275086,-9844.739029,-592.164754,919.314598
4177.275416,-9622.677246,0.000000,919.314598
4177.275746,-9252.574275,-444.123565,-306.438199
4177.276076,-10140.821405,222.061783,0.000000
4177.276405,-10510.924376,-370.102971,-383.047749
4177.276735,-10066.800811,-444.123565,689.485948
4177.277065,-9178.553681,444.123565,766.095498
4177.277395,-9030.512492,592.164754,306.438199
4177.277725,-9918.759623,666.185348,229.828649
4177.278055,-11103.089130,592.164754,-459.657299
4177.278384,-10807.006753,1036.288319,-1532.190996
4177.278714,-9400.615463,-222.061783,-1685.410096
4177.279044,-8734.430116,74.020594,-1378.971896
4177.279374,-9104.533087,-296.082377,153.219100
4177.279704,-10066.800811,148.041188,306.438199
4177.280034,-9622.677246,222.061783,-153.219100
4177.280363,-9104.533087,-518.144159,-536.266849
4177.280693,-9400.615463,148.041188,-229.828649
4177.281023,-9696.697840,74.020594,1378.971896
4177.281353,-10362.883188,370.102971,1455.581446
4177.281682,-10066.800811,148.041188,1455.581446
4177.282012,-9770.718434,370.102971,76.609550
4177.282342,-9474.636058,0.000000,-1302.362347
4177.282671,-9474.636058,0.000000,-766.095498
4177.283001,-9696.697840,-518.144159,612.876398
4177.283331,-9030.512492,-518.144159,919.314598
4177.283661,-9104.533087,0.000000,1225.752797
4177.283990,-9474.636058,444.123565,766.095498
4177.284320,-9548.656652,222.061783,-306.438199
4177.284650,-9992.780217,814.226536,536.266849
4177.284979,-10584.944971,740.205942,1149.143247
4177.285309,-11177.109724,74.020594,1685.410096
4177.285639,-10288.862594,0.000000,995.924147
4177.285968,-8586.388927,0.000000,-76.609550
4177.286298,-9622.677246,-296.082377,-306.438199
4177.286628,-10140.821405,-444.123565,-459.657299
4177.286957,-9770.718434,-370.102971,612.876398
4177.287287,-9178.553681,-370.102971,2068.457845
4177.287617,-9400.615463,592.164754,1149.143247
4177.287947,-10214.842000,0.000000,919.314598
4177.288276,-10807.006753,-222.061783,536.266849
4177.288606,-9918.759623,-222.061783,306.438199
4177.288936,-9918.759623,-74.020594,1149.143247
4177.289265,-10214.842000,-222.061783,0.000000
4177.289595,-9548.656652,-666.185348,-153.219100
4177.289925,-9548.656652,-740.205942,0.000000
4177.290254,-9400.615463,-444.123565,612.876398
4177.290584,-10288.862594,-814.226536,689.485948
4177.290914,-9326.594869,-888.247130,-306.438199
4177.291244,-8068.244768,-1036.288319,229.828649
4177.291573,-9548.656652,-962.267725,1455.581446
4177.291903,-11399.171507,0.000000,1991.848295
4177.292233,-11103.089130,-370.102971,766.095498
4177.292562,-8882.471304,-888.247130,-689.485948
4177.292892,-8068.244768,-518.144159,-1302.362347
4177.293222,-9178.553681,-518.144159,0.000000
4177.293551,-10436.903782,0.000000,153.219100
4177.293881,-10066.800811,-222.061783,0.000000
4177.294211,-9992.780217,0.000000,-229.828649
4177.294540,-9548.656652,222.061783,-1685.410096
4177.294870,-10066.800811,296.082377,-842.705048
4177.295200,-9844.739029,0.000000,-306.438199
4177.295530,-9474.636058,-222.061783,306.438199
4177.295859,-9622.677246,0.000000,306.438199
4177.296189,-10510.924376,-74.020594,-383.047749
4177.296519,-10066.800811,370.102971,-842.705048
4177.296848,-9326.594869,-74.020594,-229.828649
4177.297178,-9622.677246,666.185348,536.266849
4177.297508,-10066.800811,518.144159,919.314598
4177.297837,-10140.821405,666.185348,995.924147
4177.298167,-9326.594869,666.185348,76.609550
4177.298497,-9770.718434,444.123565,-612.876398
4177.298826,-9918.759623,1258.350101,-1608.800546
4177.299156,-10140.821405,592.164754,-842.705048
4177.299486,-9474.636058,222.061783,-842.705048
4177.299816,-7994.224174,592.164754,-306.438199
4177.300145,-8586.388927,666.185348,459.657299
4177.300475,-9918.759623,740.205942,-536.266849
4177.300805,-10214.842000,1702.473667,0.000000
4177.301134,-9770.718434,888.247130,229.828649
4177.301464,-9548.656652,592.164754,459.657299
4177.301794,-9474.636058,296.082377,1072.533697
4177.302123,-9918.759623,370.102971,612.876398
4177.302453,-9992.780217,1258.350101,766.095498
4177.302783,-10140.821405,296.082377,459.657299
4177.303113,-9400.615463,592.164754,-229.828649
4177.303442,-9326.594869,1184.329507,-612.876398
4177.303772,-10214.842000,962.267725,0.000000
4177.304102,-9252.574275,1554.432478,612.876398
4177.304431,-9400.615463,1184.329507,1072.533697
4177.304761,-10955.047942,962.267725,-459.657299
4177.305091,-10436.903782,592.164754,-153.219100
4177.305420,-10732.986159,444.123565,766.095498
4177.305750,-9992.780217,-370.102971,766.095498
4177.306080,-9326.594869,-1036.288319,1378.971896
4177.306409,-9178.553681,-370.102971,1915.238745
4177.306739,-8512.368333,-370.102971,1762.019645
4177.307069,-9474.636058,-370.102971,766.095498
4177.307399,-10214.842000,222.061783,842.705048
4177.307728,-10732.986159,296.082377,842.705048
4177.308058,-10214.842000,222.061783,459.657299
4177.308388,-9030.512492,222.061783,-229.828649
4177.308717,-9918.759623,-592.164754,-689.485948
4177.309047,-9770.718434,-518.144159,-1685.410096
4177.309377,-8882.471304,-666.185348,-995.924147
4177.309706,-8364.327145,-1184.329507,0.000000
4177.310036,-9252.574275,-740.205942,842.705048
4177.310366,-9548.656652,-592.164754,1532.190996
4177.310696,-10955.047942,0.000000,383.047749
4177.311025,-11177.109724,0.000000,-383.047749
4177.311355,-9992.780217,-666.185348,-153.219100
4177.311685,-9178.553681,74.020594,-229.828649
4177.312014,-10140.821405,296.082377,689.485948
4177.312344,-11177.109724,148.041188,612.876398
4177.312674,-10584.944971,-592.164754,-766.095498
4177.313003,-9178.553681,-666.185348,-1762.019645
4177.313333,-9178.553681,-888.247130,-459.657299
4177.313663,-10066.800811,-1110.308913,383.047749
4177.313992,-9104.533087,-1258.350101,1225.752797
4177.314322,-8216.285956,-888.247130,766.095498
4177.314652,-8956.491898,-370.102971,153.219100
4177.314982,-10436.903782,74.020594,459.657299
4177.315311,-10955.047942,-148.041188,689.485948
4177.315641,-10066.800811,0.000000,1149.143247
4177.315971,-10584.944971,518.144159,919.314598
4177.316300,-11399.171507,-370.102971,153.219100
4177.316630,-9474.636058,-962.267725,0.000000
4177.316960,-8364.327145,-740.205942,153.219100
4177.317289,-8882.471304,-74.020594,383.047749
4177.317619,-9474.636058,-74.020594,1149.143247
4177.317949,-10066.800811,370.102971,1225.752797
4177.318278,-9252.574275,74.020594,612.876398
4177.318608,-10140.821405,592.164754,766.095498
4177.318938,-10955.047942,518.144159,0.000000
4177.319268,-10436.903782,222.061783,842.705048
4177.319597,-9474.636058,666.185348,1072.533697
4177.319927,-8512.368333,444.123565,1149.143247
4177.320257,-9992.780217,518.144159,-153.219100
4177.320586,-10881.027347,444.123565,76.609550
4177.320916,-10140.821405,592.164754,229.828649
4177.321246,-9326.594869,370.102971,0.000000
4177.321575,-9178.553681,518.144159,229.828649
4177.321905,-9474.636058,222.061783,0.000000
4177.322235,-9030.512492,-444.123565,-229.828649
4177.322565,-8438.347739,0.000000,306.438199
4177.322894,-10140.821405,592.164754,1225.752797
4177.323224,-11177.109724,962.267725,0.000000
4177.323554,-9992.780217,148.041188,-536.266849
4177.323883,-8660.409521,296.082377,-459.657299
4177.324213,-9104.533087,666.185348,1378.971896
4177.324543,-11325.150913,518.144159,1762.019645
4177.324872,-10584.944971,222.061783,306.438199
4177.325202,-8364.327145,0.000000,153.219100
4177.325532,-9030.512492,296.082377,-612.876398
4177.325861,-10807.006753,518.144159,-459.657299
4177.326191,-11399.171507,0.000000,-76.609550
4177.326521,-8586.388927,0.000000,-766.095498
4177.326851,-8216.285956,370.102971,0.000000
4177.327180,-9696.697840,592.164754,383.047749
4177.327510,-10955.047942,222.061783,1149.143247
4177.327840,-10510.924376,592.164754,1685.410096
4177.328169,-9844.739029,0.000000,76.609550
4177.328499,-10214.842000,0.000000,-612.876398
4177.328829,-10436.903782,-740.205942,0.000000
4177.329158,-9252.574275,-592.164754,459.657299
4177.329488,-8512.368333,-444.123565,1149.143247
4177.329818,-9622.677246,74.020594,76.609550
4177.330148,-10510.924376,370.102971,-612.876398
4177.330477,-9844.739029,444.123565,-76.609550
4177.330807,-9474.636058,666.185348,0.000000
4177.331137,-10214.842000,74.020594,229.828649
4177.331466,-11029.068536,0.000000,1225.752797
4177.331796,-10066.800811,-370.102971,459.657299
4177.332126,-9178.553681,-666.185348,-306.438199
4177.332455,-8882.471304,-814.226536,-766.095498
4177.332785,-9622.677246,-370.102971,76.609550
4177.333115,-9770.718434,222.061783,0.000000
4177.333444,-9252.574275,666.185348,306.438199
4177.333774,-9770.718434,592.164754,0.000000
4177.334104,-9844.739029,296.082377,-306.438199
4177.334434,-9696.697840,518.144159,-383.047749
4177.334763,-10214.842000,370.102971,153.219100
4177.335093,-10362.883188,0.000000,153.219100
4177.335423,-9696.697840,444.123565,-229.828649
4177.335752,-8660.409521,296.082377,-1685.410096
4177.336082,-8290.306550,444.123565,-2374.896044
4177.336412,-9252.574275,222.061783,-612.876398
4177.336741,-11399.171507,1036.288319,919.314598
4177.337071,-11177.109724,370.102971,1149.143247
4177.337401,-9622.677246,814.226536,0.000000
4177.337731,-8290.306550,0.000000,-1532.190996
4177.338060,-9326.594869,444.123565,-995.924147
4177.338390,-10732.986159,592.164754,-612.876398
4177.338720,-9918.759623,1110.308913,-1149.143247
4177.339049,-9326.594869,962.267725,-1378.971896
4177.339379,-8882.471304,888.247130,-1608.800546
4177.339709,-9474.636058,962.267725,-459.657299
4177.340038,-10881.027347,888.247130,0.000000
4177.340368,-10881.027347,666.185348,-459.657299
4177.340698,-8882.471304,148.041188,-306.438199
4177.341027,-9030.512492,1332.370696,76.609550
4177.341357,-9918.759623,370.102971,0.000000
4177.341687,-10658.965565,1184.329507,153.219100
4177.342017,-9696.697840,1628.453072,-612.876398
4177.342346,-8808.450710,1184.329507,-2068.457845
4177.342676,-9252.574275,1776.494261,-1378.971896
4177.343006,-10214.842000,2368.659014,-1991.848295
4177.343335,-10288.862594,2294.638420,-919.314598
4177.343665,-10140.821405,2220.617826,-1378.971896
4177.343995,-10510.924376,2220.617826,-2451.505594
4177.344324,-9844.739029,1332.370696,-2451.505594
4177.344654,-9622.677246,1776.494261,-2757.943793
4177.344984,-7994.224174,1258.350101,-2298.286494
4177.345313,-8364.327145,1924.535449,-1915.238745
4177.345643,-9918.759623,2516.700203,-1838.629195
4177.345973,-9918.759623,2294.638420,-2221.676944
4177.346303,-9548.656652,3034.844362,-2145.067394
4177.346632,-9696.697840,3849.070898,-2604.724693
4177.346962,-10807.006753,2886.803174,-1378.971896
4177.347292,-11325.150913,3256.906145,-1302.362347
4177.347621,-10288.862594,2368.659014,-1991.848295
4177.347951,-9548.656652,1702.473667,-2528.115143
4177.348281,-9696.697840,1924.535449,-2604.724693
4177.348610,-8882.471304,1480.411884,-2528.115143
4177.348940,-7105.977043,1850.514855,-1762.019645
4177.349270,-7920.203579,2812.782580,-689.485948
4177.349600,-10140.821405,3923.091493,-919.314598
4177.349929,-11991.336260,3997.112087,-1762.019645
4177.350259,-11843.295072,3849.070898,-2987.772442
4177.350589,-11177.109724,3182.885551,-2681.334243
4177.350918,-11399.171507,2442.679609,-2681.334243
4177.351248,-9992.780217,1998.556043,-1991.848295
4177.351578,-7179.997637,1110.308913,-2451.505594
4177.351907,-6365.771101,444.123565,-1915.238745
4177.352237,-7402.059420,1702.473667,-689.485948
4177.352567,-9844.739029,2516.700203,383.047749
4177.352896,-10436.903782,3330.926739,-1072.533697
4177.353226,-10955.047942,3108.864956,-2604.724693
4177.353556,-11325.150913,3256.906145,-2451.505594
4177.353886,-11695.253884,2368.659014,-2298.286494
4177.354215,-10584.944971,2960.823768,-2068.457845
4177.354545,-9104.533087,1998.556043,-2298.286494
4177.354875,-8438.347739,1924.535449,-3064.381992
4177.355204,-7920.203579,1628.453072,-3217.601092
4177.355534,-7624.121203,1702.473667,-3370.820191
4177.355864,-8586.388927,1554.432478,-2987.772442
4177.356193,-9474.636058,2368.659014,-1225.752797
4177.356523,-10066.800811,1924.535449,-842.705048
4177.356853,-10658.965565,2072.576638,-1838.629195
4177.357183,-10288.862594,2442.679609,-2374.896044
4177.357512,-11103.089130,2294.638420,-2145.067394
4177.357842,-11399.171507,2442.679609,-2298.286494
4177.358172,-10658.965565,2294.638420,-1991.848295
4177.358501,-9400.615463,1998.556043,-1915.238745
4177.358831,-8882.471304,1924.535449,-1685.410096
4177.359161,-9844.739029,1110.308913,-1608.800546
4177.359490,-9474.636058,740.205942,-2145.067394
4177.359820,-9104.533087,962.267725,-1608.800546
4177.360150,-10955.047942,1258.350101,-1149.143247
4177.360479,-9474.636058,1628.453072,-1838.629195
4177.360809,-8512.368333,1480.411884,-842.705048
4177.361139,-10140.821405,2146.597232,-1608.800546
4177.361469,-11251.130318,2368.659014,-1915.238745
4177.361798,-10955.047942,1998.556043,-1455.581446
4177.362128,-10288.862594,2368.659014,-1302.362347
4177.362458,-9770.718434,2442.679609,-1302.362347
4177.362787,-10066.800811,1998.556043,-1838.629195
4177.363117,-9326.594869,1184.329507,-2145.067394
4177.363447,-10140.821405,1480.411884,-2834.553343
4177.363776,-8882.471304,1184.329507,-3064.381992
4177.364106,-8290.306550,740.205942,-3753.867940
4177.364436,-8068.244768,1554.432478,-2451.505594
4177.364765,-9326.594869,1406.391290,-1378.971896
4177.365095,-9918.759623,1554.432478,-1149.143247
4177.365425,-10362.883188,2368.659014,-1225.752797
4177.365755,-10140.821405,2516.700203,-1072.533697
4177.366084,-10584.944971,1998.556043,-919.314598
4177.366414,-11103.089130,2886.803174,-1685.410096
4177.366744,-10955.047942,2220.617826,-1991.848295
4177.367073,-9844.739029,1924.535449,-2604.724693
4177.367403,-8438.347739,1628.453072,-2757.943793
4177.367733,-8142.265362,1554.432478,-3600.648841
4177.368062,-8734.430116,1702.473667,-3294.210641
4177.368392,-9104.533087,1924.535449,-3370.820191
4177.368722,-9326.594869,1924.535449,-1915.238745
4177.369052,-9548.656652,1998.556043,-1378.971896
4177.369381,-10362.883188,2590.720797,-919.314598
4177.369711,-10436.903782,2442.679609,153.219100
4177.370041,-11103.089130,2886.803174,-612.876398
4177.370370,-10288.862594,2516.700203,-1225.752797
4177.370700,-10066.800811,2516.700203,-1838.629195
4177.371030,-10214.842000,2516.700203,-2834.553343
4177.371359,-9918.759623,2220.617826,-1991.848295
4177.371689,-9252.574275,2368.659014,-1838.629195
4177.372019,-8512.368333,2072.576638,-1762.019645
4177.372348,-8734.430116,1998.556043,-2757.943793
4177.372678,-9178.553681,2294.638420,-3064.381992
4177.373008,-9770.718434,2368.659014,-2834.553343
4177.373338,-10140.821405,2368.659014,-1915.238745
4177.373667,-10881.027347,3256.906145,-1149.143247
4177.373997,-10807.006753,3108.864956,-1225.752797
4177.374327,-10214.842000,2516.700203,-1532.190996
4177.374656,-9474.636058,2442.679609,-1838.629195
4177.374986,-9474.636058,2146.597232,-2145.067394
4177.375316,-9844.739029,1924.535449,-2221.676944
4177.375645,-9474.636058,1776.494261,-2221.676944
4177.375975,-8956.491898,2294.638420,-1608.800546
4177.376305,-9326.594869,2590.720797,-995.924147
4177.376635,-9770.718434,2738.761985,-2068.457845
4177.376964,-10288.862594,2886.803174,-2757.943793
4177.377294,-10584.944971,3256.906145,-3753.867940
4177.377624,-10140.821405,3182.885551,-2834.553343
4177.377953,-10288.862594,2516.700203,-2221.676944
4177.378283,-10066.800811,2368.659014,-1302.362347
4177.378613,-9548.656652,1776.494261,-1762.019645
4177.378942,-8956.491898,1406.391290,-2145.067394
4177.379272,-8734.430116,1036.288319,-2451.505594
4177.379602,-9030.512492,1332.370696,-1455.581446
4177.379932,-9252.574275,1776.494261,-689.485948
4177.380261,-9326.594869,2072.576638,-842.705048
4177.380591,-10214.842000,2368.659014,-1149.143247
4177.380921,-10584.944971,2812.782580,-1915.238745
4177.381251,-10732.986159,2368.659014,-2681.334243
4177.381581,-10288.862594,2368.659014,-3447.429741
4177.381910,-9696.697840,2220.617826,-2757.943793
4177.382240,-9770.718434,1924.535449,-1378.971896
4177.382570,-10140.821405,1776.494261,-612.876398
4177.382900,-9326.594869,1184.329507,-1838.629195
4177.383230,-8290.306550,1036.288319,-2911.162892
4177.383559,-8290.306550,1332.370696,-3140.991542
4177.383889,-9252.574275,1258.350101,-1608.800546
4177.384219,-10584.944971,1924.535449,-766.095498
4177.384549,-10732.986159,2146.597232,76.609550
4177.384879,-10214.842000,2294.638420,-919.314598
4177.385208,-10288.862594,2516.700203,-2145.067394
4177.385538,-10658.965565,1998.556043,-2987.772442
4177.385868,-10510.924376,1776.494261,-2681.334243
4177.386198,-9696.697840,1628.453072,-1455.581446
4177.386528,-9104.533087,1406.391290,-842.705048
4177.386857,-9474.636058,1554.432478,-1225.752797
4177.387187,-9474.636058,1332.370696,-1915.238745
4177.387517,-9770.718434,1480.411884,-2681.334243
4177.387847,-9400.615463,1554.432478,-3524.039291
4177.388177,-9400.615463,1776.494261,-3370.820191
4177.388506,-9844.739029,2368.659014,-2221.676944
4177.388836,-10214.842000,2590.720797,-766.095498
4177.389166,-10436.903782,2368.659014,-229.828649
4177.389496,-10214.842000,1924.535449,-1378.971896
4177.389826,-10066.800811,1702.473667,-2528.115143
4177.390155,-9622.677246,1184.329507,-2374.896044
4177.390485,-9400.615463,1332.370696,-1302.362347
4177.390815,-9178.553681,1480.411884,-1532.190996
4177.391145,-8068.244768,1628.453072,-1762.019645
4177.391475,-8808.450710,1924.535449,-2298.286494
4177.391804,-10214.842000,2664.741391,-2298.286494
4177.392134,-10807.006753,2812.782580,-2374.896044
4177.392464,-10288.862594,2516.700203,-2298.286494
4177.392794,-9844.739029,2368.659014,-2451.505594
4177.393124,-10214.842000,2220.617826,-1685.410096
4177.393453,-10362.883188,1776.494261,-995.924147
4177.393783,-9252.574275,1628.453072,-1915.238745
4177.394113,-8660.409521,1258.350101,-1838.629195
4177.394443,-8586.388927,1332.370696,-2145.067394
4177.394773,-8882.471304,1406.391290,-1302.362347
4177.395102,-10362.883188,2072.576638,-919.314598
4177.395432,-10955.047942,2516.700203,-1762.019645
4177.395762,-10510.924376,2072.576638,-1685.410096
4177.396092,-10510.924376,2294.638420,-1302.362347
4177.396422,-10436.903782,2146.597232,-383.047749
4177.396751,-9992.780217,1628.453072,-612.876398
4177.397081,-9844.739029,1554.432478,0.000000
4177.397411,-9474.636058,888.247130,-689.485948
4177.397741,-9474.636058,1332.370696,-1225.752797
4177.398071,-9326.594869,1554.432478,-1532.190996
4177.398400,-9400.615463,1258.350101,-2298.286494
4177.398730,-8734.430116,1480.411884,-2911.162892
4177.399060,-8586.388927,1332.370696,-2911.162892
4177.399390,-9696.697840,1406.391290,-1915.238745
4177.399720,-10436.903782,1480.411884,-842.705048
4177.400049,-10436.903782,1702.473667,-1685.410096
4177.400379,-9104.533087,1406.391290,-2604.724693
4177.400709,-9178.553681,1184.329507,-2987.772442
4177.401039,-9400.615463,1036.288319,-2374.896044
4177.401369,-10066.800811,1110.308913,-1072.533697
4177.401698,-9326.594869,1184.329507,-1225.752797
4177.402028,-8808.450710,962.267725,-1991.848295
4177.402358,-8660.409521,1702.473667,-3294.210641
4177.402688,-9548.656652,2146.597232,-3140.991542
4177.403018,-10214.842000,2220.617826,-2911.162892
4177.403347,-10140.821405,2590.720797,-3140.991542
4177.403677,-10066.800811,3256.906145,-2757.943793
4177.404007,-10288.862594,2368.659014,-2298.286494
4177.404337,-11103.089130,2442.679609,-1532.190996
4177.404667,-10436.903782,2368.659014,-1762.019645
4177.404996,-10066.800811,1924.535449,-2298.286494
4177.405326,-9622.677246,2294.638420,-2451.505594
4177.405656,-9326.594869,2294.638420,-2145.067394
4177.405986,-9326.594869,2442.679609,-2221.676944
4177.406316,-9548.656652,2886.803174,-2374.896044
4177.406645,-9696.697840,3182.885551,-2911.162892
4177.406975,-9992.780217,3330.926739,-2374.896044
4177.407305,-10510.924376,3404.947333,-1762.019645
4177.407635,-10732.986159,3552.988522,-2298.286494
4177.407965,-9918.759623,3404.947333,-2221.676944
4177.408294,-9474.636058,3256.906145,-2911.162892
4177.408624,-10066.800811,3182.885551,-2451.505594
4177.408954,-10436.903782,3034.844362,-766.095498
4177.409284,-9918.759623,2812.782580,-1225.752797
4177.409614,-8512.368333,2812.782580,-2451.505594
4177.409943,-8438.347739,2960.823768,-3600.648841
4177.410273,-9252.574275,3923.091493,-3294.210641
4177.410603,-9696.697840,3404.947333,-1915.238745
4177.410933,-10288.862594,3775.050304,-612.876398
4177.411263,-9992.780217,3775.050304,-1608.800546
4177.411592,-9696.697840,3182.885551,-1455.581446
4177.411922,-9918.759623,2960.823768,-1302.362347
4177.412252,-9918.759623,3108.864956,-1838.629195
4177.412582,-9696.697840,2738.761985,-2451.505594
4177.412912,-8660.409521,2812.782580,-2451.505594
4177.413241,-8438.347739,3330.926739,-2451.505594
4177.413571,-8882.471304,3182.885551,-2374.896044
4177.413901,-9770.718434,3552.988522,-2451.505594
4177.414231,-9548.656652,3108.864956,-3600.648841
4177.414561,-9548.656652,2812.782580,-2987.772442
4177.414890,-10214.842000,2886.803174,-1378.971896
4177.415220,-10362.883188,2220.617826,-536.266849
4177.415550,-10288.862594,2442.679609,-995.924147
4177.415880,-9252.574275,2072.576638,-2145.067394
4177.416210,-8882.471304,1554.432478,-2911.162892
4177.416539,-9770.718434,1702.473667,-1532.190996
4177.416869,-9548.656652,1776.494261,-1072.533697
4177.417199,-8734.430116,1406.391290,-689.485948
4177.417529,-9696.697840,2072.576638,-1149.143247
4177.417859,-10140.821405,1924.535449,-1991.848295
4177.418188,-10881.027347,2072.576638,-2374.896044
4177.418518,-11029.068536,2146.597232,-2451.505594
4177.418848,-10288.862594,1184.329507,-1762.019645
4177.419178,-10066.800811,1110.308913,-689.485948
4177.419508,-9548.656652,1258.350101,-919.314598
4177.419837,-8956.491898,740.205942,-2145.067394
4177.420167,-9178.553681,222.061783,-2757.943793
4177.420497,-8956.491898,74.020594,-2298.286494
4177.420827,-9400.615463,-296.082377,-995.924147
4177.421157,-10214.842000,222.061783,-459.657299
4177.421486,-10362.883188,888.247130,0.000000
4177.421816,-10066.800811,1258.350101,-1225.752797
4177.422146,-10066.800811,444.123565,-2374.896044
4177.422476,-10807.006753,1184.329507,-1991.848295
4177.422806,-10732.986159,1036.288319,-1532.190996
4177.423135,-9474.636058,962.267725,-1532.190996
4177.423465,-9030.512492,740.205942,-2451.505594
4177.423795,-8364.327145,666.185348,-3907.087040
4177.424125,-8364.327145,0.000000,-3064.381992
4177.424455,-9474.636058,592.164754,-1762.019645
4177.424784,-9696.697840,740.205942,-689.485948
4177.425114,-9622.677246,740.205942,-536.266849
4177.425444,-9770.718434,2146.597232,-1532.190996
4177.425774,-10288.862594,1702.473667,-1685.410096
4177.426104,-11547.212695,2294.638420,-1225.752797
4177.426433,-11251.130318,1924.535449,-689.485948
4177.426763,-10510.924376,1924.535449,-1149.143247
4177.427093,-9474.636058,1702.473667,-2145.067394
4177.427423,-9474.636058,1776.494261,-2451.505594
4177.427753,-9400.615463,1850.514855,-3524.039291
4177.428082,-8216.285956,1702.473667,-4596.572988
4177.428412,-8142.265362,1776.494261,-4136.915689
4177.428742,-8660.409521,2146.597232,-1991.848295
4177.429072,-9622.677246,2812.782580,-76.609550
4177.429402,-10584.944971,2516.700203,-612.876398
4177.429731,-10214.842000,2960.823768,-1608.800546
4177.430061,-10288.862594,2368.659014,-2298.286494
4177.430391,-10288.862594,2812.782580,-1838.629195
4177.430721,-10436.903782,2590.720797,-1762.019645
4177.431051,-9400.615463,2664.741391,-1225.752797
4177.431380,-8216.285956,2664.741391,-1838.629195
4177.431710,-9400.615463,2738.761985,-2221.676944
4177.432040,-9622.677246,2516.700203,-2987.772442
4177.432370,-9326.594869,2886.803174,-3524.039291
4177.432700,-8808.450710,3256.906145,-2834.553343
4177.433029,-9474.636058,3034.844362,-1991.848295
4177.433359,-10658.965565,3775.050304,-1762.019645
4177.433689,-9548.656652,2886.803174,-2374.896044
4177.434019,-9844.739029,3182.885551,-2604.724693
4177.434349,-10436.903782,3330.926739,-2834.553343
4177.434678,-9770.718434,3034.844362,-1608.800546
4177.435008,-9474.636058,2442.679609,-995.924147
4177.435338,-9030.512492,2886.803174,-1685.410096
4177.435668,-9474.636058,2590.720797,-2604.724693
4177.435998,-9844.739029,2590.720797,-2834.553343
4177.436327,-9844.739029,2664.741391,-3370.820191
4177.436657,-9474.636058,2738.761985,-2451.505594
4177.436987,-10140.821405,3330.926739,-689.485948
4177.437317,-10510.924376,3034.844362,-612.876398
4177.437647,-10362.883188,2516.700203,-1532.190996
4177.437976,-9252.574275,2516.700203,-2451.505594
4177.438306,-10732.986159,2590.720797,-2145.067394
4177.438636,-10658.965565,2368.659014,-1838.629195
4177.438966,-9252.574275,1628.453072,-2145.067394
4177.439296,-8290.306550,1776.494261,-2681.334243
4177.439625,-9030.512492,1850.514855,-2145.067394
4177.439955,-9770.718434,2220.617826,-1608.800546
4177.440285,-10288.862594,2516.700203,-2221.676944
4177.440615,-10066.800811,2886.803174,-2834.553343
4177.440945,-10510.924376,2294.638420,-2911.162892
4177.441274,-10807.006753,2220.617826,-1149.143247
4177.441604,-10732.986159,2220.617826,-689.485948
4177.441934,-9548.656652,888.247130,-1608.800546
4177.442264,-8734.430116,1480.411884,-1762.019645
4177.442594,-8734.430116,1184.329507,-1762.019645
4177.442923,-8956.491898,962.267725,-1378.971896
4177.443253,-9622.677246,1258.350101,-995.924147
4177.443583,-9918.759623,666.185348,-1378.971896
4177.443913,-9326.594869,1184.329507,-536.266849
4177.444243,-11029.068536,1628.453072,-689.485948
4177.444572,-11547.212695,1924.535449,-1378.971896
4177.444902,-10362.883188,1924.535449,-842.705048
4177.445232,-9548.656652,1406.391290,-766.095498
4177.445562,-10140.821405,1998.556043,-536.266849
4177.445892,-10288.862594,2072.576638,-536.266849
4177.446221,-9474.636058,962.267725,-2221.676944
4177.446551,-8956.491898,962.267725,-1915.238745
4177.446881,-8512.368333,-296.082377,-1762.019645
4177.447211,-10288.862594,518.144159,-766.095498
4177.447541,-10584.944971,-74.020594,766.095498
4177.447870,-8438.347739,296.082377,995.924147
4177.448200,-8364.327145,592.164754,383.047749
4177.448530,-10362.883188,1332.370696,-383.047749
4177.448860,-10955.047942,740.205942,383.047749
4177.449190,-10436.903782,888.247130,1225.752797
4177.449519,-10214.842000,740.205942,0.000000
4177.449849,-10214.842000,148.041188,-1225.752797
4177.450179,-9104.533087,444.123565,-2451.505594
4177.450509,-7402.059420,0.000000,-2451.505594
4177.450839,-7846.182985,296.082377,-1532.190996
4177.451168,-8734.430116,444.123565,-1378.971896
4177.451498,-9104.533087,592.164754,-1225.752797
4177.451828,-9992.780217,666.185348,-536.266849
4177.452158,-10658.965565,962.267725,383.047749
4177.452488,-10807.006753,74.020594,1302.362347
4177.452817,-11029.068536,0.000000,1149.143247
4177.453147,-9622.677246,0.000000,689.485948
4177.453477,-8808.450710,74.020594,612.876398
4177.453807,-9252.574275,148.041188,-919.314598
4177.454137,-9252.574275,-592.164754,-1072.533697
4177.454466,-9696.697840,0.000000,-76.609550
4177.454796,-10214.842000,592.164754,0.000000
4177.455126,-9548.656652,370.102971,0.000000
4177.455456,-9992.780217,74.020594,-459.657299
4177.455786,-10066.800811,888.247130,-995.924147
4177.456115,-9622.677246,-296.082377,-1455.581446
4177.456445,-11177.109724,1258.350101,-766.095498
4177.456775,-10214.842000,74.020594,76.609550
4177.457105,-10881.027347,370.102971,995.924147
4177.457435,-9992.780217,370.102971,1532.190996
4177.457764,-9992.780217,-962.267725,1072.533697
4177.458094,-10066.800811,-814.226536,459.657299
4177.458424,-8216.285956,-962.267725,153.219100
4177.458754,-7846.182985,-814.226536,1378.971896
4177.459084,-8364.327145,-518.144159,1378.971896
4177.459413,-9992.780217,888.247130,612.876398
4177.459743,-10732.986159,888.247130,0.000000
4177.460073,-11547.212695,1702.473667,-1532.190996
4177.460403,-11547.212695,1480.411884,-2068.457845
4177.460733,-10881.027347,814.226536,-229.828649
4177.461062,-9548.656652,666.185348,-153.219100
4177.461392,-8438.347739,-592.164754,-153.219100
4177.461722,-8364.327145,-370.102971,-229.828649
4177.462052,-8142.265362,-518.144159,-459.657299
4177.462382,-8290.306550,370.102971,383.047749
4177.462711,-9474.636058,592.164754,919.314598
4177.463041,-10288.862594,0.000000,919.314598
4177.463371,-11029.068536,1036.288319,1455.581446
4177.463701,-11547.212695,1036.288319,612.876398
4177.464031,-10881.027347,814.226536,-612.876398
4177.464360,-9696.697840,148.041188,-383.047749
4177.464690,-8586.388927,666.185348,0.000000
4177.465020,-9326.594869,296.082377,459.657299
4177.465350,-9474.636058,814.226536,536.266849
4177.465680,-9474.636058,-370.102971,-842.705048
4177.466009,-8956.491898,-296.082377,-1838.629195
4177.466339,-7624.121203,-370.102971,-842.705048
4177.466669,-9178.553681,0.000000,306.438199
4177.466999,-11621.233289,666.185348,1915.238745
4177.467329,-10732.986159,296.082377,1532.190996
4177.467658,-10066.800811,518.144159,536.266849
4177.467988,-10140.821405,518.144159,76.609550
4177.468318,-11473.192101,74.020594,766.095498
4177.468648,-11029.068536,0.000000,1225.752797
4177.468978,-8142.265362,0.000000,229.828649
4177.469307,-8068.244768,-222.061783,306.438199
4177.469637,-8808.450710,-148.041188,-612.876398
4177.469967,-9992.780217,-666.185348,536.266849
4177.470297,-10807.006753,222.061783,383.047749
4177.470627,-10658.965565,962.267725,-842.705048
4177.470956,-10732.986159,0.000000,-1378.971896
4177.471286,-8956.491898,-1036.288319,-689.485948
4177.471616,-8882.471304,-592.164754,1685.410096
4177.471946,-11103.089130,222.061783,3677.258390
4177.472276,-11843.295072,0.000000,1838.629195
4177.472605,-10140.821405,-740.205942,-229.828649
4177.472935,-8142.265362,-1184.329507,-689.485948
4177.473265,-9474.636058,-444.123565,0.000000
4177.473595,-10807.006753,-592.164754,1455.581446
4177.473925,-10436.903782,-814.226536,1225.752797
4177.474254,-8364.327145,-518.144159,0.000000
4177.474584,-9326.594869,74.020594,-536.266849
4177.474914,-11251.130318,-296.082377,-383.047749
4177.475244,-11621.233289,-592.164754,306.438199
4177.475574,-10214.842000,-296.082377,1149.143247
4177.475904,-8512.368333,-1110.308913,1378.971896
4177.476233,-10140.821405,-666.185348,1455.581446
4177.476563,-10362.883188,-296.082377,612.876398
4177.476893,-9400.615463,-962.267725,-383.047749
4177.477223,-9326.594869,-370.102971,-689.485948
4177.477553,-9474.636058,370.102971,612.876398
4177.477882,-10807.006753,0.000000,1225.752797
4177.478212,-9696.697840,0.000000,1072.533697
4177.478542,-9474.636058,-740.205942,0.000000
4177.478872,-9030.512492,-222.061783,-766.095498
4177.479201,-10362.883188,0.000000,-306.438199
4177.479531,-11251.130318,222.061783,612.876398
4177.479861,-9918.759623,0.000000,1608.800546
4177.480191,-9326.594869,74.020594,919.314598
4177.480520,-9474.636058,296.082377,153.219100
4177.480850,-10288.862594,-74.020594,0.000000
4177.481180,-9844.739029,-222.061783,153.219100
4177.481510,-9326.594869,-370.102971,76.609550
4177.481839,-9844.739029,0.000000,229.828649
4177.482169,-9400.615463,0.000000,459.657299
4177.482499,-9104.533087,-296.082377,995.924147
4177.482829,-9474.636058,0.000000,1149.143247
4177.483158,-9844.739029,592.164754,919.314598
4177.483488,-9918.759623,222.061783,-612.876398
4177.483818,-9918.759623,0.000000,0.000000
4177.484148,-9992.780217,148.041188,153.219100
4177.484477,-9770.718434,222.061783,306.438199
4177.484807,-8808.450710,888.247130,-995.924147
4177.485137,-8216.285956,518.144159,-1608.800546
4177.485467,-9104.533087,296.082377,-1072.533697
4177.485796,-9770.718434,0.000000,-766.095498
4177.486126,-10362.883188,518.144159,153.219100
4177.486456,-10214.842000,0.000000,0.000000
4177.486786,-9326.594869,370.102971,0.000000
4177.487115,-9918.759623,296.082377,0.000000
4177.487445,-9992.780217,370.102971,536.266849
4177.487775,-9696.697840,666.185348,0.000000
4177.488104,-9770.718434,444.123565,76.609550
4177.488434,-10510.924376,444.123565,306.438199
4177.488764,-9844.739029,592.164754,306.438199
4177.489094,-8660.409521,592.164754,306.438199
4177.489423,-9770.718434,740.205942,-383.047749
4177.489753,-10140.821405,74.020594,-689.485948
4177.490083,-9992.780217,74.020594,0.000000
4177.490413,-9474.636058,518.144159,76.609550
4177.490742,-9474.636058,592.164754,383.047749
4177.491072,-10807.006753,666.185348,1225.752797
4177.491402,-10436.903782,592.164754,1532.190996
4177.491732,-9696.697840,518.144159,612.876398
4177.492061,-10362.883188,814.226536,76.609550
4177.492391,-11325.150913,296.082377,766.095498
4177.492721,-10510.924376,296.082377,459.657299
4177.493051,-9178.553681,518.144159,-76.609550
4177.493380,-9178.553681,74.020594,-229.828649
4177.493710,-10436.903782,370.102971,1149.143247
4177.494040,-10288.862594,370.102971,153.219100
4177.494370,-9400.615463,222.061783,-306.438199
4177.494699,-9104.533087,592.164754,383.047749
4177.495029,-10140.821405,222.061783,1072.533697
4177.495359,-10362.883188,370.102971,459.657299
4177.495689,-9326.594869,0.000000,-383.047749
4177.496018,-9252.574275,-518.144159,-383.047749
4177.496348,-9474.636058,-444.123565,153.219100
4177.496678,-9770.718434,0.000000,1302.362347
4177.497008,-9030.512492,-740.205942,1225.752797
4177.497337,-9548.656652,0.000000,1838.629195
4177.497667,-9400.615463,-444.123565,612.876398
4177.497997,-9844.739029,-592.164754,1072.533697
4177.498327,-10362.883188,-370.102971,689.485948
4177.498656,-9844.739029,-740.205942,229.828649
4177.498986,-9474.636058,148.041188,-383.047749
4177.499316,-9326.594869,-296.082377,0.000000
4177.499646,-9400.615463,-296.082377,76.609550
4177.499975,-9474.636058,592.164754,76.609550
4177.500305,-10362.883188,74.020594,-306.438199
4177.500635,-11177.109724,0.000000,-229.828649
4177.500965,-9548.656652,-444.123565,-383.047749
4177.501294,-9178.553681,-296.082377,76.609550
4177.501624,-9844.739029,-592.164754,995.924147
4177.501954,-10214.842000,0.000000,919.314598
4177.502284,-9474.636058,-370.102971,-842.705048
4177.502613,-9326.594869,0.000000,-1225.752797
4177.502943,-9622.677246,-740.205942,0.000000
4177.503273,-10066.800811,74.020594,383.047749
4177.503602,-9252.574275,-222.061783,0.000000
4177.503932,-9400.615463,-370.102971,-383.047749
4177.504262,-10140.821405,0.000000,-536.266849
4177.504592,-9844.739029,-296.082377,0.000000
4177.504921,-10288.862594,74.020594,-536.266849
4177.505251,-9622.677246,0.000000,-153.219100
4177.505581,-10510.924376,74.020594,153.219100
4177.505911,-9770.718434,148.041188,995.924147
4177.506240,-9918.759623,-74.020594,995.924147
4177.506570,-10510.924376,222.061783,76.609550
4177.506900,-10807.006753,-370.102971,-459.657299
4177.507230,-10510.924376,0.000000,-306.438199
4177.507559,-9252.574275,0.000000,0.000000
4177.507889,-8660.409521,0.000000,306.438199
4177.508219,-9326.594869,74.020594,766.095498
4177.508549,-10436.903782,444.123565,1685.410096
4177.508878,-10881.027347,-148.041188,995.924147
4177.509208,-9844.739029,-592.164754,153.219100
4177.509538,-9548.656652,0.000000,919.314598
4177.509868,-9474.636058,-518.144159,766.095498
4177.510197,-8808.450710,74.020594,459.657299
4177.510527,-8808.450710,-518.144159,306.438199
4177.510857,-9178.553681,-222.061783,0.000000
4177.511187,-9252.574275,-518.144159,459.657299
4177.511516,-10140.821405,-370.102971,919.314598
4177.511846,-11251.130318,0.000000,1532.190996
4177.512176,-10066.800811,0.000000,1915.238745
4177.512506,-9252.574275,-370.102971,1149.143247
4177.512835,-9326.594869,-74.020594,-766.095498
4177.513165,-9104.533087,-296.082377,-306.438199
4177.513495,-9548.656652,0.000000,76.609550
4177.513825,-9622.677246,740.205942,229.828649
4177.514154,-9400.615463,296.082377,306.438199
4177.514484,-10066.800811,370.102971,76.609550
4177.514814,-10955.047942,-296.082377,0.000000
4177.515144,-10658.965565,0.000000,0.000000
4177.515473,-9400.615463,-222.061783,1149.143247
4177.515803,-9178.553681,-370.102971,766.095498
4177.516133,-9400.615463,0.000000,1225.752797
4177.516463,-10658.965565,0.000000,995.924147
4177.516792,-10955.047942,444.123565,0.000000
4177.517122,-9918.759623,0.000000,-459.657299
4177.517452,-9844.739029,518.144159,-766.095498
4177.517782,-9474.636058,222.061783,-153.219100
4177.518111,-9548.656652,888.247130,0.000000
4177.518441,-9474.636058,370.102971,-1225.752797
4177.518771,-9918.759623,592.164754,-1915.238745
4177.519100,-10658.965565,0.000000,-689.485948
4177.519430,-10140.821405,148.041188,-383.047749
4177.519760,-9178.553681,370.102971,-229.828649
4177.520090,-8808.450710,74.020594,459.657299
4177.520419,-9696.697840,-74.020594,459.657299
4177.520749,-10140.821405,74.020594,76.609550
4177.521079,-10288.862594,370.102971,-459.657299
4177.521409,-9622.677246,1036.288319,-1072.533697
4177.521738,-9252.574275,296.082377,-383.047749
4177.522068,-9474.636058,0.000000,0.000000
4177.522398,-9326.594869,222.061783,383.047749
4177.522728,-9400.615463,444.123565,-689.485948
4177.523057,-10140.821405,666.185348,-689.485948
4177.523387,-9770.718434,0.000000,0.000000
4177.523717,-9474.636058,740.205942,383.047749
4177.524047,-9400.615463,296.082377,229.828649
4177.524376,-10288.862594,222.061783,-306.438199
4177.524706,-9696.697840,74.020594,-536.266849
4177.525036,-8808.450710,-222.061783,-995.924147
4177.525366,-9844.739029,518.144159,383.047749
4177.525695,-10288.862594,814.226536,1149.143247
4177.526025,-10362.883188,444.123565,1378.971896
4177.526355,-9548.656652,444.123565,76.609550
4177.526685,-9548.656652,0.000000,-153.219100
4177.527014,-10214.842000,222.061783,153.219100
4177.527344,-9770.718434,222.061783,383.047749
4177.527674,-9178.553681,74.020594,229.828649
4177.528004,-9548.656652,0.000000,0.000000
4177.528333,-9622.677246,0.000000,0.000000
4177.528663,-9474.636058,-296.082377,842.705048
4177.528993,-9696.697840,444.123565,229.828649
4177.529323,-10066.800811,296.082377,1225.752797
4177.529652,-10288.862594,148.041188,1072.533697
4177.529982,-9696.697840,518.144159,229.828649
4177.530312,-9474.636058,-444.123565,919.314598
4177.530642,-10807.006753,-518.144159,919.314598
4177.530971,-9844.739029,-370.102971,995.924147
4177.531301,-9252.574275,-740.205942,459.657299
4177.531631,-8882.471304,-740.205942,536.266849
4177.531961,-8734.430116,-1184.329507,1455.581446
4177.532290,-9030.512492,-518.144159,1378.971896
4177.532620,-10510.924376,0.000000,766.095498
4177.532950,-10510.924376,-222.061783,0.000000
4177.533279,-10510.924376,0.000000,-383.047749
4177.533609,-10140.821405,296.082377,-536.266849
4177.533939,-9770.718434,-370.102971,306.438199
4177.534269,-10140.821405,0.000000,766.095498
4177.534598,-10510.924376,-296.082377,995.924147
4177.534928,-9770.718434,-592.164754,536.266849
4177.535258,-9252.574275,-518.144159,-383.047749
4177.535588,-9326.594869,-1036.288319,-76.609550
4177.535917,-9326.594869,-1258.350101,0.000000
4177.536247,-9326.594869,-666.185348,1225.752797
4177.536577,-9252.574275,-222.061783,383.047749
4177.536907,-9474.636058,0.000000,-919.314598
4177.537236,-9548.656652,-518.144159,-766.095498
4177.537566,-9326.594869,-592.164754,-766.095498
4177.537896,-10214.842000,592.164754,-229.828649
4177.538226,-10214.842000,518.144159,0.000000
4177.538555,-9992.780217,0.000000,-306.438199
4177.538885,-9622.677246,0.000000,-153.219100
4177.539215,-9918.759623,74.020594,-1072.533697
4177.539545,-10510.924376,222.061783,-383.047749
4177.539874,-10066.800811,-296.082377,0.000000
4177.540204,-8586.388927,444.123565,0.000000
4177.540534,-8142.265362,444.123565,612.876398
4177.540864,-10362.883188,1554.432478,153.219100
4177.541193,-11621.233289,888.247130,-919.314598
4177.541523,-10140.821405,592.164754,-1838.629195
4177.541853,-9696.697840,444.123565,-1072.533697
4177.542183,-9770.718434,814.226536,306.438199
4177.542512,-10140.821405,444.123565,1072.533697
4177.542842,-9844.739029,222.061783,842.705048
4177.543172,-9104.533087,296.082377,306.438199
4177.543502,-10214.842000,370.102971,0.000000
4177.543831,-9992.780217,518.144159,229.828649
4177.544161,-8734.430116,518.144159,995.924147
4177.544491,-8512.368333,444.123565,459.657299
4177.544821,-10140.821405,1110.308913,689.485948
