#time,accel_x,accel_y,accel_z
3720.750844,-9844.739029,222.061783,766.095498
3720.751175,-9770.718434,0.000000,229.828649
3720.751505,-9770.718434,0.000000,0.000000
3720.751835,-9696.697840,-222.061783,0.000000
3720.752165,-9622.677246,296.082377,536.266849
3720.752495,-9696.697840,0.000000,383.047749
3720.752825,-9918.759623,148.041188,306.438199
3720.753155,-9918.759623,74.020594,229.828649
3720.753485,-9992.780217,0.000000,306.438199
3720.753815,-9770.718434,0.000000,153.219100
3720.754145,-9474.636058,148.041188,76.609550
3720.754476,-9622.677246,0.000000,229.828649
3720.754806,-9844.739029,74.020594,0.000000
3720.755136,-9696.697840,296.082377,153.219100
3720.755466,-9844.739029,0.000000,76.609550
3720.755796,-9548.656652,0.000000,306.438199
3720.756126,-9696.697840,0.000000,995.924147
3720.756456,-10288.862594,74.020594,919.314598
3720.756786,-10214.842000,0.000000,536.266849
3720.757116,-10066.800811,0.000000,-383.047749
3720.757447,-9696.697840,0.000000,-536.266849
3720.757777,-9770.718434,0.000000,-612.876398
3720.758107,-10288.862594,222.061783,153.219100
3720.758437,-9474.636058,-148.041188,-383.047749
3720.758767,-9622.677246,-296.082377,0.000000
3720.759097,-10066.800811,-370.102971,0.000000
3720.759427,-9622.677246,-370.102971,-612.876398
3720.759757,-9770.718434,-74.020594,-1149.143247
3720.760087,-9622.677246,-148.041188,-842.705048
3720.760417,-9844.739029,-148.041188,-689.485948
3720.760748,-10066.800811,-296.082377,153.219100
3720.761078,-10658.965565,0.000000,229.828649
3720.761408,-10732.986159,0.000000,76.609550
3720.761738,-10362.883188,-370.102971,-995.924147
3720.762068,-9918.759623,-592.164754,-1532.190996
3720.762398,-10140.821405,-296.082377,-1378.971896
3720.762728,-9474.636058,-518.144159,-1991.848295
3720.763058,-9326.594869,-1036.288319,-1378.971896
3720.763388,-9178.553681,-1110.308913,-766.095498
3720.763718,-9104.533087,-1110.308913,76.609550
3720.764049,-9622.677246,-1036.288319,-229.828649
3720.764379,-9918.759623,-1036.288319,-766.095498
3720.764709,-9992.780217,-962.267725,-919.314598
3720.765039,-9918.759623,-1036.288319,-1302.362347
3720.765369,-10288.862594,-888.247130,-1302.362347
3720.765699,-10584.944971,-1110.308913,-1608.800546
3720.766029,-10288.862594,-1036.288319,-1762.019645
3720.766359,-9696.697840,-1332.370696,-2451.505594
3720.766689,-9474.636058,-1332.370696,-2757.943793
3720.767019,-9992.780217,-1702.473667,-2221.676944
3720.767350,-9548.656652,-2146.597232,-2145.067394
3720.767680,-8808.450710,-2368.659014,-2528.115143
3720.768010,-7846.182985,-2220.617826,-2145.067394
3720.768340,-8438.347739,-1924.535449,-766.095498
3720.768670,-9252.574275,-1628.453072,0.000000
3720.769000,-10140.821405,-1258.350101,0.000000
3720.769330,-11029.068536,-1184.329507,76.609550
3720.769660,-11473.192101,-1332.370696,-153.219100
3720.769990,-11991.336260,-1850.514855,-1608.800546
3720.770320,-11695.253884,-2368.659014,-2911.162892
3720.770651,-10362.883188,-3108.864956,-4443.353888
3720.770981,-8364.327145,-3330.926739,-4673.182538
3720.771311,-7179.997637,-3627.009116,-3524.039291
3720.771641,-7254.018232,-2590.720797,-1838.629195
3720.771971,-8586.388927,-1554.432478,-919.314598
3720.772301,-9548.656652,-1036.288319,-1991.848295
3720.772631,-10584.944971,-1110.308913,-3983.696590
3720.772961,-11325.150913,-2146.597232,-4673.182538
3720.773291,-11769.274478,-3552.988522,-4290.134789
3720.773621,-10732.986159,-4737.318029,-2911.162892
3720.773952,-9326.594869,-5477.523971,-2068.457845
3720.774282,-7328.038826,-5625.565159,-2145.067394
3720.774612,-6957.935855,-4811.338623,-2681.334243
3720.774942,-8068.244768,-3775.050304,-2451.505594
3720.775272,-9474.636058,-2664.741391,-1532.190996
3720.775602,-10807.006753,-1258.350101,-1378.971896
3720.775932,-11843.295072,-1110.308913,-1532.190996
3720.776262,-11843.295072,-1924.535449,-3600.648841
3720.776592,-10955.047942,-3108.864956,-5056.230287
3720.776922,-9696.697840,-4811.338623,-5362.668486
3720.777253,-9104.533087,-5699.585753,-3983.696590
3720.777583,-9030.512492,-5181.441594,-2451.505594
3720.777913,-7698.141797,-4293.194464,-306.438199
3720.778243,-7476.080014,-3701.029710,536.266849
3720.778573,-8660.409521,-2368.659014,459.657299
3720.778903,-11547.212695,-1332.370696,-612.876398
3720.779233,-12731.542202,-1480.411884,-1762.019645
3720.779563,-12361.439231,-2220.617826,-2374.896044
3720.779893,-10510.924376,-3256.906145,-2681.334243
3720.780224,-9548.656652,-4071.132681,-2451.505594
3720.780554,-9178.553681,-5181.441594,-1991.848295
3720.780884,-8438.347739,-4515.256246,-1225.752797
3720.781214,-7920.203579,-3775.050304,-1225.752797
3720.781544,-8512.368333,-2368.659014,-995.924147
3720.781874,-9548.656652,-1480.411884,-76.609550
3720.782204,-11103.089130,-1776.494261,306.438199
3720.782534,-12657.521608,-1628.453072,306.438199
3720.782864,-10881.027347,-1480.411884,-383.047749
3720.783194,-10140.821405,-1850.514855,-1762.019645
3720.783525,-9622.677246,-2294.638420,-2298.286494
3720.783855,-8068.244768,-2664.741391,-1302.362347
3720.784185,-9326.594869,-2368.659014,-1685.410096
3720.784515,-10140.821405,-2294.638420,-3370.820191
3720.784845,-9622.677246,-2368.659014,-2528.115143
3720.785175,-8956.491898,-1406.391290,459.657299
3720.785505,-9696.697840,-1258.350101,1225.752797
3720.785835,-9844.739029,-1628.453072,-689.485948
3720.786165,-8438.347739,-1480.411884,-2987.772442
3720.786495,-8438.347739,-1332.370696,-3677.258390
3720.786826,-9770.718434,-888.247130,-2374.896044
3720.787156,-10510.924376,-814.226536,229.828649
3720.787486,-11103.089130,-148.041188,0.000000
3720.787816,-11029.068536,-444.123565,-2757.943793
3720.788146,-10510.924376,-1110.308913,-4826.401637
3720.788476,-10288.862594,-1036.288319,-5209.449386
3720.788806,-9992.780217,-1480.411884,-3217.601092
3720.789136,-9622.677246,-740.205942,-1072.533697
3720.789466,-9030.512492,-592.164754,-2145.067394
3720.789796,-7772.162391,-814.226536,-3064.381992
3720.790127,-7772.162391,-1258.350101,-3677.258390
3720.790457,-8586.388927,-444.123565,-2834.553343
3720.790787,-10288.862594,-370.102971,-1915.238745
3720.791117,-11177.109724,148.041188,-689.485948
3720.791447,-10436.903782,148.041188,-766.095498
3720.791777,-10362.883188,-740.205942,-1302.362347
3720.792107,-10584.944971,-888.247130,-2374.896044
3720.792437,-11843.295072,-1850.514855,-2681.334243
3720.792767,-11473.192101,-1554.432478,-3447.429741
3720.793097,-8438.347739,-1924.535449,-3064.381992
3720.793428,-6587.832884,-2072.576638,-1225.752797
3720.793758,-6587.832884,-740.205942,689.485948
3720.794088,-9104.533087,-222.061783,459.657299
3720.794418,-10881.027347,222.061783,-459.657299
3720.794748,-10362.883188,370.102971,-1225.752797
3720.795078,-10881.027347,444.123565,-229.828649
3720.795408,-11917.315666,-1184.329507,1149.143247
3720.795738,-13767.830521,-1776.494261,229.828649
3720.796068,-11029.068536,-2368.659014,-1072.533697
3720.796398,-8068.244768,-2960.823768,-2451.505594
3720.796729,-7550.100608,-1924.535449,0.000000
3720.797059,-9030.512492,-1480.411884,1838.629195
3720.797389,-9918.759623,0.000000,1378.971896
3720.797719,-9252.574275,518.144159,-459.657299
3720.798049,-9770.718434,0.000000,-2145.067394
3720.798379,-11399.171507,-222.061783,-1991.848295
3720.798709,-11769.274478,-1036.288319,-995.924147
3720.799039,-10066.800811,-2072.576638,-459.657299
3720.799369,-7550.100608,-2664.741391,-536.266849
3720.799700,-8142.265362,-2738.761985,766.095498
3720.800030,-10955.047942,-2294.638420,1302.362347
3720.800360,-11251.130318,-1998.556043,995.924147
3720.800690,-9326.594869,-1702.473667,0.000000
3720.801020,-9400.615463,-962.267725,-76.609550
3720.801350,-9844.739029,-1332.370696,-229.828649
3720.801680,-10436.903782,-740.205942,-383.047749
3720.802010,-8364.327145,-1110.308913,-1225.752797
3720.802340,-7624.121203,-1406.391290,-2068.457845
3720.802670,-8956.491898,-1110.308913,-1685.410096
3720.803001,-10732.986159,-1776.494261,-689.485948
3720.803331,-10658.965565,-1554.432478,995.924147
3720.803661,-9770.718434,-1184.329507,1378.971896
3720.803991,-9474.636058,-1036.288319,0.000000
3720.804321,-10288.862594,-1184.329507,-919.314598
3720.804651,-9918.759623,-666.185348,306.438199
3720.804981,-9548.656652,-740.205942,1991.848295
3720.805311,-9622.677246,74.020594,1685.410096
3720.805641,-9622.677246,-222.061783,-459.657299
3720.805971,-9252.574275,-592.164754,-1685.410096
3720.806301,-9178.553681,148.041188,-995.924147
3720.806631,-9918.759623,222.061783,306.438199
3720.806961,-10510.924376,74.020594,0.000000
3720.807290,-9992.780217,148.041188,-995.924147
3720.807620,-9992.780217,148.041188,383.047749
3720.807950,-11251.130318,444.123565,1685.410096
3720.808280,-11843.295072,222.061783,1455.581446
3720.808609,-9252.574275,-296.082377,1072.533697
3720.808939,-7846.182985,0.000000,1915.238745
3720.809269,-8586.388927,1110.308913,1685.410096
3720.809599,-10140.821405,518.144159,2068.457845
3720.809928,-10066.800811,962.267725,766.095498
3720.810258,-8882.471304,518.144159,383.047749
3720.810588,-9326.594869,1184.329507,229.828649
3720.810918,-10436.903782,1258.350101,0.000000
3720.811247,-10288.862594,740.205942,306.438199
3720.811577,-9844.739029,814.226536,995.924147
3720.811907,-10510.924376,1480.411884,612.876398
3720.812237,-10510.924376,1110.308913,1302.362347
3720.812566,-9474.636058,888.247130,459.657299
3720.812896,-8734.430116,1332.370696,536.266849
3720.813226,-9252.574275,1332.370696,229.828649
3720.813556,-9770.718434,1480.411884,-842.705048
3720.813885,-9104.533087,1110.308913,-1685.410096
3720.814215,-9400.615463,1406.391290,-612.876398
3720.814545,-10214.842000,2516.700203,153.219100
3720.814875,-11695.253884,2072.576638,-612.876398
3720.815204,-9992.780217,814.226536,-1762.019645
3720.815534,-8216.285956,814.226536,-766.095498
3720.815864,-10140.821405,1480.411884,612.876398
3720.816194,-10807.006753,1258.350101,0.000000
3720.816523,-9844.739029,666.185348,-1302.362347
3720.816853,-8364.327145,592.164754,-842.705048
3720.817183,-8808.450710,1258.350101,229.828649
3720.817513,-10214.842000,1554.432478,842.705048
3720.817842,-10584.944971,1332.370696,-842.705048
3720.818172,-8956.491898,1110.308913,-383.047749
3720.818502,-9030.512492,888.247130,306.438199
3720.818832,-10658.965565,1628.453072,842.705048
3720.819161,-11103.089130,962.267725,-229.828649
3720.819491,-10510.924376,370.102971,-536.266849
3720.819821,-9992.780217,296.082377,0.000000
3720.820151,-9696.697840,444.123565,459.657299
3720.820480,-8660.409521,0.000000,0.000000
3720.820810,-8068.244768,740.205942,842.705048
3720.821140,-9548.656652,740.205942,1302.362347
3720.821470,-10807.006753,1110.308913,612.876398
3720.821799,-10658.965565,444.123565,76.609550
3720.822129,-9548.656652,-592.164754,689.485948
3720.822459,-9548.656652,0.000000,2068.457845
3720.822789,-10436.903782,-370.102971,2374.896044
3720.823118,-10140.821405,-666.185348,919.314598
3720.823448,-8956.491898,-740.205942,306.438199
3720.823778,-9548.656652,-666.185348,2221.676944
3720.824108,-10807.006753,0.000000,2451.505594
3720.824437,-10140.821405,-592.164754,1532.190996
3720.824767,-8364.327145,-1110.308913,1762.019645
3720.825097,-9326.594869,222.061783,1685.410096
3720.825426,-10510.924376,222.061783,1302.362347
3720.825756,-10510.924376,-814.226536,-766.095498
3720.826086,-10066.800811,-370.102971,-1302.362347
3720.826416,-10584.944971,-74.020594,306.438199
3720.826745,-11843.295072,-74.020594,1072.533697
3720.827075,-10214.842000,-1036.288319,-459.657299
3720.827405,-8142.265362,-1776.494261,-1532.190996
3720.827735,-8734.430116,-962.267725,-1378.971896
3720.828064,-10362.883188,-296.082377,0.000000
3720.828394,-10214.842000,-962.267725,0.000000
3720.828724,-8660.409521,-1036.288319,-459.657299
3720.829054,-8660.409521,-962.267725,0.000000
3720.829383,-11177.109724,-296.082377,-153.219100
3720.829713,-11399.171507,-814.226536,-1302.362347
3720.830043,-9548.656652,-1628.453072,-1608.800546
3720.830373,-8882.471304,-1036.288319,-153.219100
3720.830702,-9844.739029,-296.082377,536.266849
3720.831032,-10214.842000,-1110.308913,383.047749
3720.831362,-9104.533087,-740.205942,-383.047749
3720.831692,-8660.409521,-666.185348,-459.657299
3720.832021,-9622.677246,-74.020594,-229.828649
3720.832351,-10066.800811,-148.041188,-1072.533697
3720.832681,-8808.450710,-444.123565,-1149.143247
3720.833011,-9104.533087,0.000000,459.657299
3720.833340,-10288.862594,296.082377,1532.190996
3720.833670,-10732.986159,-222.061783,229.828649
3720.834000,-9548.656652,-222.061783,-1302.362347
3720.834330,-9474.636058,-222.061783,0.000000
3720.834659,-10807.006753,0.000000,1838.629195
3720.834989,-10658.965565,222.061783,1302.362347
3720.835319,-8142.265362,-740.205942,306.438199
3720.835649,-7994.224174,0.000000,153.219100
3720.835978,-9326.594869,666.185348,766.095498
3720.836308,-10510.924376,0.000000,995.924147
3720.836638,-9474.636058,148.041188,383.047749
3720.836968,-9400.615463,148.041188,1302.362347
3720.837297,-10362.883188,444.123565,2451.505594
3720.837627,-10807.006753,592.164754,1378.971896
3720.837957,-9770.718434,-222.061783,0.000000
3720.838287,-9326.594869,0.000000,459.657299
3720.838616,-10288.862594,1184.329507,995.924147
3720.838946,-10658.965565,888.247130,842.705048
3720.839276,-9400.615463,444.123565,-153.219100
3720.839606,-8882.471304,962.267725,153.219100
3720.839935,-10362.883188,1110.308913,0.000000
3720.840265,-10955.047942,1332.370696,-842.705048
3720.840595,-9030.512492,148.041188,-1378.971896
3720.840925,-8734.430116,296.082377,-612.876398
3720.841254,-9622.677246,814.226536,536.266849
3720.841584,-11251.130318,592.164754,536.266849
3720.841914,-10436.903782,148.041188,-1378.971896
3720.842244,-9622.677246,148.041188,-1455.581446
3720.842573,-10066.800811,222.061783,-306.438199
3720.842903,-10658.965565,666.185348,-306.438199
3720.843233,-9252.574275,222.061783,-689.485948
3720.843563,-8142.265362,222.061783,0.000000
3720.843892,-9104.533087,814.226536,842.705048
3720.844222,-10584.944971,888.247130,459.657299
3720.844552,-9918.759623,0.000000,-1455.581446
3720.844882,-9326.594869,222.061783,-689.485948
3720.845211,-9918.759623,222.061783,766.095498
3720.845541,-10955.047942,814.226536,1225.752797
3720.845871,-9770.718434,-444.123565,-306.438199
3720.846201,-9326.594869,0.000000,-383.047749
3720.846530,-9770.718434,518.144159,306.438199
3720.846860,-10510.924376,370.102971,1225.752797
3720.847190,-9548.656652,0.000000,536.266849
3720.847520,-8364.327145,74.020594,919.314598
3720.847849,-10214.842000,740.205942,1149.143247
3720.848179,-11399.171507,370.102971,1225.752797
3720.848509,-10214.842000,-296.082377,-536.266849
3720.848839,-8364.327145,-1184.329507,0.000000
3720.849168,-9178.553681,-148.041188,1302.362347
3720.849498,-10732.986159,-444.123565,2374.896044
3720.849828,-10140.821405,-666.185348,1225.752797
3720.850158,-8882.471304,-518.144159,306.438199
3720.850487,-9770.718434,-666.185348,1532.190996
3720.850817,-11695.253884,666.185348,2298.286494
3720.851147,-10881.027347,0.000000,1225.752797
3720.851476,-9030.512492,-888.247130,-306.438199
3720.851806,-8512.368333,-592.164754,153.219100
3720.852136,-10066.800811,0.000000,1685.410096
3720.852466,-10658.965565,-370.102971,153.219100
3720.852795,-9326.594869,-148.041188,-689.485948
3720.853125,-9104.533087,-740.205942,0.000000
3720.853455,-10732.986159,296.082377,0.000000
3720.853785,-10510.924376,-444.123565,-1378.971896
3720.854114,-9622.677246,-962.267725,-2068.457845
3720.854444,-9326.594869,-296.082377,0.000000
3720.854774,-9770.718434,-222.061783,0.000000
3720.855104,-9252.574275,-888.247130,-766.095498
3720.855433,-7846.182985,-1184.329507,-842.705048
3720.855763,-9252.574275,-888.247130,766.095498
3720.856093,-11177.109724,-148.041188,1149.143247
3720.856423,-11103.089130,-296.082377,-383.047749
3720.856752,-9252.574275,-1036.288319,-766.095498
3720.857082,-9326.594869,-370.102971,153.219100
3720.857412,-11029.068536,296.082377,1302.362347
3720.857742,-10881.027347,-444.123565,0.000000
3720.858071,-8808.450710,-148.041188,-1072.533697
3720.858401,-8660.409521,-74.020594,-842.705048
3720.858731,-10436.903782,666.185348,1225.752797
3720.859061,-10436.903782,0.000000,306.438199
3720.859390,-9252.574275,-296.082377,0.000000
3720.859720,-8956.491898,296.082377,76.609550
3720.860050,-10881.027347,814.226536,1455.581446
3720.860380,-11029.068536,222.061783,919.314598
3720.860709,-9178.553681,222.061783,0.000000
3720.861039,-9474.636058,444.123565,76.609550
3720.861369,-10807.006753,740.205942,689.485948
3720.861699,-10955.047942,444.123565,0.000000
3720.862028,-9104.533087,-592.164754,0.000000
3720.862358,-8660.409521,-74.020594,689.485948
3720.862688,-10066.800811,518.144159,2451.505594
3720.863018,-9844.739029,222.061783,1149.143247
3720.863347,-7994.224174,-296.082377,459.657299
3720.863677,-8586.388927,666.185348,1225.752797
3720.864007,-11029.068536,888.247130,2451.505594
3720.864337,-12509.480420,592.164754,1762.019645
3720.864666,-10214.842000,444.123565,-76.609550
3720.864996,-9178.553681,148.041188,0.000000
3720.865326,-10214.842000,814.226536,1149.143247
3720.865656,-9844.739029,74.020594,536.266849
3720.865985,-8438.347739,592.164754,-612.876398
3720.866315,-8438.347739,592.164754,-383.047749
3720.866645,-10732.986159,1406.391290,536.266849
3720.866975,-11103.089130,1184.329507,-76.609550
3720.867304,-9474.636058,0.000000,-1455.581446
3720.867634,-8808.450710,296.082377,-1608.800546
3720.867964,-10510.924376,814.226536,153.219100
3720.868294,-11103.089130,518.144159,0.000000
3720.868623,-9030.512492,-370.102971,-1302.362347
3720.868953,-7846.182985,148.041188,-1072.533697
3720.869283,-10362.883188,444.123565,306.438199
3720.869613,-11325.150913,814.226536,-76.609550
3720.869942,-9326.594869,0.000000,-1302.362347
3720.870272,-8290.306550,-222.061783,-383.047749
3720.870602,-9252.574275,888.247130,842.705048
3720.870932,-10807.006753,888.247130,536.266849
3720.871261,-9326.594869,296.082377,-1302.362347
3720.871591,-8364.327145,0.000000,-919.314598
3720.871921,-10288.862594,148.041188,689.485948
3720.872251,-11251.130318,444.123565,1072.533697
3720.872580,-9622.677246,0.000000,0.000000
3720.872910,-8438.347739,-814.226536,536.266849
3720.873240,-9696.697840,444.123565,1225.752797
3720.873570,-11029.068536,444.123565,995.924147
3720.873899,-9252.574275,0.000000,229.828649
3720.874229,-8808.450710,740.205942,689.485948
3720.874559,-10510.924376,1110.308913,1455.581446
3720.874889,-11843.295072,962.267725,1455.581446
3720.875218,-9622.677246,0.000000,-842.705048
3720.875548,-8290.306550,-888.247130,-919.314598
3720.875878,-9548.656652,-148.041188,383.047749
3720.876208,-11103.089130,-222.061783,1225.752797
3720.876537,-9104.533087,-740.205942,612.876398
3720.876867,-7328.038826,-1036.288319,612.876398
3720.877197,-9474.636058,-148.041188,2757.943793
3720.877527,-11621.233289,296.082377,2298.286494
3720.877856,-10288.862594,-444.123565,153.219100
3720.878186,-9030.512492,-666.185348,229.828649
3720.878516,-10214.842000,296.082377,1685.410096
3720.878845,-11917.315666,0.000000,1685.410096
3720.879175,-10436.903782,-1184.329507,-306.438199
3720.879505,-8142.265362,-666.185348,-1225.752797
3720.879835,-9252.574275,-444.123565,-536.266849
3720.880164,-11029.068536,0.000000,0.000000
3720.880494,-9918.759623,-444.123565,-1072.533697
3720.880824,-8660.409521,-592.164754,-1455.581446
3720.881154,-9548.656652,74.020594,-766.095498
3720.881483,-11325.150913,296.082377,-306.438199
3720.881813,-10436.903782,-1110.308913,-1149.143247
3720.882143,-8364.327145,-740.205942,-1072.533697
3720.882473,-9104.533087,-666.185348,153.219100
3720.882802,-10362.883188,0.000000,306.438199
3720.883132,-10140.821405,-962.267725,-766.095498
3720.883462,-8660.409521,-1406.391290,-766.095498
3720.883792,-8734.430116,-962.267725,459.657299
3720.884121,-10658.965565,-370.102971,766.095498
3720.884451,-9844.739029,-888.247130,0.000000
3720.884781,-8142.265362,-518.144159,-919.314598
3720.885111,-8956.491898,-296.082377,0.000000
3720.885440,-10658.965565,222.061783,612.876398
3720.885770,-9992.780217,-74.020594,-459.657299
3720.886100,-9030.512492,-592.164754,-1149.143247
3720.886430,-9548.656652,0.000000,536.266849
3720.886759,-10881.027347,0.000000,1455.581446
3720.887089,-9622.677246,-444.123565,1072.533697
3720.887419,-8216.285956,-370.102971,-536.266849
3720.887749,-9474.636058,0.000000,1225.752797
3720.888078,-11843.295072,592.164754,2604.724693
3720.888408,-10955.047942,148.041188,1608.800546
3720.888738,-8660.409521,0.000000,-536.266849
3720.889068,-8956.491898,0.000000,0.000000
3720.889397,-10436.903782,518.144159,1608.800546
3720.889727,-9918.759623,74.020594,1455.581446
3720.890057,-8660.409521,592.164754,536.266849
3720.890387,-9252.574275,444.123565,995.924147
3720.890716,-11251.130318,814.226536,1455.581446
3720.891046,-10807.006753,888.247130,459.657299
3720.891376,-9400.615463,592.164754,-153.219100
3720.891706,-9844.739029,592.164754,536.266849
3720.892035,-10881.027347,888.247130,1838.629195
3720.892365,-10732.986159,222.061783,1072.533697
3720.892695,-8512.368333,370.102971,-842.705048
3720.893025,-8364.327145,444.123565,-153.219100
3720.893354,-10362.883188,1184.329507,1225.752797
3720.893684,-11029.068536,1258.350101,383.047749
3720.894014,-9548.656652,592.164754,-1072.533697
3720.894344,-9770.718434,666.185348,-2145.067394
3720.894673,-11103.089130,666.185348,-1149.143247
3720.895003,-10436.903782,-370.102971,-612.876398
3720.895333,-8068.244768,-592.164754,-612.876398
3720.895663,-7994.224174,0.000000,383.047749
3720.895992,-9844.739029,666.185348,1378.971896
3720.896322,-10510.924376,888.247130,-76.609550
3720.896652,-9474.636058,370.102971,-1915.238745
3720.896982,-9474.636058,74.020594,-1378.971896
3720.897311,-11103.089130,1258.350101,1455.581446
3720.897641,-11251.130318,296.082377,1532.190996
3720.897971,-9474.636058,0.000000,-153.219100
3720.898301,-8438.347739,0.000000,-1072.533697
3720.898630,-9474.636058,296.082377,-459.657299
3720.898960,-9844.739029,666.185348,-536.266849
3720.899290,-9030.512492,444.123565,-383.047749
3720.899620,-8956.491898,296.082377,459.657299
3720.899949,-10510.924376,1184.329507,919.314598
3720.900279,-11325.150913,666.185348,536.266849
3720.900609,-9992.780217,0.000000,-995.924147
3720.900939,-8956.491898,74.020594,-995.924147
3720.901268,-9548.656652,444.123565,995.924147
3720.901598,-9992.780217,518.144159,2068.457845
3720.901928,-8882.471304,74.020594,842.705048
3720.902258,-8586.388927,296.082377,766.095498
3720.902587,-10584.944971,1480.411884,1072.533697
3720.902917,-11843.295072,0.000000,306.438199
3720.903247,-10362.883188,-222.061783,-229.828649
3720.903577,-8216.285956,-444.123565,536.266849
3720.903906,-9400.615463,-222.061783,2451.505594
3720.904236,-10288.862594,0.000000,1991.848295
3720.904566,-9326.594869,-518.144159,0.000000
3720.904895,-8956.491898,-370.102971,-306.438199
3720.905225,-10658.965565,296.082377,1455.581446
3720.905555,-11325.150913,296.082377,1762.019645
3720.905885,-10955.047942,-518.144159,1072.533697
3720.906215,-8586.388927,-1036.288319,153.219100
3720.906545,-9104.533087,-740.205942,229.828649
3720.906875,-10807.006753,222.061783,-612.876398
3720.907205,-9400.615463,-888.247130,-1608.800546
3720.907535,-8216.285956,-222.061783,-1991.848295
3720.907865,-9326.594869,74.020594,-76.609550
3720.908195,-11473.192101,370.102971,459.657299
3720.908525,-10732.986159,-888.247130,-229.828649
3720.908855,-8734.430116,-1036.288319,-919.314598
3720.909185,-9548.656652,-1332.370696,153.219100
3720.909514,-10732.986159,-518.144159,1149.143247
3720.909844,-9400.615463,-1332.370696,536.266849
3720.910174,-7402.059420,-1332.370696,76.609550
3720.910504,-8956.491898,0.000000,536.266849
3720.910834,-11547.212695,74.020594,612.876398
3720.911164,-11177.109724,0.000000,-1608.800546
3720.911494,-9104.533087,-296.082377,-1532.190996
3720.911824,-8512.368333,0.000000,-76.609550
3720.912154,-9918.759623,222.061783,612.876398
3720.912484,-9918.759623,0.000000,-306.438199
3720.912814,-9252.574275,-222.061783,-1455.581446
3720.913144,-9992.780217,370.102971,-1072.533697
3720.913474,-11473.192101,370.102971,229.828649
3720.913803,-10732.986159,-370.102971,306.438199
3720.914133,-8438.347739,-222.061783,842.705048
3720.914463,-8438.347739,148.041188,1762.019645
3720.914793,-10288.862594,592.164754,1608.800546
3720.915123,-9918.759623,0.000000,0.000000
3720.915453,-9104.533087,296.082377,-612.876398
3720.915783,-9474.636058,296.082377,536.266849
3720.916113,-10658.965565,740.205942,1378.971896
3720.916443,-10362.883188,-148.041188,536.266849
3720.916773,-7846.182985,-592.164754,1072.533697
3720.917103,-8512.368333,-296.082377,1455.581446
3720.917433,-10807.006753,592.164754,2221.676944
3720.917763,-10881.027347,518.144159,1225.752797
3720.918093,-9474.636058,370.102971,0.000000
3720.918422,-9030.512492,592.164754,919.314598
3720.918752,-10732.986159,1184.329507,1532.190996
3720.919082,-11399.171507,592.164754,229.828649
3720.919412,-9326.594869,222.061783,-919.314598
3720.919742,-8882.471304,518.144159,-612.876398
3720.920072,-9770.718434,740.205942,306.438199
3720.920402,-10510.924376,962.267725,0.000000
3720.920732,-9252.574275,74.020594,-689.485948
3720.921062,-9696.697840,370.102971,-229.828649
3720.921392,-10584.944971,888.247130,306.438199
3720.921722,-10807.006753,0.000000,-229.828649
3720.922052,-9400.615463,-222.061783,-995.924147
3720.922382,-8882.471304,-222.061783,76.609550
3720.922712,-10362.883188,74.020594,1149.143247
3720.923041,-10214.842000,74.020594,766.095498
3720.923371,-8586.388927,-518.144159,-1149.143247
3720.923701,-8068.244768,-296.082377,-995.924147
3720.924031,-10140.821405,1036.288319,766.095498
3720.924361,-11177.109724,592.164754,0.000000
3720.924691,-9770.718434,296.082377,-995.924147
3720.925021,-8734.430116,74.020594,-536.266849
3720.925351,-9992.780217,592.164754,919.314598
3720.925681,-9992.780217,0.000000,76.609550
3720.926011,-9252.574275,-74.020594,-766.095498
3720.926341,-9326.594869,74.020594,0.000000
3720.926671,-10436.903782,740.205942,1532.190996
3720.927001,-11103.089130,0.000000,1762.019645
3720.927330,-9770.718434,0.000000,459.657299
3720.927660,-9326.594869,296.082377,306.438199
3720.927990,-10658.965565,370.102971,1225.752797
3720.928320,-10881.027347,740.205942,689.485948
3720.928650,-9326.594869,-222.061783,-1225.752797
3720.928980,-8142.265362,-666.185348,-459.657299
3720.929310,-9622.677246,814.226536,1455.581446
3720.929640,-10436.903782,296.082377,2068.457845
3720.929970,-9770.718434,0.000000,459.657299
3720.930300,-9030.512492,-444.123565,153.219100
3720.930630,-10510.924376,0.000000,1378.971896
3720.930960,-11251.130318,148.041188,2451.505594
3720.931290,-9252.574275,-518.144159,1225.752797
3720.931620,-8512.368333,-666.185348,1072.533697
3720.931949,-10140.821405,370.102971,1378.971896
3720.932279,-11103.089130,0.000000,766.095498
3720.932609,-9696.697840,-740.205942,-689.485948
3720.932939,-9104.533087,-518.144159,-306.438199
3720.933269,-10584.944971,-370.102971,919.314598
3720.933599,-10658.965565,0.000000,536.266849
3720.933929,-8438.347739,-592.164754,-1302.362347
3720.934259,-7402.059420,-592.164754,-1915.238745
3720.934589,-9400.615463,444.123565,-536.266849
3720.934919,-11695.253884,518.144159,0.000000
3720.935249,-10881.027347,-370.102971,306.438199
3720.935579,-8956.491898,-518.144159,-612.876398
3720.935909,-10066.800811,-148.041188,383.047749
3720.936238,-10807.006753,-444.123565,76.609550
3720.936568,-9326.594869,-592.164754,-536.266849
3720.936898,-7624.121203,-888.247130,-766.095498
3720.937228,-9104.533087,222.061783,306.438199
3720.937558,-11029.068536,296.082377,1072.533697
3720.937888,-10732.986159,-370.102971,-153.219100
3720.938218,-9326.594869,-74.020594,-383.047749
3720.938548,-9696.697840,-444.123565,-459.657299
3720.938878,-10214.842000,-296.082377,306.438199
3720.939208,-8956.491898,-666.185348,-306.438199
3720.939538,-7920.203579,-1036.288319,0.000000
3720.939868,-9548.656652,444.123565,1072.533697
3720.940198,-11399.171507,740.205942,995.924147
3720.940528,-10955.047942,-296.082377,0.000000
3720.940857,-9252.574275,74.020594,-1149.143247
3720.941187,-9770.718434,0.000000,306.438199
3720.941517,-10732.986159,0.000000,1302.362347
3720.941847,-9400.615463,-296.082377,1378.971896
3720.942177,-7698.141797,-370.102971,689.485948
3720.942507,-9104.533087,888.247130,995.924147
3720.942837,-10807.006753,1110.308913,842.705048
3720.943167,-10807.006753,444.123565,-76.609550
3720.943497,-9474.636058,518.144159,0.000000
3720.943827,-10288.862594,740.205942,2298.286494
3720.944157,-11251.130318,74.020594,2221.676944
3720.944487,-9548.656652,0.000000,536.266849
3720.944817,-7920.203579,-370.102971,-919.314598
3720.945146,-8956.491898,740.205942,536.266849
3720.945476,-11251.130318,1184.329507,919.314598
3720.945806,-10288.862594,370.102971,153.219100
3720.946136,-9104.533087,518.144159,-229.828649
3720.946466,-9548.656652,592.164754,383.047749
3720.946796,-10658.965565,666.185348,689.485948
3720.947126,-10140.821405,444.123565,-919.314598
3720.947456,-7846.182985,0.000000,-1991.848295
3720.947786,-8956.491898,518.144159,-689.485948
3720.948116,-10807.006753,1258.350101,689.485948
3720.948446,-11103.089130,74.020594,76.609550
3720.948776,-9474.636058,148.041188,-919.314598
3720.949106,-9474.636058,444.123565,-612.876398
3720.949436,-11029.068536,592.164754,612.876398
3720.949765,-10362.883188,0.000000,-306.438199
3720.950095,-8438.347739,-444.123565,-153.219100
3720.950425,-8808.450710,-74.020594,919.314598
3720.950755,-10584.944971,814.226536,1455.581446
3720.951085,-10658.965565,0.000000,-306.438199
3720.951415,-9252.574275,0.000000,-1685.410096
3720.951745,-9178.553681,74.020594,-842.705048
3720.952075,-11103.089130,370.102971,689.485948
3720.952405,-10955.047942,888.247130,689.485948
3720.952735,-8660.409521,-518.144159,76.609550
3720.953065,-8660.409521,0.000000,383.047749
3720.953395,-10288.862594,666.185348,1149.143247
3720.953725,-11251.130318,-74.020594,1072.533697
3720.954054,-9474.636058,-518.144159,-383.047749
3720.954384,-8956.491898,-370.102971,229.828649
3720.954714,-10288.862594,0.000000,1225.752797
3720.955044,-10140.821405,148.041188,1685.410096
3720.955374,-9104.533087,-666.185348,153.219100
3720.955704,-8586.388927,-592.164754,153.219100
3720.956034,-10140.821405,740.205942,1455.581446
3720.956364,-10955.047942,0.000000,689.485948
3720.956694,-9400.615463,-666.185348,0.000000
3720.957024,-8808.450710,-222.061783,689.485948
3720.957354,-10140.821405,-74.020594,1838.629195
3720.957684,-10807.006753,-74.020594,842.705048
3720.958014,-9178.553681,-666.185348,-76.609550
3720.958344,-8586.388927,-666.185348,153.219100
3720.958673,-10510.924376,518.144159,1915.238745
3720.959003,-11399.171507,0.000000,1762.019645
3720.959333,-9992.780217,-592.164754,306.438199
3720.959663,-9622.677246,-444.123565,153.219100
3720.959993,-9844.739029,0.000000,459.657299
3720.960323,-10066.800811,-148.041188,-612.876398
3720.960653,-8882.471304,-296.082377,-1455.581446
3720.960983,-9326.594869,0.000000,-306.438199
3720.961313,-10881.027347,666.185348,766.095498
3720.961643,-11251.130318,222.061783,0.000000
3720.961973,-9400.615463,-518.144159,-2068.457845
3720.962303,-8364.327145,0.000000,-1072.533697
3720.962633,-10288.862594,-74.020594,995.924147
3720.962962,-11473.192101,370.102971,1302.362347
3720.963292,-10140.821405,-518.144159,-459.657299
3720.963622,-8808.450710,-740.205942,-995.924147
3720.963952,-9400.615463,-148.041188,0.000000
3720.964282,-10362.883188,0.000000,536.266849
3720.964612,-9474.636058,-296.082377,-689.485948
3720.964942,-8438.347739,0.000000,-842.705048
3720.965272,-9326.594869,74.020594,0.000000
3720.965602,-10510.924376,518.144159,153.219100
3720.965932,-10066.800811,0.000000,-1072.533697
3720.966262,-9326.594869,0.000000,-689.485948
3720.966592,-9696.697840,0.000000,306.438199
3720.966922,-9474.636058,0.000000,842.705048
3720.967252,-9252.574275,-370.102971,-229.828649
3720.967581,-8882.471304,444.123565,0.000000
3720.967911,-10584.944971,518.144159,1378.971896
3720.968241,-11325.150913,518.144159,1149.143247
3720.968571,-9474.636058,-222.061783,-842.705048
3720.968901,-8438.347739,-518.144159,-612.876398
3720.969231,-9622.677246,74.020594,1685.410096
3720.969561,-11029.068536,0.000000,2298.286494
3720.969891,-9474.636058,-296.082377,383.047749
3720.970221,-8068.244768,222.061783,-229.828649
3720.970551,-9326.594869,222.061783,1072.533697
3720.970881,-11621.233289,518.144159,2451.505594
3720.971211,-11325.150913,592.164754,842.705048
3720.971541,-9326.594869,-518.144159,766.095498
3720.971871,-9474.636058,370.102971,919.314598
3720.972200,-9918.759623,74.020594,1225.752797
3720.972530,-9474.636058,296.082377,306.438199
3720.972860,-8734.430116,592.164754,-536.266849
3720.973190,-9992.780217,518.144159,0.000000
3720.973520,-10807.006753,592.164754,612.876398
3720.973850,-10214.842000,148.041188,-612.876398
3720.974180,-9252.574275,0.000000,-1149.143247
3720.974510,-9992.780217,0.000000,-612.876398
3720.974840,-10510.924376,0.000000,153.219100
3720.975170,-9030.512492,-814.226536,0.000000
3720.975500,-7476.080014,-444.123565,-919.314598
3720.975830,-9400.615463,444.123565,842.705048
3720.976160,-11695.253884,962.267725,1225.752797
3720.976489,-11473.192101,666.185348,-383.047749
3720.976819,-9030.512492,74.020594,-1991.848295
3720.977149,-9622.677246,0.000000,0.000000
3720.977479,-10362.883188,222.061783,1378.971896
3720.977809,-9696.697840,-296.082377,536.266849
3720.978139,-7846.182985,296.082377,-612.876398
3720.978469,-8438.347739,0.000000,-306.438199
3720.978799,-11399.171507,444.123565,689.485948
3720.979129,-11029.068536,444.123565,-153.219100
3720.979459,-9030.512492,0.000000,-383.047749
3720.979789,-9104.533087,0.000000,766.095498
3720.980119,-10658.965565,1036.288319,1608.800546
3720.980449,-11177.109724,74.020594,842.705048
3720.980779,-9104.533087,0.000000,-1225.752797
3720.981108,-8808.450710,222.061783,-1149.143247
3720.981438,-10658.965565,518.144159,1225.752797
3720.981768,-10436.903782,0.000000,1455.581446
3720.982098,-8808.450710,-518.144159,459.657299
3720.982428,-8290.306550,-222.061783,76.609550
3720.982758,-9918.759623,370.102971,1072.533697
3720.983088,-10288.862594,0.000000,842.705048
3720.983418,-8734.430116,-296.082377,0.000000
3720.983748,-8808.450710,74.020594,1302.362347
3720.984078,-10658.965565,74.020594,2451.505594
3720.984408,-11029.068536,0.000000,919.314598
3720.984738,-9770.718434,-518.144159,-1072.533697
3720.985068,-9474.636058,-444.123565,-612.876398
3720.985397,-10214.842000,222.061783,1072.533697
3720.985727,-10510.924376,-148.041188,383.047749
3720.986057,-9104.533087,-148.041188,-459.657299
3720.986387,-8734.430116,370.102971,-689.485948
3720.986717,-10362.883188,1480.411884,-689.485948
3720.987047,-11177.109724,296.082377,-766.095498
3720.987377,-9400.615463,0.000000,-1608.800546
3720.987707,-8734.430116,-592.164754,-919.314598
3720.988037,-9992.780217,296.082377,919.314598
3720.988367,-10436.903782,-222.061783,689.485948
3720.988697,-9178.553681,-888.247130,-689.485948
3720.989027,-8512.368333,-444.123565,-459.657299
3720.989357,-9548.656652,0.000000,306.438199
3720.989687,-10288.862594,518.144159,0.000000
3720.990016,-9474.636058,148.041188,-919.314598
3720.990346,-9252.574275,0.000000,-383.047749
3720.990676,-10881.027347,518.144159,536.266849
3720.991006,-11029.068536,148.041188,459.657299
3720.991336,-9326.594869,-740.205942,-1225.752797
3720.991666,-7772.162391,-222.061783,-919.314598
3720.991996,-9400.615463,148.041188,612.876398
3720.992326,-10807.006753,666.185348,612.876398
3720.992656,-10140.821405,0.000000,-459.657299
3720.992986,-9548.656652,0.000000,-153.219100
3720.993316,-10732.986159,518.144159,1149.143247
3720.993646,-11695.253884,296.082377,2145.067394
3720.993976,-9696.697840,-814.226536,919.314598
3720.994305,-7772.162391,-296.082377,459.657299
3720.994635,-9178.553681,0.000000,1302.362347
3720.994965,-11029.068536,296.082377,1455.581446
3720.995295,-10214.842000,0.000000,0.000000
3720.995625,-8512.368333,0.000000,0.000000
3720.995955,-9474.636058,592.164754,1608.800546
3720.996285,-10584.944971,592.164754,1991.848295
3720.996615,-10584.944971,222.061783,1378.971896
3720.996945,-9474.636058,0.000000,0.000000
3720.997275,-9474.636058,74.020594,842.705048
3720.997605,-10510.924376,444.123565,1532.190996
3720.997935,-9770.718434,222.061783,0.000000
3720.998265,-8956.491898,-148.041188,-153.219100
3720.998595,-9548.656652,148.041188,766.095498
3720.998924,-10584.944971,370.102971,1762.019645
3720.999254,-9696.697840,-296.082377,0.000000
3720.999584,-8142.265362,148.041188,-612.876398
3720.999914,-9252.574275,148.041188,842.705048
3721.000244,-11029.068536,888.247130,1838.629195
3721.000574,-10732.986159,592.164754,-459.657299
3721.000904,-9104.533087,296.082377,-2528.115143
3721.001234,-9548.656652,0.000000,-1149.143247
3721.001564,-10658.965565,370.102971,153.219100
3721.001894,-9918.759623,-444.123565,-612.876398
3721.002224,-7772.162391,0.000000,-919.314598
3721.002554,-8216.285956,74.020594,0.000000
3721.002884,-10214.842000,518.144159,536.266849
3721.003213,-10732.986159,888.247130,-306.438199
3721.003543,-9918.759623,74.020594,-919.314598
3721.003873,-10362.883188,296.082377,229.828649
3721.004203,-11399.171507,592.164754,1762.019645
3721.004533,-10436.903782,-666.185348,0.000000
3721.004863,-7772.162391,-666.185348,-1838.629195
3721.005193,-8142.265362,0.000000,-1072.533697
3721.005523,-10066.800811,370.102971,1225.752797
3721.005853,-10140.821405,592.164754,-383.047749
3721.006183,-9104.533087,296.082377,-1378.971896
3721.006513,-9178.553681,0.000000,-689.485948
3721.006843,-10807.006753,814.226536,1072.533697
3721.007173,-10807.006753,-222.061783,766.095498
3721.007503,-8734.430116,-444.123565,0.000000
3721.007832,-8438.347739,0.000000,459.657299
3721.008162,-10140.821405,518.144159,1225.752797
3721.008492,-11029.068536,444.123565,842.705048
3721.008822,-9548.656652,-74.020594,-689.485948
3721.009152,-9770.718434,222.061783,766.095498
3721.009482,-11399.171507,814.226536,1685.410096
3721.009812,-10436.903782,-370.102971,1225.752797
3721.010142,-8142.265362,-740.205942,153.219100
3721.010472,-8438.347739,0.000000,766.095498
3721.010802,-9992.780217,518.144159,1608.800546
3721.011132,-10288.862594,74.020594,459.657299
3721.011462,-8882.471304,-444.123565,-612.876398
3721.011792,-9178.553681,-444.123565,306.438199
3721.012122,-10807.006753,370.102971,1915.238745
3721.012452,-11029.068536,-444.123565,1149.143247
3721.012782,-9400.615463,-444.123565,76.609550
3721.013112,-9030.512492,0.000000,76.609550
3721.013441,-10584.944971,444.123565,995.924147
3721.013771,-10955.047942,518.144159,459.657299
3721.014101,-9474.636058,148.041188,-995.924147
3721.014431,-9104.533087,-222.061783,-919.314598
3721.014761,-10288.862594,370.102971,229.828649
3721.015091,-10584.944971,-222.061783,306.438199
3721.015421,-8882.471304,-296.082377,-383.047749
3721.015751,-8734.430116,0.000000,0.000000
3721.016081,-10510.924376,592.164754,842.705048
3721.016411,-11103.089130,0.000000,153.219100
3721.016741,-9696.697840,-74.020594,-842.705048
3721.017071,-8808.450710,-444.123565,-306.438199
3721.017401,-10436.903782,296.082377,1378.971896
3721.017731,-10881.027347,0.000000,919.314598
3721.018061,-8586.388927,-666.185348,-536.266849
3721.018391,-7698.141797,148.041188,-842.705048
3721.018721,-9696.697840,370.102971,229.828649
3721.019050,-11103.089130,666.185348,-229.828649
3721.019380,-10066.800811,592.164754,-1762.019645
3721.019710,-9474.636058,-370.102971,-995.924147
3721.020040,-10510.924376,148.041188,76.609550
3721.020370,-10436.903782,-666.185348,229.828649
3721.020700,-8512.368333,-1554.432478,0.000000
3721.021030,-7772.162391,-1036.288319,842.705048
3721.021360,-9104.533087,0.000000,2298.286494
3721.021690,-10510.924376,-74.020594,1991.848295
3721.022020,-9400.615463,148.041188,0.000000
3721.022350,-8734.430116,-592.164754,-76.609550
3721.022680,-11029.068536,296.082377,1225.752797
3721.023010,-11399.171507,148.041188,1685.410096
3721.023340,-9474.636058,-444.123565,612.876398
3721.023670,-8142.265362,0.000000,306.438199
3721.024000,-9918.759623,370.102971,919.314598
3721.024329,-11547.212695,1184.329507,76.609550
3721.024659,-10214.842000,518.144159,-1455.581446
3721.024989,-9474.636058,148.041188,-766.095498
3721.025319,-10658.965565,0.000000,612.876398
3721.025649,-11547.212695,222.061783,689.485948
3721.025979,-9252.574275,-814.226536,-229.828649
3721.026309,-7920.203579,-740.205942,-995.924147
3721.026639,-9400.615463,-518.144159,689.485948
3721.026969,-11103.089130,0.000000,1685.410096
3721.027299,-10362.883188,0.000000,689.485948
3721.027629,-9326.594869,0.000000,0.000000
3721.027959,-10510.924376,148.041188,-306.438199
3721.028289,-11473.192101,0.000000,76.609550
3721.028619,-10288.862594,-1036.288319,-306.438199
3721.028949,-8068.244768,-222.061783,-383.047749
3721.029279,-8808.450710,-148.041188,612.876398
3721.029609,-10436.903782,518.144159,919.314598
3721.029938,-9030.512492,148.041188,-1838.629195
3721.030268,-8142.265362,-222.061783,-2604.724693
3721.030598,-10066.800811,592.164754,-995.924147
3721.030928,-11621.233289,592.164754,842.705048
3721.031258,-10066.800811,-518.144159,766.095498
3721.031588,-8364.327145,0.000000,-459.657299
3721.031918,-9178.553681,0.000000,0.000000
3721.032248,-11029.068536,0.000000,919.314598
3721.032578,-10732.986159,74.020594,0.000000
3721.032908,-9030.512492,-296.082377,-229.828649
3721.033238,-9326.594869,74.020594,459.657299
3721.033568,-10362.883188,444.123565,1378.971896
3721.033898,-9696.697840,0.000000,612.876398
3721.034228,-8364.327145,-74.020594,-766.095498
3721.034558,-9400.615463,296.082377,383.047749
3721.034888,-11177.109724,814.226536,1838.629195
3721.035218,-9548.656652,666.185348,766.095498
3721.035547,-9030.512492,148.041188,-383.047749
3721.035877,-9992.780217,222.061783,229.828649
3721.036207,-11695.253884,814.226536,1072.533697
3721.036537,-10955.047942,-296.082377,459.657299
3721.036867,-9030.512492,74.020594,383.047749
3721.037197,-8882.471304,296.082377,1378.971896
3721.037527,-10510.924376,592.164754,2528.115143
3721.037857,-9770.718434,370.102971,383.047749
3721.038187,-8808.450710,444.123565,-1225.752797
3721.038517,-9326.594869,370.102971,0.000000
3721.038847,-11399.171507,888.247130,1685.410096
3721.039177,-11621.233289,74.020594,1225.752797
3721.039507,-9918.759623,-592.164754,229.828649
3721.039837,-9474.636058,0.000000,0.000000
3721.040167,-10288.862594,0.000000,229.828649
3721.040497,-9548.656652,0.000000,-76.609550
3721.040826,-8142.265362,-148.041188,-766.095498
3721.041156,-9622.677246,0.000000,229.828649
3721.041486,-10955.047942,1110.308913,842.705048
3721.041816,-10288.862594,-370.102971,0.000000
3721.042146,-8956.491898,-222.061783,-766.095498
3721.042476,-9326.594869,-592.164754,383.047749
3721.042806,-10807.006753,-148.041188,919.314598
3721.043136,-10066.800811,222.061783,-612.876398
3721.043466,-8364.327145,-370.102971,-1762.019645
3721.043796,-9030.512492,-296.082377,-459.657299
3721.044126,-10955.047942,666.185348,919.314598
3721.044456,-11695.253884,-296.082377,842.705048
3721.044786,-9178.553681,-518.144159,-153.219100
3721.045116,-7920.203579,-740.205942,0.000000
3721.045446,-9104.533087,-814.226536,1149.143247
3721.045776,-9770.718434,-518.144159,0.000000
3721.046106,-8882.471304,0.000000,-919.314598
3721.046435,-8734.430116,-148.041188,-306.438199
3721.046765,-10436.903782,592.164754,766.095498
3721.047095,-11325.150913,0.000000,536.266849
3721.047425,-9696.697840,0.000000,-919.314598
3721.047755,-8956.491898,-444.123565,-1225.752797
3721.048085,-10066.800811,-518.144159,0.000000
3721.048415,-9992.780217,-370.102971,766.095498
3721.048745,-8068.244768,-592.164754,612.876398
3721.049075,-8216.285956,74.020594,842.705048
3721.049405,-10214.842000,814.226536,1838.629195
3721.049735,-11769.274478,148.041188,1149.143247
3721.050065,-10362.883188,-222.061783,153.219100
3721.050395,-9474.636058,-370.102971,1302.362347
3721.050725,-10436.903782,-148.041188,2604.724693
3721.051055,-10807.006753,0.000000,2681.334243
3721.051385,-9252.574275,-296.082377,229.828649
3721.051715,-8956.491898,-74.020594,-459.657299
3721.052044,-10510.924376,444.123565,306.438199
3721.052374,-11769.274478,740.205942,459.657299
3721.052704,-10214.842000,-444.123565,-536.266849
3721.053034,-8512.368333,-222.061783,306.438199
3721.053364,-9474.636058,0.000000,1685.410096
3721.053694,-10807.006753,592.164754,1072.533697
3721.054024,-8660.409521,-148.041188,-1838.629195
3721.054354,-8808.450710,-222.061783,-1838.629195
3721.054684,-10288.862594,370.102971,766.095498
3721.055014,-12065.356855,592.164754,2757.943793
3721.055344,-10288.862594,-444.123565,1762.019645
3721.055674,-8512.368333,-370.102971,0.000000
3721.056004,-9696.697840,148.041188,0.000000
3721.056334,-11621.233289,370.102971,-306.438199
3721.056664,-9844.739029,518.144159,-1455.581446
3721.056994,-7698.141797,-148.041188,-842.705048
3721.057323,-8290.306550,1110.308913,459.657299
3721.057653,-10140.821405,1258.350101,536.266849
3721.057983,-10658.965565,814.226536,-919.314598
3721.058313,-9252.574275,518.144159,-1915.238745
3721.058643,-9622.677246,370.102971,0.000000
3721.058973,-10955.047942,740.205942,1762.019645
3721.059303,-9622.677246,444.123565,842.705048
3721.059633,-8660.409521,74.020594,153.219100
3721.059963,-9548.656652,740.205942,-153.219100
3721.060293,-11325.150913,1110.308913,0.000000
3721.060623,-10658.965565,370.102971,-1225.752797
3721.060953,-8290.306550,222.061783,-306.438199
3721.061283,-8512.368333,518.144159,1915.238745
3721.061613,-10510.924376,962.267725,2681.334243
3721.061943,-9918.759623,666.185348,306.438199
3721.062273,-9104.533087,370.102971,-919.314598
3721.062603,-9844.739029,592.164754,-76.609550
3721.062932,-11695.253884,814.226536,1378.971896
3721.063262,-10807.006753,0.000000,1532.190996
3721.063592,-8216.285956,0.000000,1685.410096
3721.063922,-8586.388927,370.102971,1455.581446
3721.064252,-10658.965565,814.226536,1762.019645
3721.064582,-10658.965565,592.164754,0.000000
3721.064912,-8956.491898,74.020594,-689.485948
3721.065242,-9548.656652,814.226536,919.314598
3721.065572,-11547.212695,1110.308913,1378.971896
3721.065902,-11251.130318,148.041188,0.000000
3721.066232,-8808.450710,-74.020594,-1762.019645
3721.066562,-9104.533087,0.000000,-995.924147
3721.066892,-11029.068536,148.041188,1072.533697
3721.067222,-10584.944971,0.000000,842.705048
3721.067552,-8216.285956,-740.205942,76.609550
3721.067882,-8734.430116,0.000000,459.657299
3721.068212,-10881.027347,222.061783,612.876398
3721.068541,-10732.986159,-1184.329507,76.609550
3721.068871,-8142.265362,-1184.329507,-842.705048
3721.069201,-8660.409521,-666.185348,995.924147
3721.069531,-11399.171507,-148.041188,1378.971896
3721.069861,-10807.006753,-296.082377,-229.828649
3721.070191,-7846.182985,-1332.370696,-2145.067394
3721.070521,-7920.203579,-222.061783,-229.828649
3721.070851,-11251.130318,888.247130,766.095498
3721.071181,-11843.295072,0.000000,153.219100
3721.071511,-8734.430116,-666.185348,-1838.629195
3721.071841,-7920.203579,-592.164754,-1225.752797
3721.072171,-10510.924376,0.000000,995.924147
3721.072501,-10955.047942,-370.102971,-76.609550
3721.072831,-8364.327145,-592.164754,-995.924147
3721.073161,-7698.141797,0.000000,-842.705048
3721.073491,-10510.924376,814.226536,1149.143247
3721.073821,-11991.336260,-444.123565,76.609550
3721.074150,-9918.759623,-888.247130,-612.876398
3721.074480,-8956.491898,-518.144159,919.314598
3721.074810,-10807.006753,-444.123565,2451.505594
3721.075140,-10732.986159,-518.144159,1532.190996
3721.075470,-8068.244768,-1184.329507,-306.438199
3721.075800,-7179.997637,-1036.288319,-306.438199
3721.076130,-10955.047942,1036.288319,1532.190996
3721.076460,-13249.686362,1110.308913,1991.848295
3721.076790,-10584.944971,0.000000,-536.266849
3721.077120,-8438.347739,-592.164754,-612.876398
3721.077450,-9918.759623,-222.061783,1225.752797
3721.077780,-10732.986159,-370.102971,2451.505594
3721.078110,-8808.450710,-888.247130,229.828649
3721.078440,-8364.327145,-592.164754,612.876398
3721.078770,-9548.656652,74.020594,1991.848295
3721.079100,-11843.295072,296.082377,1685.410096
3721.079429,-10732.986159,-666.185348,-459.657299
3721.079759,-9400.615463,-296.082377,-536.266849
3721.080089,-9918.759623,-370.102971,383.047749
3721.080419,-10140.821405,-444.123565,689.485948
3721.080749,-8068.244768,-296.082377,-1072.533697
3721.081079,-7624.121203,-666.185348,-1072.533697
3721.081409,-10214.842000,296.082377,766.095498
3721.081739,-11695.253884,148.041188,766.095498
3721.082069,-10214.842000,-148.041188,-995.924147
3721.082399,-8586.388927,-370.102971,-1991.848295
3721.082729,-10214.842000,-148.041188,0.000000
3721.083059,-11029.068536,0.000000,995.924147
3721.083389,-8438.347739,-370.102971,-919.314598
3721.083719,-6809.894666,-148.041188,-1532.190996
3721.084049,-9030.512492,1036.288319,-383.047749
3721.084379,-11251.130318,1258.350101,0.000000
3721.084709,-10362.883188,592.164754,-766.095498
3721.085038,-9622.677246,0.000000,-1225.752797
3721.085368,-10658.965565,370.102971,459.657299
3721.085698,-11621.233289,222.061783,1225.752797
3721.086028,-9178.553681,-148.041188,-689.485948
3721.086358,-7920.203579,-148.041188,-1072.533697
3721.086688,-9474.636058,1406.391290,536.266849
3721.087018,-11843.295072,1554.432478,1762.019645
3721.087348,-10584.944971,666.185348,536.266849
3721.087678,-9030.512492,518.144159,-842.705048
3721.088008,-9992.780217,814.226536,459.657299
3721.088338,-11325.150913,1110.308913,1455.581446
3721.088668,-9918.759623,444.123565,0.000000
3721.088998,-8290.306550,0.000000,-919.314598
3721.089328,-9474.636058,444.123565,612.876398
3721.089658,-11695.253884,888.247130,2451.505594
3721.089988,-10584.944971,222.061783,1072.533697
3721.090318,-8956.491898,444.123565,612.876398
3721.090647,-9178.553681,0.000000,1608.800546
3721.090977,-10732.986159,296.082377,2068.457845
3721.091307,-9622.677246,444.123565,766.095498
3721.091637,-8290.306550,222.061783,229.828649
3721.091967,-9770.718434,814.226536,1072.533697
3721.092297,-10955.047942,962.267725,842.705048
3721.092627,-10066.800811,-370.102971,-306.438199
3721.092957,-8882.471304,-296.082377,-1072.533697
3721.093287,-9326.594869,0.000000,153.219100
3721.093617,-10732.986159,0.000000,1685.410096
3721.093947,-9474.636058,0.000000,766.095498
3721.094277,-7698.141797,-518.144159,-612.876398
3721.094607,-9252.574275,0.000000,-383.047749
3721.094937,-11251.130318,592.164754,536.266849
3721.095267,-10658.965565,0.000000,-383.047749
3721.095597,-8660.409521,-296.082377,-1532.190996
3721.095926,-9104.533087,-148.041188,-383.047749
3721.096256,-10881.027347,-222.061783,1378.971896
3721.096586,-10510.924376,222.061783,76.609550
3721.096916,-8808.450710,-296.082377,-1302.362347
3721.097246,-9178.553681,370.102971,-689.485948
3721.097576,-10881.027347,1036.288319,995.924147
3721.097906,-10732.986159,0.000000,0.000000
3721.098236,-9326.594869,-74.020594,-995.924147
3721.098566,-9474.636058,0.000000,-689.485948
3721.098896,-11103.089130,0.000000,766.095498
3721.099226,-9474.636058,-592.164754,459.657299
3721.099556,-7698.141797,-444.123565,-536.266849
3721.099886,-8512.368333,74.020594,459.657299
3721.100216,-11251.130318,296.082377,1532.190996
3721.100546,-11473.192101,-370.102971,995.924147
3721.100876,-9252.574275,-592.164754,-842.705048
3721.101206,-9104.533087,-740.205942,0.000000
3721.101535,-10140.821405,-444.123565,1915.238745
3721.101865,-9992.780217,-74.020594,2528.115143
3721.102195,-9030.512492,-740.205942,229.828649
3721.102525,-9178.553681,-444.123565,0.000000
3721.102855,-10510.924376,74.020594,842.705048
3721.103185,-10362.883188,-444.123565,306.438199
3721.103515,-8808.450710,-962.267725,-306.438199
3721.103845,-8734.430116,-148.041188,689.485948
3721.104175,-10066.800811,74.020594,1915.238745
3721.104505,-10584.944971,148.041188,995.924147
3721.104835,-9696.697840,0.000000,-842.705048
3721.105165,-8956.491898,0.000000,-459.657299
3721.105495,-10881.027347,814.226536,1072.533697
3721.105825,-10955.047942,444.123565,536.266849
3721.106155,-9104.533087,0.000000,-383.047749
3721.106484,-8882.471304,0.000000,-1685.410096
3721.106814,-10140.821405,0.000000,-153.219100
3721.107144,-11103.089130,370.102971,766.095498
3721.107474,-9326.594869,148.041188,0.000000
3721.107804,-9030.512492,74.020594,0.000000
3721.108134,-10584.944971,592.164754,919.314598
3721.108464,-11251.130318,148.041188,153.219100
3721.108793,-9548.656652,-592.164754,-383.047749
3721.109123,-9400.615463,74.020594,842.705048
3721.109453,-10214.842000,0.000000,1991.848295
3721.109783,-10732.986159,296.082377,1225.752797
3721.110113,-8956.491898,0.000000,-995.924147
3721.110443,-8364.327145,-296.082377,-995.924147
3721.110772,-10288.862594,592.164754,153.219100
3721.111102,-11103.089130,370.102971,689.485948
3721.111432,-9474.636058,0.000000,-689.485948
3721.111762,-7846.182985,0.000000,-919.314598
3721.112092,-9178.553681,222.061783,153.219100
3721.112422,-10955.047942,296.082377,766.095498
3721.112751,-9548.656652,518.144159,229.828649
3721.113081,-9104.533087,74.020594,229.828649
3721.113411,-9770.718434,444.123565,919.314598
3721.113741,-11103.089130,148.041188,1378.971896
3721.114071,-9326.594869,-444.123565,76.609550
3721.114401,-8142.265362,-222.061783,76.609550
3721.114730,-9252.574275,-222.061783,1149.143247
3721.115060,-10881.027347,296.082377,919.314598
3721.115390,-9326.594869,296.082377,-612.876398
3721.115720,-8216.285956,-592.164754,-153.219100
3721.116050,-9400.615463,-222.061783,1608.800546
3721.116380,-11251.130318,444.123565,1991.848295
3721.116709,-10140.821405,-370.102971,0.000000
3721.117039,-8438.347739,-444.123565,-536.266849
3721.117369,-9548.656652,-296.082377,536.266849
3721.117699,-11621.233289,0.000000,1532.190996
3721.118029,-10510.924376,0.000000,306.438199
3721.118359,-9474.636058,-518.144159,76.609550
3721.118688,-10066.800811,148.041188,1378.971896
3721.119018,-11177.109724,0.000000,1225.752797
3721.119348,-10288.862594,-518.144159,76.609550
3721.119678,-8586.388927,0.000000,-612.876398
3721.120008,-9992.780217,0.000000,0.000000
3721.120338,-11621.233289,0.000000,153.219100
3721.120668,-9622.677246,0.000000,-919.314598
3721.120997,-8364.327145,-1110.308913,-1378.971896
3721.121327,-9918.759623,-222.061783,-229.828649
3721.121657,-11621.233289,222.061783,1149.143247
3721.121987,-10362.883188,-814.226536,153.219100
3721.122317,-7846.182985,-814.226536,-536.266849
3721.122647,-8808.450710,-370.102971,459.657299
3721.122976,-11177.109724,0.000000,1378.971896
3721.123306,-10881.027347,-296.082377,-383.047749
3721.123636,-8734.430116,-888.247130,-1225.752797
3721.123966,-8290.306550,-370.102971,-383.047749
3721.124296,-10288.862594,222.061783,766.095498
3721.124626,-10510.924376,-148.041188,229.828649
3721.124955,-9104.533087,-222.061783,-1149.143247
3721.125285,-9178.553681,148.041188,-76.609550
3721.125615,-10436.903782,148.041188,536.266849
3721.125945,-10362.883188,74.020594,-76.609550
3721.126275,-8512.368333,-592.164754,-766.095498
3721.126605,-8808.450710,74.020594,689.485948
3721.126934,-10066.800811,814.226536,1762.019645
3721.127264,-9844.739029,222.061783,383.047749
3721.127594,-8808.450710,74.020594,-1378.971896
3721.127924,-9622.677246,518.144159,-536.266849
3721.128254,-11473.192101,1036.288319,1072.533697
3721.128584,-10881.027347,1036.288319,0.000000
3721.128913,-8290.306550,74.020594,-919.314598
3721.129243,-8660.409521,0.000000,-306.438199
3721.129573,-10732.986159,666.185348,1225.752797
3721.129903,-10881.027347,148.041188,919.314598
3721.130233,-8660.409521,0.000000,689.485948
3721.130563,-8586.388927,370.102971,1149.143247
3721.130893,-10584.944971,518.144159,2374.896044
3721.131222,-11251.130318,518.144159,1455.581446
3721.131552,-9696.697840,-148.041188,0.000000
3721.131882,-9400.615463,0.000000,306.438199
3721.132212,-10584.944971,740.205942,1915.238745
3721.132542,-10066.800811,296.082377,1838.629195
3721.132872,-8216.285956,74.020594,153.219100
3721.133201,-8956.491898,888.247130,306.438199
3721.133531,-11325.150913,888.247130,842.705048
3721.133861,-11399.171507,888.247130,-459.657299
3721.134191,-9104.533087,148.041188,-1455.581446
3721.134521,-8438.347739,222.061783,0.000000
3721.134851,-10066.800811,666.185348,1455.581446
3721.135180,-11029.068536,148.041188,1302.362347
3721.135510,-9104.533087,-296.082377,-459.657299
3721.135840,-9030.512492,296.082377,-766.095498
3721.136170,-10807.006753,518.144159,-76.609550
3721.136500,-11029.068536,222.061783,842.705048
3721.136830,-8956.491898,0.000000,153.219100
3721.137159,-8142.265362,-666.185348,0.000000
3721.137489,-9844.739029,518.144159,76.609550
3721.137819,-10510.924376,0.000000,153.219100
3721.138149,-8660.409521,-518.144159,-459.657299
3721.138479,-9030.512492,222.061783,0.000000
3721.138809,-10807.006753,1036.288319,1685.410096
3721.139138,-10658.965565,518.144159,1149.143247
3721.139468,-9030.512492,370.102971,-1838.629195
3721.139798,-8512.368333,-370.102971,-1685.410096
3721.140128,-10881.027347,296.082377,459.657299
3721.140458,-11325.150913,814.226536,995.924147
3721.140788,-8660.409521,-370.102971,153.219100
3721.141118,-7994.224174,222.061783,-229.828649
3721.141447,-9918.759623,148.041188,842.705048
3721.141777,-11917.315666,592.164754,766.095498
3721.142107,-9844.739029,74.020594,-383.047749
3721.142437,-8808.450710,-148.041188,0.000000
3721.142767,-9622.677246,0.000000,1455.581446
3721.143097,-10732.986159,74.020594,1302.362347
3721.143426,-9252.574275,-370.102971,306.438199
3721.143756,-8808.450710,0.000000,0.000000
3721.144086,-10436.903782,74.020594,689.485948
3721.144416,-10807.006753,74.020594,1149.143247
3721.144746,-8438.347739,0.000000,-612.876398
3721.145076,-8068.244768,-370.102971,-459.657299
3721.145405,-10362.883188,222.061783,459.657299
3721.145735,-10807.006753,74.020594,842.705048
3721.146065,-9178.553681,-296.082377,-612.876398
3721.146395,-8290.306550,296.082377,-612.876398
3721.146725,-10658.965565,296.082377,1149.143247
3721.147055,-12509.480420,444.123565,1685.410096
3721.147384,-9622.677246,-296.082377,-919.314598
3721.147714,-7994.224174,-888.247130,-1838.629195
3721.148044,-9104.533087,0.000000,229.828649
3721.148374,-10807.006753,0.000000,1378.971896
3721.148704,-9548.656652,-666.185348,-229.828649
3721.149034,-7476.080014,0.000000,-995.924147
3721.149363,-9918.759623,148.041188,-459.657299
3721.149693,-12065.356855,74.020594,0.000000
3721.150023,-10881.027347,0.000000,-1378.971896
3721.150353,-8586.388927,-962.267725,-766.095498
3721.150683,-9030.512492,-370.102971,919.314598
3721.151013,-10214.842000,-222.061783,1838.629195
3721.151343,-10066.800811,-1258.350101,153.219100
3721.151672,-8734.430116,-666.185348,-766.095498
3721.152002,-9548.656652,148.041188,76.609550
3721.152332,-11103.089130,0.000000,1455.581446
3721.152662,-9622.677246,-74.020594,229.828649
3721.152992,-8068.244768,-888.247130,-612.876398
3721.153322,-8808.450710,-370.102971,-383.047749
3721.153651,-10881.027347,518.144159,153.219100
3721.153981,-10214.842000,-666.185348,-536.266849
3721.154311,-8882.471304,-444.123565,-459.657299
3721.154641,-9992.780217,222.061783,689.485948
3721.154971,-11473.192101,74.020594,1455.581446
3721.155301,-9696.697840,-370.102971,-612.876398
3721.155630,-7994.224174,-1110.308913,-536.266849
3721.155960,-9548.656652,-444.123565,1225.752797
3721.156290,-11029.068536,0.000000,2757.943793
3721.156620,-9474.636058,-666.185348,1302.362347
3721.156950,-7772.162391,-370.102971,76.609550
3721.157280,-9400.615463,148.041188,1225.752797
3721.157609,-12361.439231,370.102971,1455.581446
3721.157939,-11251.130318,0.000000,0.000000
3721.158269,-7772.162391,-1184.329507,-1225.752797
3721.158599,-8290.306550,0.000000,1838.629195
3721.158929,-11991.336260,370.102971,1991.848295
3721.159259,-11029.068536,-222.061783,1225.752797
3721.159588,-7624.121203,74.020594,-1302.362347
3721.159918,-7994.224174,0.000000,-1532.190996
3721.160248,-11399.171507,1332.370696,689.485948
3721.160578,-11251.130318,1110.308913,1225.752797
3721.160908,-9252.574275,74.020594,306.438199
3721.161238,-8956.491898,888.247130,-229.828649
3721.161568,-10732.986159,1036.288319,-306.438199
3721.161897,-11473.192101,222.061783,-919.314598
3721.162227,-9770.718434,-296.082377,-1149.143247
3721.162557,-8586.388927,222.061783,536.266849
3721.162887,-9696.697840,296.082377,1378.971896
3721.163217,-10214.842000,518.144159,306.438199
3721.163547,-8142.265362,0.000000,-2298.286494
3721.163876,-8512.368333,148.041188,-1915.238745
3721.164206,-10214.842000,1184.329507,-76.609550
3721.164536,-11251.130318,888.247130,1072.533697
3721.164866,-8956.491898,296.082377,76.609550
3721.165196,-8290.306550,296.082377,0.000000
3721.165526,-10362.883188,296.082377,1225.752797
3721.165855,-10436.903782,592.164754,-689.485948
3721.166185,-8438.347739,222.061783,-2374.896044
3721.166515,-8882.471304,148.041188,-306.438199
3721.166845,-10658.965565,1332.370696,2145.067394
3721.167175,-11029.068536,888.247130,1838.629195
3721.167505,-8734.430116,74.020594,-1685.410096
3721.167834,-8660.409521,444.123565,-1455.581446
3721.168164,-10436.903782,296.082377,612.876398
3721.168494,-11103.089130,740.205942,1455.581446
3721.168824,-8956.491898,296.082377,153.219100
3721.169154,-8290.306550,0.000000,153.219100
3721.169484,-10658.965565,370.102971,1532.190996
3721.169813,-11917.315666,-148.041188,1455.581446
3721.170143,-9696.697840,-888.247130,306.438199
3721.170473,-8586.388927,-370.102971,612.876398
3721.170803,-9400.615463,-296.082377,2451.505594
3721.171133,-10807.006753,74.020594,2681.334243
3721.171463,-9696.697840,74.020594,689.485948
3721.171793,-9252.574275,0.000000,-689.485948
3721.172122,-10214.842000,1110.308913,-459.657299
3721.172452,-11547.212695,518.144159,995.924147
3721.172782,-10510.924376,-592.164754,536.266849
3721.173112,-9252.574275,0.000000,1532.190996
3721.173442,-10510.924376,-74.020594,766.095498
3721.173772,-11103.089130,0.000000,-536.266849
3721.174101,-8808.450710,-592.164754,-2451.505594
3721.174431,-7994.224174,-296.082377,-1762.019645
3721.174761,-9548.656652,296.082377,536.266849
3721.175091,-11103.089130,74.020594,1072.533697
3721.175421,-9844.739029,-1332.370696,-459.657299
3721.175751,-8216.285956,-1258.350101,-1149.143247
3721.176080,-9474.636058,-1332.370696,1149.143247
3721.176410,-10732.986159,-962.267725,1608.800546
3721.176740,-9474.636058,-1258.350101,153.219100
3721.177070,-8142.265362,-1554.432478,-766.095498
3721.177400,-9400.615463,-814.226536,-995.924147
3721.177730,-11029.068536,-666.185348,306.438199
3721.178059,-9474.636058,-1332.370696,-689.485948
3721.178389,-8142.265362,-814.226536,-1378.971896
3721.178719,-9104.533087,222.061783,536.266849
3721.179049,-10436.903782,74.020594,689.485948
3721.179379,-10140.821405,518.144159,-995.924147
3721.179709,-9326.594869,74.020594,-1762.019645
3721.180038,-10881.027347,444.123565,-459.657299
3721.180368,-11843.295072,740.205942,1608.800546
3721.180698,-10807.006753,-74.020594,612.876398
3721.181028,-9104.533087,222.061783,-306.438199
3721.181358,-9400.615463,0.000000,0.000000
3721.181688,-11473.192101,740.205942,1532.190996
3721.182018,-10362.883188,888.247130,153.219100
3721.182347,-9104.533087,0.000000,0.000000
3721.182677,-10066.800811,592.164754,842.705048
3721.183007,-11843.295072,814.226536,2451.505594
3721.183337,-10807.006753,-814.226536,612.876398
3721.183667,-7698.141797,-740.205942,153.219100
3721.183997,-8142.265362,0.000000,995.924147
3721.184326,-9770.718434,74.020594,1915.238745
3721.184656,-9992.780217,296.082377,76.609550
3721.184986,-8660.409521,0.000000,0.000000
3721.185316,-9696.697840,444.123565,689.485948
3721.185646,-11029.068536,888.247130,1225.752797
3721.185976,-10362.883188,-592.164754,153.219100
3721.186305,-8216.285956,-296.082377,-229.828649
3721.186635,-8586.388927,74.020594,842.705048
3721.186965,-10881.027347,666.185348,2451.505594
3721.187295,-10214.842000,444.123565,919.314598
3721.187625,-8290.306550,0.000000,-1225.752797
3721.187955,-9030.512492,814.226536,-1149.143247
3721.188284,-11177.109724,1628.453072,229.828649
3721.188614,-11473.192101,370.102971,-153.219100
3721.188944,-9030.512492,0.000000,-1455.581446
3721.189274,-8586.388927,0.000000,-459.657299
3721.189604,-9992.780217,518.144159,1302.362347
3721.189934,-10140.821405,888.247130,612.876398
3721.190263,-8660.409521,444.123565,-612.876398
3721.190593,-9178.553681,666.185348,-306.438199
3721.190923,-11325.150913,1406.391290,919.314598
3721.191253,-11991.336260,814.226536,229.828649
3721.191583,-9918.759623,518.144159,0.000000
3721.191913,-8882.471304,444.123565,76.609550
3721.192243,-9992.780217,518.144159,1302.362347
3721.192572,-10214.842000,888.247130,153.219100
3721.192902,-8956.491898,370.102971,-1225.752797
3721.193232,-8660.409521,814.226536,-536.266849
3721.193562,-10658.965565,1702.473667,459.657299
3721.193892,-11473.192101,1110.308913,689.485948
3721.194222,-9548.656652,148.041188,76.609550
3721.194551,-8734.430116,666.185348,-383.047749
3721.194881,-9992.780217,370.102971,919.314598
3721.195211,-10584.944971,148.041188,459.657299
3721.195541,-8956.491898,370.102971,306.438199
3721.195871,-9622.677246,148.041188,766.095498
3721.196201,-11103.089130,814.226536,2221.676944
3721.196530,-11177.109724,74.020594,1149.143247
3721.196860,-9030.512492,-518.144159,306.438199
3721.197190,-8068.244768,-444.123565,153.219100
3721.197520,-9474.636058,0.000000,1915.238745
3721.197850,-10658.965565,148.041188,1762.019645
3721.198180,-8734.430116,0.000000,-306.438199
3721.198509,-8438.347739,-444.123565,-1225.752797
3721.198839,-9918.759623,444.123565,0.000000
3721.199169,-11251.130318,-370.102971,383.047749
3721.199499,-9178.553681,-740.205942,0.000000
3721.199829,-8660.409521,-444.123565,536.266849
3721.200159,-9844.739029,-592.164754,1532.190996
3721.200488,-10955.047942,0.000000,1149.143247
3721.200818,-9696.697840,-222.061783,0.000000
3721.201148,-9326.594869,-592.164754,-612.876398
3721.201478,-10584.944971,0.000000,0.000000
3721.201808,-10584.944971,0.000000,459.657299
3721.202138,-9030.512492,-962.267725,-1072.533697
3721.202467,-8734.430116,-962.267725,-1149.143247
3721.202797,-9992.780217,-1036.288319,0.000000
3721.203127,-11251.130318,-148.041188,229.828649
3721.203457,-9030.512492,-444.123565,-1838.629195
3721.203787,-7994.224174,-1258.350101,-1685.410096
3721.204117,-9252.574275,-592.164754,536.266849
3721.204447,-11029.068536,-444.123565,995.924147
3721.204776,-9696.697840,-888.247130,0.000000
3721.205106,-7994.224174,-444.123565,-1302.362347
3721.205436,-9770.718434,0.000000,-153.219100
3721.205766,-10881.027347,-222.061783,919.314598
3721.206096,-9474.636058,0.000000,-995.924147
3721.206426,-8808.450710,-444.123565,-919.314598
3721.206755,-10362.883188,296.082377,-306.438199
3721.207085,-11251.130318,370.102971,612.876398
3721.207415,-9844.739029,-814.226536,-1149.143247
3721.207745,-8660.409521,-666.185348,-459.657299
3721.208075,-10214.842000,-370.102971,1455.581446
3721.208405,-11251.130318,0.000000,2298.286494
3721.208734,-9474.636058,-222.061783,76.609550
3721.209064,-8290.306550,-962.267725,-459.657299
3721.209394,-9844.739029,0.000000,995.924147
3721.209724,-11399.171507,592.164754,1915.238745
3721.210054,-10658.965565,-370.102971,459.657299
3721.210384,-8734.430116,-518.144159,0.000000
3721.210714,-9622.677246,-592.164754,766.095498
3721.211043,-11325.150913,0.000000,1685.410096
3721.211373,-10362.883188,-222.061783,995.924147
3721.211703,-8216.285956,-592.164754,0.000000
3721.212033,-9474.636058,148.041188,995.924147
3721.212363,-10881.027347,1110.308913,2145.067394
3721.212693,-10140.821405,0.000000,689.485948
3721.213023,-9326.594869,444.123565,-383.047749
3721.213353,-9992.780217,444.123565,459.657299
3721.213682,-12213.398043,592.164754,1455.581446
3721.214012,-9844.739029,148.041188,0.000000
3721.214342,-7328.038826,-444.123565,-1378.971896
3721.214672,-8364.327145,592.164754,-459.657299
3721.215002,-11103.089130,1184.329507,459.657299
3721.215332,-11103.089130,0.000000,-689.485948
3721.215662,-8660.409521,0.000000,-1378.971896
3721.215991,-8364.327145,0.000000,-842.705048
3721.216321,-9918.759623,370.102971,459.657299
3721.216651,-9548.656652,222.061783,-383.047749
3721.216981,-8068.244768,0.000000,-689.485948
3721.217311,-8956.491898,0.000000,-306.438199
3721.217641,-11029.068536,740.205942,1072.533697
3721.217971,-10584.944971,148.041188,612.876398
3721.218300,-8512.368333,74.020594,-766.095498
3721.218630,-8290.306550,592.164754,-536.266849
3721.218960,-10288.862594,148.041188,919.314598
3721.219290,-10140.821405,740.205942,459.657299
3721.219620,-8512.368333,148.041188,-536.266849
3721.219950,-9474.636058,740.205942,-459.657299
3721.220280,-11473.192101,1480.411884,842.705048
3721.220610,-11029.068536,814.226536,229.828649
3721.220939,-8882.471304,222.061783,-1072.533697
3721.221269,-8586.388927,666.185348,-536.266849
3721.221599,-11399.171507,666.185348,1608.800546
3721.221929,-11769.274478,962.267725,1838.629195
3721.222259,-9918.759623,444.123565,0.000000
3721.222589,-9326.594869,0.000000,0.000000
3721.222919,-10288.862594,814.226536,1455.581446
3721.223248,-10732.986159,74.020594,1608.800546
3721.223578,-9400.615463,-148.041188,766.095498
3721.223908,-8808.450710,0.000000,842.705048
3721.224238,-10140.821405,222.061783,2145.067394
3721.224568,-10732.986159,296.082377,1608.800546
3721.224898,-9326.594869,-296.082377,-153.219100
3721.225228,-9622.677246,-518.144159,612.876398
3721.225557,-9992.780217,518.144159,1838.629195
3721.225887,-10288.862594,0.000000,2451.505594
3721.226217,-8660.409521,-518.144159,76.609550
3721.226547,-8586.388927,-222.061783,0.000000
3721.226877,-10362.883188,518.144159,1149.143247
3721.227207,-11251.130318,592.164754,1072.533697
3721.227537,-9474.636058,-296.082377,-612.876398
3721.227867,-8734.430116,-444.123565,-383.047749
3721.228196,-10436.903782,222.061783,306.438199
3721.228526,-10807.006753,0.000000,0.000000
3721.228856,-8882.471304,-740.205942,-1685.410096
3721.229186,-8438.347739,-296.082377,-1302.362347
3721.229516,-9844.739029,-592.164754,153.219100
3721.229846,-10658.965565,0.000000,459.657299
3721.230176,-9030.512492,-296.082377,-1072.533697
3721.230505,-8438.347739,-444.123565,-1225.752797
3721.230835,-9770.718434,222.061783,306.438199
3721.231165,-10658.965565,518.144159,153.219100
3721.231495,-10214.842000,74.020594,-766.095498
3721.231825,-9918.759623,370.102971,-1302.362347
3721.232155,-10362.883188,296.082377,-383.047749
3721.232485,-10807.006753,444.123565,153.219100
3721.232814,-9474.636058,296.082377,-1302.362347
3721.233144,-8956.491898,-148.041188,-1149.143247
3721.233474,-10658.965565,444.123565,306.438199
3721.233804,-10955.047942,962.267725,1072.533697
3721.234134,-9918.759623,-518.144159,-153.219100
3721.234464,-8956.491898,0.000000,-766.095498
3721.234794,-9474.636058,-296.082377,76.609550
3721.235124,-10510.924376,-148.041188,1762.019645
3721.235453,-9400.615463,-370.102971,842.705048
3721.235783,-8956.491898,-1036.288319,766.095498
3721.236113,-9770.718434,-518.144159,1455.581446
3721.236443,-10066.800811,-148.041188,1762.019645
3721.236773,-8808.450710,-1332.370696,306.438199
3721.237103,-8364.327145,-518.144159,612.876398
3721.237433,-9918.759623,-296.082377,1915.238745
3721.237762,-11251.130318,0.000000,2987.772442
3721.238092,-9622.677246,74.020594,766.095498
3721.238422,-8660.409521,-222.061783,0.000000
3721.238752,-9992.780217,444.123565,919.314598
3721.239082,-11103.089130,962.267725,1762.019645
3721.239412,-10584.944971,370.102971,536.266849
3721.239742,-9178.553681,518.144159,-919.314598
3721.240071,-10140.821405,222.061783,-459.657299
3721.240401,-11103.089130,444.123565,919.314598
3721.240731,-9548.656652,74.020594,0.000000
3721.241061,-8216.285956,-518.144159,-919.314598
3721.241391,-9252.574275,148.041188,0.000000
3721.241721,-10584.944971,666.185348,536.266849
3721.242051,-10066.800811,74.020594,-383.047749
3721.242380,-8586.388927,296.082377,-1378.971896
3721.242710,-9622.677246,518.144159,-842.705048
3721.243040,-11177.109724,444.123565,153.219100
3721.243370,-10362.883188,222.061783,-919.314598
3721.243700,-8734.430116,-740.205942,-1378.971896
3721.244030,-8882.471304,-74.020594,0.000000
3721.244360,-10066.800811,962.267725,1838.629195
3721.244690,-9992.780217,74.020594,766.095498
3721.245019,-9400.615463,518.144159,-995.924147
3721.245349,-9696.697840,444.123565,-919.314598
3721.245679,-11251.130318,74.020594,306.438199
3721.246009,-11029.068536,740.205942,-459.657299
3721.246339,-9474.636058,74.020594,-1149.143247
3721.246669,-8882.471304,0.000000,-612.876398
3721.246999,-9622.677246,518.144159,459.657299
3721.247328,-9844.739029,370.102971,0.000000
3721.247658,-9178.553681,0.000000,-612.876398
3721.247988,-10066.800811,740.205942,1225.752797
3721.248318,-11843.295072,592.164754,1991.848295
3721.248648,-10288.862594,0.000000,-383.047749
3721.248978,-7772.162391,-1480.411884,-995.924147
3721.249308,-9030.512492,-740.205942,689.485948
3721.249637,-10807.006753,-74.020594,2451.505594
3721.249967,-10214.842000,-740.205942,1762.019645
3721.250297,-8142.265362,-592.164754,383.047749
3721.250627,-8068.244768,-370.102971,229.828649
3721.250957,-10881.027347,296.082377,1608.800546
3721.251287,-11547.212695,0.000000,1072.533697
3721.251617,-8882.471304,-444.123565,-153.219100
3721.251947,-8586.388927,-666.185348,-153.219100
3721.252276,-10362.883188,0.000000,1608.800546
3721.252606,-10955.047942,-148.041188,1685.410096
3721.252936,-8882.471304,148.041188,76.609550
3721.253266,-8808.450710,444.123565,-766.095498
3721.253596,-11103.089130,518.144159,0.000000
3721.253926,-11843.295072,1406.391290,689.485948
3721.254256,-9252.574275,74.020594,-1072.533697
3721.254585,-9104.533087,0.000000,-1072.533697
3721.254915,-10584.944971,444.123565,153.219100
3721.255245,-11177.109724,-296.082377,153.219100
3721.255575,-8586.388927,-888.247130,-1149.143247
3721.255905,-8142.265362,-296.082377,-459.657299
3721.256235,-10510.924376,222.061783,1072.533697
3721.256565,-11769.274478,74.020594,689.485948
3721.256894,-9400.615463,-370.102971,-1685.410096
3721.257224,-8512.368333,-962.267725,-1225.752797
3721.257554,-9770.718434,-370.102971,689.485948
3721.257884,-10658.965565,-444.123565,1149.143247
3721.258214,-8438.347739,-814.226536,459.657299
3721.258544,-7994.224174,-370.102971,153.219100
3721.258874,-10288.862594,444.123565,689.485948
3721.259204,-11473.192101,296.082377,-153.219100
3721.259533,-9030.512492,0.000000,-1991.848295
3721.259863,-8660.409521,-222.061783,-995.924147
3721.260193,-10140.821405,370.102971,1455.581446
3721.260523,-11547.212695,370.102971,1532.190996
3721.260853,-9326.594869,-814.226536,-995.924147
3721.261183,-7772.162391,-222.061783,-1915.238745
3721.261513,-10066.800811,444.123565,0.000000
3721.261842,-12583.501014,814.226536,1608.800546
3721.262172,-10214.842000,296.082377,536.266849
3721.262502,-7772.162391,-444.123565,76.609550
3721.262832,-9252.574275,370.102971,1608.800546
3721.263162,-11473.192101,370.102971,2374.896044
3721.263492,-10214.842000,-962.267725,1378.971896
3721.263822,-7772.162391,74.020594,1225.752797
3721.264151,-8660.409521,444.123565,1762.019645
3721.264481,-11103.089130,962.267725,2451.505594
3721.264811,-10658.965565,740.205942,306.438199
3721.265141,-9622.677246,-296.082377,459.657299
3721.265471,-10140.821405,370.102971,919.314598
3721.265801,-10881.027347,74.020594,1532.190996
3721.266131,-9326.594869,0.000000,76.609550
3721.266460,-7624.121203,-370.102971,-306.438199
3721.266790,-8956.491898,518.144159,383.047749
3721.267120,-11103.089130,444.123565,536.266849
3721.267450,-10214.842000,370.102971,-1378.971896
3721.267780,-8512.368333,-296.082377,-1532.190996
3721.268110,-9326.594869,0.000000,459.657299
3721.268440,-10732.986159,814.226536,1225.752797
3721.268770,-9474.636058,-444.123565,-229.828649
3721.269099,-8586.388927,0.000000,-1455.581446
3721.269429,-9326.594869,444.123565,-536.266849
3721.269759,-11843.295072,518.144159,536.266849
3721.270089,-10584.944971,740.205942,-766.095498
3721.270419,-8364.327145,-296.082377,-1762.019645
3721.270749,-9252.574275,148.041188,-536.266849
3721.271079,-10658.965565,814.226536,689.485948
3721.271408,-9770.718434,0.000000,-689.485948
3721.271738,-8438.347739,148.041188,-1302.362347
3721.272068,-9770.718434,740.205942,306.438199
3721.272398,-12435.459826,1036.288319,2374.896044
3721.272728,-11251.130318,444.123565,-306.438199
3721.273058,-8438.347739,-592.164754,-2221.676944
3721.273388,-8882.471304,-444.123565,-1072.533697
3721.273717,-10214.842000,740.205942,1838.629195
3721.274047,-10214.842000,-296.082377,2068.457845
3721.274377,-8586.388927,0.000000,612.876398
3721.274707,-9474.636058,296.082377,229.828649
3721.275037,-11547.212695,370.102971,1149.143247
3721.275367,-11325.150913,148.041188,0.000000
3721.275697,-9474.636058,-370.102971,153.219100
3721.276027,-9326.594869,-740.205942,1915.238745
3721.276356,-9992.780217,296.082377,2834.553343
3721.276686,-9992.780217,-518.144159,1608.800546
3721.277016,-8512.368333,-222.061783,-612.876398
3721.277346,-9252.574275,222.061783,153.219100
3721.277676,-11103.089130,296.082377,1685.410096
3721.278006,-10510.924376,962.267725,229.828649
3721.278336,-8216.285956,-444.123565,-229.828649
3721.278665,-8660.409521,-592.164754,229.828649
3721.278995,-10584.944971,0.000000,1302.362347
3721.279325,-10732.986159,222.061783,842.705048
3721.279655,-8586.388927,-592.164754,-766.095498
3721.279985,-8586.388927,0.000000,76.609550
3721.280315,-9918.759623,148.041188,1915.238745
3721.280645,-10510.924376,370.102971,1072.533697
3721.280974,-8882.471304,-296.082377,-1532.190996
3721.281304,-9474.636058,-444.123565,-1915.238745
3721.281634,-10881.027347,148.041188,0.000000
3721.281964,-10140.821405,-444.123565,459.657299
3721.282294,-7920.203579,-444.123565,-1225.752797
3721.282624,-8512.368333,0.000000,-766.095498
3721.282954,-11251.130318,370.102971,229.828649
3721.283284,-11399.171507,518.144159,-766.095498
3721.283613,-9252.574275,518.144159,-1991.848295
3721.283943,-8956.491898,-370.102971,-1225.752797
3721.284273,-10732.986159,814.226536,459.657299
3721.284603,-11029.068536,296.082377,689.485948
3721.284933,-8586.388927,-518.144159,-1072.533697
3721.285263,-7994.224174,-222.061783,-1149.143247
3721.285593,-10436.903782,0.000000,536.266849
3721.285922,-11695.253884,814.226536,1225.752797
3721.286252,-9030.512492,222.061783,0.000000
3721.286582,-8512.368333,-148.041188,76.609550
3721.286912,-11103.089130,370.102971,1225.752797
3721.287242,-11917.315666,-296.082377,1455.581446
3721.287572,-9400.615463,-888.247130,0.000000
3721.287902,-7328.038826,-444.123565,536.266849
3721.288231,-9252.574275,0.000000,2145.067394
3721.288561,-10658.965565,666.185348,2374.896044
3721.288891,-8882.471304,444.123565,0.000000
3721.289221,-8956.491898,0.000000,-612.876398
3721.289551,-10955.047942,740.205942,153.219100
3721.289881,-11473.192101,148.041188,1455.581446
3721.290211,-8956.491898,-666.185348,306.438199
3721.290541,-7624.121203,-370.102971,229.828649
3721.290870,-9548.656652,370.102971,1838.629195
3721.291200,-11547.212695,518.144159,919.314598
3721.291530,-9474.636058,370.102971,-1302.362347
3721.291860,-9030.512492,0.000000,-612.876398
3721.292190,-10955.047942,518.144159,459.657299
3721.292520,-11251.130318,0.000000,2145.067394
3721.292850,-9474.636058,-888.247130,459.657299
3721.293179,-7920.203579,-666.185348,-459.657299
3721.293509,-9178.553681,0.000000,153.219100
3721.293839,-10881.027347,296.082377,842.705048
3721.294169,-9844.739029,518.144159,-766.095498
3721.294499,-9400.615463,444.123565,-919.314598
3721.294829,-10955.047942,592.164754,-689.485948
3721.295159,-12213.398043,518.144159,-383.047749
3721.295488,-9992.780217,-814.226536,-1455.581446
3721.295818,-7476.080014,-666.185348,-1455.581446
3721.296148,-9030.512492,0.000000,153.219100
3721.296478,-10955.047942,370.102971,689.485948
3721.296808,-9474.636058,148.041188,-459.657299
3721.297138,-8142.265362,-222.061783,-1532.190996
3721.297468,-9918.759623,518.144159,-229.828649
3721.297797,-11843.295072,1036.288319,919.314598
3721.298127,-10436.903782,-222.061783,383.047749
3721.298457,-8290.306550,-222.061783,-459.657299
3721.298787,-9178.553681,0.000000,459.657299
3721.299117,-11103.089130,444.123565,766.095498
3721.299447,-9548.656652,296.082377,-919.314598
3721.299777,-7550.100608,-518.144159,-1762.019645
3721.300107,-8586.388927,222.061783,229.828649
3721.300436,-10658.965565,1184.329507,2145.067394
3721.300766,-10732.986159,-74.020594,919.314598
3721.301096,-8808.450710,-296.082377,0.000000
3721.301426,-9326.594869,0.000000,612.876398
3721.301756,-10955.047942,0.000000,2604.724693
3721.302086,-10436.903782,666.185348,1685.410096
3721.302416,-8438.347739,74.020594,153.219100
3721.302745,-9400.615463,370.102971,612.876398
3721.303075,-11251.130318,962.267725,1225.752797
3721.303405,-10955.047942,296.082377,536.266849
3721.303735,-9252.574275,0.000000,0.000000
3721.304065,-8660.409521,296.082377,995.924147
3721.304395,-9918.759623,444.123565,2221.676944
3721.304725,-9844.739029,592.164754,612.876398
3721.305054,-9178.553681,148.041188,-1149.143247
3721.305384,-10362.883188,518.144159,-612.876398
3721.305714,-11843.295072,888.247130,766.095498
3721.306044,-10510.924376,0.000000,383.047749
3721.306374,-8956.491898,0.000000,-459.657299
3721.306704,-9474.636058,0.000000,689.485948
3721.307034,-10584.944971,222.061783,1608.800546
3721.307364,-9696.697840,148.041188,0.000000
3721.307693,-8364.327145,0.000000,-1762.019645
3721.308023,-9326.594869,0.000000,-995.924147
3721.308353,-11399.171507,592.164754,919.314598
3721.308683,-11103.089130,0.000000,536.266849
3721.309013,-8882.471304,-814.226536,-1532.190996
3721.309343,-9030.512492,-592.164754,-1302.362347
3721.309673,-10288.862594,-740.205942,536.266849
3721.310002,-10288.862594,-222.061783,383.047749
3721.310332,-8216.285956,-444.123565,-766.095498
3721.310662,-8438.347739,-444.123565,-306.438199
3721.310992,-10362.883188,74.020594,0.000000
3721.311322,-10510.924376,-666.185348,-306.438199
3721.311651,-8660.409521,-962.267725,-919.314598
3721.311981,-8364.327145,-296.082377,229.828649
3721.312311,-9770.718434,-296.082377,1685.410096
3721.312641,-9548.656652,-148.041188,383.047749
3721.312971,-8068.244768,0.000000,-1225.752797
3721.313300,-9474.636058,148.041188,-1072.533697
3721.313630,-11843.295072,888.247130,306.438199
3721.313960,-11843.295072,0.000000,612.876398
3721.314290,-9178.553681,-370.102971,-153.219100
3721.314619,-7920.203579,-592.164754,229.828649
3721.314949,-9844.739029,0.000000,1762.019645
3721.315279,-11103.089130,74.020594,1378.971896
3721.315609,-9178.553681,74.020594,-1149.143247
3721.315939,-8660.409521,-296.082377,-842.705048
3721.316268,-10066.800811,888.247130,1302.362347
3721.316598,-11695.253884,518.144159,1685.410096
3721.316928,-9696.697840,-592.164754,612.876398
3721.317258,-8364.327145,0.000000,229.828649
3721.317587,-9992.780217,74.020594,1378.971896
3721.317917,-11621.233289,444.123565,1225.752797
3721.318247,-9844.739029,0.000000,-689.485948
3721.318577,-8734.430116,-666.185348,0.000000
3721.318907,-9992.780217,148.041188,1149.143247
3721.319236,-11029.068536,222.061783,1532.190996
3721.319566,-9474.636058,-666.185348,153.219100
3721.319896,-8364.327145,-370.102971,-383.047749
3721.320226,-9474.636058,-148.041188,1455.581446
3721.320555,-10584.944971,0.000000,1838.629195
3721.320885,-9400.615463,148.041188,0.000000
3721.321215,-8660.409521,0.000000,-689.485948
3721.321545,-9992.780217,296.082377,-76.609550
3721.321875,-11029.068536,370.102971,383.047749
3721.322204,-9918.759623,-370.102971,-1225.752797
3721.322534,-8808.450710,0.000000,-459.657299
3721.322864,-9252.574275,74.020594,306.438199
3721.323194,-10214.842000,148.041188,919.314598
3721.323523,-9178.553681,592.164754,-995.924147
3721.323853,-8956.491898,296.082377,-1302.362347
3721.324183,-10881.027347,888.247130,-536.266849
3721.324513,-12065.356855,1110.308913,459.657299
3721.324843,-10214.842000,74.020594,-383.047749
3721.325172,-8438.347739,74.020594,-766.095498
3721.325502,-9326.594869,518.144159,229.828649
3721.325832,-11399.171507,814.226536,689.485948
3721.326162,-9178.553681,740.205942,-1455.581446
3721.326491,-8512.368333,0.000000,-1915.238745
3721.326821,-10288.862594,592.164754,-229.828649
3721.327151,-11917.315666,888.247130,1608.800546
3721.327481,-10066.800811,0.000000,689.485948
3721.327810,-8142.265362,-814.226536,0.000000
3721.328140,-9252.574275,0.000000,919.314598
3721.328470,-11177.109724,74.020594,2068.457845
3721.328800,-9918.759623,0.000000,842.705048
3721.329130,-7994.224174,-222.061783,0.000000
3721.329459,-9178.553681,370.102971,766.095498
3721.329789,-11547.212695,444.123565,1915.238745
3721.330119,-10140.821405,-370.102971,0.000000
3721.330449,-7328.038826,-296.082377,-1532.190996
3721.330778,-8142.265362,-222.061783,0.000000
3721.331108,-10881.027347,148.041188,1838.629195
3721.331438,-10658.965565,0.000000,1455.581446
3721.331768,-8586.388927,296.082377,842.705048
3721.332098,-9474.636058,296.082377,306.438199
3721.332427,-11843.295072,962.267725,842.705048
3721.332757,-11399.171507,-444.123565,0.000000
3721.333087,-8808.450710,-296.082377,-459.657299
3721.333417,-8660.409521,-740.205942,766.095498
3721.333746,-10955.047942,-148.041188,1455.581446
3721.334076,-10362.883188,0.000000,306.438199
3721.334406,-8068.244768,-370.102971,-1532.190996
3721.334736,-9400.615463,74.020594,-766.095498
3721.335066,-10881.027347,962.267725,-459.657299
3721.335395,-11029.068536,0.000000,-919.314598
3721.335725,-8956.491898,-296.082377,-919.314598
3721.336055,-8956.491898,0.000000,-459.657299
3721.336385,-11103.089130,-296.082377,1455.581446
3721.336714,-10362.883188,-518.144159,-306.438199
3721.337044,-8068.244768,-740.205942,-1455.581446
3721.337374,-8808.450710,0.000000,-306.438199
3721.337704,-10732.986159,444.123565,1532.190996
3721.338034,-10807.006753,148.041188,689.485948
3721.338363,-8216.285956,-296.082377,-536.266849
3721.338693,-8512.368333,0.000000,-229.828649
3721.339023,-11325.150913,370.102971,1378.971896
3721.339353,-11769.274478,518.144159,459.657299
3721.339682,-8512.368333,0.000000,-1378.971896
3721.340012,-8734.430116,0.000000,-459.657299
3721.340342,-10066.800811,1258.350101,229.828649
3721.340672,-11251.130318,444.123565,689.485948
3721.341002,-9548.656652,0.000000,-842.705048
3721.341331,-8290.306550,74.020594,-689.485948
3721.341661,-10140.821405,814.226536,1838.629195
3721.341991,-11103.089130,592.164754,2681.334243
3721.342321,-8808.450710,0.000000,1762.019645
3721.342650,-8660.409521,148.041188,1149.143247
3721.342980,-10214.842000,592.164754,1455.581446
3721.343310,-11177.109724,296.082377,766.095498
3721.343640,-9104.533087,-370.102971,76.609550
3721.343970,-9030.512492,0.000000,919.314598
3721.344299,-10510.924376,148.041188,2221.676944
3721.344629,-10288.862594,518.144159,1762.019645
3721.344959,-8216.285956,74.020594,-459.657299
3721.345289,-8734.430116,0.000000,-76.609550
3721.345618,-11029.068536,1776.494261,919.314598
3721.345948,-11621.233289,814.226536,1149.143247
3721.346278,-9474.636058,370.102971,-612.876398
3721.346608,-8512.368333,296.082377,-1302.362347
3721.346938,-10140.821405,296.082377,153.219100
3721.347267,-10807.006753,444.123565,306.438199
3721.347597,-8068.244768,370.102971,-1608.800546
3721.347927,-8068.244768,0.000000,-1302.362347
3721.348257,-10881.027347,1480.411884,612.876398
3721.348586,-12287.418637,592.164754,536.266849
3721.348916,-9252.574275,-222.061783,-1455.581446
3721.349246,-7994.224174,-148.041188,-1302.362347
3721.349576,-9918.759623,74.020594,689.485948
3721.349905,-10955.047942,148.041188,1302.362347
3721.350235,-8660.409521,740.205942,-689.485948
3721.350565,-8364.327145,296.082377,-1072.533697
3721.350895,-10955.047942,1110.308913,-153.219100
3721.351225,-12139.377449,518.144159,229.828649
3721.351554,-9770.718434,-444.123565,0.000000
3721.351884,-8068.244768,-148.041188,-689.485948
3721.352214,-8808.450710,-444.123565,919.314598
3721.352544,-11103.089130,74.020594,919.314598
3721.352873,-9400.615463,74.020594,-306.438199
3721.353203,-8882.471304,-148.041188,-383.047749
3721.353533,-11177.109724,740.205942,995.924147
3721.353863,-11991.336260,370.102971,842.705048
3721.354193,-9696.697840,-1110.308913,-612.876398
3721.354522,-7920.203579,-296.082377,-383.047749
3721.354852,-9104.533087,-814.226536,1608.800546
3721.355182,-10732.986159,-666.185348,2451.505594
3721.355512,-9400.615463,-444.123565,995.924147
3721.355841,-8364.327145,-518.144159,383.047749
3721.356171,-10584.944971,0.000000,842.705048
3721.356501,-11325.150913,0.000000,1225.752797
3721.356831,-10362.883188,-592.164754,766.095498
3721.357161,-8438.347739,-962.267725,0.000000
3721.357490,-9474.636058,-592.164754,1915.238745
3721.357820,-10955.047942,0.000000,2451.505594
3721.358150,-10066.800811,0.000000,459.657299
3721.358480,-8734.430116,-814.226536,-766.095498
3721.358809,-9844.739029,0.000000,536.266849
3721.359139,-11325.150913,444.123565,1532.190996
3721.359469,-9918.759623,-370.102971,153.219100
3721.359799,-8364.327145,-296.082377,-919.314598
3721.360129,-8956.491898,0.000000,-766.095498
3721.360458,-11177.109724,-74.020594,76.609550
3721.360788,-9770.718434,148.041188,-919.314598
3721.361118,-8290.306550,-666.185348,-1838.629195
3721.361448,-9326.594869,0.000000,-536.266849
3721.361777,-11547.212695,444.123565,995.924147
3721.362107,-10362.883188,-222.061783,-383.047749
3721.362437,-8438.347739,-740.205942,-1532.190996
3721.362767,-8956.491898,-370.102971,-536.266849
3721.363097,-10584.944971,0.000000,1225.752797
3721.363426,-9770.718434,74.020594,-153.219100
3721.363756,-8142.265362,-592.164754,-1149.143247
3721.364086,-8882.471304,0.000000,-383.047749
3721.364416,-10362.883188,1184.329507,459.657299
3721.364745,-10584.944971,148.041188,-612.876398
3721.365075,-9178.553681,74.020594,-1378.971896
3721.365405,-9326.594869,592.164754,-689.485948
3721.365735,-11251.130318,518.144159,766.095498
3721.366065,-10436.903782,370.102971,-153.219100
3721.366394,-8216.285956,-666.185348,-919.314598
3721.366724,-9104.533087,0.000000,919.314598
3721.367054,-11177.109724,1036.288319,2374.896044
3721.367384,-10955.047942,518.144159,1225.752797
3721.367713,-9030.512492,0.000000,-689.485948
3721.368043,-9474.636058,518.144159,-306.438199
3721.368373,-11473.192101,296.082377,1762.019645
3721.368703,-9622.677246,222.061783,1072.533697
3721.369032,-7476.080014,-370.102971,-766.095498
3721.369362,-8216.285956,0.000000,229.828649
3721.369692,-10732.986159,888.247130,1838.629195
3721.370022,-11325.150913,148.041188,1762.019645
3721.370352,-9474.636058,0.000000,229.828649
3721.370681,-9622.677246,222.061783,1072.533697
3721.371011,-11473.192101,444.123565,2374.896044
3721.371341,-11399.171507,148.041188,1685.410096
3721.371671,-8512.368333,-296.082377,0.000000
3721.372000,-8364.327145,-296.082377,536.266849
3721.372330,-10807.006753,888.247130,842.705048
3721.372660,-11177.109724,74.020594,919.314598
3721.372990,-9030.512492,0.000000,-842.705048
3721.373320,-8290.306550,444.123565,-689.485948
3721.373649,-10807.006753,148.041188,919.314598
3721.373979,-11251.130318,296.082377,306.438199
3721.374309,-8956.491898,0.000000,-919.314598
3721.374639,-8290.306550,-370.102971,-1378.971896
3721.374968,-9770.718434,222.061783,459.657299
3721.375298,-10584.944971,148.041188,1149.143247
3721.375628,-8956.491898,222.061783,-153.219100
3721.375958,-8438.347739,222.061783,-919.314598
3721.376288,-10732.986159,592.164754,76.609550
3721.376617,-11399.171507,592.164754,-153.219100
3721.376947,-9474.636058,74.020594,-1302.362347
3721.377277,-8586.388927,-148.041188,-689.485948
3721.377607,-10362.883188,518.144159,229.828649
3721.377936,-10436.903782,74.020594,383.047749
3721.378266,-8586.388927,-296.082377,-995.924147
3721.378596,-7698.141797,222.061783,-2298.286494
3721.378926,-10362.883188,444.123565,995.924147
3721.379256,-11917.315666,888.247130,1762.019645
3721.379585,-10140.821405,222.061783,536.266849
3721.379915,-8734.430116,296.082377,459.657299
3721.380245,-10362.883188,370.102971,919.314598
3721.380575,-11769.274478,296.082377,1072.533697
3721.380904,-10140.821405,0.000000,0.000000
3721.381234,-8438.347739,74.020594,-536.266849
3721.381564,-9400.615463,0.000000,995.924147
3721.381894,-10658.965565,518.144159,2068.457845
3721.382224,-8956.491898,148.041188,383.047749
3721.382553,-8660.409521,-296.082377,-153.219100
3721.382883,-10732.986159,518.144159,1378.971896
3721.383213,-11473.192101,592.164754,1762.019645
3721.383543,-9474.636058,-592.164754,229.828649
3721.383872,-7846.182985,-296.082377,-306.438199
3721.384202,-10214.842000,0.000000,1838.629195
3721.384532,-11991.336260,0.000000,2757.943793
3721.384862,-10214.842000,0.000000,536.266849
3721.385192,-8438.347739,-370.102971,-612.876398
3721.385521,-9400.615463,296.082377,0.000000
3721.385851,-11325.150913,666.185348,689.485948
3721.386181,-10140.821405,74.020594,-153.219100
3721.386511,-8438.347739,148.041188,-1225.752797
3721.386840,-9696.697840,148.041188,-995.924147
3721.387170,-11399.171507,0.000000,-306.438199
3721.387500,-10214.842000,0.000000,-1532.190996
3721.387830,-8734.430116,-1184.329507,-1762.019645
3721.388159,-9326.594869,-296.082377,0.000000
3721.388489,-10732.986159,-148.041188,1149.143247
3721.388819,-9178.553681,-1258.350101,-229.828649
3721.389149,-7994.224174,-1036.288319,-842.705048
3721.389479,-9326.594869,-592.164754,306.438199
3721.389808,-11399.171507,0.000000,1915.238745
3721.390138,-9622.677246,-74.020594,0.000000
3721.390468,-7920.203579,-740.205942,-842.705048
3721.390798,-9548.656652,0.000000,0.000000
3721.391127,-12065.356855,370.102971,1072.533697
3721.391457,-10584.944971,-592.164754,0.000000
3721.391787,-7772.162391,-444.123565,-1532.190996
3721.392117,-8660.409521,0.000000,-995.924147
3721.392447,-10807.006753,74.020594,1225.752797
3721.392776,-10214.842000,518.144159,383.047749
3721.393106,-8290.306550,0.000000,-153.219100
3721.393436,-9474.636058,222.061783,459.657299
3721.393766,-11843.295072,1258.350101,1225.752797
3721.394095,-11843.295072,518.144159,1149.143247
3721.394425,-9178.553681,222.061783,-459.657299
3721.394755,-9252.574275,370.102971,689.485948
3721.395085,-11399.171507,444.123565,2528.115143
3721.395415,-10658.965565,740.205942,919.314598
3721.395744,-8290.306550,0.000000,-766.095498
3721.396074,-9178.553681,222.061783,76.609550
3721.396404,-11695.253884,888.247130,1915.238745
3721.396734,-10807.006753,518.144159,1378.971896
3721.397063,-7846.182985,74.020594,459.657299
3721.397393,-7920.203579,296.082377,306.438199
3721.397723,-10807.006753,592.164754,1608.800546
3721.398053,-11103.089130,518.144159,536.266849
3721.398383,-9178.553681,0.000000,-536.266849
3721.398712,-9696.697840,0.000000,0.000000
3721.399042,-11621.233289,444.123565,1608.800546
3721.399372,-10658.965565,0.000000,995.924147
3721.399702,-7846.182985,-370.102971,-76.609550
3721.400031,-7994.224174,222.061783,-612.876398
3721.400361,-10881.027347,592.164754,995.924147
3721.400691,-11177.109724,740.205942,0.000000
3721.401021,-8512.368333,0.000000,-1685.410096
3721.401351,-9178.553681,222.061783,-919.314598
3721.401680,-11399.171507,814.226536,306.438199
3721.402010,-10807.006753,-370.102971,76.609550
3721.402340,-7920.203579,-666.185348,-1455.581446
3721.402670,-8142.265362,0.000000,-1225.752797
3721.402999,-10955.047942,148.041188,612.876398
3721.403329,-11325.150913,370.102971,1302.362347
3721.403659,-8512.368333,0.000000,0.000000
3721.403989,-8660.409521,222.061783,689.485948
3721.404319,-11029.068536,814.226536,766.095498
3721.404648,-10807.006753,74.020594,153.219100
3721.404978,-8364.327145,0.000000,-1378.971896
3721.405308,-8290.306550,74.020594,-1149.143247
3721.405638,-11103.089130,1036.288319,459.657299
3721.405967,-11621.233289,666.185348,689.485948
3721.406297,-8956.491898,74.020594,-1455.581446
3721.406627,-8586.388927,-370.102971,-1302.362347
3721.406957,-11177.109724,592.164754,1225.752797
3721.407286,-11843.295072,0.000000,2145.067394
3721.407616,-8734.430116,-592.164754,766.095498
3721.407946,-7476.080014,0.000000,612.876398
3721.408275,-9844.739029,74.020594,1991.848295
3721.408605,-11991.336260,370.102971,2145.067394
3721.408935,-10066.800811,-296.082377,306.438199
3721.409264,-8734.430116,-740.205942,-153.219100
3721.409594,-9696.697840,74.020594,1302.362347
3721.409924,-10510.924376,-74.020594,1915.238745
3721.410254,-8882.471304,-1110.308913,612.876398
3721.410583,-7994.224174,-444.123565,153.219100
3721.410913,-10214.842000,0.000000,842.705048
3721.411243,-12065.356855,592.164754,1685.410096
3721.411572,-10066.800811,-148.041188,-536.266849
3721.411902,-8808.450710,-888.247130,-76.609550
3721.412232,-10436.903782,0.000000,1149.143247
3721.412561,-10807.006753,-296.082377,1302.362347
3721.412891,-9326.594869,-1036.288319,-536.266849
3721.413221,-7698.141797,-592.164754,-842.705048
3721.413551,-9474.636058,-296.082377,0.000000
3721.413880,-11621.233289,148.041188,1149.143247
3721.414210,-9400.615463,-592.164754,-919.314598
3721.414540,-7772.162391,-1110.308913,-1762.019645
3721.414869,-9696.697840,-222.061783,-459.657299
3721.415199,-11621.233289,0.000000,1225.752797
3721.415529,-9548.656652,-1258.350101,0.000000
3721.415859,-7772.162391,-666.185348,-919.314598
3721.416188,-9326.594869,0.000000,229.828649
3721.416518,-11769.274478,370.102971,1302.362347
3721.416848,-9696.697840,0.000000,-919.314598
3721.417177,-8068.244768,74.020594,-1991.848295
3721.417507,-9696.697840,740.205942,-383.047749
3721.417837,-11843.295072,1036.288319,1072.533697
3721.418166,-10066.800811,-148.041188,0.000000
3721.418496,-7476.080014,-296.082377,-536.266849
3721.418826,-8660.409521,222.061783,1072.533697
3721.419156,-11991.336260,1110.308913,2221.676944
3721.419485,-11251.130318,666.185348,0.000000
3721.419815,-7920.203579,0.000000,-689.485948
3721.420145,-9696.697840,740.205942,459.657299
3721.420474,-12361.439231,1258.350101,2374.896044
3721.420804,-11251.130318,0.000000,919.314598
3721.421134,-7846.182985,0.000000,-383.047749
3721.421463,-7698.141797,148.041188,0.000000
3721.421793,-10436.903782,444.123565,1532.190996
3721.422123,-10214.842000,592.164754,306.438199
3721.422453,-8290.306550,-370.102971,-153.219100
3721.422782,-9326.594869,444.123565,919.314598
3721.423112,-11103.089130,740.205942,1991.848295
3721.423442,-10510.924376,-518.144159,1455.581446
3721.423771,-8438.347739,-296.082377,306.438199
3721.424101,-9104.533087,296.082377,1455.581446
3721.424431,-11473.192101,518.144159,2298.286494
3721.424760,-10510.924376,666.185348,766.095498
3721.425090,-8364.327145,0.000000,-536.266849
3721.425420,-9326.594869,222.061783,-306.438199
3721.425750,-11325.150913,1036.288319,995.924147
3721.426079,-11251.130318,222.061783,153.219100
3721.426409,-8290.306550,296.082377,-1302.362347
3721.426739,-7698.141797,592.164754,-1072.533697
3721.427068,-10436.903782,592.164754,995.924147
3721.427398,-10955.047942,1184.329507,383.047749
3721.427728,-9400.615463,518.144159,-1762.019645
3721.428057,-10066.800811,592.164754,-1455.581446
3721.428387,-11399.171507,740.205942,612.876398
3721.428717,-10807.006753,0.000000,536.266849
3721.429047,-8364.327145,-740.205942,-459.657299
3721.429376,-8438.347739,0.000000,0.000000
3721.429706,-10140.821405,0.000000,766.095498
3721.430036,-10214.842000,740.205942,76.609550
3721.430365,-8364.327145,0.000000,-1685.410096
3721.430695,-8956.491898,370.102971,-612.876398
3721.431025,-11695.253884,1554.432478,689.485948
3721.431354,-11621.233289,296.082377,842.705048
3721.431684,-8808.450710,-962.267725,-842.705048
3721.432014,-8068.244768,-444.123565,-919.314598
3721.432344,-9992.780217,0.000000,1072.533697
3721.432673,-10658.965565,148.041188,842.705048
3721.433003,-8660.409521,0.000000,-842.705048
3721.433333,-8512.368333,-444.123565,153.219100
3721.433662,-10510.924376,666.185348,1532.190996
3721.433992,-11547.212695,222.061783,1685.410096
3721.434322,-10066.800811,-222.061783,306.438199
3721.434651,-8734.430116,-148.041188,0.000000
3721.434981,-9770.718434,-74.020594,1762.019645
3721.435311,-10066.800811,0.000000,1532.190996
3721.435641,-9178.553681,-148.041188,0.000000
3721.435970,-9326.594869,-148.041188,-229.828649
3721.436300,-11325.150913,296.082377,842.705048
3721.436630,-11325.150913,0.000000,0.000000
3721.436959,-9178.553681,-666.185348,-306.438199
3721.437289,-7772.162391,-814.226536,0.000000
3721.437619,-9918.759623,-444.123565,1072.533697
3721.437948,-11325.150913,296.082377,1762.019645
3721.438278,-9326.594869,-296.082377,-766.095498
3721.438608,-8808.450710,-592.164754,-1378.971896
3721.438938,-10881.027347,370.102971,0.000000
3721.439267,-11621.233289,0.000000,153.219100
3721.439597,-9474.636058,-1036.288319,-919.314598
3721.439927,-7846.182985,-1332.370696,-1149.143247
3721.440256,-9178.553681,-1258.350101,383.047749
3721.440586,-10288.862594,-814.226536,612.876398
3721.440916,-8808.450710,-962.267725,-1762.019645
3721.441246,-7920.203579,-1480.411884,-1608.800546
3721.441575,-9992.780217,-518.144159,0.000000
3721.441905,-11399.171507,-592.164754,919.314598
3721.442235,-9770.718434,-1554.432478,-383.047749
3721.442564,-8290.306550,-666.185348,-766.095498
3721.442894,-9326.594869,-740.205942,459.657299
3721.443224,-10881.027347,-296.082377,1072.533697
3721.443553,-9178.553681,-222.061783,-612.876398
3721.443883,-8364.327145,0.000000,-612.876398
3721.444213,-10510.924376,814.226536,0.000000
3721.444543,-11843.295072,888.247130,153.219100
3721.444872,-10510.924376,0.000000,-1225.752797
3721.445202,-8512.368333,222.061783,-1532.190996
3721.445532,-8956.491898,0.000000,-229.828649
3721.445861,-10066.800811,74.020594,1302.362347
3721.446191,-9548.656652,370.102971,76.609550
3721.446521,-8660.409521,0.000000,-689.485948
3721.446850,-10066.800811,370.102971,459.657299
3721.447180,-11621.233289,814.226536,1762.019645
3721.447510,-10807.006753,148.041188,1762.019645
3721.447840,-9696.697840,222.061783,1225.752797
3721.448169,-9548.656652,74.020594,2604.724693
3721.448499,-10658.965565,222.061783,2221.676944
3721.448829,-9474.636058,370.102971,0.000000
3721.449158,-8068.244768,148.041188,-919.314598
3721.449488,-9326.594869,740.205942,766.095498
3721.449818,-11029.068536,1258.350101,1762.019645
3721.450147,-9918.759623,222.061783,306.438199
3721.450477,-8364.327145,444.123565,-153.219100
3721.450807,-8660.409521,0.000000,306.438199
3721.451137,-11251.130318,888.247130,2298.286494
3721.451466,-10584.944971,814.226536,1915.238745
3721.451796,-8438.347739,0.000000,689.485948
3721.452126,-9474.636058,296.082377,1378.971896
3721.452455,-10955.047942,1184.329507,2221.676944
3721.452785,-11029.068536,296.082377,1072.533697
3721.453115,-9326.594869,592.164754,-995.924147
3721.453444,-8586.388927,518.144159,-766.095498
3721.453774,-9548.656652,518.144159,536.266849
3721.454104,-9474.636058,888.247130,-153.219100
3721.454434,-8142.265362,740.205942,-1532.190996
3721.454763,-9548.656652,666.185348,-1532.190996
3721.455093,-11621.233289,1702.473667,-1072.533697
3721.455423,-11103.089130,296.082377,-689.485948
3721.455752,-8882.471304,0.000000,-689.485948
3721.456082,-8438.347739,74.020594,0.000000
3721.456412,-10214.842000,148.041188,1608.800546
3721.456741,-10140.821405,888.247130,919.314598
3721.457071,-8290.306550,0.000000,-536.266849
3721.457401,-9326.594869,222.061783,76.609550
3721.457731,-11399.171507,1258.350101,1072.533697
3721.458060,-11547.212695,888.247130,229.828649
3721.458390,-9178.553681,0.000000,-612.876398
3721.458720,-8068.244768,148.041188,-766.095498
3721.459049,-9918.759623,0.000000,612.876398
3721.459379,-10288.862594,888.247130,-536.266849
3721.459709,-9030.512492,0.000000,-842.705048
3721.460038,-9030.512492,74.020594,-153.219100
3721.460368,-11177.109724,962.267725,1455.581446
3721.460698,-11399.171507,296.082377,383.047749
3721.461028,-9474.636058,-148.041188,-383.047749
3721.461357,-9030.512492,148.041188,459.657299
3721.461687,-10510.924376,148.041188,2068.457845
3721.462017,-11103.089130,148.041188,1532.190996
3721.462346,-8364.327145,-370.102971,-306.438199
3721.462676,-8438.347739,-666.185348,306.438199
3721.463006,-11029.068536,444.123565,1838.629195
3721.463336,-11769.274478,-296.082377,1532.190996
3721.463665,-8660.409521,-962.267725,459.657299
3721.463995,-7698.141797,-666.185348,0.000000
3721.464325,-9178.553681,-1036.288319,1225.752797
3721.464654,-10658.965565,0.000000,1532.190996
3721.464984,-8882.471304,-888.247130,536.266849
3721.465314,-9474.636058,-74.020594,306.438199
3721.465643,-11103.089130,370.102971,689.485948
3721.465973,-11547.212695,0.000000,76.609550
3721.466303,-9400.615463,-1036.288319,-1072.533697
3721.466633,-8512.368333,-592.164754,-766.095498
3721.466962,-9622.677246,-1110.308913,766.095498
3721.467292,-10807.006753,-74.020594,1225.752797
3721.467622,-8882.471304,-592.164754,-612.876398
3721.467951,-8364.327145,-740.205942,-766.095498
3721.468281,-11251.130318,0.000000,153.219100
3721.468611,-11843.295072,-444.123565,612.876398
3721.468940,-9548.656652,-1480.411884,-536.266849
3721.469270,-8142.265362,-1036.288319,-1225.752797
3721.469600,-9844.739029,-962.267725,383.047749
3721.469930,-10807.006753,-370.102971,1149.143247
3721.470259,-8512.368333,-518.144159,-1225.752797
3721.470589,-8068.244768,-814.226536,-1608.800546
3721.470919,-10436.903782,740.205942,-995.924147
3721.471248,-11621.233289,148.041188,76.609550
3721.471578,-9474.636058,-666.185348,-842.705048
3721.471908,-8142.265362,0.000000,-612.876398
3721.472237,-9696.697840,222.061783,919.314598
3721.472567,-11251.130318,148.041188,1149.143247
3721.472897,-9622.677246,148.041188,-459.657299
3721.473227,-8586.388927,0.000000,-919.314598
3721.473556,-10140.821405,592.164754,1455.581446
3721.473886,-11991.336260,888.247130,1838.629195
3721.474216,-10140.821405,-370.102971,306.438199
3721.474545,-7920.203579,0.000000,-689.485948
3721.474875,-8808.450710,-222.061783,-306.438199
3721.475205,-10807.006753,296.082377,995.924147
3721.475534,-8956.491898,0.000000,153.219100
3721.475864,-7920.203579,74.020594,536.266849
3721.476194,-9770.718434,666.185348,1685.410096
3721.476524,-11917.315666,1110.308913,1838.629195
3721.476853,-10510.924376,0.000000,383.047749
3721.477183,-8438.347739,222.061783,0.000000
3721.477513,-10288.862594,888.247130,1149.143247
3721.477842,-11547.212695,888.247130,1991.848295
3721.478172,-9844.739029,518.144159,0.000000
3721.478502,-8142.265362,-222.061783,-995.924147
3721.478831,-9770.718434,296.082377,229.828649
3721.479161,-11991.336260,1110.308913,229.828649
3721.479491,-10066.800811,-370.102971,-306.438199
3721.479821,-7031.956449,0.000000,-919.314598
3721.480150,-7772.162391,0.000000,0.000000
3721.480480,-10955.047942,666.185348,1532.190996
3721.480810,-10140.821405,740.205942,0.000000
3721.481139,-8660.409521,666.185348,-1149.143247
3721.481469,-10584.944971,444.123565,-229.828649
3721.481799,-12213.398043,814.226536,1149.143247
3721.482128,-10362.883188,-296.082377,0.000000
3721.482458,-7698.141797,-370.102971,-1149.143247
3721.482788,-7846.182985,0.000000,-612.876398
3721.483118,-10288.862594,222.061783,1149.143247
3721.483447,-9770.718434,1110.308913,-383.047749
3721.483777,-8290.306550,888.247130,-842.705048
3721.484107,-9992.780217,1110.308913,-76.609550
3721.484436,-12361.439231,1776.494261,842.705048
3721.484766,-11621.233289,444.123565,-383.047749
3721.485096,-8586.388927,0.000000,-1149.143247
3721.485425,-8512.368333,0.000000,-536.266849
3721.485755,-10436.903782,222.061783,2068.457845
3721.486085,-10066.800811,592.164754,1225.752797
3721.486415,-8734.430116,666.185348,76.609550
3721.486744,-9474.636058,296.082377,0.000000
3721.487074,-11547.212695,1036.288319,995.924147
3721.487404,-11029.068536,0.000000,919.314598
3721.487733,-9400.615463,-148.041188,-229.828649
3721.488063,-8882.471304,148.041188,689.485948
3721.488393,-10140.821405,-814.226536,2145.067394
3721.488723,-10510.924376,74.020594,919.314598
3721.489052,-8216.285956,-296.082377,-536.266849
3721.489382,-9622.677246,-222.061783,76.609550
3721.489712,-11769.274478,444.123565,2068.457845
3721.490041,-11177.109724,-592.164754,1991.848295
3721.490371,-8438.347739,-814.226536,383.047749
3721.490701,-8068.244768,-296.082377,306.438199
3721.491030,-10214.842000,-370.102971,1302.362347
3721.491360,-10658.965565,148.041188,995.924147
3721.491690,-8882.471304,-518.144159,-842.705048
3721.492020,-8882.471304,-444.123565,0.000000
3721.492349,-10732.986159,0.000000,1225.752797
3721.492679,-11399.171507,-222.061783,1072.533697
3721.493009,-9474.636058,-888.247130,-536.266849
3721.493338,-8364.327145,-592.164754,-1072.533697
3721.493668,-9474.636058,-1036.288319,76.609550
3721.493998,-9992.780217,-370.102971,1072.533697
3721.494327,-8364.327145,-518.144159,-612.876398
3721.494657,-8808.450710,-888.247130,-459.657299
3721.494987,-10140.821405,74.020594,0.000000
3721.495317,-10510.924376,-444.123565,76.609550
3721.495646,-9252.574275,-1036.288319,-1149.143247
3721.495976,-8808.450710,-296.082377,-689.485948
3721.496306,-9992.780217,-518.144159,612.876398
3721.496635,-10658.965565,0.000000,1455.581446
3721.496965,-9326.594869,-444.123565,-766.095498
3721.497295,-9400.615463,0.000000,-1225.752797
3721.497624,-10732.986159,740.205942,-153.219100
3721.497954,-10658.965565,740.205942,0.000000
3721.498284,-8882.471304,-296.082377,-689.485948
3721.498614,-8660.409521,74.020594,-612.876398
3721.498943,-9844.739029,0.000000,919.314598
3721.499273,-11251.130318,592.164754,1302.362347
3721.499603,-10140.821405,296.082377,-766.095498
3721.499932,-9474.636058,74.020594,-766.095498
3721.500262,-10732.986159,592.164754,1378.971896
3721.500592,-10658.965565,740.205942,1455.581446
3721.500921,-9252.574275,0.000000,689.485948
3721.501251,-8586.388927,296.082377,0.000000
3721.501581,-10140.821405,592.164754,995.924147
3721.501911,-10955.047942,888.247130,1608.800546
3721.502240,-10066.800811,222.061783,153.219100
3721.502570,-7994.224174,-740.205942,153.219100
3721.502900,-9474.636058,0.000000,1072.533697
3721.503229,-10436.903782,1036.288319,2221.676944
3721.503559,-9474.636058,-74.020594,459.657299
3721.503889,-8290.306550,518.144159,-612.876398
3721.504218,-9178.553681,370.102971,76.609550
3721.504548,-11103.089130,814.226536,1532.190996
3721.504878,-10362.883188,814.226536,919.314598
3721.505208,-8734.430116,0.000000,229.828649
3721.505537,-9474.636058,296.082377,229.828649
3721.505867,-10214.842000,666.185348,153.219100
3721.506197,-9918.759623,370.102971,-1225.752797
3721.506526,-8512.368333,148.041188,-1532.190996
3721.506856,-9030.512492,666.185348,-1149.143247
3721.507186,-10362.883188,1036.288319,306.438199
3721.507515,-10362.883188,1406.391290,-1378.971896
3721.507845,-9104.533087,74.020594,-1302.362347
3721.508175,-10214.842000,222.061783,-689.485948
3721.508505,-11251.130318,814.226536,229.828649
3721.508834,-10362.883188,-222.061783,-306.438199
3721.509164,-8512.368333,0.000000,-306.438199
3721.509493,-8660.409521,148.041188,459.657299
3721.509823,-11103.089130,666.185348,1685.410096
3721.510153,-11399.171507,888.247130,76.609550
3721.510482,-9474.636058,222.061783,-1455.581446
3721.510812,-9918.759623,0.000000,-76.609550
3721.511142,-10658.965565,666.185348,995.924147
3721.511472,-9548.656652,0.000000,459.657299
3721.511801,-7920.203579,0.000000,-1225.752797
3721.512131,-8586.388927,74.020594,0.000000
3721.512461,-10807.006753,74.020594,766.095498
3721.512791,-11029.068536,222.061783,612.876398
3721.513120,-9474.636058,0.000000,0.000000
3721.513450,-9030.512492,-444.123565,1532.190996
3721.513780,-10584.944971,0.000000,2681.334243
3721.514110,-10288.862594,-592.164754,1608.800546
3721.514439,-8882.471304,-370.102971,76.609550
3721.514769,-8956.491898,-370.102971,0.000000
3721.515099,-11029.068536,0.000000,1915.238745
3721.515429,-11177.109724,444.123565,1608.800546
3721.515758,-9400.615463,-222.061783,76.609550
3721.516088,-8586.388927,-370.102971,-383.047749
3721.516418,-10288.862594,0.000000,766.095498
3721.516748,-10066.800811,-592.164754,919.314598
3721.517077,-8512.368333,-740.205942,383.047749
3721.517407,-7994.224174,0.000000,766.095498
3721.517737,-10066.800811,74.020594,1532.190996
3721.518067,-11399.171507,296.082377,612.876398
3721.518396,-10214.842000,-444.123565,-1225.752797
3721.518726,-9400.615463,-1036.288319,-383.047749
3721.519056,-10510.924376,-370.102971,1302.362347
3721.519386,-10288.862594,-592.164754,1149.143247
3721.519715,-8142.265362,-1184.329507,0.000000
3721.520045,-7550.100608,-592.164754,-1225.752797
3721.520375,-9770.718434,74.020594,0.000000
3721.520704,-11621.233289,74.020594,-536.266849
3721.521034,-9992.780217,-296.082377,-1685.410096
3721.521364,-8068.244768,-814.226536,-1455.581446
3721.521694,-9474.636058,0.000000,-459.657299
3721.522023,-10510.924376,-222.061783,-383.047749
3721.522353,-9474.636058,-740.205942,-995.924147
3721.522683,-8660.409521,0.000000,-1455.581446
3721.523013,-10584.944971,296.082377,-76.609550
3721.523342,-11621.233289,740.205942,612.876398
3721.523672,-9992.780217,74.020594,-842.705048
3721.524002,-8142.265362,-444.123565,-1149.143247
3721.524332,-9844.739029,592.164754,383.047749
3721.524661,-10436.903782,370.102971,153.219100
3721.524991,-9844.739029,0.000000,-536.266849
3721.525321,-8808.450710,666.185348,-306.438199
3721.525651,-9844.739029,370.102971,1149.143247
3721.525980,-11843.295072,962.267725,995.924147
3721.526310,-11029.068536,444.123565,-612.876398
3721.526640,-9252.574275,-296.082377,-153.219100
3721.526970,-9326.594869,74.020594,1378.971896
3721.527299,-10436.903782,518.144159,1915.238745
3721.527629,-9770.718434,296.082377,1149.143247
3721.527959,-8956.491898,888.247130,0.000000
3721.528289,-9252.574275,592.164754,76.609550
3721.528618,-10584.944971,592.164754,919.314598
3721.528948,-10140.821405,370.102971,459.657299
3721.529278,-9104.533087,0.000000,995.924147
3721.529608,-9770.718434,0.000000,2145.067394
3721.529937,-10510.924376,222.061783,2451.505594
3721.530267,-9252.574275,-888.247130,1685.410096
3721.530597,-7772.162391,148.041188,689.485948
3721.530926,-9252.574275,888.247130,1302.362347
3721.531256,-11103.089130,1184.329507,2451.505594
3721.531586,-10066.800811,814.226536,919.314598
3721.531916,-8290.306550,296.082377,-766.095498
3721.532245,-9844.739029,814.226536,-306.438199
3721.532575,-11695.253884,888.247130,689.485948
3721.532905,-10362.883188,74.020594,383.047749
3721.533235,-7994.224174,370.102971,0.000000
3721.533564,-8438.347739,74.020594,0.000000
3721.533894,-10732.986159,592.164754,919.314598
3721.534224,-10658.965565,518.144159,0.000000
3721.534554,-9104.533087,-74.020594,-383.047749
3721.534883,-9770.718434,296.082377,229.828649
3721.535213,-10658.965565,370.102971,1072.533697
3721.535543,-9770.718434,-740.205942,459.657299
3721.535873,-7994.224174,74.020594,-383.047749
3721.536202,-9104.533087,370.102971,-919.314598
3721.536532,-11103.089130,148.041188,-153.219100
3721.536862,-10510.924376,666.185348,-919.314598
3721.537192,-8660.409521,0.000000,-1072.533697
3721.537521,-9622.677246,296.082377,-459.657299
3721.537851,-11843.295072,888.247130,842.705048
3721.538181,-10955.047942,-740.205942,306.438199
3721.538511,-8734.430116,-592.164754,-995.924147
3721.538840,-8660.409521,-370.102971,0.000000
3721.539170,-10436.903782,222.061783,1149.143247
3721.539500,-10955.047942,666.185348,383.047749
3721.539830,-9178.553681,0.000000,-383.047749
3721.540159,-9400.615463,74.020594,229.828649
3721.540489,-11177.109724,296.082377,536.266849
3721.540819,-11251.130318,-740.205942,153.219100
3721.541148,-9474.636058,-444.123565,0.000000
3721.541478,-8882.471304,-370.102971,306.438199
3721.541808,-9918.759623,-666.185348,1072.533697
3721.542138,-9770.718434,-296.082377,-229.828649
3721.542467,-8512.368333,-740.205942,-1302.362347
3721.542797,-8956.491898,-444.123565,-383.047749
3721.543127,-10584.944971,222.061783,1072.533697
3721.543457,-10584.944971,-666.185348,1302.362347
3721.543786,-8956.491898,-888.247130,919.314598
3721.544116,-8364.327145,-222.061783,0.000000
3721.544446,-9844.739029,-74.020594,383.047749
3721.544776,-11029.068536,222.061783,0.000000
3721.545105,-9474.636058,-370.102971,-842.705048
3721.545435,-9918.759623,-444.123565,-306.438199
3721.545765,-10955.047942,0.000000,919.314598
3721.546095,-11103.089130,-222.061783,229.828649
3721.546424,-8808.450710,-1036.288319,-919.314598
3721.546754,-7772.162391,-444.123565,-1378.971896
3721.547084,-9474.636058,-296.082377,0.000000
3721.547414,-10584.944971,0.000000,1072.533697
3721.547743,-9474.636058,0.000000,0.000000
3721.548073,-9474.636058,-666.185348,-995.924147
3721.548403,-10807.006753,0.000000,0.000000
3721.548733,-10510.924376,-740.205942,459.657299
3721.549062,-8808.450710,-1036.288319,306.438199
3721.549392,-8364.327145,-444.123565,76.609550
3721.549722,-9770.718434,-370.102971,1072.533697
3721.550052,-10436.903782,148.041188,842.705048
3721.550381,-9474.636058,-222.061783,-995.924147
3721.550711,-9400.615463,-296.082377,-1225.752797
3721.551041,-10955.047942,370.102971,229.828649
3721.551370,-10584.944971,0.000000,689.485948
3721.551700,-8290.306550,-666.185348,0.000000
3721.552030,-7994.224174,222.061783,306.438199
3721.552360,-10066.800811,370.102971,1072.533697
3721.552689,-11399.171507,1036.288319,689.485948
3721.553019,-9844.739029,740.205942,-1149.143247
3721.553349,-9178.553681,0.000000,0.000000
3721.553679,-10732.986159,666.185348,1915.238745
3721.554008,-11695.253884,296.082377,2145.067394
3721.554338,-10066.800811,-518.144159,1532.190996
3721.554668,-7994.224174,296.082377,459.657299
3721.554998,-8586.388927,74.020594,842.705048
3721.555327,-9844.739029,814.226536,1685.410096
3721.555657,-9696.697840,518.144159,842.705048
3721.555987,-9474.636058,518.144159,229.828649
3721.556317,-10510.924376,740.205942,1302.362347
3721.556646,-11473.192101,1110.308913,1762.019645
3721.556976,-10140.821405,0.000000,995.924147
3721.557306,-9030.512492,74.020594,536.266849
3721.557636,-9474.636058,0.000000,919.314598
3721.557965,-10066.800811,444.123565,1455.581446
3721.558295,-9474.636058,814.226536,76.609550
3721.558625,-8882.471304,518.144159,76.609550
3721.558955,-10436.903782,1406.391290,153.219100
3721.559284,-11177.109724,1406.391290,0.000000
3721.559614,-10288.862594,518.144159,-842.705048
3721.559944,-9548.656652,740.205942,-536.266849
3721.560274,-9474.636058,370.102971,153.219100
3721.560603,-10214.842000,888.247130,612.876398
3721.560933,-9030.512492,814.226536,-1685.410096
3721.561263,-8882.471304,740.205942,-2068.457845
3721.561592,-10658.965565,1332.370696,-1225.752797
3721.561922,-10955.047942,740.205942,76.609550
3721.562252,-9104.533087,0.000000,0.000000
3721.562582,-8290.306550,0.000000,612.876398
3721.562911,-9918.759623,74.020594,1685.410096
3721.563241,-10658.965565,222.061783,1838.629195
3721.563571,-9104.533087,518.144159,-1302.362347
3721.563901,-8512.368333,0.000000,-1991.848295
3721.564230,-10140.821405,148.041188,-919.314598
3721.564560,-11325.150913,370.102971,1378.971896
3721.564890,-9770.718434,-740.205942,766.095498
3721.565220,-7994.224174,-518.144159,0.000000
3721.565549,-8734.430116,0.000000,306.438199
3721.565879,-10584.944971,0.000000,1072.533697
3721.566209,-9992.780217,518.144159,0.000000
3721.566539,-9030.512492,0.000000,306.438199
3721.566868,-10658.965565,74.020594,1225.752797
3721.567198,-11843.295072,148.041188,1685.410096
3721.567528,-10658.965565,-814.226536,76.609550
3721.567858,-8882.471304,-1184.329507,0.000000
3721.568187,-9030.512492,-444.123565,306.438199
3721.568517,-9844.739029,-444.123565,2374.896044
3721.568847,-9474.636058,148.041188,1378.971896
3721.569177,-8734.430116,-148.041188,76.609550
3721.569506,-10214.842000,222.061783,306.438199
3721.569836,-11473.192101,370.102971,766.095498
3721.570166,-10807.006753,-814.226536,-76.609550
3721.570495,-8586.388927,-1110.308913,-306.438199
3721.570825,-8438.347739,-814.226536,306.438199
3721.571155,-9844.739029,-814.226536,1685.410096
3721.571485,-9844.739029,0.000000,306.438199
3721.571814,-8956.491898,-666.185348,-689.485948
3721.572144,-9622.677246,-814.226536,-229.828649
3721.572474,-11251.130318,-296.082377,689.485948
3721.572804,-10881.027347,-1776.494261,459.657299
3721.573133,-8660.409521,-1776.494261,76.609550
3721.573463,-8438.347739,-1776.494261,76.609550
3721.573793,-9474.636058,-1258.350101,689.485948
3721.574123,-9252.574275,-222.061783,-1072.533697
