#time,accel_x,accel_y,accel_z
3674.925885,-10214.842000,-2220.617826,-3524.039291
3674.926215,-9622.677246,-1184.329507,-1915.238745
3674.926545,-10214.842000,-1480.411884,76.609550
3674.926875,-10362.883188,-1332.370696,-612.876398
3674.927206,-9252.574275,-1258.350101,-1302.362347
3674.927536,-9252.574275,-814.226536,-2451.505594
3674.927866,-10066.800811,-444.123565,-2298.286494
3674.928196,-11029.068536,-814.226536,-995.924147
3674.928527,-9844.739029,0.000000,842.705048
3674.928857,-9400.615463,-444.123565,306.438199
3674.929187,-9622.677246,444.123565,0.000000
3674.929517,-10214.842000,-370.102971,-306.438199
3674.929848,-9770.718434,518.144159,-383.047749
3674.930178,-9104.533087,74.020594,-153.219100
3674.930508,-9696.697840,814.226536,-689.485948
3674.930839,-9696.697840,518.144159,-229.828649
3674.931169,-9474.636058,1110.308913,-612.876398
3674.931499,-9548.656652,296.082377,-1608.800546
3674.931829,-10288.862594,1184.329507,-1762.019645
3674.932160,-10140.821405,0.000000,-2145.067394
3674.932490,-9844.739029,740.205942,-1072.533697
3674.932820,-9326.594869,1036.288319,0.000000
3674.933150,-11621.233289,1258.350101,-766.095498
3674.933481,-11177.109724,1036.288319,-2374.896044
3674.933811,-8808.450710,0.000000,-2451.505594
3674.934141,-9030.512492,-74.020594,-2987.772442
3674.934472,-10066.800811,-296.082377,-2987.772442
3674.934802,-9844.739029,-740.205942,-1149.143247
3674.935132,-8438.347739,-148.041188,-76.609550
3674.935462,-8216.285956,-370.102971,-689.485948
3674.935793,-9474.636058,-518.144159,0.000000
3674.936123,-11029.068536,-148.041188,-842.705048
3674.936453,-11769.274478,-296.082377,-2374.896044
3674.936783,-11547.212695,-666.185348,-2911.162892
3674.937114,-10955.047942,-1184.329507,-3447.429741
3674.937444,-10362.883188,-1924.535449,-3907.087040
3674.937774,-9548.656652,-2886.803174,-4366.744339
3674.938104,-8438.347739,-2886.803174,-3600.648841
3674.938435,-7994.224174,-2886.803174,-2681.334243
3674.938765,-9474.636058,-2072.576638,-2911.162892
3674.939095,-9992.780217,-2368.659014,-2987.772442
3674.939426,-10584.944971,-3108.864956,-4213.525239
3674.939756,-10955.047942,-3330.926739,-4519.963438
3674.940086,-10288.862594,-5107.421000,-2987.772442
3674.940416,-9474.636058,-5403.503377,-2145.067394
3674.940747,-8586.388927,-5699.585753,-2298.286494
3674.941077,-8216.285956,-5551.544565,-2451.505594
3674.941407,-8364.327145,-4885.359217,-2681.334243
3674.941737,-9326.594869,-4071.132681,-2834.553343
3674.942068,-10807.006753,-3552.988522,-2374.896044
3674.942398,-12213.398043,-3108.864956,-2145.067394
3674.942728,-12139.377449,-3034.844362,-4060.306139
3674.943059,-10955.047942,-4811.338623,-5209.449386
3674.943389,-9326.594869,-6291.750507,-5362.668486
3674.943719,-8290.306550,-6883.915261,-2451.505594
3674.944049,-8216.285956,-6365.771101,-1378.971896
3674.944380,-7920.203579,-6069.688724,-1455.581446
3674.944710,-7772.162391,-5551.544565,0.000000
3674.945040,-9622.677246,-3849.070898,612.876398
3674.945370,-12139.377449,-3034.844362,76.609550
3674.945701,-13619.789333,-3552.988522,-1991.848295
3674.946031,-11917.315666,-4145.153275,-3524.039291
3674.946361,-10807.006753,-5255.462188,-3983.696590
3674.946691,-9622.677246,-5995.668130,-2681.334243
3674.947022,-8438.347739,-6069.688724,-2068.457845
3674.947352,-7476.080014,-5551.544565,-1302.362347
3674.947682,-6957.935855,-4219.173869,-1149.143247
3674.948012,-7994.224174,-3330.926739,-766.095498
3674.948343,-9696.697840,-2886.803174,229.828649
3674.948673,-11621.233289,-2072.576638,1455.581446
3674.949003,-11843.295072,-2220.617826,1149.143247
3674.949333,-11769.274478,-2368.659014,-383.047749
3674.949663,-10066.800811,-2812.782580,-1838.629195
3674.949994,-9252.574275,-2960.823768,-1915.238745
3674.950324,-9548.656652,-2146.597232,-1378.971896
3674.950654,-9622.677246,-1998.556043,-1532.190996
3674.950984,-9548.656652,-1776.494261,-1225.752797
3674.951315,-8882.471304,-1332.370696,-1225.752797
3674.951645,-9030.512492,-962.267725,306.438199
3674.951975,-9548.656652,-740.205942,842.705048
3674.952305,-9178.553681,-666.185348,-919.314598
3674.952635,-8586.388927,-296.082377,-2298.286494
3674.952966,-9252.574275,0.000000,-383.047749
3674.953296,-11103.089130,518.144159,1302.362347
3674.953626,-11621.233289,740.205942,1762.019645
3674.953956,-11251.130318,1110.308913,766.095498
3674.954286,-10955.047942,1332.370696,-1072.533697
3674.954617,-10807.006753,1110.308913,-1685.410096
3674.954947,-10362.883188,814.226536,-2221.676944
3674.955277,-8882.471304,296.082377,-1762.019645
3674.955607,-7698.141797,1184.329507,-76.609550
3674.955937,-8734.430116,1776.494261,842.705048
3674.956268,-9696.697840,2146.597232,229.828649
3674.956598,-9104.533087,2220.617826,-2068.457845
3674.956928,-9326.594869,2442.679609,-3447.429741
3674.957258,-11251.130318,1850.514855,-2221.676944
3674.957589,-11251.130318,1998.556043,1072.533697
3674.957919,-10288.862594,1850.514855,3447.429741
3674.958249,-10066.800811,1998.556043,2374.896044
3674.958579,-9400.615463,1850.514855,-995.924147
3674.958909,-9474.636058,1110.308913,-2987.772442
3674.959240,-9844.739029,1406.391290,-2451.505594
3674.959570,-9474.636058,1628.453072,1072.533697
3674.959900,-9696.697840,2072.576638,2528.115143
3674.960230,-8290.306550,2664.741391,383.047749
3674.960560,-7031.956449,2664.741391,-2221.676944
3674.960891,-8660.409521,2664.741391,-2451.505594
3674.961221,-11695.253884,2886.803174,-1072.533697
3674.961551,-12065.356855,2146.597232,2757.943793
3674.961881,-11325.150913,2294.638420,3140.991542
3674.962211,-9844.739029,1702.473667,1838.629195
3674.962542,-9992.780217,1110.308913,-383.047749
3674.962872,-10807.006753,740.205942,-2681.334243
3674.963202,-10066.800811,74.020594,-1915.238745
3674.963532,-8956.491898,1110.308913,842.705048
3674.963863,-8512.368333,2220.617826,2681.334243
3674.964193,-8290.306550,2146.597232,2604.724693
3674.964523,-9178.553681,1776.494261,919.314598
3674.964853,-11177.109724,1702.473667,-1072.533697
3674.965183,-12361.439231,1184.329507,-383.047749
3674.965514,-12287.418637,1110.308913,1302.362347
3674.965844,-10732.986159,222.061783,2068.457845
3674.966174,-9326.594869,-592.164754,2298.286494
3674.966504,-9696.697840,-1184.329507,842.705048
3674.966834,-9918.759623,-1258.350101,-306.438199
3674.967165,-9474.636058,-1258.350101,0.000000
3674.967495,-9474.636058,-518.144159,1378.971896
3674.967825,-8660.409521,-370.102971,3140.991542
3674.968155,-8586.388927,-592.164754,3217.601092
3674.968485,-8956.491898,-740.205942,1225.752797
3674.968816,-9770.718434,-1184.329507,-229.828649
3674.969146,-10436.903782,-1110.308913,-383.047749
3674.969476,-11177.109724,-888.247130,-76.609550
3674.969806,-10436.903782,-1406.391290,153.219100
3674.970137,-9622.677246,-1998.556043,-612.876398
3674.970467,-10288.862594,-2442.679609,-689.485948
3674.970797,-9844.739029,-2442.679609,-842.705048
3674.971127,-9104.533087,-2072.576638,-995.924147
3674.971457,-7994.224174,-2220.617826,459.657299
3674.971788,-7550.100608,-1776.494261,1455.581446
3674.972118,-8882.471304,-1036.288319,1072.533697
3674.972448,-9696.697840,-1628.453072,-459.657299
3674.972778,-10436.903782,-1480.411884,-612.876398
3674.973108,-11547.212695,-1554.432478,-612.876398
3674.973439,-11325.150913,-1406.391290,0.000000
3674.973769,-10510.924376,-2072.576638,0.000000
3674.974099,-10066.800811,-2072.576638,-995.924147
3674.974429,-9918.759623,-2442.679609,-1302.362347
3674.974759,-9992.780217,-1850.514855,-766.095498
3674.975090,-9252.574275,-1628.453072,0.000000
3674.975420,-7698.141797,-1110.308913,995.924147
3674.975750,-8142.265362,-592.164754,229.828649
3674.976080,-9030.512492,-444.123565,-919.314598
3674.976411,-9770.718434,-518.144159,-995.924147
3674.976741,-10881.027347,74.020594,-612.876398
3674.977071,-11177.109724,74.020594,459.657299
3674.977401,-11547.212695,74.020594,689.485948
3674.977731,-11399.171507,-666.185348,-919.314598
3674.978062,-9992.780217,-1480.411884,-1302.362347
3674.978392,-8956.491898,-1406.391290,-689.485948
3674.978722,-9030.512492,-592.164754,0.000000
3674.979052,-7772.162391,-222.061783,766.095498
3674.979382,-7105.977043,518.144159,1455.581446
3674.979713,-7772.162391,888.247130,842.705048
3674.980043,-9474.636058,1480.411884,76.609550
3674.980373,-10807.006753,1554.432478,-229.828649
3674.980703,-11103.089130,1406.391290,-76.609550
3674.981033,-10510.924376,1258.350101,612.876398
3674.981364,-10288.862594,814.226536,76.609550
3674.981694,-9770.718434,296.082377,-766.095498
3674.982024,-9548.656652,148.041188,-689.485948
3674.982354,-9474.636058,740.205942,0.000000
3674.982685,-8734.430116,814.226536,1072.533697
3674.983015,-7772.162391,962.267725,1838.629195
3674.983345,-7624.121203,1628.453072,1455.581446
3674.983675,-8586.388927,1924.535449,842.705048
3674.984005,-9992.780217,2294.638420,1302.362347
3674.984336,-11177.109724,2738.761985,995.924147
3674.984666,-11177.109724,2960.823768,459.657299
3674.984996,-11769.274478,2220.617826,-306.438199
3674.985326,-11917.315666,1628.453072,-153.219100
3674.985656,-11695.253884,962.267725,-383.047749
3674.985987,-10584.944971,1406.391290,153.219100
3674.986317,-8512.368333,1036.288319,383.047749
3674.986647,-7402.059420,1332.370696,1608.800546
3674.986977,-7624.121203,1776.494261,2145.067394
3674.987307,-8512.368333,1850.514855,1532.190996
3674.987638,-10066.800811,2886.803174,2374.896044
3674.987968,-11695.253884,3034.844362,1991.848295
3674.988298,-11621.233289,2442.679609,1302.362347
3674.988628,-11695.253884,1702.473667,76.609550
3674.988958,-11695.253884,1332.370696,-689.485948
3674.989289,-11251.130318,-518.144159,-766.095498
3674.989619,-9918.759623,-1036.288319,153.219100
3674.989949,-8438.347739,-592.164754,995.924147
3674.990279,-6513.812290,-740.205942,2145.067394
3674.990610,-7476.080014,-148.041188,2374.896044
3674.990940,-8068.244768,296.082377,1072.533697
3674.991270,-8956.491898,888.247130,383.047749
3674.991600,-10658.965565,1258.350101,536.266849
3674.991930,-11473.192101,1406.391290,76.609550
3674.992261,-11325.150913,740.205942,0.000000
3674.992591,-11473.192101,-296.082377,-1608.800546
3674.992921,-11103.089130,-1332.370696,-3217.601092
3674.993251,-11251.130318,-1628.453072,-2451.505594
3674.993581,-10214.842000,-1480.411884,-1685.410096
3674.993912,-8364.327145,-1702.473667,0.000000
3674.994242,-7254.018232,-1184.329507,842.705048
3674.994572,-7920.203579,-740.205942,76.609550
3674.994902,-8660.409521,-518.144159,-229.828649
3674.995232,-9622.677246,0.000000,0.000000
3674.995563,-10807.006753,592.164754,229.828649
3674.995893,-11547.212695,444.123565,919.314598
3674.996223,-11843.295072,-444.123565,306.438199
3674.996553,-11843.295072,-1702.473667,-1302.362347
3674.996884,-11103.089130,-2368.659014,-1302.362347
3674.997214,-10510.924376,-2442.679609,-842.705048
3674.997544,-8660.409521,-2738.761985,383.047749
3674.997874,-6661.853478,-2072.576638,1685.410096
3674.998204,-6809.894666,-1110.308913,1915.238745
3674.998535,-8586.388927,-666.185348,842.705048
3674.998865,-9918.759623,0.000000,229.828649
3674.999195,-10436.903782,148.041188,229.828649
3674.999525,-10362.883188,74.020594,1149.143247
3674.999855,-11325.150913,-370.102971,842.705048
3675.000186,-11769.274478,-1258.350101,459.657299
3675.000516,-11029.068536,-1924.535449,-383.047749
3675.000846,-10362.883188,-2368.659014,-1225.752797
3675.001176,-9548.656652,-1850.514855,-536.266849
3675.001506,-8068.244768,-1998.556043,1149.143247
3675.001837,-6735.874072,-1184.329507,1378.971896
3675.002167,-6809.894666,-666.185348,842.705048
3675.002497,-8290.306550,74.020594,536.266849
3675.002827,-10362.883188,666.185348,766.095498
3675.003158,-10955.047942,962.267725,766.095498
3675.003488,-11251.130318,740.205942,536.266849
3675.003818,-12509.480420,0.000000,536.266849
3675.004148,-11843.295072,-962.267725,0.000000
3675.004478,-11769.274478,-1332.370696,842.705048
3675.004809,-10362.883188,-1110.308913,1149.143247
3675.005139,-8364.327145,-814.226536,1915.238745
3675.005469,-7179.997637,0.000000,1072.533697
3675.005799,-7179.997637,592.164754,459.657299
3675.006129,-8142.265362,1184.329507,1072.533697
3675.006460,-9918.759623,1924.535449,1149.143247
3675.006790,-10881.027347,2590.720797,612.876398
3675.007120,-11103.089130,2220.617826,-153.219100
3675.007450,-12361.439231,1554.432478,-995.924147
3675.007780,-12065.356855,666.185348,-1991.848295
3675.008111,-11991.336260,-222.061783,-1915.238745
3675.008441,-10362.883188,74.020594,-459.657299
3675.008771,-8364.327145,-296.082377,766.095498
3675.009101,-7105.977043,518.144159,1532.190996
3675.009432,-7476.080014,1036.288319,919.314598
3675.009762,-7550.100608,1036.288319,0.000000
3675.010092,-9326.594869,2072.576638,-76.609550
3675.010422,-10658.965565,2590.720797,0.000000
3675.010752,-10510.924376,2368.659014,76.609550
3675.011083,-10807.006753,1850.514855,-766.095498
3675.011413,-11325.150913,740.205942,-2068.457845
3675.011743,-11547.212695,0.000000,-2451.505594
3675.012073,-11769.274478,-222.061783,-1532.190996
3675.012403,-9770.718434,-518.144159,-459.657299
3675.012734,-7994.224174,-296.082377,766.095498
3675.013064,-7328.038826,0.000000,1149.143247
3675.013394,-7772.162391,444.123565,612.876398
3675.013724,-8438.347739,1258.350101,383.047749
3675.014054,-9622.677246,1776.494261,0.000000
3675.014385,-9992.780217,1776.494261,0.000000
3675.014715,-10510.924376,1554.432478,-383.047749
3675.015045,-11843.295072,888.247130,-1072.533697
3675.015375,-11547.212695,-518.144159,-1072.533697
3675.015706,-11695.253884,-962.267725,-459.657299
3675.016036,-10881.027347,-1258.350101,229.828649
3675.016366,-8290.306550,-1776.494261,1455.581446
3675.016696,-6661.853478,-1332.370696,1532.190996
3675.017026,-6883.915261,-814.226536,1225.752797
3675.017357,-7994.224174,74.020594,612.876398
3675.017687,-9474.636058,1332.370696,842.705048
3675.018017,-9474.636058,1332.370696,1225.752797
3675.018347,-10436.903782,1480.411884,1072.533697
3675.018677,-11621.233289,666.185348,536.266849
3675.019008,-11991.336260,-74.020594,-536.266849
3675.019338,-12139.377449,-1110.308913,-459.657299
3675.019668,-10955.047942,-1110.308913,-536.266849
3675.019998,-8882.471304,-1850.514855,229.828649
3675.020328,-7402.059420,-1628.453072,1685.410096
3675.020659,-7179.997637,-1554.432478,2068.457845
3675.020989,-7994.224174,-888.247130,1838.629195
3675.021319,-9326.594869,148.041188,2068.457845
3675.021649,-9992.780217,962.267725,1302.362347
3675.021980,-9548.656652,962.267725,919.314598
3675.022310,-11029.068536,666.185348,612.876398
3675.022640,-11695.253884,148.041188,-153.219100
3675.022970,-12879.583391,-666.185348,-383.047749
3675.023300,-11991.336260,-888.247130,0.000000
3675.023631,-10066.800811,-1332.370696,689.485948
3675.023961,-8290.306550,-1036.288319,1685.410096
3675.024291,-8586.388927,-888.247130,1378.971896
3675.024621,-8882.471304,-370.102971,1072.533697
3675.024951,-9030.512492,666.185348,1455.581446
3675.025282,-9474.636058,1332.370696,919.314598
3675.025612,-10140.821405,1776.494261,536.266849
3675.025942,-11029.068536,1332.370696,0.000000
3675.026272,-11547.212695,518.144159,-612.876398
3675.026602,-11399.171507,-888.247130,-1302.362347
3675.026933,-11843.295072,-888.247130,-1455.581446
3675.027263,-10732.986159,-1184.329507,-306.438199
3675.027593,-8364.327145,-1036.288319,306.438199
3675.027923,-7550.100608,-740.205942,306.438199
3675.028253,-7772.162391,-296.082377,-306.438199
3675.028584,-8808.450710,370.102971,0.000000
3675.028914,-9992.780217,1110.308913,0.000000
3675.029244,-9622.677246,1406.391290,842.705048
3675.029574,-9252.574275,888.247130,153.219100
3675.029905,-10214.842000,296.082377,-766.095498
3675.030235,-10955.047942,-370.102971,-1608.800546
3675.030565,-11843.295072,-444.123565,-1455.581446
3675.030895,-11769.274478,-222.061783,-1608.800546
3675.031225,-9474.636058,-962.267725,-689.485948
3675.031556,-8290.306550,-888.247130,0.000000
3675.031886,-7920.203579,-1036.288319,-612.876398
3675.032216,-8068.244768,-296.082377,0.000000
3675.032546,-8660.409521,444.123565,0.000000
3675.032876,-9104.533087,1332.370696,459.657299
3675.033207,-9178.553681,1332.370696,995.924147
3675.033537,-10436.903782,1184.329507,995.924147
3675.033867,-11399.171507,518.144159,-383.047749
3675.034197,-12657.521608,-296.082377,-612.876398
3675.034527,-12287.418637,-444.123565,-842.705048
3675.034858,-10140.821405,-1628.453072,0.000000
3675.035188,-7698.141797,-1702.473667,1378.971896
3675.035518,-7179.997637,-1258.350101,919.314598
3675.035848,-7698.141797,-370.102971,766.095498
3675.036179,-8364.327145,740.205942,689.485948
3675.036509,-9622.677246,1406.391290,612.876398
3675.036839,-9252.574275,1998.556043,919.314598
3675.037169,-10658.965565,1776.494261,1072.533697
3675.037499,-11843.295072,1036.288319,153.219100
3675.037830,-11843.295072,0.000000,0.000000
3675.038160,-10955.047942,-74.020594,-383.047749
3675.038490,-9918.759623,-518.144159,-153.219100
3675.038820,-8660.409521,-814.226536,612.876398
3675.039150,-8512.368333,-444.123565,1532.190996
3675.039481,-9030.512492,0.000000,1225.752797
3675.039811,-8808.450710,370.102971,766.095498
3675.040141,-9474.636058,1184.329507,766.095498
3675.040471,-9400.615463,1332.370696,995.924147
3675.040801,-9252.574275,962.267725,1915.238745
3675.041132,-10732.986159,962.267725,1532.190996
3675.041462,-11917.315666,222.061783,1225.752797
3675.041792,-12583.501014,296.082377,919.314598
3675.042122,-11399.171507,-148.041188,766.095498
3675.042453,-9770.718434,-148.041188,766.095498
3675.042783,-9474.636058,0.000000,766.095498
3675.043113,-9474.636058,0.000000,536.266849
3675.043443,-9252.574275,296.082377,689.485948
3675.043773,-9178.553681,1184.329507,459.657299
3675.044104,-9030.512492,1406.391290,766.095498
3675.044434,-8808.450710,1406.391290,1072.533697
3675.044764,-10066.800811,1258.350101,459.657299
3675.045094,-10732.986159,444.123565,-383.047749
3675.045424,-11843.295072,0.000000,-459.657299
3675.045755,-11621.233289,0.000000,-536.266849
3675.046085,-9918.759623,-740.205942,842.705048
3675.046415,-8882.471304,-666.185348,1991.848295
3675.046745,-9178.553681,-814.226536,612.876398
3675.047075,-8882.471304,-962.267725,-536.266849
3675.047406,-8882.471304,-148.041188,-612.876398
3675.047736,-8956.491898,740.205942,229.828649
3675.048066,-8512.368333,518.144159,0.000000
3675.048396,-9178.553681,666.185348,76.609550
3675.048727,-9326.594869,222.061783,-919.314598
3675.049057,-10510.924376,148.041188,-1685.410096
3675.049387,-11695.253884,444.123565,-1685.410096
3675.049717,-10881.027347,-444.123565,-1378.971896
3675.050047,-10362.883188,-592.164754,-229.828649
3675.050377,-9474.636058,-814.226536,0.000000
3675.050707,-9326.594869,-1184.329507,-919.314598
3675.051038,-9178.553681,-740.205942,-536.266849
3675.051368,-8882.471304,0.000000,0.000000
3675.051698,-8438.347739,444.123565,229.828649
3675.052028,-8882.471304,962.267725,842.705048
3675.052358,-9992.780217,148.041188,-229.828649
3675.052688,-10732.986159,222.061783,-842.705048
3675.053018,-11547.212695,0.000000,-1149.143247
3675.053348,-11325.150913,-444.123565,-306.438199
3675.053678,-10140.821405,-1036.288319,612.876398
3675.054008,-9474.636058,-1406.391290,1072.533697
3675.054338,-9252.574275,-1628.453072,306.438199
3675.054669,-8364.327145,-814.226536,536.266849
3675.054999,-8438.347739,-444.123565,689.485948
3675.055329,-8882.471304,592.164754,1455.581446
3675.055659,-8660.409521,592.164754,1838.629195
3675.055989,-9844.739029,888.247130,536.266849
3675.056319,-10510.924376,592.164754,-153.219100
3675.056649,-11917.315666,518.144159,0.000000
3675.056979,-12139.377449,0.000000,0.000000
3675.057309,-11251.130318,-74.020594,383.047749
3675.057639,-9400.615463,-814.226536,1149.143247
3675.057969,-8512.368333,-1184.329507,383.047749
3675.058300,-8364.327145,-888.247130,459.657299
3675.058630,-8956.491898,-518.144159,1455.581446
3675.058960,-9252.574275,370.102971,1532.190996
3675.059290,-8586.388927,814.226536,1991.848295
3675.059620,-9474.636058,666.185348,1838.629195
3675.059950,-10214.842000,444.123565,689.485948
3675.060280,-11103.089130,222.061783,1072.533697
3675.060610,-11547.212695,444.123565,306.438199
3675.060940,-10436.903782,0.000000,689.485948
3675.061270,-9548.656652,-148.041188,1225.752797
3675.061600,-9770.718434,-74.020594,536.266849
3675.061931,-9844.739029,0.000000,383.047749
3675.062261,-9622.677246,148.041188,229.828649
3675.062591,-9104.533087,888.247130,76.609550
3675.062921,-8142.265362,814.226536,612.876398
3675.063251,-8660.409521,962.267725,995.924147
3675.063581,-9548.656652,888.247130,459.657299
3675.063911,-10807.006753,666.185348,-306.438199
3675.064241,-11621.233289,518.144159,-1149.143247
3675.064571,-11325.150913,444.123565,-842.705048
3675.064901,-9918.759623,0.000000,459.657299
3675.065231,-9548.656652,-222.061783,0.000000
3675.065562,-9844.739029,-592.164754,-536.266849
3675.065892,-9252.574275,-148.041188,-153.219100
3675.066222,-9104.533087,370.102971,0.000000
3675.066552,-8438.347739,444.123565,76.609550
3675.066882,-8364.327145,740.205942,153.219100
3675.067212,-9400.615463,888.247130,-842.705048
3675.067542,-9992.780217,444.123565,-995.924147
3675.067872,-11177.109724,518.144159,-1762.019645
3675.068202,-11029.068536,0.000000,-1225.752797
3675.068532,-10140.821405,-296.082377,-459.657299
3675.068862,-9696.697840,-666.185348,0.000000
3675.069193,-9696.697840,-1406.391290,0.000000
3675.069523,-9474.636058,-962.267725,76.609550
3675.069853,-9474.636058,-740.205942,766.095498
3675.070183,-9474.636058,0.000000,842.705048
3675.070513,-8660.409521,0.000000,1608.800546
3675.070843,-9252.574275,444.123565,306.438199
3675.071173,-9992.780217,296.082377,76.609550
3675.071503,-11103.089130,518.144159,-229.828649
3675.071833,-11325.150913,814.226536,-766.095498
3675.072163,-10288.862594,0.000000,-306.438199
3675.072493,-9548.656652,-592.164754,229.828649
3675.072824,-9474.636058,-1184.329507,76.609550
3675.073154,-9622.677246,-1184.329507,0.000000
3675.073484,-9400.615463,-962.267725,459.657299
3675.073814,-9252.574275,-222.061783,612.876398
3675.074144,-8512.368333,0.000000,1149.143247
3675.074474,-9030.512492,148.041188,1302.362347
3675.074804,-9548.656652,592.164754,842.705048
3675.075134,-10066.800811,74.020594,766.095498
3675.075464,-10955.047942,296.082377,153.219100
3675.075794,-10807.006753,148.041188,229.828649
3675.076124,-10140.821405,0.000000,919.314598
3675.076455,-9770.718434,-592.164754,306.438199
3675.076785,-9548.656652,-888.247130,76.609550
3675.077115,-9178.553681,-814.226536,0.000000
3675.077445,-9326.594869,-74.020594,536.266849
3675.077775,-9178.553681,296.082377,1455.581446
3675.078105,-8882.471304,0.000000,1685.410096
3675.078435,-9844.739029,148.041188,995.924147
3675.078765,-10362.883188,0.000000,995.924147
3675.079095,-11251.130318,148.041188,1149.143247
3675.079425,-10881.027347,74.020594,995.924147
3675.079755,-9474.636058,0.000000,1302.362347
3675.080086,-9474.636058,74.020594,1072.533697
3675.080416,-9696.697840,296.082377,612.876398
3675.080746,-10955.047942,296.082377,689.485948
3675.081076,-11029.068536,814.226536,383.047749
3675.081406,-10362.883188,962.267725,229.828649
3675.081736,-9252.574275,666.185348,689.485948
3675.082066,-9252.574275,666.185348,383.047749
3675.082396,-9104.533087,0.000000,-459.657299
3675.082726,-9326.594869,74.020594,0.000000
3675.083056,-9918.759623,444.123565,229.828649
3675.083386,-9992.780217,0.000000,1149.143247
3675.083717,-9992.780217,370.102971,1532.190996
3675.084047,-10510.924376,222.061783,383.047749
3675.084377,-10362.883188,-518.144159,-229.828649
3675.084707,-9844.739029,0.000000,-76.609550
3675.085037,-9548.656652,0.000000,-306.438199
3675.085367,-8512.368333,222.061783,-536.266849
3675.085697,-8438.347739,148.041188,-766.095498
3675.086027,-8586.388927,0.000000,-1225.752797
3675.086357,-9326.594869,222.061783,-1378.971896
3675.086687,-10510.924376,666.185348,-919.314598
3675.087017,-10510.924376,296.082377,-766.095498
3675.087348,-9622.677246,370.102971,0.000000
3675.087678,-9696.697840,-222.061783,-536.266849
3675.088008,-10362.883188,-592.164754,-995.924147
3675.088338,-10584.944971,-518.144159,0.000000
3675.088668,-10436.903782,-296.082377,229.828649
3675.088998,-9474.636058,-296.082377,536.266849
3675.089328,-8734.430116,-222.061783,0.000000
3675.089658,-9104.533087,-74.020594,0.000000
3675.089988,-9474.636058,-296.082377,0.000000
3675.090318,-10214.842000,296.082377,612.876398
3675.090648,-9992.780217,296.082377,76.609550
3675.090979,-9770.718434,444.123565,306.438199
3675.091309,-9918.759623,296.082377,229.828649
3675.091639,-10584.944971,148.041188,-306.438199
3675.091969,-10510.924376,-444.123565,0.000000
3675.092299,-10955.047942,0.000000,306.438199
3675.092629,-9992.780217,148.041188,995.924147
3675.092959,-8882.471304,-444.123565,612.876398
3675.093289,-8882.471304,0.000000,76.609550
3675.093619,-8808.450710,-296.082377,76.609550
3675.093949,-9474.636058,370.102971,612.876398
3675.094279,-10140.821405,592.164754,1302.362347
3675.094610,-9474.636058,0.000000,1685.410096
3675.094940,-9548.656652,0.000000,1838.629195
3675.095270,-10584.944971,-74.020594,995.924147
3675.095600,-10955.047942,-370.102971,306.438199
3675.095930,-10510.924376,-444.123565,306.438199
3675.096260,-9844.739029,-296.082377,1532.190996
3675.096590,-8882.471304,-444.123565,1608.800546
3675.096920,-8882.471304,-518.144159,536.266849
3675.097250,-8882.471304,-222.061783,306.438199
3675.097580,-8882.471304,0.000000,1072.533697
3675.097910,-9696.697840,296.082377,1455.581446
3675.098240,-9474.636058,814.226536,1302.362347
3675.098571,-9622.677246,592.164754,1608.800546
3675.098901,-9992.780217,666.185348,1149.143247
3675.099231,-10658.965565,296.082377,383.047749
3675.099561,-11547.212695,518.144159,919.314598
3675.099891,-10955.047942,518.144159,612.876398
3675.100221,-9548.656652,444.123565,1225.752797
3675.100551,-9474.636058,370.102971,612.876398
3675.100881,-9326.594869,148.041188,-153.219100
3675.101211,-9474.636058,518.144159,76.609550
3675.101541,-9622.677246,1036.288319,0.000000
3675.101871,-9326.594869,1036.288319,-153.219100
3675.102202,-8660.409521,814.226536,0.000000
3675.102532,-9622.677246,740.205942,-612.876398
3675.102862,-10584.944971,0.000000,-1302.362347
3675.103192,-10658.965565,370.102971,-1455.581446
3675.103522,-10658.965565,222.061783,-766.095498
3675.103852,-10066.800811,0.000000,0.000000
3675.104182,-9548.656652,-148.041188,76.609550
3675.104512,-9622.677246,-740.205942,-919.314598
3675.104842,-9252.574275,-814.226536,-842.705048
3675.105172,-9104.533087,-222.061783,-383.047749
3675.105502,-9400.615463,222.061783,0.000000
3675.105833,-9104.533087,296.082377,76.609550
3675.106163,-9178.553681,370.102971,0.000000
3675.106493,-9696.697840,0.000000,-1762.019645
3675.106823,-10732.986159,148.041188,-1302.362347
3675.107153,-11399.171507,0.000000,-459.657299
3675.107483,-10510.924376,-148.041188,-306.438199
3675.107813,-9696.697840,-444.123565,76.609550
3675.108143,-9400.615463,-888.247130,-919.314598
3675.108473,-8956.491898,-1628.453072,-842.705048
3675.108803,-8438.347739,-1628.453072,-459.657299
3675.109133,-8660.409521,0.000000,1302.362347
3675.109464,-7994.224174,74.020594,1915.238745
3675.109794,-8438.347739,740.205942,1915.238745
3675.110124,-10436.903782,1184.329507,0.000000
3675.110454,-11917.315666,222.061783,-842.705048
3675.110784,-12731.542202,296.082377,-689.485948
3675.111114,-11621.233289,-296.082377,-229.828649
3675.111444,-9918.759623,-370.102971,1072.533697
3675.111774,-9326.594869,-962.267725,306.438199
3675.112104,-8586.388927,-1332.370696,-306.438199
3675.112434,-8512.368333,-740.205942,0.000000
3675.112764,-8956.491898,-74.020594,842.705048
3675.113095,-8956.491898,296.082377,1838.629195
3675.113425,-8808.450710,740.205942,3064.381992
3675.113755,-9696.697840,592.164754,2374.896044
3675.114085,-10436.903782,148.041188,689.485948
3675.114415,-11695.253884,74.020594,0.000000
3675.114745,-11843.295072,0.000000,0.000000
3675.115075,-10955.047942,0.000000,1149.143247
3675.115405,-9696.697840,-592.164754,995.924147
3675.115735,-9326.594869,-962.267725,0.000000
3675.116065,-9252.574275,-814.226536,766.095498
3675.116395,-8808.450710,-370.102971,612.876398
3675.116726,-8586.388927,370.102971,306.438199
3675.117056,-7624.121203,296.082377,1378.971896
3675.117386,-8290.306550,814.226536,1685.410096
3675.117716,-10510.924376,1184.329507,1225.752797
3675.118046,-12065.356855,1036.288319,766.095498
3675.118376,-12583.501014,1184.329507,-76.609550
3675.118706,-11917.315666,740.205942,-1072.533697
3675.119036,-10584.944971,0.000000,-536.266849
3675.119366,-9622.677246,-592.164754,-76.609550
3675.119696,-8660.409521,-740.205942,383.047749
3675.120026,-8068.244768,-296.082377,153.219100
3675.120357,-8290.306550,0.000000,0.000000
3675.120687,-8142.265362,740.205942,153.219100
3675.121017,-8660.409521,1036.288319,153.219100
3675.121347,-9770.718434,888.247130,-153.219100
3675.121677,-10807.006753,888.247130,-383.047749
3675.122007,-11843.295072,888.247130,-306.438199
3675.122337,-11399.171507,370.102971,-536.266849
3675.122667,-10732.986159,-518.144159,-536.266849
3675.122997,-9696.697840,-1036.288319,-612.876398
3675.123327,-9178.553681,-1110.308913,-1532.190996
3675.123657,-8808.450710,-1036.288319,-689.485948
3675.123988,-8660.409521,-222.061783,0.000000
3675.124318,-7698.141797,222.061783,76.609550
3675.124648,-7402.059420,518.144159,383.047749
3675.124978,-8512.368333,1110.308913,-383.047749
3675.125308,-10881.027347,1110.308913,-1225.752797
3675.125638,-12287.418637,962.267725,-612.876398
3675.125968,-12287.418637,666.185348,-536.266849
3675.126298,-11621.233289,-296.082377,-459.657299
3675.126628,-10510.924376,-1036.288319,-842.705048
3675.126958,-9622.677246,-1998.556043,-995.924147
3675.127288,-8660.409521,-1924.535449,0.000000
3675.127619,-8216.285956,-1110.308913,536.266849
3675.127949,-7698.141797,-74.020594,1225.752797
3675.128279,-7179.997637,518.144159,1838.629195
3675.128609,-8660.409521,1110.308913,919.314598
3675.128939,-10066.800811,962.267725,536.266849
3675.129269,-11473.192101,740.205942,76.609550
3675.129599,-12583.501014,814.226536,-536.266849
3675.129929,-11547.212695,296.082377,0.000000
3675.130259,-11103.089130,-740.205942,0.000000
3675.130589,-9918.759623,-1554.432478,-612.876398
3675.130919,-9030.512492,-1628.453072,-536.266849
3675.131250,-8586.388927,-1258.350101,-306.438199
3675.131580,-7402.059420,-666.185348,689.485948
3675.131910,-6809.894666,148.041188,2451.505594
3675.132240,-7550.100608,666.185348,2374.896044
3675.132570,-9252.574275,888.247130,1225.752797
3675.132900,-10955.047942,1480.411884,842.705048
3675.133230,-12657.521608,1406.391290,306.438199
3675.133560,-12657.521608,962.267725,153.219100
3675.133890,-12213.398043,74.020594,536.266849
3675.134220,-11251.130318,-814.226536,-536.266849
3675.134550,-9474.636058,-1850.514855,0.000000
3675.134881,-8586.388927,-1258.350101,842.705048
3675.135211,-7846.182985,-740.205942,1532.190996
3675.135541,-6883.915261,0.000000,2528.115143
3675.135871,-7105.977043,740.205942,2987.772442
3675.136201,-9030.512492,1406.391290,2145.067394
3675.136531,-10807.006753,1184.329507,1072.533697
3675.136861,-12509.480420,1184.329507,919.314598
3675.137191,-12657.521608,1110.308913,689.485948
3675.137521,-11843.295072,370.102971,842.705048
3675.137851,-11547.212695,-370.102971,-536.266849
3675.138181,-10436.903782,-1258.350101,-995.924147
3675.138512,-9474.636058,-1258.350101,-1149.143247
3675.138842,-8364.327145,-888.247130,-76.609550
3675.139172,-7105.977043,-370.102971,536.266849
3675.139502,-6587.832884,74.020594,1455.581446
3675.139832,-7624.121203,1258.350101,536.266849
3675.140162,-9400.615463,1628.453072,-689.485948
3675.140492,-10955.047942,1406.391290,-1685.410096
3675.140822,-12065.356855,1184.329507,-1532.190996
3675.141152,-12065.356855,296.082377,-306.438199
3675.141482,-11695.253884,-518.144159,76.609550
3675.141812,-10881.027347,-1554.432478,-995.924147
3675.142143,-9400.615463,-2072.576638,-1608.800546
3675.142473,-8586.388927,-1554.432478,-1762.019645
3675.142803,-7328.038826,-666.185348,0.000000
3675.143133,-6957.935855,370.102971,1149.143247
3675.143463,-7476.080014,1110.308913,1378.971896
3675.143793,-8364.327145,1554.432478,-76.609550
3675.144123,-10140.821405,1776.494261,-919.314598
3675.144453,-12435.459826,1776.494261,-1532.190996
3675.144783,-13027.624579,888.247130,-1302.362347
3675.145113,-12435.459826,-148.041188,-689.485948
3675.145443,-11325.150913,-1480.411884,-919.314598
3675.145774,-9918.759623,-2664.741391,-536.266849
3675.146104,-8808.450710,-2516.700203,306.438199
3675.146434,-7698.141797,-1702.473667,995.924147
3675.146764,-6513.812290,-518.144159,1991.848295
3675.147094,-6365.771101,370.102971,2298.286494
3675.147424,-8364.327145,1480.411884,1532.190996
3675.147754,-10288.862594,1850.514855,1072.533697
3675.148084,-12805.562797,1776.494261,842.705048
3675.148414,-12731.542202,1332.370696,-459.657299
3675.148744,-12287.418637,74.020594,-842.705048
3675.149074,-11843.295072,-296.082377,-536.266849
3675.149404,-10362.883188,-1850.514855,-1072.533697
3675.149734,-9178.553681,-2146.597232,-1072.533697
3675.150064,-7772.162391,-1480.411884,-766.095498
3675.150394,-6513.812290,-1258.350101,995.924147
3675.150724,-6143.709319,-370.102971,2681.334243
3675.151054,-7105.977043,518.144159,2757.943793
3675.151384,-8142.265362,666.185348,1991.848295
3675.151714,-11177.109724,1406.391290,1532.190996
3675.152044,-12509.480420,1554.432478,612.876398
3675.152374,-12953.603985,814.226536,919.314598
3675.152704,-13323.706956,74.020594,229.828649
3675.153034,-11473.192101,-1036.288319,-766.095498
3675.153364,-10066.800811,-1998.556043,76.609550
3675.153694,-8956.491898,-1406.391290,-459.657299
3675.154024,-7402.059420,-666.185348,383.047749
3675.154354,-6217.729913,74.020594,2068.457845
3675.154684,-7328.038826,1406.391290,1762.019645
3675.155014,-8438.347739,1776.494261,1072.533697
3675.155343,-10584.944971,2146.597232,1455.581446
3675.155673,-12953.603985,2294.638420,919.314598
3675.156003,-13175.665768,1554.432478,842.705048
3675.156333,-12583.501014,222.061783,0.000000
3675.156663,-11695.253884,-740.205942,-1149.143247
3675.156993,-10362.883188,-1406.391290,-842.705048
3675.157323,-9918.759623,-1110.308913,536.266849
3675.157653,-8142.265362,-1110.308913,919.314598
3675.157983,-6291.750507,-296.082377,995.924147
3675.158313,-6513.812290,1110.308913,1072.533697
3675.158643,-7624.121203,1480.411884,536.266849
3675.158973,-9178.553681,1998.556043,536.266849
3675.159303,-10658.965565,1998.556043,-229.828649
3675.159633,-11399.171507,1850.514855,-1149.143247
3675.159963,-11991.336260,1036.288319,-1762.019645
3675.160293,-12805.562797,222.061783,-1915.238745
3675.160623,-12065.356855,-1554.432478,-1838.629195
3675.160953,-10510.924376,-1554.432478,-612.876398
3675.161283,-8438.347739,-1480.411884,0.000000
3675.161613,-6587.832884,-888.247130,842.705048
3675.161943,-6143.709319,148.041188,1072.533697
3675.162273,-7179.997637,962.267725,459.657299
3675.162603,-8142.265362,2368.659014,-459.657299
3675.162932,-10584.944971,2960.823768,-536.266849
3675.163262,-11769.274478,2368.659014,-842.705048
3675.163592,-12435.459826,1480.411884,-919.314598
3675.163922,-12731.542202,74.020594,-2221.676944
3675.164252,-12065.356855,-1554.432478,-2374.896044
3675.164582,-10584.944971,-2146.597232,-1378.971896
3675.164912,-9104.533087,-2442.679609,229.828649
3675.165242,-7476.080014,-1924.535449,1991.848295
3675.165572,-5995.668130,-962.267725,3600.648841
3675.165902,-6513.812290,0.000000,1915.238745
3675.166232,-7920.203579,1110.308913,1225.752797
3675.166562,-10140.821405,1406.391290,1378.971896
3675.166892,-11177.109724,2220.617826,1072.533697
3675.167222,-11843.295072,1480.411884,153.219100
3675.167552,-12361.439231,222.061783,-995.924147
3675.167882,-12065.356855,-666.185348,-1915.238745
3675.168212,-11621.233289,-1702.473667,-1149.143247
3675.168542,-10584.944971,-2146.597232,-1072.533697
3675.168872,-8364.327145,-1998.556043,0.000000
3675.169202,-5847.626942,-1332.370696,1455.581446
3675.169532,-5847.626942,-518.144159,2221.676944
3675.169862,-6957.935855,592.164754,1991.848295
3675.170191,-9030.512492,1332.370696,2221.676944
3675.170521,-11473.192101,2072.576638,1685.410096
3675.170851,-12139.377449,1554.432478,612.876398
3675.171181,-12583.501014,444.123565,76.609550
3675.171511,-12731.542202,-592.164754,-459.657299
3675.171841,-11991.336260,-1924.535449,-306.438199
3675.172171,-10584.944971,-2812.782580,689.485948
3675.172501,-9104.533087,-2072.576638,842.705048
3675.172831,-7179.997637,-1480.411884,1991.848295
3675.173161,-6439.791695,-592.164754,2068.457845
3675.173491,-7476.080014,666.185348,1302.362347
3675.173821,-8512.368333,1036.288319,766.095498
3675.174151,-10362.883188,2368.659014,612.876398
3675.174481,-10955.047942,2072.576638,229.828649
3675.174811,-11843.295072,1554.432478,-459.657299
3675.175141,-12361.439231,1110.308913,-1532.190996
3675.175471,-13101.645173,-592.164754,-1149.143247
3675.175801,-12213.398043,-1776.494261,-229.828649
3675.176131,-10955.047942,-1184.329507,766.095498
3675.176461,-7254.018232,-1776.494261,1608.800546
3675.176791,-5477.523971,-1184.329507,612.876398
3675.177121,-6735.874072,0.000000,689.485948
3675.177450,-7698.141797,740.205942,306.438199
3675.177780,-9474.636058,1924.535449,76.609550
3675.178110,-10288.862594,2590.720797,-995.924147
3675.178440,-10881.027347,1924.535449,-1532.190996
3675.178770,-11843.295072,740.205942,-2298.286494
3675.179100,-12065.356855,-222.061783,-2987.772442
3675.179430,-11769.274478,-1406.391290,-1608.800546
3675.179760,-10436.903782,-1702.473667,-1072.533697
3675.180090,-8882.471304,-1850.514855,76.609550
3675.180420,-6883.915261,-1258.350101,1608.800546
3675.180750,-6735.874072,-888.247130,1532.190996
3675.181080,-7105.977043,740.205942,995.924147
3675.181410,-8216.285956,962.267725,919.314598
3675.181740,-10140.821405,2368.659014,536.266849
3675.182070,-11473.192101,2368.659014,-229.828649
3675.182400,-12065.356855,1406.391290,-1608.800546
3675.182730,-12583.501014,0.000000,-3064.381992
3675.183060,-12287.418637,-1406.391290,-2374.896044
3675.183390,-10881.027347,-2220.617826,-1149.143247
3675.183720,-8808.450710,-2516.700203,0.000000
3675.184050,-5773.606348,-1924.535449,1532.190996
3675.184380,-5699.585753,-740.205942,1302.362347
3675.184709,-7698.141797,518.144159,1072.533697
3675.185039,-9252.574275,1184.329507,1608.800546
3675.185369,-10807.006753,2368.659014,2068.457845
3675.185699,-10584.944971,2442.679609,1225.752797
3675.186029,-11029.068536,1184.329507,383.047749
3675.186359,-12287.418637,370.102971,-1302.362347
3675.186689,-12287.418637,-888.247130,-1302.362347
3675.187019,-11917.315666,-814.226536,-919.314598
3675.187349,-10140.821405,-1628.453072,-306.438199
3675.187679,-7846.182985,-1406.391290,459.657299
3675.188009,-5847.626942,-1036.288319,2068.457845
3675.188339,-6809.894666,0.000000,1608.800546
3675.188669,-7698.141797,814.226536,1302.362347
3675.188999,-9326.594869,1628.453072,1762.019645
3675.189329,-10436.903782,2072.576638,1685.410096
3675.189659,-11621.233289,1924.535449,1762.019645
3675.189989,-12657.521608,814.226536,1302.362347
3675.190319,-12731.542202,-370.102971,-76.609550
3675.190649,-12805.562797,-1406.391290,0.000000
3675.190979,-10955.047942,-1036.288319,76.609550
3675.191309,-9326.594869,-1406.391290,1378.971896
3675.191639,-6143.709319,-740.205942,2298.286494
3675.191969,-6809.894666,74.020594,1608.800546
3675.192298,-7402.059420,814.226536,536.266849
3675.192628,-9474.636058,1776.494261,1225.752797
3675.192958,-10881.027347,2146.597232,612.876398
3675.193288,-10436.903782,1776.494261,1072.533697
3675.193618,-11917.315666,1406.391290,76.609550
3675.193948,-12435.459826,296.082377,-842.705048
3675.194278,-13027.624579,-888.247130,-1149.143247
3675.194608,-11251.130318,-518.144159,-766.095498
3675.194938,-10066.800811,-962.267725,0.000000
3675.195268,-7179.997637,-1184.329507,1608.800546
3675.195598,-7254.018232,-444.123565,1378.971896
3675.195928,-7550.100608,444.123565,689.485948
3675.196258,-8068.244768,814.226536,229.828649
3675.196588,-10288.862594,1776.494261,-383.047749
3675.196918,-9918.759623,1998.556043,-612.876398
3675.197248,-10807.006753,1406.391290,-842.705048
3675.197578,-11843.295072,592.164754,-1915.238745
3675.197908,-12509.480420,-740.205942,-2068.457845
3675.198238,-11991.336260,-1036.288319,-1072.533697
3675.198568,-10436.903782,-1776.494261,-766.095498
3675.198898,-8216.285956,-1702.473667,536.266849
3675.199228,-6883.915261,-1258.350101,766.095498
3675.199557,-6883.915261,-592.164754,153.219100
3675.199887,-6957.935855,148.041188,459.657299
3675.200217,-9696.697840,1554.432478,229.828649
3675.200547,-10510.924376,2442.679609,0.000000
3675.200877,-10732.986159,1702.473667,-689.485948
3675.201207,-11695.253884,1110.308913,-1302.362347
3675.201537,-12065.356855,-518.144159,-2221.676944
3675.201867,-12361.439231,-1184.329507,-689.485948
3675.202197,-11103.089130,-1480.411884,153.219100
3675.202527,-8660.409521,-1850.514855,995.924147
3675.202857,-7105.977043,-1776.494261,1532.190996
3675.203187,-7179.997637,-1258.350101,689.485948
3675.203517,-7550.100608,0.000000,1149.143247
3675.203847,-8660.409521,962.267725,1225.752797
3675.204177,-9548.656652,2072.576638,1302.362347
3675.204507,-10214.842000,1702.473667,1532.190996
3675.204837,-11251.130318,888.247130,0.000000
3675.205167,-12213.398043,370.102971,-1149.143247
3675.205497,-12805.562797,-444.123565,-536.266849
3675.205827,-12139.377449,-962.267725,-306.438199
3675.206157,-9326.594869,-1406.391290,229.828649
3675.206487,-6957.935855,-1332.370696,1302.362347
3675.206816,-7254.018232,-814.226536,1072.533697
3675.207146,-7772.162391,-74.020594,1072.533697
3675.207476,-8734.430116,814.226536,1378.971896
3675.207806,-9844.739029,1850.514855,919.314598
3675.208136,-9918.759623,1998.556043,1072.533697
3675.208466,-11103.089130,1628.453072,612.876398
3675.208796,-11843.295072,444.123565,-689.485948
3675.209126,-12731.542202,-740.205942,-306.438199
3675.209456,-12139.377449,-370.102971,229.828649
3675.209786,-10807.006753,-1036.288319,766.095498
3675.210116,-8068.244768,-1406.391290,1915.238745
3675.210446,-7254.018232,-1110.308913,1762.019645
3675.210776,-7772.162391,-296.082377,919.314598
3675.211106,-8808.450710,1332.370696,1762.019645
3675.211436,-9548.656652,1480.411884,1532.190996
3675.211766,-9696.697840,2368.659014,1149.143247
3675.212096,-9918.759623,1628.453072,306.438199
3675.212426,-11399.171507,1406.391290,-766.095498
3675.212756,-12435.459826,296.082377,-1149.143247
3675.213086,-12435.459826,0.000000,-612.876398
3675.213416,-11695.253884,0.000000,-612.876398
3675.213746,-9252.574275,-666.185348,612.876398
3675.214075,-7772.162391,-444.123565,0.000000
3675.214405,-7550.100608,-592.164754,-153.219100
3675.214735,-7846.182985,148.041188,383.047749
3675.215065,-9252.574275,962.267725,536.266849
3675.215395,-9474.636058,2368.659014,0.000000
3675.215725,-9474.636058,1628.453072,-153.219100
3675.216055,-11103.089130,1184.329507,-1149.143247
3675.216385,-11917.315666,148.041188,-2451.505594
3675.216715,-11991.336260,-518.144159,-1991.848295
3675.217045,-11029.068536,-814.226536,-1072.533697
3675.217375,-9474.636058,-1110.308913,306.438199
3675.217705,-7698.141797,-962.267725,1455.581446
3675.218035,-8068.244768,-814.226536,383.047749
3675.218365,-8438.347739,-148.041188,-306.438199
3675.218695,-9474.636058,518.144159,0.000000
3675.219025,-10140.821405,1332.370696,0.000000
3675.219355,-9474.636058,962.267725,229.828649
3675.219685,-9474.636058,370.102971,612.876398
3675.220015,-10584.944971,0.000000,-995.924147
3675.220345,-11325.150913,-666.185348,-842.705048
3675.220675,-11843.295072,-592.164754,-383.047749
3675.221005,-10288.862594,-1110.308913,153.219100
3675.221335,-8808.450710,-1258.350101,1072.533697
3675.221664,-8512.368333,-1480.411884,689.485948
3675.221994,-8660.409521,-1036.288319,0.000000
3675.222324,-8290.306550,-592.164754,153.219100
3675.222654,-8290.306550,296.082377,306.438199
3675.222984,-7994.224174,1036.288319,1072.533697
3675.223314,-9178.553681,1036.288319,766.095498
3675.223644,-11177.109724,814.226536,0.000000
3675.223974,-12213.398043,74.020594,-919.314598
3675.224304,-13027.624579,-296.082377,0.000000
3675.224634,-11843.295072,-962.267725,0.000000
3675.224964,-9400.615463,-1258.350101,1302.362347
3675.225294,-7698.141797,-1702.473667,1378.971896
3675.225624,-7402.059420,-1332.370696,153.219100
3675.225954,-7994.224174,-74.020594,0.000000
3675.226284,-9104.533087,888.247130,536.266849
3675.226614,-9918.759623,1480.411884,1302.362347
3675.226944,-9844.739029,1480.411884,2068.457845
3675.227274,-11029.068536,1036.288319,1685.410096
3675.227604,-11399.171507,74.020594,153.219100
3675.227934,-11991.336260,-148.041188,0.000000
3675.228264,-11621.233289,-592.164754,459.657299
3675.228594,-10288.862594,-592.164754,1685.410096
3675.228923,-9474.636058,-370.102971,1685.410096
3675.229253,-9474.636058,-444.123565,383.047749
3675.229583,-8808.450710,-444.123565,459.657299
3675.229913,-8512.368333,666.185348,612.876398
3675.230243,-8586.388927,888.247130,919.314598
3675.230573,-9030.512492,1480.411884,1762.019645
3675.230903,-9992.780217,1110.308913,1455.581446
3675.231233,-11029.068536,888.247130,-306.438199
3675.231563,-11843.295072,518.144159,-1378.971896
3675.231893,-12361.439231,444.123565,-995.924147
3675.232223,-11251.130318,-148.041188,76.609550
3675.232553,-9252.574275,-888.247130,1378.971896
3675.232883,-8586.388927,-666.185348,459.657299
3675.233213,-8438.347739,-814.226536,-306.438199
3675.233543,-8438.347739,0.000000,-689.485948
3675.233873,-8660.409521,666.185348,-306.438199
3675.234203,-8660.409521,962.267725,0.000000
3675.234533,-9030.512492,592.164754,383.047749
3675.234863,-10288.862594,518.144159,-612.876398
3675.235193,-11029.068536,148.041188,-1378.971896
3675.235523,-11917.315666,0.000000,-1149.143247
3675.235853,-11843.295072,222.061783,-842.705048
3675.236182,-10214.842000,-296.082377,76.609550
3675.236512,-9252.574275,-962.267725,229.828649
3675.236842,-8586.388927,-962.267725,-536.266849
3675.237172,-8438.347739,-74.020594,0.000000
3675.237502,-9178.553681,370.102971,0.000000
3675.237832,-9030.512492,888.247130,0.000000
3675.238162,-8956.491898,1036.288319,306.438199
3675.238492,-10214.842000,1184.329507,-229.828649
3675.238822,-10732.986159,444.123565,-1072.533697
3675.239152,-11399.171507,222.061783,-459.657299
3675.239482,-11917.315666,74.020594,153.219100
3675.239812,-10288.862594,-592.164754,919.314598
3675.240142,-9844.739029,-888.247130,1149.143247
3675.240472,-9178.553681,-888.247130,383.047749
3675.240802,-8734.430116,-666.185348,689.485948
3675.241132,-8586.388927,-222.061783,1072.533697
3675.241462,-8586.388927,666.185348,1149.143247
3675.241792,-7772.162391,592.164754,1685.410096
3675.242122,-9400.615463,888.247130,612.876398
3675.242452,-11177.109724,888.247130,-536.266849
3675.242782,-11621.233289,296.082377,0.000000
3675.243112,-12065.356855,148.041188,229.828649
3675.243441,-10510.924376,0.000000,612.876398
3675.243771,-9474.636058,-740.205942,689.485948
3675.244101,-9178.553681,-1258.350101,-306.438199
3675.244431,-8734.430116,-962.267725,-229.828649
3675.244761,-8956.491898,-296.082377,536.266849
3675.245091,-9030.512492,888.247130,1455.581446
3675.245421,-8734.430116,814.226536,2145.067394
3675.245751,-9400.615463,888.247130,1378.971896
3675.246081,-9992.780217,666.185348,0.000000
3675.246411,-11177.109724,444.123565,-536.266849
3675.246741,-12731.542202,518.144159,153.219100
3675.247071,-11991.336260,518.144159,1455.581446
3675.247401,-10140.821405,-518.144159,1838.629195
3675.247731,-9400.615463,-740.205942,919.314598
3675.248061,-9474.636058,-518.144159,-306.438199
3675.248391,-9326.594869,-370.102971,919.314598
3675.248721,-9104.533087,444.123565,1149.143247
3675.249051,-8586.388927,888.247130,1608.800546
3675.249381,-8660.409521,1110.308913,1838.629195
3675.249710,-9622.677246,1184.329507,153.219100
3675.250040,-10881.027347,888.247130,-842.705048
3675.250370,-12435.459826,962.267725,-1455.581446
3675.250700,-11769.274478,0.000000,-1225.752797
3675.251030,-10066.800811,-592.164754,-153.219100
3675.251360,-8660.409521,-1036.288319,383.047749
3675.251690,-9030.512492,-1110.308913,0.000000
3675.252020,-8734.430116,-888.247130,229.828649
3675.252350,-9104.533087,0.000000,459.657299
3675.252680,-8956.491898,222.061783,306.438199
3675.253010,-8956.491898,518.144159,766.095498
3675.253340,-9400.615463,592.164754,153.219100
3675.253670,-9622.677246,666.185348,-1608.800546
3675.254000,-10214.842000,222.061783,-1378.971896
3675.254329,-10881.027347,0.000000,-1838.629195
3675.254659,-10658.965565,-296.082377,-766.095498
3675.254989,-9918.759623,-962.267725,0.000000
3675.255319,-9104.533087,-1406.391290,-306.438199
3675.255649,-8660.409521,-888.247130,-612.876398
3675.255979,-8956.491898,-592.164754,0.000000
3675.256309,-8808.450710,-74.020594,229.828649
3675.256639,-8438.347739,222.061783,612.876398
3675.256969,-8808.450710,0.000000,919.314598
3675.257299,-9992.780217,296.082377,0.000000
3675.257629,-10732.986159,222.061783,0.000000
3675.257959,-11843.295072,222.061783,-383.047749
3675.258289,-11177.109724,-592.164754,229.828649
3675.258619,-10066.800811,-888.247130,306.438199
3675.258948,-9474.636058,-1554.432478,229.828649
3675.259278,-8956.491898,-1332.370696,459.657299
3675.259608,-9030.512492,-1036.288319,842.705048
3675.259938,-9474.636058,-222.061783,459.657299
3675.260268,-8734.430116,296.082377,536.266849
3675.260598,-8586.388927,148.041188,153.219100
3675.260928,-9770.718434,666.185348,229.828649
3675.261258,-10807.006753,518.144159,0.000000
3675.261588,-11547.212695,444.123565,229.828649
3675.261918,-11029.068536,148.041188,76.609550
3675.262248,-10436.903782,-370.102971,689.485948
3675.262578,-10510.924376,-592.164754,766.095498
3675.262908,-9622.677246,-1110.308913,-383.047749
3675.263237,-9326.594869,-666.185348,536.266849
3675.263567,-9252.574275,0.000000,919.314598
3675.263897,-9030.512492,444.123565,1072.533697
3675.264227,-8956.491898,222.061783,842.705048
3675.264557,-9400.615463,592.164754,0.000000
3675.264887,-9992.780217,444.123565,153.219100
3675.265217,-10658.965565,222.061783,689.485948
3675.265547,-11029.068536,740.205942,689.485948
3675.265877,-10288.862594,148.041188,1378.971896
3675.266207,-9992.780217,0.000000,1302.362347
3675.266537,-10140.821405,-222.061783,229.828649
3675.266867,-10288.862594,-296.082377,689.485948
3675.267197,-10066.800811,0.000000,1532.190996
3675.267527,-9104.533087,518.144159,1378.971896
3675.267856,-7994.224174,592.164754,1762.019645
3675.268186,-8512.368333,1036.288319,76.609550
3675.268516,-9252.574275,888.247130,-612.876398
3675.268846,-10807.006753,1184.329507,-383.047749
3675.269176,-11769.274478,962.267725,76.609550
3675.269506,-11325.150913,814.226536,306.438199
3675.269836,-9992.780217,370.102971,306.438199
3675.270166,-9474.636058,-296.082377,-459.657299
3675.270496,-9400.615463,-444.123565,-842.705048
3675.270826,-9474.636058,-296.082377,0.000000
3675.271156,-9622.677246,222.061783,766.095498
3675.271486,-8734.430116,444.123565,459.657299
3675.271816,-9474.636058,888.247130,1302.362347
3675.272146,-9548.656652,370.102971,-383.047749
3675.272475,-10066.800811,444.123565,-766.095498
3675.272805,-10362.883188,814.226536,-766.095498
3675.273135,-10510.924376,148.041188,-383.047749
3675.273465,-10140.821405,222.061783,76.609550
3675.273795,-9844.739029,0.000000,-612.876398
3675.274125,-9918.759623,-592.164754,-1455.581446
3675.274455,-9548.656652,-518.144159,-383.047749
3675.274785,-9918.759623,-148.041188,153.219100
3675.275115,-9104.533087,-148.041188,536.266849
3675.275445,-8216.285956,-296.082377,306.438199
3675.275775,-8586.388927,-444.123565,-766.095498
3675.276105,-9030.512492,-148.041188,-383.047749
3675.276435,-10066.800811,0.000000,229.828649
3675.276765,-10658.965565,222.061783,766.095498
3675.277094,-10362.883188,0.000000,689.485948
3675.277424,-10066.800811,-222.061783,306.438199
3675.277754,-10362.883188,-814.226536,-612.876398
3675.278084,-9918.759623,-888.247130,-612.876398
3675.278414,-9844.739029,-592.164754,459.657299
3675.278744,-9252.574275,-148.041188,383.047749
3675.279074,-8512.368333,-370.102971,919.314598
3675.279404,-9030.512492,222.061783,-306.438199
3675.279734,-9252.574275,296.082377,-766.095498
3675.280064,-10436.903782,148.041188,-153.219100
3675.280394,-11325.150913,666.185348,153.219100
3675.280724,-10510.924376,222.061783,536.266849
3675.281054,-9696.697840,-444.123565,1685.410096
3675.281383,-9844.739029,-592.164754,459.657299
3675.281713,-10214.842000,-444.123565,229.828649
3675.282043,-10362.883188,-444.123565,536.266849
3675.282373,-10066.800811,0.000000,689.485948
3675.282703,-9400.615463,148.041188,995.924147
3675.283033,-9178.553681,-148.041188,1378.971896
3675.283363,-9622.677246,-148.041188,536.266849
3675.283693,-9474.636058,-74.020594,689.485948
3675.284023,-10140.821405,222.061783,842.705048
3675.284353,-9844.739029,296.082377,842.705048
3675.284683,-9400.615463,0.000000,1455.581446
3675.285013,-10140.821405,148.041188,1225.752797
3675.285343,-10584.944971,0.000000,842.705048
3675.285673,-10510.924376,-222.061783,536.266849
3675.286002,-10436.903782,148.041188,383.047749
3675.286332,-9252.574275,0.000000,306.438199
3675.286662,-8808.450710,-148.041188,306.438199
3675.286992,-8808.450710,0.000000,-383.047749
3675.287322,-8956.491898,0.000000,306.438199
3675.287652,-9770.718434,148.041188,766.095498
3675.287982,-10140.821405,518.144159,306.438199
3675.288312,-9474.636058,74.020594,612.876398
3675.288642,-10140.821405,518.144159,-229.828649
3675.288972,-10436.903782,74.020594,-689.485948
3675.289302,-10436.903782,-74.020594,0.000000
3675.289632,-10584.944971,222.061783,76.609550
3675.289962,-9622.677246,-296.082377,-612.876398
3675.290292,-8956.491898,-444.123565,-995.924147
3675.290621,-9104.533087,-148.041188,-1991.848295
3675.290951,-9104.533087,-444.123565,-1225.752797
3675.291281,-9400.615463,74.020594,-689.485948
3675.291611,-9918.759623,444.123565,76.609550
3675.291941,-9252.574275,370.102971,229.828649
3675.292271,-9622.677246,148.041188,536.266849
3675.292601,-10510.924376,0.000000,-1302.362347
3675.292931,-10658.965565,-592.164754,-689.485948
3675.293261,-10955.047942,-296.082377,229.828649
3675.293591,-10214.842000,-148.041188,459.657299
3675.293921,-9252.574275,-518.144159,459.657299
3675.294251,-9178.553681,-518.144159,0.000000
3675.294581,-9252.574275,-666.185348,-766.095498
3675.294911,-8734.430116,-444.123565,0.000000
3675.295240,-9252.574275,0.000000,536.266849
3675.295570,-9178.553681,148.041188,612.876398
3675.295900,-9326.594869,148.041188,1455.581446
3675.296230,-10362.883188,74.020594,306.438199
3675.296560,-10807.006753,0.000000,-76.609550
3675.296890,-11251.130318,296.082377,612.876398
3675.297220,-10881.027347,0.000000,1149.143247
3675.297550,-9252.574275,-444.123565,1608.800546
3675.297880,-8586.388927,-222.061783,842.705048
3675.298210,-8808.450710,0.000000,-229.828649
3675.298540,-9548.656652,592.164754,0.000000
3675.298870,-10214.842000,592.164754,306.438199
3675.299200,-10066.800811,814.226536,842.705048
3675.299530,-9400.615463,740.205942,1149.143247
3675.299859,-10066.800811,740.205942,229.828649
3675.300189,-10288.862594,222.061783,0.000000
3675.300519,-10362.883188,74.020594,842.705048
3675.300849,-10807.006753,518.144159,766.095498
3675.301179,-9992.780217,592.164754,1072.533697
3675.301509,-9548.656652,0.000000,1225.752797
3675.301839,-9548.656652,0.000000,229.828649
3675.302169,-9696.697840,74.020594,76.609550
3675.302499,-10066.800811,148.041188,689.485948
3675.302829,-9918.759623,518.144159,1072.533697
3675.303159,-8364.327145,592.164754,1762.019645
3675.303489,-8364.327145,518.144159,1455.581446
3675.303819,-10066.800811,888.247130,383.047749
3675.304148,-11103.089130,888.247130,-229.828649
3675.304478,-11991.336260,888.247130,153.219100
3675.304808,-11103.089130,740.205942,0.000000
3675.305138,-9770.718434,222.061783,306.438199
3675.305468,-9474.636058,222.061783,-306.438199
3675.305798,-8808.450710,-518.144159,-689.485948
3675.306128,-8290.306550,-74.020594,-612.876398
3675.306458,-9252.574275,296.082377,229.828649
3675.306788,-9030.512492,518.144159,1072.533697
3675.307118,-9326.594869,592.164754,1455.581446
3675.307448,-10140.821405,666.185348,-153.219100
3675.307778,-10584.944971,222.061783,-919.314598
3675.308108,-11325.150913,222.061783,-383.047749
3675.308438,-10955.047942,296.082377,-383.047749
3675.308767,-9696.697840,0.000000,-842.705048
3675.309097,-9400.615463,-370.102971,-919.314598
3675.309427,-8808.450710,-666.185348,-1838.629195
3675.309757,-8808.450710,-148.041188,-306.438199
3675.310087,-9622.677246,0.000000,-229.828649
3675.310417,-9474.636058,222.061783,689.485948
3675.310747,-8808.450710,0.000000,766.095498
3675.311077,-9474.636058,518.144159,0.000000
3675.311407,-10362.883188,0.000000,-383.047749
3675.311737,-10732.986159,0.000000,0.000000
3675.312067,-11177.109724,222.061783,459.657299
3675.312397,-10658.965565,0.000000,612.876398
3675.312727,-9844.739029,-1036.288319,229.828649
3675.313057,-9696.697840,-1406.391290,-383.047749
3675.313386,-8882.471304,-1702.473667,-383.047749
3675.313716,-9252.574275,-592.164754,612.876398
3675.314046,-8660.409521,-518.144159,1149.143247
3675.314376,-7772.162391,0.000000,1991.848295
3675.314706,-8438.347739,0.000000,1302.362347
3675.315036,-10362.883188,222.061783,0.000000
3675.315366,-11029.068536,222.061783,76.609550
3675.315696,-11843.295072,148.041188,459.657299
3675.316026,-10881.027347,148.041188,919.314598
3675.316356,-9770.718434,-518.144159,766.095498
3675.316686,-9548.656652,-962.267725,-229.828649
3675.317016,-9474.636058,-814.226536,-689.485948
3675.317346,-9252.574275,-370.102971,0.000000
3675.317676,-9178.553681,0.000000,536.266849
3675.318005,-8216.285956,0.000000,1302.362347
3675.318335,-8438.347739,148.041188,1685.410096
3675.318665,-9474.636058,518.144159,689.485948
3675.318995,-10140.821405,444.123565,306.438199
3675.319325,-11695.253884,518.144159,383.047749
3675.319655,-11399.171507,888.247130,459.657299
3675.319985,-11029.068536,0.000000,459.657299
3675.320315,-10807.006753,-296.082377,76.609550
3675.320645,-10066.800811,-814.226536,-153.219100
3675.320975,-9474.636058,-592.164754,0.000000
3675.321305,-9474.636058,0.000000,842.705048
3675.321635,-8438.347739,74.020594,1072.533697
3675.321965,-7920.203579,296.082377,1455.581446
3675.322294,-9400.615463,1184.329507,459.657299
3675.322624,-10288.862594,1258.350101,383.047749
3675.322954,-11325.150913,740.205942,459.657299
3675.323284,-11695.253884,962.267725,0.000000
3675.323614,-10732.986159,74.020594,0.000000
3675.323944,-10362.883188,0.000000,-919.314598
3675.324274,-9696.697840,-518.144159,-1532.190996
3675.324604,-8956.491898,-740.205942,-306.438199
3675.324934,-9252.574275,0.000000,306.438199
3675.325264,-8512.368333,296.082377,766.095498
3675.325594,-7402.059420,74.020594,1149.143247
3675.325924,-8216.285956,814.226536,0.000000
3675.326254,-9178.553681,888.247130,-1302.362347
3675.326584,-10436.903782,1258.350101,-1225.752797
3675.326913,-11547.212695,1406.391290,-612.876398
3675.327243,-11695.253884,666.185348,-995.924147
3675.327573,-11251.130318,148.041188,-1302.362347
3675.327903,-10288.862594,-518.144159,-1991.848295
3675.328233,-8882.471304,-1184.329507,-1915.238745
3675.328563,-8808.450710,-1184.329507,229.828649
3675.328893,-8438.347739,-444.123565,1072.533697
3675.329223,-7846.182985,0.000000,1685.410096
3675.329553,-8142.265362,592.164754,153.219100
3675.329883,-9474.636058,888.247130,-306.438199
3675.330213,-10807.006753,888.247130,-306.438199
3675.330543,-12361.439231,888.247130,-842.705048
3675.330873,-11769.274478,962.267725,-229.828649
3675.331203,-10658.965565,-296.082377,-612.876398
3675.331532,-10362.883188,-666.185348,-536.266849
3675.331862,-9844.739029,-1554.432478,-612.876398
3675.332192,-9326.594869,-1628.453072,536.266849
3675.332522,-8882.471304,-1036.288319,1072.533697
3675.332852,-8438.347739,-518.144159,1685.410096
3675.333182,-7624.121203,-296.082377,2068.457845
3675.333512,-8438.347739,0.000000,995.924147
3675.333842,-9252.574275,296.082377,1302.362347
3675.334172,-11177.109724,518.144159,1149.143247
3675.334502,-11917.315666,814.226536,995.924147
3675.334832,-11621.233289,74.020594,612.876398
3675.335162,-11325.150913,-1036.288319,-306.438199
3675.335492,-10214.842000,-1480.411884,-689.485948
3675.335822,-8956.491898,-1776.494261,-383.047749
3675.336151,-8808.450710,-888.247130,0.000000
3675.336481,-7328.038826,-888.247130,1072.533697
3675.336811,-6365.771101,74.020594,1991.848295
3675.337141,-7994.224174,592.164754,995.924147
3675.337471,-9844.739029,1036.288319,76.609550
3675.337801,-11695.253884,962.267725,995.924147
3675.338131,-12805.562797,1110.308913,689.485948
3675.338461,-12065.356855,444.123565,919.314598
3675.338791,-11177.109724,-666.185348,0.000000
3675.339121,-10214.842000,-1258.350101,-689.485948
3675.339451,-9104.533087,-1184.329507,76.609550
3675.339781,-8808.450710,-592.164754,689.485948
3675.340111,-8438.347739,0.000000,1072.533697
3675.340440,-7920.203579,666.185348,1302.362347
3675.340770,-8142.265362,1110.308913,612.876398
3675.341100,-9400.615463,1554.432478,0.000000
3675.341430,-10214.842000,1406.391290,689.485948
3675.341760,-11917.315666,1776.494261,1225.752797
3675.342090,-11917.315666,1258.350101,842.705048
3675.342420,-11843.295072,740.205942,-153.219100
3675.342750,-11917.315666,148.041188,-842.705048
3675.343080,-11029.068536,-962.267725,-766.095498
3675.343410,-9622.677246,-888.247130,459.657299
3675.343740,-8068.244768,0.000000,612.876398
3675.344070,-7031.956449,0.000000,1378.971896
3675.344400,-6661.853478,518.144159,919.314598
3675.344730,-7994.224174,1036.288319,-536.266849
3675.345059,-9326.594869,1776.494261,-1072.533697
3675.345389,-10881.027347,1406.391290,-306.438199
3675.345719,-11399.171507,1258.350101,-459.657299
3675.346049,-11251.130318,296.082377,-459.657299
3675.346379,-11325.150913,-370.102971,-1378.971896
3675.346709,-10214.842000,-962.267725,-1762.019645
3675.347039,-9474.636058,-1258.350101,-766.095498
3675.347369,-9104.533087,-814.226536,153.219100
3675.347699,-7772.162391,-296.082377,1378.971896
3675.348029,-6883.915261,370.102971,1762.019645
3675.348359,-8142.265362,592.164754,0.000000
3675.348689,-9030.512492,1036.288319,-842.705048
3675.349019,-10362.883188,1332.370696,-689.485948
3675.349349,-10881.027347,1776.494261,-1608.800546
3675.349678,-11325.150913,962.267725,-229.828649
3675.350008,-11917.315666,0.000000,-842.705048
3675.350338,-11917.315666,-814.226536,-1915.238745
3675.350668,-10584.944971,-1998.556043,-995.924147
3675.350998,-9548.656652,-1850.514855,0.000000
3675.351328,-8216.285956,-1776.494261,1378.971896
3675.351658,-6513.812290,-1184.329507,2757.943793
3675.351988,-6661.853478,-296.082377,1838.629195
3675.352317,-7550.100608,740.205942,153.219100
3675.352647,-9474.636058,1258.350101,153.219100
3675.352977,-12583.501014,2072.576638,689.485948
3675.353307,-12509.480420,1554.432478,536.266849
3675.353637,-12065.356855,444.123565,0.000000
3675.353967,-12065.356855,-814.226536,-1302.362347
3675.354297,-10658.965565,-2146.597232,-1378.971896
3675.354627,-9326.594869,-2220.617826,-306.438199
3675.354956,-7772.162391,-2220.617826,689.485948
3675.355286,-6143.709319,-1036.288319,2451.505594
3675.355616,-6513.812290,-148.041188,2604.724693
3675.355946,-8586.388927,666.185348,1378.971896
3675.356276,-9992.780217,1036.288319,1302.362347
3675.356606,-11547.212695,888.247130,842.705048
3675.356936,-12139.377449,962.267725,1072.533697
3675.357266,-11843.295072,0.000000,919.314598
3675.357595,-11695.253884,-962.267725,-306.438199
3675.357925,-9770.718434,-2072.576638,-153.219100
3675.358255,-9696.697840,-1628.453072,0.000000
3675.358585,-9622.677246,-666.185348,306.438199
3675.358915,-7994.224174,-370.102971,1225.752797
3675.359245,-6735.874072,-518.144159,1378.971896
3675.359575,-7254.018232,740.205942,919.314598
3675.359904,-8808.450710,1036.288319,536.266849
3675.360234,-10362.883188,1554.432478,612.876398
3675.360564,-11399.171507,1702.473667,766.095498
3675.360894,-11843.295072,1184.329507,995.924147
3675.361224,-11843.295072,370.102971,0.000000
3675.361554,-12139.377449,-296.082377,-1072.533697
3675.361884,-11399.171507,-1036.288319,-536.266849
3675.362214,-10436.903782,-888.247130,-383.047749
3675.362543,-8512.368333,-518.144159,229.828649
3675.362873,-6365.771101,-296.082377,766.095498
3675.363203,-6661.853478,296.082377,0.000000
3675.363533,-7772.162391,1406.391290,-1149.143247
3675.363863,-9474.636058,1776.494261,-612.876398
3675.364193,-11177.109724,2368.659014,-919.314598
3675.364523,-11843.295072,2294.638420,-1149.143247
3675.364852,-12509.480420,888.247130,-1532.190996
3675.365182,-11991.336260,0.000000,-1685.410096
3675.365512,-11029.068536,-1332.370696,-919.314598
3675.365842,-10362.883188,-1554.432478,-306.438199
3675.366172,-8586.388927,-1702.473667,76.609550
3675.366502,-6883.915261,-1184.329507,919.314598
3675.366832,-6291.750507,-592.164754,766.095498
3675.367162,-7031.956449,740.205942,0.000000
3675.367491,-8586.388927,1036.288319,306.438199
3675.367821,-10658.965565,1924.535449,76.609550
3675.368151,-11769.274478,1924.535449,0.000000
3675.368481,-12213.398043,666.185348,-612.876398
3675.368811,-12583.501014,-370.102971,-1762.019645
3675.369141,-11325.150913,-1924.535449,-1991.848295
3675.369471,-10362.883188,-2368.659014,76.609550
3675.369801,-9252.574275,-2146.597232,766.095498
3675.370130,-7105.977043,-1702.473667,1915.238745
3675.370460,-6513.812290,-962.267725,1762.019645
3675.370790,-7105.977043,444.123565,612.876398
3675.371120,-8586.388927,1036.288319,1149.143247
3675.371450,-10584.944971,2072.576638,1225.752797
3675.371780,-11547.212695,1850.514855,1072.533697
3675.372110,-11325.150913,1258.350101,612.876398
3675.372439,-12583.501014,370.102971,-1072.533697
3675.372769,-12435.459826,-666.185348,-1302.362347
3675.373099,-11473.192101,-1480.411884,-612.876398
3675.373429,-9770.718434,-1332.370696,612.876398
3675.373759,-7920.203579,-1332.370696,1302.362347
3675.374089,-6439.791695,-1332.370696,2221.676944
3675.374419,-6661.853478,-148.041188,1608.800546
3675.374749,-7402.059420,222.061783,1685.410096
3675.375078,-9030.512492,1110.308913,1915.238745
3675.375408,-10955.047942,1406.391290,1685.410096
3675.375738,-12139.377449,1332.370696,1455.581446
3675.376068,-12435.459826,888.247130,459.657299
3675.376398,-12583.501014,0.000000,-689.485948
3675.376728,-12139.377449,-666.185348,-766.095498
3675.377058,-11103.089130,-814.226536,-306.438199
3675.377388,-8586.388927,-962.267725,842.705048
3675.377717,-5995.668130,-592.164754,1838.629195
3675.378047,-6735.874072,222.061783,766.095498
3675.378377,-7328.038826,814.226536,229.828649
3675.378707,-8956.491898,1554.432478,612.876398
3675.379037,-10436.903782,2294.638420,689.485948
3675.379367,-11251.130318,2146.597232,612.876398
3675.379697,-12435.459826,1554.432478,153.219100
3675.380026,-12879.583391,814.226536,-1378.971896
3675.380356,-11917.315666,-888.247130,-995.924147
3675.380686,-11029.068536,-1036.288319,-306.438199
3675.381016,-9548.656652,-1332.370696,612.876398
3675.381346,-7254.018232,-1036.288319,1762.019645
3675.381676,-6661.853478,-74.020594,536.266849
3675.382006,-6735.874072,592.164754,-306.438199
3675.382336,-7624.121203,814.226536,459.657299
3675.382665,-9992.780217,2368.659014,76.609550
3675.382995,-10658.965565,2146.597232,-153.219100
3675.383325,-11029.068536,1554.432478,-1378.971896
3675.383655,-11843.295072,666.185348,-1685.410096
3675.383985,-12065.356855,-444.123565,-1991.848295
3675.384315,-11843.295072,-1258.350101,-1072.533697
3675.384645,-10510.924376,-1850.514855,-612.876398
3675.384975,-7476.080014,-1850.514855,383.047749
3675.385304,-5847.626942,-1184.329507,842.705048
3675.385634,-6957.935855,0.000000,-459.657299
3675.385964,-7476.080014,518.144159,459.657299
3675.386294,-9326.594869,1924.535449,459.657299
3675.386624,-10881.027347,2442.679609,0.000000
3675.386954,-11251.130318,1406.391290,-612.876398
3675.387284,-12213.398043,518.144159,-1149.143247
3675.387613,-11917.315666,-814.226536,-1685.410096
3675.387943,-11991.336260,-1628.453072,-536.266849
3675.388273,-10881.027347,-1702.473667,0.000000
3675.388603,-8438.347739,-1850.514855,689.485948
3675.388933,-6217.729913,-1702.473667,1302.362347
3675.389263,-6587.832884,-666.185348,766.095498
3675.389593,-7476.080014,370.102971,919.314598
3675.389923,-8882.471304,1184.329507,1608.800546
3675.390252,-10807.006753,2146.597232,1455.581446
3675.390582,-11399.171507,2072.576638,995.924147
3675.390912,-12361.439231,296.082377,76.609550
3675.391242,-12435.459826,-222.061783,-919.314598
3675.391572,-11917.315666,-1258.350101,-612.876398
3675.391902,-11769.274478,-740.205942,76.609550
3675.392232,-9326.594869,-1480.411884,1225.752797
3675.392561,-7031.956449,-962.267725,2068.457845
3675.392891,-7105.977043,74.020594,1608.800546
3675.393221,-8142.265362,592.164754,0.000000
3675.393551,-8808.450710,740.205942,1072.533697
3675.393881,-10362.883188,1554.432478,1608.800546
3675.394211,-10362.883188,1406.391290,1608.800546
3675.394541,-10807.006753,888.247130,689.485948
3675.394871,-12287.418637,74.020594,-766.095498
3675.395200,-12213.398043,-518.144159,-842.705048
3675.395530,-12287.418637,-1036.288319,0.000000
3675.395860,-10658.965565,-1184.329507,306.438199
3675.396190,-8364.327145,-1036.288319,1378.971896
3675.396520,-7105.977043,-888.247130,2451.505594
3675.396850,-7105.977043,-296.082377,766.095498
3675.397180,-7624.121203,444.123565,76.609550
3675.397510,-8512.368333,1332.370696,-536.266849
3675.397839,-9622.677246,2072.576638,0.000000
3675.398169,-10362.883188,1702.473667,306.438199
3675.398499,-12139.377449,1184.329507,-383.047749
3675.398829,-12435.459826,296.082377,-1532.190996
3675.399159,-12213.398043,-740.205942,-1608.800546
3675.399489,-11103.089130,-1110.308913,-612.876398
3675.399819,-9104.533087,-1184.329507,689.485948
3675.400148,-7179.997637,-1110.308913,1838.629195
3675.400478,-6809.894666,-296.082377,76.609550
3675.400808,-7624.121203,74.020594,0.000000
3675.401138,-8956.491898,666.185348,76.609550
3675.401468,-10066.800811,1998.556043,0.000000
3675.401798,-9696.697840,1850.514855,383.047749
3675.402128,-10881.027347,888.247130,-612.876398
3675.402458,-12065.356855,148.041188,-1685.410096
3675.402787,-12139.377449,-888.247130,-1685.410096
3675.403117,-11991.336260,-1110.308913,-1149.143247
3675.403447,-9918.759623,-1258.350101,-612.876398
3675.403777,-7328.038826,-1702.473667,459.657299
3675.404107,-6661.853478,-1110.308913,153.219100
3675.404437,-7328.038826,-370.102971,-383.047749
3675.404767,-8438.347739,666.185348,536.266849
3675.405097,-10288.862594,1406.391290,229.828649
3675.405426,-10362.883188,1480.411884,0.000000
3675.405756,-11029.068536,592.164754,306.438199
3675.406086,-11473.192101,0.000000,-459.657299
3675.406416,-11399.171507,-1110.308913,-842.705048
3675.406746,-11473.192101,-1628.453072,0.000000
3675.407076,-10214.842000,-1628.453072,766.095498
3675.407406,-7476.080014,-1480.411884,2145.067394
3675.407735,-7328.038826,-592.164754,1608.800546
3675.408065,-7624.121203,-222.061783,-229.828649
3675.408395,-8068.244768,296.082377,-612.876398
3675.408725,-9548.656652,1110.308913,-306.438199
3675.409055,-9992.780217,1480.411884,919.314598
3675.409385,-10140.821405,1036.288319,995.924147
3675.409715,-10807.006753,74.020594,-766.095498
3675.410045,-10807.006753,0.000000,-1072.533697
3675.410374,-11473.192101,-296.082377,153.219100
3675.410704,-11695.253884,-444.123565,919.314598
3675.411034,-10066.800811,-592.164754,2068.457845
3675.411364,-9104.533087,-444.123565,1838.629195
3675.411694,-7920.203579,-370.102971,383.047749
3675.412024,-8290.306550,-74.020594,459.657299
3675.412354,-9030.512492,148.041188,1225.752797
3675.412683,-9474.636058,888.247130,1225.752797
3675.413013,-8956.491898,888.247130,1302.362347
3675.413343,-9770.718434,740.205942,306.438199
3675.413673,-11103.089130,888.247130,-229.828649
3675.414003,-12435.459826,148.041188,229.828649
3675.414333,-13175.665768,518.144159,229.828649
3675.414663,-11695.253884,0.000000,919.314598
3675.414993,-9474.636058,-740.205942,1532.190996
3675.415322,-8586.388927,-740.205942,689.485948
3675.415652,-8142.265362,-592.164754,0.000000
3675.415982,-7550.100608,370.102971,612.876398
3675.416312,-8364.327145,1110.308913,536.266849
3675.416642,-8512.368333,1258.350101,1072.533697
3675.416972,-9622.677246,1036.288319,459.657299
3675.417302,-11251.130318,962.267725,-1225.752797
3675.417632,-11621.233289,148.041188,-766.095498
3675.417961,-11843.295072,0.000000,-229.828649
3675.418291,-10955.047942,-444.123565,0.000000
3675.418621,-9252.574275,-666.185348,842.705048
3675.418951,-8808.450710,-518.144159,-459.657299
3675.419281,-8586.388927,-888.247130,-919.314598
3675.419611,-7920.203579,-148.041188,-229.828649
3675.419941,-8882.471304,666.185348,306.438199
3675.420270,-8586.388927,1628.453072,76.609550
3675.420600,-8808.450710,1110.308913,-689.485948
3675.420930,-10066.800811,1184.329507,-2451.505594
3675.421260,-11029.068536,666.185348,-2604.724693
3675.421590,-12509.480420,0.000000,-1685.410096
3675.421920,-12287.418637,-296.082377,-383.047749
3675.422250,-9992.780217,-962.267725,153.219100
3675.422580,-8364.327145,-1628.453072,0.000000
3675.422909,-8216.285956,-1628.453072,-229.828649
3675.423239,-8364.327145,-962.267725,842.705048
3675.423569,-9252.574275,148.041188,1378.971896
3675.423899,-9104.533087,1406.391290,1072.533697
3675.424229,-9030.512492,1036.288319,153.219100
3675.424559,-10214.842000,148.041188,-1225.752797
3675.424889,-11399.171507,370.102971,-1838.629195
3675.425219,-11473.192101,-518.144159,-1378.971896
3675.425548,-11103.089130,-740.205942,-612.876398
3675.425878,-9548.656652,-1110.308913,153.219100
3675.426208,-9030.512492,-1332.370696,995.924147
3675.426538,-8734.430116,-1332.370696,459.657299
3675.426868,-8586.388927,-1036.288319,536.266849
3675.427198,-9030.512492,-296.082377,1762.019645
3675.427528,-9548.656652,296.082377,2374.896044
3675.427857,-8882.471304,1036.288319,2911.162892
3675.428187,-9548.656652,740.205942,1762.019645
3675.428517,-10955.047942,888.247130,-229.828649
3675.428847,-11177.109724,296.082377,-536.266849
3675.429177,-12361.439231,518.144159,229.828649
3675.429507,-11547.212695,0.000000,766.095498
3675.429837,-9918.759623,-814.226536,1378.971896
3675.430167,-8734.430116,-888.247130,229.828649
3675.430496,-8290.306550,-1184.329507,-383.047749
3675.430826,-8068.244768,-740.205942,612.876398
3675.431156,-8586.388927,0.000000,1608.800546
3675.431486,-8808.450710,666.185348,1915.238745
3675.431816,-9400.615463,666.185348,2145.067394
3675.432146,-10881.027347,740.205942,919.314598
3675.432476,-11103.089130,148.041188,536.266849
3675.432806,-11769.274478,222.061783,842.705048
3675.433135,-11695.253884,222.061783,383.047749
3675.433465,-10362.883188,-74.020594,766.095498
3675.433795,-9696.697840,-296.082377,689.485948
3675.434125,-9474.636058,-370.102971,-766.095498
3675.434455,-8808.450710,148.041188,-153.219100
3675.434785,-9104.533087,518.144159,0.000000
3675.435115,-9030.512492,1036.288319,612.876398
3675.435444,-8364.327145,814.226536,1149.143247
3675.435774,-9918.759623,1406.391290,0.000000
3675.436104,-10288.862594,962.267725,-842.705048
3675.436434,-11029.068536,740.205942,-153.219100
3675.436764,-12065.356855,740.205942,459.657299
3675.437094,-11399.171507,296.082377,1302.362347
3675.437424,-9918.759623,0.000000,459.657299
3675.437754,-9030.512492,-370.102971,-919.314598
3675.438083,-8586.388927,-444.123565,-1072.533697
3675.438413,-8882.471304,222.061783,153.219100
3675.438743,-9104.533087,666.185348,76.609550
3675.439073,-7772.162391,814.226536,229.828649
3675.439403,-8882.471304,1184.329507,-842.705048
3675.439733,-9622.677246,814.226536,-2298.286494
3675.440063,-11103.089130,444.123565,-1685.410096
3675.440392,-11547.212695,222.061783,-1072.533697
3675.440722,-10807.006753,-74.020594,-229.828649
3675.441052,-9548.656652,-666.185348,1225.752797
3675.441382,-9326.594869,-888.247130,76.609550
3675.441712,-9252.574275,-888.247130,-536.266849
3675.442042,-8660.409521,-888.247130,612.876398
3675.442372,-9474.636058,222.061783,536.266849
3675.442702,-8438.347739,592.164754,612.876398
3675.443031,-8734.430116,814.226536,229.828649
3675.443361,-9548.656652,888.247130,-459.657299
3675.443691,-10214.842000,666.185348,-536.266849
3675.444021,-11843.295072,444.123565,-459.657299
3675.444351,-11843.295072,0.000000,0.000000
3675.444681,-9918.759623,-592.164754,536.266849
3675.445011,-9326.594869,-1036.288319,995.924147
3675.445341,-8956.491898,-1184.329507,612.876398
3675.445670,-9252.574275,-814.226536,1302.362347
3675.446000,-9474.636058,444.123565,1302.362347
3675.446330,-8808.450710,518.144159,842.705048
3675.446660,-8734.430116,370.102971,842.705048
3675.446990,-9474.636058,370.102971,0.000000
3675.447320,-9918.759623,370.102971,229.828649
3675.447650,-10955.047942,296.082377,612.876398
3675.447979,-11547.212695,222.061783,306.438199
3675.448309,-10510.924376,-444.123565,612.876398
3675.448639,-10140.821405,-1110.308913,76.609550
3675.448969,-9474.636058,-666.185348,-766.095498
3675.449296,-9474.636058,-962.267725,1149.143247
3675.449626,-9474.636058,0.000000,2068.457845
3675.449955,-9030.512492,148.041188,1072.533697
3675.450285,-8068.244768,444.123565,766.095498
3675.450615,-9030.512492,0.000000,0.000000
3675.450945,-10140.821405,222.061783,0.000000
3675.451274,-10658.965565,-222.061783,919.314598
3675.451604,-11103.089130,0.000000,1225.752797
3675.451934,-9844.739029,-222.061783,1302.362347
3675.452264,-9474.636058,-740.205942,1072.533697
3675.452593,-10288.862594,-518.144159,0.000000
3675.452923,-10807.006753,0.000000,689.485948
3675.453253,-10732.986159,370.102971,1072.533697
3675.453583,-10288.862594,888.247130,1149.143247
3675.453912,-8660.409521,666.185348,1378.971896
3675.454242,-9474.636058,592.164754,76.609550
3675.454572,-9326.594869,814.226536,-1915.238745
3675.454902,-9474.636058,518.144159,-995.924147
3675.455231,-10510.924376,814.226536,-536.266849
3675.455561,-10510.924376,888.247130,153.219100
3675.455891,-10288.862594,148.041188,842.705048
3675.456221,-10807.006753,0.000000,-612.876398
3675.456550,-10362.883188,-444.123565,-1685.410096
3675.456880,-9400.615463,-666.185348,-766.095498
3675.457210,-8882.471304,-370.102971,-153.219100
3675.457540,-8142.265362,444.123565,842.705048
3675.457870,-8364.327145,0.000000,536.266849
3675.458199,-9178.553681,296.082377,-383.047749
3675.458529,-9474.636058,74.020594,-1072.533697
3675.458859,-9844.739029,0.000000,-459.657299
3675.459189,-10362.883188,74.020594,-383.047749
3675.459518,-9548.656652,-222.061783,842.705048
3675.459848,-9252.574275,-740.205942,229.828649
3675.460178,-9474.636058,-518.144159,-689.485948
3675.460508,-9918.759623,-444.123565,-612.876398
3675.460837,-10955.047942,-74.020594,-383.047749
3675.461167,-10214.842000,148.041188,-383.047749
3675.461497,-9030.512492,-74.020594,229.828649
3675.461827,-8882.471304,74.020594,-153.219100
3675.462156,-8882.471304,0.000000,-306.438199
3675.462486,-9326.594869,148.041188,383.047749
3675.462816,-10288.862594,518.144159,383.047749
3675.463146,-10066.800811,814.226536,995.924147
3675.463475,-10658.965565,222.061783,1072.533697
3675.463805,-11251.130318,-370.102971,153.219100
3675.464135,-10658.965565,-740.205942,0.000000
3675.464465,-10140.821405,-370.102971,153.219100
3675.464795,-9844.739029,-222.061783,919.314598
3675.465124,-8438.347739,0.000000,995.924147
3675.465454,-8660.409521,0.000000,229.828649
3675.465784,-8956.491898,222.061783,-842.705048
3675.466114,-9178.553681,444.123565,-459.657299
3675.466443,-10436.903782,814.226536,383.047749
3675.466773,-10288.862594,740.205942,1072.533697
3675.467103,-9992.780217,74.020594,1608.800546
3675.467433,-10807.006753,222.061783,0.000000
3675.467762,-10658.965565,-370.102971,76.609550
3675.468092,-10881.027347,-444.123565,1378.971896
3675.468422,-11103.089130,0.000000,1762.019645
3675.468752,-10140.821405,518.144159,1225.752797
3675.469081,-8956.491898,-148.041188,766.095498
3675.469411,-8956.491898,0.000000,-919.314598
3675.469741,-8660.409521,-296.082377,0.000000
3675.470071,-9474.636058,222.061783,1455.581446
3675.470400,-9252.574275,518.144159,1302.362347
3675.470730,-8290.306550,370.102971,1838.629195
3675.471060,-9400.615463,222.061783,766.095498
3675.471390,-11325.150913,444.123565,-383.047749
3675.471720,-11769.274478,148.041188,306.438199
3675.472049,-11769.274478,0.000000,842.705048
3675.472379,-9992.780217,0.000000,1302.362347
3675.472709,-9252.574275,-518.144159,2221.676944
3675.473039,-8734.430116,0.000000,612.876398
3675.473368,-8586.388927,-74.020594,-459.657299
3675.473698,-9030.512492,296.082377,-536.266849
3675.474028,-9770.718434,888.247130,-306.438199
3675.474358,-9252.574275,888.247130,306.438199
3675.474687,-9548.656652,666.185348,536.266849
3675.475017,-10066.800811,444.123565,-1532.190996
3675.475347,-10955.047942,0.000000,-1915.238745
3675.475677,-11251.130318,0.000000,-1532.190996
3675.476006,-10510.924376,0.000000,-1225.752797
3675.476336,-9252.574275,-518.144159,0.000000
3675.476666,-8956.491898,-740.205942,-689.485948
3675.476996,-8586.388927,-888.247130,-1149.143247
3675.477325,-8290.306550,-592.164754,0.000000
3675.477655,-9104.533087,-296.082377,612.876398
3675.477985,-8586.388927,222.061783,766.095498
3675.478315,-8882.471304,444.123565,689.485948
3675.478645,-10436.903782,296.082377,-689.485948
3675.478974,-11029.068536,296.082377,-383.047749
3675.479304,-11917.315666,-222.061783,0.000000
3675.479634,-11325.150913,-370.102971,-689.485948
3675.479964,-9474.636058,-1184.329507,-229.828649
3675.480293,-8586.388927,-1480.411884,-766.095498
3675.480623,-8808.450710,-1258.350101,-919.314598
3675.480953,-8290.306550,-1110.308913,0.000000
3675.481283,-8734.430116,-222.061783,536.266849
3675.481612,-9104.533087,370.102971,1072.533697
3675.481942,-8808.450710,518.144159,2298.286494
3675.482272,-10214.842000,444.123565,1072.533697
3675.482602,-11621.233289,74.020594,459.657299
3675.482931,-11917.315666,0.000000,536.266849
3675.483261,-11843.295072,0.000000,536.266849
3675.483591,-10732.986159,0.000000,153.219100
3675.483921,-9548.656652,-740.205942,689.485948
3675.484250,-9104.533087,-814.226536,-689.485948
3675.484580,-8068.244768,-592.164754,-766.095498
3675.484910,-8438.347739,0.000000,0.000000
3675.485240,-8882.471304,444.123565,766.095498
3675.485570,-7994.224174,1036.288319,1532.190996
3675.485899,-8586.388927,814.226536,1225.752797
3675.486229,-9844.739029,740.205942,229.828649
3675.486559,-11547.212695,740.205942,1072.533697
3675.486889,-12953.603985,666.185348,1149.143247
3675.487218,-11917.315666,0.000000,1072.533697
3675.487548,-9918.759623,-148.041188,459.657299
3675.487878,-9548.656652,-1036.288319,229.828649
3675.488208,-8586.388927,-1184.329507,459.657299
3675.488537,-8216.285956,-444.123565,1915.238745
3675.488867,-8290.306550,518.144159,1455.581446
3675.489197,-7402.059420,1184.329507,1685.410096
3675.489527,-8290.306550,1110.308913,919.314598
3675.489856,-10584.944971,1776.494261,153.219100
3675.490186,-11843.295072,1406.391290,612.876398
3675.490516,-12731.542202,1184.329507,612.876398
3675.490846,-12065.356855,1036.288319,153.219100
3675.491175,-10510.924376,518.144159,0.000000
3675.491505,-10214.842000,-518.144159,-919.314598
3675.491835,-9178.553681,-370.102971,-1225.752797
3675.492165,-7994.224174,-296.082377,229.828649
3675.492495,-8364.327145,444.123565,536.266849
3675.492824,-7994.224174,1184.329507,1225.752797
3675.493154,-7624.121203,1406.391290,1225.752797
3675.493484,-9474.636058,1554.432478,-766.095498
3675.493814,-11251.130318,1406.391290,-1378.971896
3675.494143,-11917.315666,888.247130,-689.485948
3675.494473,-11917.315666,666.185348,-612.876398
3675.494803,-10881.027347,148.041188,-306.438199
3675.495133,-10510.924376,-814.226536,-689.485948
3675.495462,-9770.718434,-1332.370696,-2221.676944
3675.495792,-8142.265362,-1702.473667,-1302.362347
3675.496122,-7846.182985,-666.185348,76.609550
3675.496452,-7402.059420,74.020594,995.924147
3675.496781,-6883.915261,444.123565,1685.410096
3675.497111,-8438.347739,814.226536,229.828649
3675.497441,-10066.800811,1332.370696,-2068.457845
3675.497771,-11843.295072,962.267725,-1072.533697
3675.498100,-13249.686362,814.226536,-1072.533697
3675.498430,-11991.336260,-296.082377,0.000000
3675.498760,-10658.965565,-740.205942,612.876398
3675.499090,-9918.759623,-1924.535449,-689.485948
3675.499420,-8364.327145,-2220.617826,-459.657299
3675.499749,-7920.203579,-1850.514855,383.047749
3675.500079,-7550.100608,-740.205942,766.095498
3675.500409,-6735.874072,0.000000,2145.067394
3675.500739,-7994.224174,518.144159,2298.286494
3675.501068,-9696.697840,666.185348,383.047749
3675.501398,-10658.965565,814.226536,-459.657299
3675.501728,-12139.377449,1110.308913,-1225.752797
3675.502058,-13027.624579,740.205942,0.000000
3675.502387,-11917.315666,-296.082377,842.705048
3675.502717,-11177.109724,-1036.288319,76.609550
3675.503047,-9844.739029,-1036.288319,-612.876398
3675.503377,-8882.471304,-1406.391290,0.000000
3675.503706,-8290.306550,-888.247130,306.438199
3675.504036,-6957.935855,-296.082377,1915.238745
3675.504366,-6957.935855,518.144159,2911.162892
3675.504696,-8808.450710,1110.308913,2068.457845
3675.505025,-10807.006753,1480.411884,612.876398
3675.505355,-12065.356855,888.247130,0.000000
3675.505685,-12805.562797,962.267725,0.000000
3675.506015,-12213.398043,444.123565,459.657299
3675.506344,-11843.295072,-1036.288319,536.266849
3675.506674,-10362.883188,-1628.453072,-229.828649
3675.507004,-8364.327145,-1702.473667,842.705048
3675.507334,-7328.038826,-370.102971,1378.971896
3675.507664,-7402.059420,-592.164754,1991.848295
3675.507993,-6883.915261,370.102971,2834.553343
3675.508323,-7698.141797,1184.329507,1915.238745
3675.508653,-9844.739029,1406.391290,76.609550
3675.508983,-11399.171507,1036.288319,612.876398
3675.509312,-13323.706956,1480.411884,766.095498
3675.509642,-12731.542202,1110.308913,995.924147
3675.509972,-11917.315666,-370.102971,0.000000
3675.510302,-10658.965565,-740.205942,-1991.848295
3675.510631,-9252.574275,-1332.370696,-1838.629195
3675.510961,-8068.244768,-888.247130,-536.266849
3675.511291,-7476.080014,-444.123565,766.095498
3675.511621,-5847.626942,222.061783,2298.286494
3675.511950,-7179.997637,1036.288319,1149.143247
3675.512280,-8660.409521,1332.370696,-995.924147
3675.512610,-10584.944971,1480.411884,-766.095498
3675.512940,-12805.562797,1776.494261,-459.657299
3675.513269,-13323.706956,1110.308913,0.000000
3675.513599,-12435.459826,222.061783,-229.828649
3675.513929,-11325.150913,-1110.308913,-1991.848295
3675.514259,-9992.780217,-1776.494261,-2221.676944
3675.514589,-8512.368333,-1776.494261,-1149.143247
3675.514918,-7624.121203,-1258.350101,-306.438199
3675.515248,-6587.832884,-296.082377,1302.362347
3675.515578,-6587.832884,222.061783,1378.971896
3675.515908,-7698.141797,1258.350101,-1225.752797
3675.516237,-9622.677246,1702.473667,-1685.410096
3675.516567,-11843.295072,1480.411884,-1378.971896
3675.516897,-12805.562797,1628.453072,-306.438199
3675.517227,-12657.521608,370.102971,-612.876398
3675.517556,-11991.336260,-962.267725,-1072.533697
3675.517886,-10955.047942,-1998.556043,-1608.800546
3675.518216,-9400.615463,-2294.638420,-306.438199
3675.518546,-8660.409521,-1850.514855,689.485948
3675.518875,-6735.874072,-740.205942,1991.848295
3675.519205,-5477.523971,-296.082377,2528.115143
3675.519535,-6809.894666,888.247130,1225.752797
3675.519865,-8808.450710,1406.391290,689.485948
3675.520194,-11399.171507,1850.514855,-229.828649
3675.520524,-13767.830521,1924.535449,229.828649
3675.520854,-13619.789333,1258.350101,153.219100
3675.521184,-13175.665768,-518.144159,-459.657299
3675.521514,-11177.109724,-1184.329507,-1685.410096
3675.521843,-9252.574275,-1702.473667,-689.485948
3675.522173,-7994.224174,-1406.391290,0.000000
3675.522503,-6513.812290,-1184.329507,1072.533697
3675.522833,-5255.462188,74.020594,2451.505594
3675.523162,-6661.853478,1036.288319,2451.505594
3675.523492,-8882.471304,1702.473667,1455.581446
3675.523822,-10732.986159,1924.535449,919.314598
3675.524152,-12583.501014,1776.494261,76.609550
3675.524481,-13101.645173,1184.329507,766.095498
3675.524811,-12361.439231,74.020594,766.095498
3675.525141,-12583.501014,-296.082377,-229.828649
3675.525471,-10288.862594,-1850.514855,612.876398
3675.525800,-9548.656652,-1036.288319,0.000000
3675.526130,-7994.224174,-814.226536,536.266849
3675.526460,-6291.750507,-518.144159,1532.190996
3675.526790,-6291.750507,740.205942,1762.019645
3675.527119,-7105.977043,1850.514855,1072.533697
3675.527449,-9104.533087,2220.617826,766.095498
3675.527779,-11769.274478,2368.659014,0.000000
3675.528109,-13027.624579,2220.617826,-229.828649
3675.528439,-13027.624579,1258.350101,0.000000
3675.528768,-14063.912898,222.061783,-919.314598
3675.529098,-12287.418637,-1332.370696,-1225.752797
3675.529428,-9992.780217,-1332.370696,0.000000
3675.529758,-7105.977043,-1702.473667,612.876398
3675.530087,-5699.585753,-740.205942,842.705048
3675.530417,-5107.421000,0.000000,1838.629195
3675.530747,-6735.874072,1258.350101,153.219100
3675.531077,-8290.306550,1776.494261,-229.828649
3675.531406,-10362.883188,2368.659014,0.000000
3675.531736,-12731.542202,1924.535449,-689.485948
3675.532066,-12879.583391,666.185348,-766.095498
3675.532396,-12953.603985,-592.164754,-1838.629195
3675.532725,-11547.212695,-1628.453072,-2145.067394
3675.533055,-10214.842000,-2368.659014,-842.705048
3675.533385,-9326.594869,-1924.535449,0.000000
3675.533715,-7105.977043,-1702.473667,842.705048
3675.534044,-6069.688724,-740.205942,1838.629195
3675.534374,-6661.853478,74.020594,459.657299
3675.534704,-7920.203579,1036.288319,-229.828649
3675.535034,-9474.636058,1406.391290,-383.047749
3675.535364,-11325.150913,2146.597232,-306.438199
3675.535693,-12065.356855,1850.514855,-383.047749
3675.536023,-14137.933492,222.061783,-1225.752797
3675.536353,-13323.706956,-962.267725,-2068.457845
3675.536683,-11991.336260,-2590.720797,-689.485948
3675.537012,-10584.944971,-3034.844362,536.266849
3675.537342,-7550.100608,-2664.741391,1608.800546
3675.537672,-4737.318029,-1628.453072,2604.724693
3675.538002,-4811.338623,-888.247130,1685.410096
3675.538331,-6587.832884,1036.288319,306.438199
3675.538661,-8956.491898,2072.576638,766.095498
3675.538991,-11991.336260,2664.741391,306.438199
3675.539321,-12657.521608,2590.720797,995.924147
3675.539650,-13619.789333,814.226536,153.219100
3675.539980,-13693.809927,0.000000,-1762.019645
3675.540310,-12213.398043,-1554.432478,-1685.410096
3675.540640,-10955.047942,-1998.556043,-766.095498
3675.540969,-8216.285956,-1776.494261,-153.219100
3675.541299,-5477.523971,-1628.453072,1685.410096
3675.541629,-4811.338623,-592.164754,2681.334243
3675.541959,-6735.874072,666.185348,1915.238745
3675.542289,-7994.224174,1258.350101,1378.971896
3675.542618,-9918.759623,1850.514855,842.705048
3675.542948,-12287.418637,2368.659014,919.314598
3675.543278,-12879.583391,1480.411884,1149.143247
3675.543608,-13989.892304,518.144159,306.438199
3675.543937,-13989.892304,-1554.432478,0.000000
3675.544267,-10881.027347,-1332.370696,0.000000
3675.544597,-9918.759623,-1554.432478,76.609550
3675.544927,-7254.018232,-1184.329507,1072.533697
3675.545256,-5477.523971,-592.164754,2145.067394
3675.545586,-5699.585753,592.164754,2145.067394
3675.545916,-7105.977043,1554.432478,1302.362347
3675.546246,-9474.636058,2220.617826,919.314598
3675.546575,-11547.212695,3404.947333,383.047749
3675.546905,-12287.418637,2368.659014,-383.047749
3675.547235,-13619.789333,1184.329507,-1608.800546
3675.547565,-14211.954086,-666.185348,-2451.505594
3675.547894,-11695.253884,-888.247130,-995.924147
3675.548224,-10807.006753,-1850.514855,76.609550
3675.548554,-8290.306550,-1554.432478,766.095498
3675.548884,-6069.688724,-814.226536,1685.410096
3675.549213,-5699.585753,-444.123565,1838.629195
3675.549543,-6661.853478,1036.288319,536.266849
3675.549873,-7846.182985,1702.473667,306.438199
3675.550203,-10362.883188,2812.782580,0.000000
3675.550533,-11325.150913,2590.720797,-766.095498
3675.550862,-12953.603985,1850.514855,-1762.019645
3675.551192,-13767.830521,370.102971,-2911.162892
3675.551522,-13027.624579,-1110.308913,-2911.162892
3675.551852,-11695.253884,-1924.535449,-1455.581446
3675.552182,-9252.574275,-2368.659014,-306.438199
3675.552511,-6069.688724,-1998.556043,1532.190996
3675.552841,-5329.482782,-1554.432478,1378.971896
3675.553171,-6143.709319,0.000000,229.828649
3675.553501,-7402.059420,1110.308913,153.219100
3675.553831,-9992.780217,2146.597232,459.657299
3675.554160,-12287.418637,2664.741391,1225.752797
3675.554490,-13249.686362,1480.411884,689.485948
3675.554820,-13693.809927,74.020594,-1608.800546
3675.555150,-12805.562797,-1628.453072,-2451.505594
3675.555480,-11325.150913,-2442.679609,-1149.143247
3675.555810,-10066.800811,-2738.761985,76.609550
3675.556139,-7105.977043,-1998.556043,2298.286494
3675.556469,-5625.565159,-1702.473667,2374.896044
3675.556799,-6513.812290,-444.123565,995.924147
3675.557129,-7550.100608,740.205942,995.924147
3675.557459,-9474.636058,1110.308913,995.924147
3675.557789,-10732.986159,2072.576638,995.924147
3675.558118,-11621.233289,1184.329507,1072.533697
3675.558448,-13397.727550,296.082377,0.000000
3675.558778,-13397.727550,-1184.329507,-1378.971896
3675.559108,-12657.521608,-2294.638420,-612.876398
3675.559438,-10658.965565,-2368.659014,153.219100
3675.559768,-8068.244768,-2072.576638,1225.752797
3675.560097,-5625.565159,-1850.514855,2834.553343
3675.560427,-5699.585753,-1110.308913,1991.848295
3675.560757,-6883.915261,296.082377,766.095498
3675.561087,-8808.450710,1184.329507,536.266849
3675.561417,-11177.109724,2442.679609,842.705048
3675.561746,-11399.171507,1998.556043,689.485948
3675.562076,-12435.459826,814.226536,229.828649
3675.562406,-13471.748144,-592.164754,-842.705048
3675.562736,-12731.542202,-962.267725,-919.314598
3675.563066,-12065.356855,-1406.391290,76.609550
3675.563396,-9696.697840,-1036.288319,995.924147
3675.563725,-7254.018232,-814.226536,2451.505594
3675.564055,-6217.729913,-296.082377,1915.238745
3675.564385,-6957.935855,740.205942,536.266849
3675.564715,-7550.100608,888.247130,536.266849
3675.565045,-9622.677246,2590.720797,536.266849
3675.565375,-10288.862594,2812.782580,0.000000
3675.565704,-11547.212695,2220.617826,-919.314598
3675.566034,-13323.706956,1110.308913,-2374.896044
3675.566364,-12805.562797,0.000000,-2451.505594
3675.566694,-12805.562797,-888.247130,-919.314598
3675.567024,-10362.883188,-1850.514855,306.438199
3675.567354,-7254.018232,-1702.473667,1991.848295
3675.567683,-5551.544565,-1554.432478,2451.505594
3675.568013,-6439.791695,-148.041188,612.876398
3675.568343,-6957.935855,296.082377,689.485948
3675.568673,-8660.409521,1628.453072,612.876398
3675.569003,-10214.842000,2368.659014,153.219100
3675.569332,-11029.068536,2072.576638,-229.828649
3675.569662,-12657.521608,1258.350101,-2068.457845
3675.569992,-12805.562797,74.020594,-3140.991542
3675.570322,-12213.398043,-814.226536,-2374.896044
3675.570652,-11547.212695,-1332.370696,-1378.971896
3675.570982,-8586.388927,-1850.514855,153.219100
3675.571311,-6513.812290,-1554.432478,1532.190996
3675.571641,-6217.729913,-962.267725,689.485948
3675.571971,-6809.894666,222.061783,383.047749
3675.572301,-8660.409521,1332.370696,842.705048
3675.572631,-10362.883188,2368.659014,306.438199
3675.572961,-11103.089130,2220.617826,919.314598
3675.573290,-12657.521608,1258.350101,76.609550
3675.573620,-13027.624579,0.000000,-1685.410096
3675.573950,-12435.459826,-1406.391290,-689.485948
3675.574280,-11695.253884,-1776.494261,0.000000
3675.574610,-9178.553681,-1998.556043,842.705048
3675.574939,-6513.812290,-1850.514855,1838.629195
3675.575269,-6217.729913,-1036.288319,1378.971896
3675.575599,-6439.791695,-148.041188,153.219100
3675.575929,-7846.182985,1184.329507,995.924147
3675.576259,-9918.759623,2072.576638,842.705048
3675.576589,-10362.883188,2368.659014,995.924147
3675.576918,-11103.089130,1406.391290,766.095498
3675.577248,-12731.542202,888.247130,-1302.362347
3675.577578,-12805.562797,0.000000,-1685.410096
3675.577908,-12583.501014,-740.205942,-689.485948
3675.578238,-10807.006753,-444.123565,0.000000
3675.578568,-7846.182985,-1406.391290,1991.848295
3675.578897,-6513.812290,-1258.350101,1991.848295
3675.579227,-6735.874072,-740.205942,766.095498
3675.579557,-6957.935855,-296.082377,995.924147
3675.579887,-9178.553681,1036.288319,1685.410096
3675.580217,-9696.697840,1480.411884,1685.410096
3675.580547,-10288.862594,1258.350101,1455.581446
3675.580876,-12435.459826,814.226536,0.000000
3675.581206,-12657.521608,0.000000,-1302.362347
3675.581536,-12583.501014,-814.226536,-766.095498
3675.581866,-11843.295072,-814.226536,0.000000
3675.582196,-8808.450710,-1332.370696,1225.752797
3675.582525,-7105.977043,-814.226536,1991.848295
3675.582855,-7254.018232,-222.061783,459.657299
3675.583185,-7994.224174,222.061783,153.219100
3675.583515,-9030.512492,962.267725,306.438199
3675.583845,-9918.759623,1924.535449,459.657299
3675.584175,-9696.697840,1776.494261,689.485948
3675.584504,-11251.130318,1036.288319,-229.828649
3675.584834,-12509.480420,592.164754,-1685.410096
3675.585164,-12879.583391,-222.061783,-995.924147
3675.585494,-11917.315666,-740.205942,-919.314598
3675.585824,-9844.739029,-1258.350101,0.000000
3675.586154,-7550.100608,-1406.391290,1225.752797
3675.586483,-7179.997637,-1554.432478,536.266849
3675.586813,-7105.977043,-1110.308913,-153.219100
3675.587143,-7476.080014,-370.102971,229.828649
3675.587473,-8734.430116,1036.288319,-76.609550
3675.587803,-9474.636058,1258.350101,459.657299
3675.588133,-10955.047942,888.247130,0.000000
3675.588462,-11843.295072,370.102971,-1608.800546
3675.588792,-12213.398043,-296.082377,-1762.019645
3675.589122,-12583.501014,-1332.370696,-919.314598
3675.589452,-11103.089130,-962.267725,0.000000
3675.589782,-8660.409521,-1924.535449,1225.752797
3675.590111,-7772.162391,-1628.453072,919.314598
3675.590441,-7179.997637,-1332.370696,0.000000
3675.590771,-6957.935855,-518.144159,383.047749
3675.591101,-8734.430116,1258.350101,306.438199
3675.591431,-9104.533087,1480.411884,153.219100
3675.591761,-9844.739029,1184.329507,-229.828649
3675.592090,-11325.150913,518.144159,-1608.800546
3675.592420,-11547.212695,0.000000,-1762.019645
3675.592750,-12287.418637,-962.267725,0.000000
3675.593080,-12139.377449,-962.267725,459.657299
3675.593410,-9400.615463,-1258.350101,1455.581446
3675.593740,-7550.100608,-1702.473667,1608.800546
3675.594069,-7698.141797,-888.247130,383.047749
3675.594399,-7624.121203,0.000000,919.314598
3675.594729,-8512.368333,888.247130,1685.410096
3675.595059,-9104.533087,2294.638420,1378.971896
3675.595389,-9104.533087,2368.659014,1302.362347
3675.595718,-11325.150913,2072.576638,-306.438199
3675.596048,-12361.439231,1554.432478,-1532.190996
3675.596378,-12583.501014,666.185348,-842.705048
3675.596708,-12509.480420,444.123565,76.609550
3675.597038,-10066.800811,-74.020594,1149.143247
3675.597368,-8142.265362,-444.123565,1915.238745
3675.597697,-7772.162391,-296.082377,459.657299
3675.598027,-7179.997637,0.000000,229.828649
3675.598357,-9104.533087,962.267725,1991.848295
3675.598687,-9548.656652,1628.453072,1991.848295
3675.599017,-8956.491898,1702.473667,2911.162892
3675.599347,-10288.862594,1332.370696,1532.190996
3675.599676,-11621.233289,1332.370696,-919.314598
3675.600006,-11695.253884,296.082377,-995.924147
3675.600336,-12509.480420,148.041188,-459.657299
3675.600666,-10955.047942,0.000000,383.047749
3675.600996,-8586.388927,-814.226536,2068.457845
3675.601326,-8068.244768,-592.164754,689.485948
3675.601655,-7254.018232,-444.123565,0.000000
3675.601985,-7698.141797,518.144159,459.657299
3675.602315,-9104.533087,1628.453072,459.657299
3675.602645,-9252.574275,1480.411884,1072.533697
3675.602975,-9770.718434,1406.391290,229.828649
3675.603304,-11251.130318,1628.453072,-1532.190996
3675.603634,-11843.295072,666.185348,-1532.190996
3675.603964,-12139.377449,74.020594,-1532.190996
3675.604294,-11251.130318,-222.061783,-766.095498
3675.604624,-8512.368333,-962.267725,536.266849
3675.604954,-8734.430116,-888.247130,766.095498
3675.605283,-8290.306550,-814.226536,-459.657299
3675.605613,-7328.038826,-666.185348,-459.657299
3675.605943,-8438.347739,444.123565,0.000000
3675.606273,-8956.491898,814.226536,0.000000
3675.606603,-9104.533087,814.226536,383.047749
3675.606933,-10436.903782,518.144159,-1378.971896
3675.607262,-10955.047942,74.020594,-2298.286494
3675.607592,-11399.171507,-444.123565,-1455.581446
3675.607922,-11547.212695,-444.123565,-1302.362347
3675.608252,-10214.842000,-592.164754,842.705048
3675.608582,-9178.553681,-1480.411884,1302.362347
3675.608912,-9474.636058,-1332.370696,-383.047749
3675.609241,-8808.450710,-1332.370696,0.000000
3675.609571,-8808.450710,-592.164754,842.705048
3675.609901,-9104.533087,518.144159,1455.581446
3675.610231,-8586.388927,222.061783,1762.019645
3675.610561,-9696.697840,0.000000,536.266849
3675.610890,-9696.697840,296.082377,-919.314598
3675.611220,-10881.027347,0.000000,0.000000
3675.611550,-13101.645173,222.061783,689.485948
3675.611880,-12361.439231,-518.144159,1532.190996
3675.612210,-9918.759623,-666.185348,2298.286494
3675.612540,-9400.615463,-1480.411884,229.828649
3675.612869,-8290.306550,-962.267725,-689.485948
3675.613199,-8216.285956,-592.164754,536.266849
3675.613529,-8364.327145,222.061783,383.047749
3675.613859,-7476.080014,740.205942,1532.190996
3675.614189,-8882.471304,370.102971,1225.752797
3675.614519,-10807.006753,740.205942,76.609550
3675.614848,-11251.130318,0.000000,0.000000
3675.615178,-11991.336260,-370.102971,306.438199
3675.615508,-11695.253884,-296.082377,689.485948
3675.615838,-9918.759623,-740.205942,2298.286494
3675.616168,-9474.636058,-1110.308913,995.924147
3675.616498,-8216.285956,-1110.308913,-76.609550
3675.616827,-7994.224174,-666.185348,229.828649
3675.617157,-8956.491898,296.082377,919.314598
3675.617487,-8808.450710,888.247130,1225.752797
3675.617817,-7846.182985,962.267725,1762.019645
3675.618147,-9400.615463,1184.329507,-842.705048
3675.618476,-10066.800811,888.247130,-1455.581446
3675.618806,-11991.336260,370.102971,-766.095498
3675.619136,-12287.418637,666.185348,-229.828649
3675.619466,-10807.006753,296.082377,1149.143247
3675.619796,-9844.739029,-370.102971,842.705048
3675.620126,-9474.636058,0.000000,-689.485948
3675.620455,-8660.409521,0.000000,0.000000
3675.620785,-9104.533087,370.102971,766.095498
3675.621115,-9252.574275,1480.411884,1072.533697
3675.621445,-9030.512492,1406.391290,1455.581446
3675.621775,-9918.759623,1258.350101,-459.657299
3675.622105,-10955.047942,1628.453072,-2604.724693
3675.622434,-11325.150913,296.082377,-1532.190996
3675.622764,-11917.315666,148.041188,-766.095498
3675.623094,-10584.944971,0.000000,-229.828649
3675.623424,-9030.512492,-1110.308913,612.876398
3675.623754,-9104.533087,-740.205942,-766.095498
3675.624083,-8808.450710,-1110.308913,-306.438199
3675.624413,-8882.471304,-444.123565,689.485948
3675.624743,-9252.574275,518.144159,766.095498
3675.625073,-7994.224174,1036.288319,1225.752797
3675.625403,-9030.512492,296.082377,76.609550
3675.625733,-9844.739029,592.164754,-1838.629195
3675.626062,-10140.821405,0.000000,-2298.286494
3675.626392,-11621.233289,0.000000,-1608.800546
3675.626722,-11029.068536,-370.102971,-306.438199
3675.627052,-9474.636058,-1406.391290,1072.533697
3675.627382,-9104.533087,-962.267725,0.000000
3675.627712,-8956.491898,-888.247130,-1302.362347
3675.628041,-8882.471304,-814.226536,306.438199
3675.628371,-9326.594869,0.000000,383.047749
3675.628701,-9178.553681,370.102971,1608.800546
3675.629031,-9252.574275,370.102971,2068.457845
3675.629361,-9696.697840,444.123565,459.657299
3675.629691,-9548.656652,296.082377,0.000000
3675.630020,-11103.089130,444.123565,0.000000
3675.630350,-11917.315666,222.061783,-76.609550
3675.630680,-10362.883188,-518.144159,1532.190996
3675.631010,-10658.965565,-74.020594,766.095498
3675.631340,-9548.656652,-592.164754,-383.047749
3675.631669,-9104.533087,-592.164754,689.485948
3675.631999,-9178.553681,-74.020594,1608.800546
3675.632329,-8808.450710,444.123565,1072.533697
3675.632659,-7846.182985,444.123565,1455.581446
3675.632989,-9252.574275,740.205942,459.657299
3675.633319,-9696.697840,1110.308913,153.219100
3675.633648,-10881.027347,518.144159,536.266849
3675.633978,-11991.336260,814.226536,76.609550
3675.634308,-11177.109724,444.123565,919.314598
3675.634638,-10362.883188,-370.102971,1608.800546
3675.634968,-9918.759623,-740.205942,0.000000
3675.635298,-9104.533087,-962.267725,612.876398
3675.635627,-8956.491898,-444.123565,1608.800546
3675.635957,-9030.512492,370.102971,1455.581446
3675.636287,-8068.244768,592.164754,1455.581446
3675.636617,-9178.553681,592.164754,306.438199
3675.636947,-9918.759623,1110.308913,-536.266849
3675.637277,-9918.759623,370.102971,0.000000
3675.637606,-11029.068536,592.164754,-229.828649
3675.637936,-10362.883188,444.123565,536.266849
3675.638266,-10214.842000,0.000000,1302.362347
3675.638596,-10436.903782,0.000000,-153.219100
3675.638926,-10140.821405,-222.061783,-612.876398
3675.639255,-9400.615463,-518.144159,229.828649
3675.639585,-9548.656652,740.205942,612.876398
3675.639915,-8808.450710,592.164754,1072.533697
3675.640245,-8660.409521,222.061783,459.657299
3675.640575,-9474.636058,740.205942,-1762.019645
3675.640905,-9696.697840,518.144159,-1455.581446
3675.641234,-11251.130318,518.144159,-766.095498
3675.641564,-11547.212695,666.185348,-459.657299
3675.641894,-10214.842000,0.000000,76.609550
3675.642224,-9770.718434,-518.144159,0.000000
3675.642554,-9548.656652,-814.226536,-1378.971896
3675.642884,-9252.574275,-888.247130,-536.266849
3675.643213,-9622.677246,-666.185348,-153.219100
3675.643543,-8882.471304,222.061783,0.000000
3675.643873,-8438.347739,-74.020594,459.657299
3675.644203,-9474.636058,222.061783,-383.047749
3675.644533,-9400.615463,0.000000,-689.485948
3675.644862,-10658.965565,296.082377,-1072.533697
3675.645192,-11029.068536,370.102971,-1149.143247
3675.645522,-10288.862594,0.000000,229.828649
3675.645852,-9770.718434,-592.164754,536.266849
3675.646182,-9844.739029,-592.164754,-306.438199
3675.646512,-9548.656652,-888.247130,306.438199
3675.646841,-9770.718434,-666.185348,612.876398
3675.647171,-9474.636058,0.000000,536.266849
3675.647501,-8438.347739,0.000000,1302.362347
3675.647831,-9030.512492,74.020594,689.485948
3675.648161,-9104.533087,296.082377,383.047749
3675.648491,-9770.718434,74.020594,1072.533697
3675.648820,-11103.089130,888.247130,995.924147
3675.649150,-10658.965565,518.144159,919.314598
3675.649480,-10658.965565,0.000000,1225.752797
3675.649810,-10436.903782,0.000000,-383.047749
3675.650140,-9548.656652,-444.123565,153.219100
3675.650470,-9030.512492,-666.185348,1532.190996
3675.650799,-9474.636058,592.164754,1378.971896
3675.651129,-8586.388927,592.164754,1455.581446
3675.651459,-9326.594869,370.102971,229.828649
3675.651789,-9622.677246,740.205942,-459.657299
3675.652119,-9252.574275,444.123565,0.000000
3675.652449,-10658.965565,518.144159,1302.362347
3675.652779,-10807.006753,740.205942,1225.752797
3675.653108,-9326.594869,0.000000,1532.190996
3675.653438,-9770.718434,0.000000,383.047749
3675.653768,-9844.739029,-296.082377,-76.609550
3675.654098,-10066.800811,-444.123565,919.314598
3675.654428,-10510.924376,0.000000,1685.410096
3675.654758,-8956.491898,370.102971,1532.190996
3675.655087,-8660.409521,74.020594,1149.143247
3675.655417,-9400.615463,444.123565,-689.485948
3675.655747,-9030.512492,296.082377,-842.705048
3675.656077,-10214.842000,592.164754,383.047749
3675.656407,-10658.965565,1036.288319,306.438199
3675.656737,-10066.800811,888.247130,995.924147
3675.657067,-10510.924376,592.164754,383.047749
3675.657396,-11029.068536,592.164754,-1149.143247
3675.657726,-10732.986159,0.000000,-842.705048
3675.658056,-10955.047942,0.000000,0.000000
3675.658386,-9918.759623,74.020594,842.705048
3675.658716,-8734.430116,0.000000,842.705048
3675.659046,-9326.594869,0.000000,-383.047749
3675.659376,-8808.450710,0.000000,-1302.362347
3675.659705,-9178.553681,0.000000,-842.705048
3675.660035,-10288.862594,296.082377,-229.828649
3675.660365,-9770.718434,148.041188,766.095498
3675.660695,-9844.739029,-222.061783,383.047749
3675.661025,-10288.862594,-296.082377,-995.924147
3675.661355,-10214.842000,-666.185348,-919.314598
3675.661685,-10436.903782,-740.205942,-306.438199
3675.662014,-10362.883188,-74.020594,0.000000
3675.662344,-8586.388927,-740.205942,76.609550
3675.662674,-8734.430116,-592.164754,-536.266849
3675.663004,-9104.533087,-296.082377,-995.924147
3675.663334,-9178.553681,-370.102971,0.000000
3675.663664,-10510.924376,-370.102971,0.000000
3675.663993,-9992.780217,222.061783,0.000000
3675.664323,-9104.533087,-592.164754,306.438199
3675.664653,-9548.656652,-666.185348,229.828649
3675.664983,-10362.883188,-740.205942,-766.095498
3675.665313,-10658.965565,-666.185348,919.314598
3675.665643,-10510.924376,-740.205942,919.314598
3675.665973,-9696.697840,-1184.329507,1378.971896
3675.666302,-9030.512492,-1036.288319,612.876398
3675.666632,-9326.594869,-814.226536,-383.047749
3675.666962,-8142.265362,-888.247130,229.828649
3675.667292,-9030.512492,-296.082377,842.705048
3675.667622,-9696.697840,518.144159,995.924147
3675.667952,-9104.533087,370.102971,1378.971896
3675.668282,-10066.800811,518.144159,306.438199
3675.668611,-11547.212695,370.102971,-1225.752797
3675.668941,-11399.171507,0.000000,383.047749
3675.669271,-11769.274478,-444.123565,1149.143247
3675.669601,-9622.677246,-148.041188,1685.410096
3675.669931,-8586.388927,-666.185348,1455.581446
3675.670261,-8660.409521,0.000000,459.657299
3675.670591,-8364.327145,0.000000,-306.438199
3675.670920,-9030.512492,518.144159,842.705048
3675.671250,-10436.903782,1332.370696,842.705048
3675.671580,-9844.739029,1036.288319,1149.143247
3675.671910,-9474.636058,444.123565,612.876398
3675.672240,-9918.759623,370.102971,-612.876398
3675.672570,-10140.821405,222.061783,76.609550
3675.672900,-11695.253884,518.144159,919.314598
3675.673229,-11325.150913,370.102971,1072.533697
3675.673559,-9622.677246,0.000000,1532.190996
3675.673889,-9548.656652,148.041188,919.314598
3675.674219,-9474.636058,370.102971,0.000000
3675.674549,-9474.636058,444.123565,766.095498
3675.674879,-9474.636058,888.247130,766.095498
3675.675208,-9400.615463,1184.329507,766.095498
3675.675538,-9474.636058,888.247130,842.705048
3675.675868,-10288.862594,888.247130,0.000000
3675.676198,-10214.842000,444.123565,-383.047749
3675.676528,-10732.986159,148.041188,0.000000
3675.676858,-11325.150913,592.164754,76.609550
3675.677188,-9770.718434,0.000000,612.876398
3675.677517,-9104.533087,-444.123565,536.266849
3675.677847,-8660.409521,0.000000,-995.924147
3675.678177,-8956.491898,0.000000,-306.438199
3675.678507,-10140.821405,222.061783,306.438199
3675.678837,-10140.821405,962.267725,229.828649
3675.679167,-8734.430116,74.020594,459.657299
3675.679497,-9548.656652,0.000000,-689.485948
3675.679826,-10214.842000,0.000000,-1532.190996
3675.680156,-10732.986159,0.000000,0.000000
3675.680486,-10881.027347,74.020594,-153.219100
3675.680816,-10288.862594,148.041188,-76.609550
3675.681146,-9622.677246,-666.185348,-766.095498
3675.681476,-9474.636058,-814.226536,-1532.190996
3675.681806,-8956.491898,-888.247130,-1302.362347
3675.682135,-9104.533087,-666.185348,0.000000
3675.682465,-8734.430116,-370.102971,0.000000
3675.682795,-8142.265362,0.000000,1532.190996
3675.683125,-9252.574275,148.041188,842.705048
3675.683455,-10732.986159,370.102971,-76.609550
3675.683785,-11251.130318,0.000000,153.219100
3675.684114,-11695.253884,74.020594,153.219100
3675.684444,-11695.253884,444.123565,459.657299
3675.684774,-10140.821405,-740.205942,612.876398
3675.685104,-9622.677246,-1036.288319,-459.657299
3675.685434,-8512.368333,-962.267725,-689.485948
3675.685764,-8364.327145,-666.185348,0.000000
3675.686094,-9104.533087,148.041188,383.047749
3675.686423,-8364.327145,0.000000,1225.752797
3675.686753,-8512.368333,-222.061783,1378.971896
3675.687083,-10658.965565,666.185348,153.219100
3675.687413,-11547.212695,0.000000,612.876398
3675.687743,-11843.295072,0.000000,1225.752797
3675.688073,-11547.212695,518.144159,1072.533697
3675.688403,-10658.965565,-444.123565,1225.752797
3675.688732,-9770.718434,-444.123565,76.609550
3675.689062,-9178.553681,-740.205942,-306.438199
3675.689392,-7920.203579,-888.247130,689.485948
3675.689722,-8734.430116,222.061783,1302.362347
3675.690052,-8512.368333,444.123565,1225.752797
3675.690382,-8364.327145,370.102971,1838.629195
3675.690712,-9622.677246,370.102971,76.609550
3675.691041,-10658.965565,666.185348,0.000000
3675.691371,-11325.150913,370.102971,1225.752797
3675.691701,-11843.295072,888.247130,1532.190996
3675.692031,-10658.965565,444.123565,1685.410096
3675.692361,-10510.924376,-296.082377,766.095498
3675.692691,-10436.903782,0.000000,-766.095498
3675.693020,-9178.553681,-296.082377,-459.657299
3675.693350,-8734.430116,0.000000,459.657299
3675.693680,-8364.327145,444.123565,919.314598
3675.694010,-7624.121203,296.082377,1378.971896
3675.694340,-8512.368333,666.185348,0.000000
3675.694670,-9474.636058,1258.350101,-1149.143247
3675.695000,-10510.924376,518.144159,-1225.752797
3675.695329,-12361.439231,1184.329507,229.828649
3675.695659,-11769.274478,740.205942,459.657299
3675.695989,-10955.047942,0.000000,383.047749
3675.696319,-10436.903782,-148.041188,-1072.533697
3675.696649,-8660.409521,-962.267725,-1378.971896
3675.696979,-8364.327145,-814.226536,-689.485948
3675.697309,-8512.368333,0.000000,153.219100
3675.697638,-7550.100608,962.267725,1455.581446
3675.697968,-8142.265362,518.144159,153.219100
3675.698298,-9474.636058,518.144159,-1838.629195
3675.698628,-10140.821405,222.061783,-1762.019645
3675.698958,-11843.295072,814.226536,-612.876398
3675.699288,-11991.336260,370.102971,-76.609550
3675.699618,-10807.006753,-666.185348,0.000000
3675.699947,-9844.739029,-1110.308913,-1608.800546
3675.700277,-8956.491898,-1406.391290,-1762.019645
3675.700607,-8512.368333,-1850.514855,-766.095498
3675.700937,-9178.553681,-740.205942,229.828649
3675.701267,-7994.224174,0.000000,1685.410096
3675.701597,-7772.162391,0.000000,1762.019645
3675.701927,-9474.636058,666.185348,-536.266849
3675.702256,-10362.883188,518.144159,-766.095498
3675.702586,-11695.253884,148.041188,-229.828649
3675.702916,-12361.439231,518.144159,459.657299
3675.703246,-11547.212695,148.041188,689.485948
3675.703576,-10510.924376,-1258.350101,153.219100
3675.703906,-9622.677246,-1406.391290,-919.314598
3675.704235,-8660.409521,-1480.411884,0.000000
3675.704565,-8882.471304,-518.144159,459.657299
3675.704895,-8438.347739,74.020594,1762.019645
3675.705225,-6883.915261,74.020594,2987.772442
3675.705555,-8364.327145,592.164754,1838.629195
3675.705885,-10140.821405,888.247130,766.095498
3675.706215,-11769.274478,740.205942,1302.362347
3675.706544,-12731.542202,1554.432478,1225.752797
3675.706874,-11843.295072,1110.308913,1532.190996
3675.707204,-11695.253884,148.041188,842.705048
3675.707534,-10881.027347,296.082377,-612.876398
3675.707864,-9030.512492,-740.205942,-766.095498
3675.708194,-8734.430116,-222.061783,0.000000
3675.708524,-8142.265362,0.000000,383.047749
3675.708853,-6883.915261,518.144159,2451.505594
3675.709183,-7254.018232,222.061783,1838.629195
3675.709513,-8808.450710,962.267725,536.266849
3675.709843,-9918.759623,1036.288319,919.314598
3675.710173,-12583.501014,1702.473667,1149.143247
3675.710503,-13249.686362,1924.535449,1225.752797
3675.710833,-12509.480420,666.185348,1762.019645
3675.711162,-12139.377449,148.041188,0.000000
3675.711492,-10584.944971,-666.185348,-842.705048
3675.711822,-9030.512492,-962.267725,-229.828649
3675.712152,-8142.265362,-518.144159,76.609550
3675.712482,-6513.812290,74.020594,766.095498
3675.712812,-5921.647536,74.020594,1072.533697
3675.713141,-7476.080014,1554.432478,-1149.143247
3675.713471,-8956.491898,1480.411884,-383.047749
3675.713801,-12139.377449,1850.514855,536.266849
3675.714131,-13323.706956,1480.411884,383.047749
3675.714461,-12583.501014,296.082377,383.047749
3675.714791,-12361.439231,-592.164754,-689.485948
3675.715121,-10732.986159,-1480.411884,-1455.581446
3675.715450,-8956.491898,-1776.494261,-766.095498
3675.715780,-7994.224174,-1258.350101,-689.485948
3675.716110,-6513.812290,-296.082377,-459.657299
3675.716440,-6143.709319,0.000000,919.314598
3675.716770,-7624.121203,814.226536,-919.314598
3675.717100,-9252.574275,1036.288319,-1838.629195
3675.717430,-10881.027347,1110.308913,-1378.971896
3675.717759,-12879.583391,1036.288319,-689.485948
3675.718089,-12139.377449,0.000000,-229.828649
3675.718419,-11843.295072,-962.267725,-919.314598
3675.718749,-11473.192101,-1480.411884,-2451.505594
3675.719079,-9918.759623,-1924.535449,-1378.971896
3675.719409,-9252.574275,-1850.514855,-612.876398
3675.719739,-7920.203579,-1480.411884,689.485948
3675.720068,-6439.791695,-888.247130,2451.505594
3675.720398,-7328.038826,-148.041188,1149.143247
3675.720728,-8512.368333,444.123565,-153.219100
3675.721058,-9770.718434,444.123565,-383.047749
3675.721388,-11917.315666,814.226536,-76.609550
3675.721718,-11917.315666,444.123565,306.438199
3675.722048,-12213.398043,-1110.308913,689.485948
3675.722377,-12065.356855,-888.247130,153.219100
3675.722707,-10732.986159,-1850.514855,-383.047749
3675.723037,-9474.636058,-1924.535449,229.828649
3675.723367,-8586.388927,-1110.308913,306.438199
3675.723697,-6661.853478,-740.205942,1915.238745
3675.724027,-6143.709319,0.000000,1838.629195
3675.724356,-7624.121203,1036.288319,919.314598
3675.724686,-9400.615463,1406.391290,1149.143247
3675.725016,-11325.150913,1184.329507,766.095498
3675.725346,-12213.398043,1184.329507,383.047749
3675.725676,-12361.439231,222.061783,612.876398
3675.726006,-12361.439231,0.000000,459.657299
3675.726336,-11325.150913,-1110.308913,-153.219100
3675.726665,-9548.656652,-1258.350101,612.876398
3675.726995,-8956.491898,-962.267725,919.314598
3675.727325,-7031.956449,-222.061783,1991.848295
3675.727655,-6217.729913,0.000000,2451.505594
3675.727985,-7328.038826,814.226536,1302.362347
3675.728315,-7994.224174,1258.350101,1072.533697
3675.728645,-10140.821405,1406.391290,1149.143247
3675.728974,-12361.439231,2368.659014,612.876398
3675.729304,-12657.521608,1850.514855,306.438199
3675.729634,-13545.768739,1332.370696,-383.047749
3675.729964,-12509.480420,222.061783,-1072.533697
3675.730294,-10732.986159,-666.185348,-612.876398
3675.730624,-9770.718434,-222.061783,76.609550
3675.730954,-7476.080014,-592.164754,689.485948
3675.731283,-5995.668130,0.000000,1762.019645
3675.731613,-6143.709319,0.000000,383.047749
3675.731943,-7031.956449,1332.370696,-536.266849
3675.732273,-8956.491898,1776.494261,0.000000
3675.732603,-11695.253884,2516.700203,-612.876398
3675.732933,-12287.418637,2146.597232,-383.047749
3675.733262,-13175.665768,888.247130,-766.095498
3675.733592,-12953.603985,0.000000,-2374.896044
3675.733922,-11325.150913,-1406.391290,-1302.362347
3675.734252,-10066.800811,-1628.453072,-612.876398
3675.734582,-7994.224174,-1258.350101,0.000000
3675.734912,-6291.750507,-1036.288319,1072.533697
3675.735242,-6291.750507,-814.226536,229.828649
3675.735571,-6661.853478,148.041188,-1072.533697
3675.735901,-7846.182985,444.123565,-383.047749
3675.736231,-10362.883188,1702.473667,0.000000
3675.736561,-12361.439231,2072.576638,536.266849
3675.736891,-13101.645173,592.164754,76.609550
3675.737221,-13471.748144,74.020594,-1762.019645
3675.737551,-12361.439231,-1628.453072,-1608.800546
3675.737880,-11473.192101,-2590.720797,-919.314598
3675.738210,-9474.636058,-2368.659014,-766.095498
3675.738540,-6513.812290,-2368.659014,612.876398
3675.738870,-5329.482782,-1702.473667,1072.533697
3675.739200,-6661.853478,-370.102971,-306.438199
3675.739530,-7772.162391,296.082377,153.219100
3675.739860,-9622.677246,814.226536,306.438199
3675.740189,-11325.150913,1332.370696,766.095498
3675.740519,-13027.624579,444.123565,1149.143247
3675.740849,-13841.851115,-592.164754,689.485948
3675.741179,-12509.480420,-1406.391290,76.609550
3675.741509,-10881.027347,-1850.514855,1378.971896
3675.741839,-10510.924376,-1628.453072,459.657299
3675.742168,-7698.141797,-1554.432478,995.924147
