#time,accel_x,accel_y,accel_z
3740.287286,-9770.718434,0.000000,76.609550
3740.287616,-9622.677246,0.000000,153.219100
3740.287945,-9770.718434,148.041188,-306.438199
3740.288275,-9992.780217,74.020594,383.047749
3740.288605,-9918.759623,222.061783,229.828649
3740.288935,-9770.718434,0.000000,459.657299
3740.289265,-9252.574275,0.000000,-153.219100
3740.289595,-9696.697840,0.000000,76.609550
3740.289925,-9844.739029,148.041188,153.219100
3740.290255,-9770.718434,74.020594,229.828649
3740.290585,-9622.677246,0.000000,-306.438199
3740.290915,-9548.656652,74.020594,153.219100
3740.291244,-9548.656652,0.000000,383.047749
3740.291574,-9918.759623,0.000000,306.438199
3740.291904,-9770.718434,0.000000,0.000000
3740.292234,-9696.697840,0.000000,459.657299
3740.292564,-9992.780217,222.061783,383.047749
3740.292894,-9918.759623,0.000000,459.657299
3740.293224,-9474.636058,74.020594,153.219100
3740.293554,-9474.636058,0.000000,459.657299
3740.293884,-9918.759623,0.000000,0.000000
3740.294213,-9622.677246,0.000000,153.219100
3740.294543,-9696.697840,0.000000,229.828649
3740.294873,-9474.636058,0.000000,-383.047749
3740.295203,-9622.677246,0.000000,459.657299
3740.295533,-9918.759623,0.000000,0.000000
3740.295863,-9918.759623,0.000000,76.609550
3740.296193,-9548.656652,0.000000,153.219100
3740.296523,-9622.677246,0.000000,383.047749
3740.296853,-9844.739029,148.041188,536.266849
3740.297182,-9548.656652,-74.020594,306.438199
3740.297512,-9844.739029,74.020594,536.266849
3740.297842,-9770.718434,518.144159,1225.752797
3740.298172,-10362.883188,222.061783,689.485948
3740.298502,-10288.862594,148.041188,0.000000
3740.298832,-9696.697840,0.000000,-459.657299
3740.299162,-9844.739029,370.102971,-459.657299
3740.299492,-9992.780217,148.041188,-919.314598
3740.299822,-10288.862594,0.000000,-229.828649
3740.300151,-10066.800811,0.000000,-383.047749
3740.300481,-9770.718434,-370.102971,0.000000
3740.300811,-9548.656652,-370.102971,-229.828649
3740.301141,-9474.636058,-592.164754,-229.828649
3740.301471,-9770.718434,-296.082377,0.000000
3740.301801,-9696.697840,-148.041188,-383.047749
3740.302131,-10066.800811,-444.123565,-459.657299
3740.302461,-10288.862594,-148.041188,0.000000
3740.302791,-10362.883188,-148.041188,383.047749
3740.303121,-10584.944971,-74.020594,0.000000
3740.303450,-9844.739029,74.020594,-1225.752797
3740.303780,-10066.800811,-370.102971,-1762.019645
3740.304110,-9548.656652,-740.205942,-2221.676944
3740.304440,-9326.594869,-888.247130,-2145.067394
3740.304770,-8882.471304,-962.267725,-2374.896044
3740.305100,-8808.450710,-1110.308913,-536.266849
3740.305430,-9178.553681,-1406.391290,76.609550
3740.305760,-9622.677246,-1110.308913,76.609550
3740.306090,-10436.903782,-962.267725,-459.657299
3740.306419,-10288.862594,-740.205942,-1225.752797
3740.306749,-10288.862594,-666.185348,-1225.752797
3740.307079,-10362.883188,-814.226536,-995.924147
3740.307409,-10362.883188,-814.226536,-1149.143247
3740.307739,-10066.800811,-592.164754,-1532.190996
3740.308069,-9918.759623,-1184.329507,-2221.676944
3740.308399,-9844.739029,-1850.514855,-2911.162892
3740.308729,-9844.739029,-1776.494261,-2604.724693
3740.309059,-9844.739029,-2072.576638,-2911.162892
3740.309388,-8882.471304,-1998.556043,-2604.724693
3740.309718,-8438.347739,-1702.473667,-2221.676944
3740.310048,-8512.368333,-1776.494261,-1378.971896
3740.310378,-9474.636058,-1554.432478,-459.657299
3740.310708,-10288.862594,-1258.350101,153.219100
3740.311038,-11399.171507,-1406.391290,0.000000
3740.311368,-11843.295072,-1332.370696,-459.657299
3740.311698,-11991.336260,-1924.535449,-1302.362347
3740.312028,-11399.171507,-2812.782580,-3294.210641
3740.312358,-9918.759623,-3108.864956,-4596.572988
3740.312687,-7920.203579,-3923.091493,-5209.449386
3740.313017,-6883.915261,-3478.967927,-3600.648841
3740.313347,-7550.100608,-2294.638420,-1685.410096
3740.313677,-9178.553681,-1184.329507,-995.924147
3740.314007,-10214.842000,-1036.288319,-2298.286494
3740.314337,-11103.089130,-1480.411884,-4596.572988
3740.314667,-11399.171507,-2516.700203,-5362.668486
3740.314997,-11695.253884,-3849.070898,-4060.306139
3740.315327,-10066.800811,-5107.421000,-2451.505594
3740.315656,-8660.409521,-5625.565159,-1072.533697
3740.315986,-7624.121203,-4811.338623,-1762.019645
3740.316316,-7846.182985,-4441.235652,-2298.286494
3740.316646,-8956.491898,-3182.885551,-2374.896044
3740.316976,-9918.759623,-2072.576638,-1532.190996
3740.317306,-11029.068536,-1036.288319,-1225.752797
3740.317636,-11621.233289,-1258.350101,-1991.848295
3740.317966,-11547.212695,-2368.659014,-3140.991542
3740.318296,-10066.800811,-3701.029710,-5056.230287
3740.318625,-9474.636058,-4737.318029,-5209.449386
3740.318955,-9178.553681,-5107.421000,-3140.991542
3740.319285,-8660.409521,-4811.338623,-2221.676944
3740.319615,-7846.182985,-4589.276840,0.000000
3740.319945,-7698.141797,-3775.050304,1149.143247
3740.320275,-9622.677246,-2368.659014,1302.362347
3740.320605,-11991.336260,-1554.432478,-689.485948
3740.320935,-12731.542202,-1332.370696,-2528.115143
3740.321265,-11325.150913,-2442.679609,-3677.258390
3740.321595,-9474.636058,-3627.009116,-3370.820191
3740.321924,-8734.430116,-4737.318029,-2374.896044
3740.322254,-9178.553681,-4663.297435,-1838.629195
3740.322584,-8364.327145,-4293.194464,-1149.143247
3740.322914,-8068.244768,-3108.864956,-1608.800546
3740.323244,-9400.615463,-2368.659014,-1532.190996
3740.323574,-10807.006753,-2368.659014,-612.876398
3740.323904,-11547.212695,-148.041188,612.876398
3740.324234,-10955.047942,-888.247130,-842.705048
3740.324564,-11399.171507,-1406.391290,-1149.143247
3740.324893,-9844.739029,-2368.659014,-689.485948
3740.325223,-9474.636058,-2664.741391,-2221.676944
3740.325553,-9992.780217,-2886.803174,-2604.724693
3740.325883,-10584.944971,-2220.617826,-2528.115143
3740.326213,-9696.697840,-2220.617826,-2451.505594
3740.326543,-9252.574275,-2294.638420,-383.047749
3740.326873,-9622.677246,-1628.453072,919.314598
3740.327203,-10214.842000,-1036.288319,153.219100
3740.327533,-9992.780217,-1184.329507,-3140.991542
3740.327862,-8660.409521,-1036.288319,-3677.258390
3740.328192,-9326.594869,-1332.370696,-2834.553343
3740.328522,-9918.759623,-1776.494261,-1378.971896
3740.328852,-9770.718434,-1184.329507,383.047749
3740.329182,-10436.903782,-888.247130,-766.095498
3740.329512,-10658.965565,-666.185348,-2757.943793
3740.329842,-10658.965565,-1406.391290,-4443.353888
3740.330172,-9918.759623,-1702.473667,-4213.525239
3740.330502,-9030.512492,-1702.473667,-2757.943793
3740.330832,-9548.656652,-1184.329507,-919.314598
3740.331161,-8956.491898,-1258.350101,-1072.533697
3740.331491,-7402.059420,-1258.350101,-2681.334243
3740.331821,-7328.038826,-1406.391290,-3677.258390
3740.332151,-8734.430116,-962.267725,-2911.162892
3740.332481,-11251.130318,-296.082377,-306.438199
3740.332811,-11399.171507,0.000000,0.000000
3740.333141,-10066.800811,-518.144159,-1225.752797
3740.333471,-10362.883188,-814.226536,-2374.896044
3740.333801,-10955.047942,-1036.288319,-3600.648841
3740.334130,-12065.356855,-1850.514855,-3830.477490
3740.334460,-10362.883188,-1406.391290,-3447.429741
3740.334790,-8068.244768,-1850.514855,-2145.067394
3740.335120,-7402.059420,-1924.535449,-306.438199
3740.335450,-8290.306550,-1184.329507,-306.438199
3740.335780,-10140.821405,-1036.288319,-1915.238745
3740.336110,-10510.924376,-1036.288319,-2681.334243
3740.336440,-9400.615463,-1554.432478,-2528.115143
3740.336770,-9474.636058,-1776.494261,0.000000
3740.337099,-11029.068536,-1776.494261,842.705048
3740.337429,-11621.233289,-1850.514855,-995.924147
3740.337759,-10066.800811,-2516.700203,-2221.676944
3740.338089,-8882.471304,-2442.679609,-2298.286494
3740.338419,-10140.821405,-1628.453072,-689.485948
3740.338749,-11177.109724,-1480.411884,383.047749
3740.339079,-9844.739029,-1406.391290,-689.485948
3740.339409,-8956.491898,-2072.576638,-2757.943793
3740.339739,-8808.450710,-1628.453072,-4213.525239
3740.340069,-10362.883188,-2072.576638,-2834.553343
3740.340398,-9622.677246,-2294.638420,-919.314598
3740.340728,-8068.244768,-2294.638420,689.485948
3740.341058,-9178.553681,-2146.597232,689.485948
3740.341388,-11399.171507,-2146.597232,-995.924147
3740.341718,-12213.398043,-2368.659014,-1838.629195
3740.342048,-10807.006753,-3034.844362,-1608.800546
3740.342378,-9178.553681,-2442.679609,-1149.143247
3740.342708,-9548.656652,-2516.700203,-995.924147
3740.343038,-9178.553681,-2738.761985,-689.485948
3740.343367,-8142.265362,-2220.617826,-612.876398
3740.343697,-9030.512492,-1924.535449,-1915.238745
3740.344027,-9326.594869,-1776.494261,-3907.087040
3740.344357,-9992.780217,-1776.494261,-2987.772442
3740.344687,-9770.718434,-1258.350101,-536.266849
3740.345017,-10510.924376,-1036.288319,842.705048
3740.345347,-10584.944971,-1850.514855,-229.828649
3740.345677,-9696.697840,-2886.803174,-1608.800546
3740.346007,-9030.512492,-2590.720797,-306.438199
3740.346336,-9770.718434,-2220.617826,1302.362347
3740.346666,-10066.800811,-1554.432478,2374.896044
3740.346996,-8808.450710,-1332.370696,1072.533697
3740.347326,-8216.285956,-370.102971,-1378.971896
3740.347656,-9178.553681,0.000000,-2145.067394
3740.347986,-11103.089130,0.000000,-153.219100
3740.348316,-11251.130318,0.000000,1072.533697
3740.348646,-10436.903782,-370.102971,995.924147
3740.348976,-9030.512492,-444.123565,0.000000
3740.349306,-9252.574275,-1036.288319,-306.438199
3740.349636,-10436.903782,-444.123565,383.047749
3740.349966,-10658.965565,-222.061783,1149.143247
3740.350296,-9844.739029,-370.102971,1149.143247
3740.350625,-8586.388927,-148.041188,1762.019645
3740.350955,-8216.285956,296.082377,2374.896044
3740.351285,-9104.533087,444.123565,2528.115143
3740.351615,-10362.883188,1036.288319,1915.238745
3740.351945,-11325.150913,1258.350101,689.485948
3740.352275,-10510.924376,370.102971,0.000000
3740.352605,-9992.780217,222.061783,306.438199
3740.352935,-10658.965565,592.164754,1532.190996
3740.353265,-10436.903782,222.061783,1608.800546
3740.353595,-8364.327145,370.102971,-919.314598
3740.353925,-7402.059420,518.144159,-1378.971896
3740.354255,-9918.759623,1776.494261,459.657299
3740.354584,-11621.233289,1998.556043,612.876398
3740.354914,-10807.006753,1554.432478,306.438199
3740.355244,-9548.656652,1332.370696,153.219100
3740.355574,-10214.842000,1702.473667,76.609550
3740.355904,-10658.965565,1258.350101,0.000000
3740.356234,-9474.636058,814.226536,-612.876398
3740.356564,-7846.182985,740.205942,-612.876398
3740.356894,-7846.182985,1332.370696,229.828649
3740.357224,-10214.842000,1998.556043,919.314598
3740.357554,-11695.253884,2220.617826,306.438199
3740.357884,-10881.027347,2220.617826,-383.047749
3740.358214,-9474.636058,1998.556043,-1455.581446
3740.358543,-9252.574275,1924.535449,0.000000
3740.358873,-10140.821405,1850.514855,1838.629195
3740.359203,-10140.821405,1998.556043,1455.581446
3740.359533,-9474.636058,1850.514855,-612.876398
3740.359863,-9474.636058,1554.432478,-1455.581446
3740.360193,-9844.739029,2294.638420,-1302.362347
3740.360523,-11325.150913,1480.411884,0.000000
3740.360853,-9770.718434,1110.308913,919.314598
3740.361183,-9252.574275,814.226536,1455.581446
3740.361513,-9326.594869,1332.370696,995.924147
3740.361843,-9696.697840,814.226536,689.485948
3740.362173,-9622.677246,592.164754,1532.190996
3740.362503,-9326.594869,666.185348,2451.505594
3740.362832,-9548.656652,148.041188,1685.410096
3740.363162,-9474.636058,444.123565,1149.143247
3740.363492,-9918.759623,148.041188,995.924147
3740.363822,-10288.862594,518.144159,306.438199
3740.364152,-10214.842000,0.000000,0.000000
3740.364482,-10140.821405,148.041188,0.000000
3740.364812,-10066.800811,444.123565,995.924147
3740.365142,-9918.759623,0.000000,612.876398
3740.365472,-9770.718434,0.000000,-229.828649
3740.365802,-9844.739029,0.000000,-1149.143247
3740.366132,-10732.986159,0.000000,-1455.581446
3740.366462,-10066.800811,-740.205942,-919.314598
3740.366791,-9548.656652,-962.267725,-383.047749
3740.367121,-9030.512492,-666.185348,-76.609550
3740.367451,-9252.574275,-1184.329507,-766.095498
3740.367781,-9474.636058,-1924.535449,-1149.143247
3740.368111,-8808.450710,-1406.391290,-536.266849
3740.368441,-9252.574275,-1480.411884,612.876398
3740.368771,-10066.800811,-1480.411884,766.095498
3740.369101,-10510.924376,-1406.391290,689.485948
3740.369431,-10584.944971,-1406.391290,536.266849
3740.369761,-9992.780217,-1480.411884,306.438199
3740.370091,-9474.636058,-1702.473667,-459.657299
3740.370421,-9104.533087,-1628.453072,-459.657299
3740.370750,-8882.471304,-1480.411884,0.000000
3740.371080,-8586.388927,-1110.308913,-612.876398
3740.371410,-8660.409521,-1332.370696,-842.705048
3740.371740,-9474.636058,-740.205942,-919.314598
3740.372070,-10955.047942,-814.226536,-383.047749
3740.372400,-11103.089130,-740.205942,-229.828649
3740.372730,-9844.739029,-1332.370696,612.876398
3740.373060,-9030.512492,-1332.370696,1455.581446
3740.373390,-9400.615463,-962.267725,1302.362347
3740.373720,-9696.697840,-666.185348,383.047749
3740.374050,-9474.636058,-740.205942,842.705048
3740.374380,-9844.739029,0.000000,1991.848295
3740.374710,-10807.006753,-148.041188,2145.067394
3740.375039,-10362.883188,148.041188,1532.190996
3740.375369,-10214.842000,0.000000,919.314598
3740.375699,-10436.903782,444.123565,995.924147
3740.376029,-10140.821405,0.000000,-306.438199
3740.376359,-10140.821405,0.000000,-459.657299
3740.376689,-9918.759623,0.000000,0.000000
3740.377019,-10288.862594,-370.102971,459.657299
3740.377349,-10066.800811,-444.123565,1302.362347
3740.377679,-9548.656652,-444.123565,995.924147
3740.378009,-9178.553681,0.000000,153.219100
3740.378339,-9326.594869,-444.123565,-612.876398
3740.378669,-9252.574275,0.000000,0.000000
3740.378998,-9770.718434,74.020594,995.924147
3740.379328,-9918.759623,592.164754,842.705048
3740.379658,-10066.800811,296.082377,-306.438199
3740.379988,-9326.594869,-222.061783,0.000000
3740.380318,-9622.677246,74.020594,-536.266849
3740.380648,-9178.553681,592.164754,-689.485948
3740.380978,-8882.471304,444.123565,-383.047749
3740.381308,-8586.388927,962.267725,-383.047749
3740.381638,-9030.512492,962.267725,-459.657299
3740.381968,-9770.718434,1332.370696,-919.314598
3740.382298,-9770.718434,1184.329507,-766.095498
3740.382628,-9474.636058,1628.453072,-459.657299
3740.382958,-9770.718434,1554.432478,229.828649
3740.383287,-10288.862594,1036.288319,0.000000
3740.383617,-10732.986159,1554.432478,0.000000
3740.383947,-9992.780217,1332.370696,-612.876398
3740.384277,-9400.615463,888.247130,-383.047749
3740.384607,-8956.491898,1480.411884,0.000000
3740.384937,-10362.883188,1776.494261,842.705048
3740.385267,-10510.924376,1924.535449,842.705048
3740.385597,-9770.718434,1628.453072,689.485948
3740.385927,-9770.718434,1628.453072,229.828649
3740.386257,-10658.965565,1702.473667,612.876398
3740.386587,-11843.295072,2072.576638,995.924147
3740.386917,-9548.656652,1036.288319,919.314598
3740.387246,-9326.594869,1184.329507,842.705048
3740.387576,-10288.862594,1184.329507,612.876398
3740.387906,-11029.068536,740.205942,766.095498
3740.388236,-10955.047942,592.164754,1149.143247
3740.388566,-9992.780217,148.041188,689.485948
3740.388896,-9474.636058,-296.082377,536.266849
3740.389226,-9030.512492,-666.185348,995.924147
3740.389556,-9548.656652,-444.123565,1608.800546
3740.389886,-8882.471304,-74.020594,1915.238745
3740.390216,-9326.594869,-592.164754,229.828649
3740.390546,-9252.574275,-518.144159,689.485948
3740.390876,-9844.739029,-592.164754,689.485948
3740.391205,-10436.903782,-740.205942,306.438199
3740.391535,-9844.739029,-1110.308913,383.047749
3740.391865,-9178.553681,-1480.411884,0.000000
3740.392195,-8660.409521,-1258.350101,76.609550
3740.392525,-9030.512492,-888.247130,766.095498
3740.392855,-8586.388927,-888.247130,842.705048
3740.393185,-9104.533087,74.020594,459.657299
3740.393515,-9844.739029,-148.041188,-306.438199
3740.393845,-10881.027347,-74.020594,-689.485948
3740.394175,-10732.986159,-370.102971,0.000000
3740.394505,-10510.924376,222.061783,-766.095498
3740.394835,-9548.656652,0.000000,-842.705048
3740.395165,-9474.636058,-518.144159,-536.266849
3740.395494,-10288.862594,296.082377,842.705048
3740.395824,-11029.068536,0.000000,0.000000
3740.396154,-9696.697840,-666.185348,-229.828649
3740.396484,-9178.553681,-740.205942,306.438199
3740.396814,-9918.759623,-444.123565,1225.752797
3740.397144,-9992.780217,-518.144159,1532.190996
3740.397474,-9992.780217,-518.144159,842.705048
3740.397804,-9918.759623,-370.102971,1072.533697
3740.398134,-10436.903782,-592.164754,1302.362347
3740.398464,-11251.130318,-296.082377,1302.362347
3740.398794,-10214.842000,-592.164754,1455.581446
3740.399124,-9548.656652,-666.185348,612.876398
3740.399453,-9400.615463,-666.185348,0.000000
3740.399783,-9918.759623,-592.164754,-383.047749
3740.400113,-10362.883188,-444.123565,612.876398
3740.400443,-9992.780217,0.000000,0.000000
3740.400773,-9696.697840,0.000000,0.000000
3740.401103,-9252.574275,-296.082377,-612.876398
3740.401433,-9030.512492,-222.061783,-689.485948
3740.401763,-9252.574275,-222.061783,-766.095498
3740.402093,-9178.553681,-592.164754,-766.095498
3740.402423,-9252.574275,-296.082377,-306.438199
3740.402753,-9178.553681,-296.082377,-153.219100
3740.403083,-9770.718434,-444.123565,-459.657299
3740.403412,-9548.656652,-444.123565,76.609550
3740.403742,-9548.656652,-888.247130,383.047749
3740.404072,-8956.491898,-518.144159,-536.266849
3740.404402,-8438.347739,-666.185348,-612.876398
3740.404732,-8808.450710,0.000000,-536.266849
3740.405062,-9400.615463,222.061783,0.000000
3740.405392,-10066.800811,148.041188,-919.314598
3740.405722,-9548.656652,370.102971,-1072.533697
3740.406052,-9918.759623,222.061783,-689.485948
3740.406382,-10066.800811,1036.288319,-229.828649
3740.406712,-9844.739029,518.144159,-383.047749
3740.407042,-9770.718434,148.041188,-536.266849
3740.407372,-9474.636058,888.247130,0.000000
3740.407701,-10658.965565,814.226536,153.219100
3740.408031,-10436.903782,814.226536,153.219100
3740.408361,-9992.780217,518.144159,229.828649
3740.408691,-9844.739029,1184.329507,536.266849
3740.409021,-10140.821405,962.267725,459.657299
3740.409351,-10140.821405,962.267725,459.657299
3740.409681,-10140.821405,962.267725,919.314598
3740.410011,-10584.944971,1110.308913,306.438199
3740.410341,-9918.759623,1184.329507,842.705048
3740.410671,-10955.047942,1184.329507,1532.190996
3740.411001,-11103.089130,740.205942,1455.581446
3740.411331,-10214.842000,666.185348,842.705048
3740.411660,-9104.533087,0.000000,306.438199
3740.411990,-8586.388927,74.020594,1378.971896
3740.412320,-9844.739029,74.020594,1838.629195
3740.412650,-10732.986159,444.123565,1302.362347
3740.412980,-10066.800811,0.000000,689.485948
3740.413310,-9770.718434,0.000000,0.000000
3740.413640,-9252.574275,-222.061783,-153.219100
3740.413970,-8660.409521,-222.061783,0.000000
3740.414300,-8734.430116,-74.020594,76.609550
3740.414630,-9252.574275,-148.041188,0.000000
3740.414960,-10214.842000,0.000000,-689.485948
3740.415290,-10436.903782,-518.144159,-229.828649
3740.415619,-9770.718434,-148.041188,76.609550
3740.415949,-9252.574275,-222.061783,459.657299
3740.416279,-9326.594869,-370.102971,229.828649
3740.416609,-9104.533087,-444.123565,0.000000
3740.416939,-8808.450710,-148.041188,306.438199
3740.417269,-9696.697840,0.000000,229.828649
3740.417599,-10436.903782,518.144159,153.219100
3740.417929,-10807.006753,444.123565,-383.047749
3740.418259,-10214.842000,592.164754,-919.314598
3740.418589,-9770.718434,222.061783,-612.876398
3740.418919,-9992.780217,296.082377,-229.828649
3740.419249,-10066.800811,74.020594,-995.924147
3740.419579,-9474.636058,0.000000,-1072.533697
3740.419908,-9178.553681,0.000000,-76.609550
3740.420238,-9918.759623,370.102971,1072.533697
3740.420568,-10658.965565,370.102971,536.266849
3740.420898,-10362.883188,-296.082377,153.219100
3740.421228,-9474.636058,-444.123565,536.266849
3740.421558,-9474.636058,0.000000,1455.581446
3740.421888,-10510.924376,-296.082377,1455.581446
3740.422218,-9844.739029,-148.041188,919.314598
3740.422548,-9474.636058,0.000000,612.876398
3740.422878,-10584.944971,-74.020594,1302.362347
3740.423208,-11251.130318,-222.061783,1991.848295
3740.423538,-9992.780217,-1110.308913,1302.362347
3740.423867,-7920.203579,-592.164754,0.000000
3740.424197,-8586.388927,-444.123565,0.000000
3740.424527,-9252.574275,-148.041188,-536.266849
3740.424857,-10288.862594,0.000000,-229.828649
3740.425187,-10510.924376,148.041188,-459.657299
3740.425517,-9770.718434,-222.061783,-919.314598
3740.425847,-8956.491898,-666.185348,-612.876398
3740.426177,-9696.697840,-518.144159,536.266849
3740.426507,-9992.780217,-444.123565,612.876398
3740.426837,-9178.553681,-1628.453072,-76.609550
3740.427167,-9400.615463,-962.267725,-612.876398
3740.427497,-8956.491898,-518.144159,0.000000
3740.427827,-10510.924376,0.000000,1225.752797
3740.428156,-10214.842000,74.020594,842.705048
3740.428486,-8956.491898,296.082377,76.609550
3740.428816,-9326.594869,148.041188,-842.705048
3740.429146,-10140.821405,518.144159,-1378.971896
3740.429476,-10807.006753,444.123565,-229.828649
3740.429806,-10658.965565,888.247130,-306.438199
3740.430136,-10214.842000,814.226536,-995.924147
3740.430466,-10140.821405,-222.061783,-842.705048
3740.430796,-9548.656652,296.082377,-306.438199
3740.431126,-8882.471304,148.041188,383.047749
3740.431456,-9252.574275,814.226536,612.876398
3740.431786,-9326.594869,888.247130,612.876398
3740.432115,-11103.089130,1628.453072,612.876398
3740.432445,-10807.006753,1554.432478,1149.143247
3740.432775,-10288.862594,592.164754,766.095498
3740.433105,-9918.759623,888.247130,612.876398
3740.433435,-9844.739029,296.082377,612.876398
3740.433765,-10066.800811,592.164754,536.266849
3740.434095,-9696.697840,444.123565,689.485948
3740.434425,-9696.697840,370.102971,229.828649
3740.434755,-9622.677246,518.144159,229.828649
3740.435085,-9326.594869,296.082377,612.876398
3740.435415,-9548.656652,740.205942,1532.190996
3740.435745,-9474.636058,666.185348,1455.581446
3740.436074,-9474.636058,370.102971,383.047749
3740.436404,-9622.677246,0.000000,-919.314598
3740.436734,-9918.759623,148.041188,-383.047749
3740.437064,-9992.780217,0.000000,153.219100
3740.437394,-9622.677246,-740.205942,229.828649
3740.437724,-8808.450710,-518.144159,995.924147
3740.438054,-9030.512492,-518.144159,842.705048
3740.438384,-9918.759623,-222.061783,0.000000
3740.438714,-9992.780217,-666.185348,0.000000
3740.439044,-10288.862594,-222.061783,76.609550
3740.439374,-9992.780217,0.000000,689.485948
3740.439704,-10288.862594,-518.144159,0.000000
3740.440034,-9400.615463,-444.123565,-383.047749
3740.440363,-8660.409521,-296.082377,-76.609550
3740.440693,-8808.450710,-444.123565,-459.657299
3740.441023,-8956.491898,-148.041188,-919.314598
3740.441353,-10140.821405,74.020594,-153.219100
3740.441683,-10955.047942,296.082377,383.047749
3740.442013,-10807.006753,222.061783,229.828649
3740.442343,-9992.780217,0.000000,-459.657299
3740.442673,-9770.718434,-296.082377,-612.876398
3740.443003,-9844.739029,0.000000,-842.705048
3740.443333,-9474.636058,74.020594,76.609550
3740.443663,-9918.759623,444.123565,-76.609550
3740.443993,-10288.862594,444.123565,459.657299
3740.444322,-10510.924376,518.144159,0.000000
3740.444652,-9992.780217,296.082377,153.219100
3740.444982,-9400.615463,296.082377,612.876398
3740.445312,-10140.821405,74.020594,612.876398
3740.445642,-10288.862594,0.000000,919.314598
3740.445972,-10214.842000,-444.123565,1378.971896
3740.446302,-9918.759623,0.000000,919.314598
3740.446632,-9104.533087,0.000000,76.609550
3740.446962,-10362.883188,0.000000,612.876398
3740.447292,-10288.862594,222.061783,995.924147
3740.447622,-9696.697840,0.000000,1302.362347
3740.447952,-8734.430116,148.041188,1072.533697
3740.448281,-9326.594869,0.000000,383.047749
3740.448611,-10881.027347,74.020594,229.828649
3740.448941,-10584.944971,0.000000,-689.485948
3740.449271,-9474.636058,-444.123565,-689.485948
3740.449601,-8660.409521,-370.102971,0.000000
3740.449931,-9178.553681,0.000000,76.609550
3740.450261,-9400.615463,-592.164754,153.219100
3740.450590,-8808.450710,-518.144159,153.219100
3740.450920,-8882.471304,-814.226536,-842.705048
3740.451250,-9770.718434,0.000000,76.609550
3740.451580,-10436.903782,0.000000,536.266849
3740.451910,-9548.656652,-370.102971,995.924147
3740.452239,-8660.409521,222.061783,0.000000
3740.452569,-9326.594869,0.000000,-536.266849
3740.452899,-9622.677246,74.020594,-842.705048
3740.453229,-10140.821405,444.123565,-1149.143247
3740.453559,-9992.780217,666.185348,-995.924147
3740.453889,-9770.718434,518.144159,-689.485948
3740.454218,-9474.636058,666.185348,153.219100
3740.454548,-10288.862594,592.164754,0.000000
3740.454878,-10066.800811,592.164754,-459.657299
3740.455208,-9696.697840,518.144159,-536.266849
3740.455538,-9696.697840,444.123565,919.314598
3740.455867,-10362.883188,740.205942,1685.410096
3740.456197,-10881.027347,518.144159,1225.752797
3740.456527,-9696.697840,518.144159,766.095498
3740.456857,-9548.656652,814.226536,76.609550
3740.457187,-10510.924376,592.164754,153.219100
3740.457517,-11177.109724,370.102971,536.266849
3740.457846,-10510.924376,666.185348,383.047749
3740.458176,-9474.636058,370.102971,919.314598
3740.458506,-9918.759623,370.102971,842.705048
3740.458836,-9918.759623,-74.020594,459.657299
3740.459166,-10214.842000,222.061783,1455.581446
3740.459496,-9770.718434,0.000000,1225.752797
3740.459825,-9178.553681,0.000000,612.876398
3740.460155,-9548.656652,-740.205942,459.657299
3740.460485,-9770.718434,-370.102971,612.876398
3740.460815,-8808.450710,-296.082377,383.047749
3740.461145,-9030.512492,-814.226536,0.000000
3740.461474,-9844.739029,0.000000,0.000000
3740.461804,-10214.842000,-148.041188,459.657299
3740.462134,-9178.553681,-370.102971,306.438199
3740.462464,-8808.450710,-444.123565,459.657299
3740.462794,-9104.533087,-296.082377,76.609550
3740.463124,-9548.656652,0.000000,-612.876398
3740.463453,-9474.636058,-444.123565,-459.657299
3740.463783,-9474.636058,74.020594,536.266849
3740.464113,-9696.697840,0.000000,766.095498
3740.464443,-10140.821405,222.061783,-229.828649
3740.464773,-10066.800811,0.000000,-766.095498
3740.465102,-10288.862594,0.000000,0.000000
3740.465432,-10362.883188,296.082377,-612.876398
3740.465762,-9696.697840,0.000000,153.219100
3740.466092,-8956.491898,296.082377,153.219100
3740.466422,-8808.450710,296.082377,-306.438199
3740.466752,-10140.821405,296.082377,153.219100
3740.467081,-10732.986159,74.020594,0.000000
3740.467411,-10732.986159,0.000000,229.828649
3740.467741,-9696.697840,148.041188,612.876398
3740.468071,-9844.739029,0.000000,1072.533697
3740.468401,-9770.718434,666.185348,1532.190996
3740.468731,-10436.903782,296.082377,1378.971896
3740.469060,-10436.903782,370.102971,689.485948
3740.469390,-9844.739029,74.020594,229.828649
3740.469720,-10510.924376,296.082377,1225.752797
3740.470050,-10362.883188,296.082377,1378.971896
3740.470380,-9844.739029,0.000000,536.266849
3740.470709,-9178.553681,222.061783,1072.533697
3740.471039,-9992.780217,74.020594,76.609550
3740.471369,-10362.883188,0.000000,0.000000
3740.471699,-9622.677246,-444.123565,229.828649
3740.472029,-8956.491898,-444.123565,995.924147
3740.472359,-9400.615463,-296.082377,306.438199
3740.472688,-9178.553681,-740.205942,-766.095498
3740.473018,-8956.491898,-666.185348,-919.314598
3740.473348,-9252.574275,-444.123565,-229.828649
3740.473678,-10214.842000,0.000000,459.657299
3740.474008,-9918.759623,0.000000,306.438199
3740.474337,-9400.615463,-222.061783,0.000000
3740.474667,-9474.636058,-148.041188,0.000000
3740.474997,-9770.718434,-444.123565,-689.485948
3740.475327,-9622.677246,-518.144159,-459.657299
3740.475657,-9104.533087,-222.061783,229.828649
3740.475987,-8882.471304,0.000000,766.095498
3740.476316,-9104.533087,444.123565,306.438199
3740.476646,-9770.718434,814.226536,-1302.362347
3740.476976,-10584.944971,592.164754,-1225.752797
3740.477306,-10510.924376,370.102971,-766.095498
3740.477636,-10140.821405,444.123565,76.609550
3740.477966,-9696.697840,592.164754,459.657299
3740.478295,-10214.842000,888.247130,229.828649
3740.478625,-9770.718434,592.164754,229.828649
3740.478955,-10140.821405,592.164754,-229.828649
3740.479285,-10436.903782,592.164754,383.047749
3740.479615,-10140.821405,444.123565,1149.143247
3740.479944,-10140.821405,444.123565,1532.190996
3740.480274,-9474.636058,518.144159,1838.629195
3740.480604,-9770.718434,518.144159,1302.362347
3740.480934,-10510.924376,1110.308913,689.485948
3740.481264,-10955.047942,518.144159,153.219100
3740.481594,-10288.862594,518.144159,919.314598
3740.481923,-9474.636058,148.041188,1455.581446
3740.482253,-9696.697840,0.000000,1302.362347
3740.482583,-9696.697840,0.000000,1072.533697
3740.482913,-9918.759623,74.020594,0.000000
3740.483243,-9252.574275,-222.061783,76.609550
3740.483572,-9178.553681,0.000000,0.000000
3740.483902,-9696.697840,0.000000,459.657299
3740.484232,-9770.718434,-148.041188,229.828649
3740.484562,-9104.533087,-444.123565,0.000000
3740.484892,-9252.574275,0.000000,0.000000
3740.485222,-9844.739029,148.041188,-995.924147
3740.485551,-9548.656652,-592.164754,-1225.752797
3740.485881,-9104.533087,-518.144159,-76.609550
3740.486211,-9400.615463,-518.144159,536.266849
3740.486541,-10362.883188,148.041188,995.924147
3740.486871,-10214.842000,-296.082377,76.609550
3740.487201,-9474.636058,-74.020594,-995.924147
3740.487530,-9030.512492,74.020594,-1225.752797
3740.487860,-9474.636058,148.041188,-1378.971896
3740.488190,-9770.718434,74.020594,-689.485948
3740.488520,-10140.821405,518.144159,0.000000
3740.488850,-9474.636058,444.123565,0.000000
3740.489179,-9326.594869,222.061783,-766.095498
3740.489509,-9844.739029,592.164754,0.000000
3740.489839,-10510.924376,518.144159,383.047749
3740.490169,-11103.089130,592.164754,153.219100
3740.490499,-10732.986159,148.041188,229.828649
3740.490829,-10214.842000,296.082377,689.485948
3740.491158,-9918.759623,592.164754,1378.971896
3740.491488,-10362.883188,296.082377,842.705048
3740.491818,-10140.821405,222.061783,995.924147
3740.492148,-9548.656652,74.020594,536.266849
3740.492478,-10214.842000,518.144159,536.266849
3740.492807,-10436.903782,444.123565,766.095498
3740.493137,-10584.944971,148.041188,1532.190996
3740.493467,-9770.718434,0.000000,995.924147
3740.493797,-9474.636058,-148.041188,0.000000
3740.494127,-9622.677246,-370.102971,383.047749
3740.494457,-9548.656652,0.000000,689.485948
3740.494786,-9844.739029,-666.185348,919.314598
3740.495116,-8956.491898,0.000000,0.000000
3740.495446,-9400.615463,-296.082377,689.485948
3740.495776,-10436.903782,-222.061783,766.095498
3740.496106,-9770.718434,-592.164754,0.000000
3740.496436,-8512.368333,-592.164754,-383.047749
3740.496765,-7846.182985,-666.185348,-459.657299
3740.497095,-9178.553681,-370.102971,76.609550
3740.497425,-10214.842000,-148.041188,76.609550
3740.497755,-9474.636058,-148.041188,0.000000
3740.498085,-9696.697840,0.000000,383.047749
3740.498414,-9918.759623,-370.102971,153.219100
3740.498744,-10436.903782,-592.164754,383.047749
3740.499074,-9252.574275,0.000000,766.095498
3740.499404,-8660.409521,222.061783,306.438199
3740.499734,-9030.512492,0.000000,-612.876398
3740.500064,-9696.697840,222.061783,0.000000
3740.500393,-10955.047942,740.205942,153.219100
3740.500723,-10362.883188,1258.350101,0.000000
3740.501053,-9992.780217,518.144159,-919.314598
3740.501383,-9918.759623,444.123565,-766.095498
3740.501713,-10658.965565,962.267725,229.828649
3740.502042,-11251.130318,1036.288319,612.876398
3740.502372,-10658.965565,518.144159,383.047749
3740.502702,-9548.656652,0.000000,306.438199
3740.503032,-9474.636058,666.185348,689.485948
3740.503362,-9992.780217,888.247130,689.485948
3740.503692,-10214.842000,1110.308913,229.828649
3740.504021,-9770.718434,814.226536,0.000000
3740.504351,-9918.759623,222.061783,0.000000
3740.504681,-10214.842000,740.205942,306.438199
3740.505011,-10732.986159,296.082377,766.095498
3740.505341,-10510.924376,222.061783,1149.143247
3740.505671,-9474.636058,-296.082377,689.485948
3740.506000,-9696.697840,-222.061783,612.876398
3740.506330,-9770.718434,74.020594,536.266849
3740.506660,-9844.739029,-370.102971,459.657299
3740.506990,-9178.553681,-296.082377,0.000000
3740.507320,-9104.533087,-296.082377,459.657299
3740.507649,-9474.636058,-74.020594,1149.143247
3740.507979,-9548.656652,0.000000,153.219100
3740.508309,-9178.553681,-518.144159,-459.657299
3740.508639,-9252.574275,-296.082377,-1302.362347
3740.508969,-9400.615463,-296.082377,-995.924147
3740.509299,-10140.821405,-296.082377,-383.047749
3740.509628,-9844.739029,-592.164754,995.924147
3740.509958,-9400.615463,-592.164754,995.924147
3740.510288,-9326.594869,-592.164754,459.657299
3740.510618,-9252.574275,-222.061783,-383.047749
3740.510948,-9252.574275,-148.041188,-383.047749
3740.511277,-9474.636058,0.000000,-76.609550
3740.511607,-9548.656652,370.102971,-306.438199
3740.511937,-9770.718434,148.041188,-842.705048
3740.512267,-9918.759623,148.041188,-229.828649
3740.512597,-9844.739029,370.102971,-306.438199
3740.512927,-10140.821405,222.061783,-612.876398
3740.513256,-10140.821405,444.123565,-536.266849
3740.513586,-9548.656652,814.226536,-612.876398
3740.513916,-9622.677246,0.000000,76.609550
3740.514246,-9770.718434,222.061783,766.095498
3740.514576,-10584.944971,444.123565,1608.800546
3740.514906,-10807.006753,444.123565,919.314598
3740.515235,-9474.636058,0.000000,995.924147
3740.515565,-9918.759623,296.082377,1838.629195
3740.515895,-10732.986159,444.123565,1532.190996
3740.516225,-10732.986159,148.041188,536.266849
3740.516555,-9474.636058,0.000000,0.000000
3740.516884,-9104.533087,-148.041188,459.657299
3740.517214,-10214.842000,0.000000,1762.019645
3740.517544,-10362.883188,-370.102971,1838.629195
3740.517874,-9696.697840,-370.102971,1685.410096
3740.518204,-9400.615463,0.000000,76.609550
3740.518534,-10066.800811,148.041188,0.000000
3740.518863,-10362.883188,-370.102971,-229.828649
3740.519193,-10362.883188,0.000000,0.000000
3740.519523,-9400.615463,0.000000,459.657299
3740.519853,-8882.471304,-962.267725,612.876398
3740.520183,-9474.636058,-444.123565,995.924147
3740.520512,-9474.636058,-370.102971,0.000000
3740.520842,-9992.780217,-370.102971,-1302.362347
3740.521172,-9326.594869,-222.061783,-1762.019645
3740.521502,-9474.636058,-518.144159,-306.438199
3740.521832,-9548.656652,-592.164754,1225.752797
3740.522162,-9326.594869,0.000000,1302.362347
3740.522491,-9474.636058,0.000000,306.438199
3740.522821,-8956.491898,0.000000,-1608.800546
3740.523151,-9252.574275,-296.082377,-2068.457845
3740.523481,-9992.780217,0.000000,-1149.143247
3740.523811,-10066.800811,370.102971,383.047749
3740.524141,-9474.636058,518.144159,459.657299
3740.524470,-9474.636058,296.082377,-383.047749
3740.524800,-9696.697840,518.144159,-919.314598
3740.525130,-10658.965565,740.205942,-1378.971896
3740.525460,-11029.068536,444.123565,-1072.533697
3740.525790,-10436.903782,740.205942,-536.266849
3740.526119,-9844.739029,518.144159,919.314598
3740.526449,-10214.842000,518.144159,2068.457845
3740.526779,-9992.780217,444.123565,995.924147
3740.527109,-10214.842000,740.205942,1149.143247
3740.527439,-10584.944971,518.144159,0.000000
3740.527769,-10584.944971,444.123565,229.828649
3740.528098,-10066.800811,1110.308913,1762.019645
3740.528428,-9918.759623,666.185348,1685.410096
3740.528758,-9918.759623,518.144159,919.314598
3740.529088,-10584.944971,370.102971,76.609550
3740.529418,-10362.883188,0.000000,153.219100
3740.529747,-9548.656652,0.000000,766.095498
3740.530077,-9696.697840,0.000000,842.705048
3740.530407,-9622.677246,0.000000,689.485948
3740.530737,-9400.615463,-296.082377,459.657299
3740.531067,-9104.533087,-222.061783,383.047749
3740.531397,-9326.594869,-296.082377,153.219100
3740.531726,-9770.718434,-74.020594,76.609550
3740.532056,-8956.491898,-148.041188,842.705048
3740.532386,-9326.594869,444.123565,842.705048
3740.532716,-9326.594869,-370.102971,0.000000
3740.533046,-9178.553681,-370.102971,-459.657299
3740.533376,-8808.450710,-370.102971,-612.876398
3740.533705,-9326.594869,0.000000,-612.876398
3740.534035,-9474.636058,-74.020594,0.000000
3740.534365,-9548.656652,-296.082377,766.095498
3740.534695,-8956.491898,0.000000,689.485948
3740.535025,-9400.615463,370.102971,-76.609550
3740.535354,-10214.842000,518.144159,-995.924147
3740.535684,-10807.006753,518.144159,-612.876398
3740.536014,-10214.842000,444.123565,-383.047749
3740.536344,-9844.739029,222.061783,-229.828649
3740.536674,-9548.656652,148.041188,766.095498
3740.537004,-11177.109724,814.226536,842.705048
3740.537333,-10807.006753,148.041188,153.219100
3740.537663,-9400.615463,518.144159,-459.657299
3740.537993,-9326.594869,222.061783,153.219100
3740.538323,-10436.903782,666.185348,612.876398
3740.538653,-10732.986159,666.185348,1149.143247
3740.538982,-10140.821405,0.000000,1532.190996
3740.539312,-9622.677246,0.000000,1455.581446
3740.539642,-10584.944971,370.102971,459.657299
3740.539972,-11103.089130,74.020594,153.219100
3740.540302,-9992.780217,0.000000,0.000000
3740.540632,-9400.615463,0.000000,536.266849
3740.540961,-9992.780217,-148.041188,1378.971896
3740.541291,-10732.986159,-444.123565,1608.800546
3740.541621,-9548.656652,-370.102971,1378.971896
3740.541951,-8734.430116,-888.247130,536.266849
3740.542281,-8808.450710,-370.102971,306.438199
3740.542611,-9548.656652,-518.144159,-153.219100
3740.542940,-10362.883188,-222.061783,76.609550
3740.543270,-9622.677246,-370.102971,229.828649
3740.543600,-9104.533087,-814.226536,306.438199
3740.543930,-8660.409521,-592.164754,306.438199
3740.544260,-9326.594869,-444.123565,-306.438199
3740.544589,-9474.636058,-518.144159,-689.485948
3740.544919,-9030.512492,-666.185348,-459.657299
3740.545249,-9474.636058,-444.123565,76.609550
3740.545579,-9326.594869,-444.123565,919.314598
3740.545909,-9474.636058,-592.164754,842.705048
3740.546239,-8956.491898,-592.164754,536.266849
3740.546568,-8882.471304,148.041188,0.000000
3740.546898,-9548.656652,148.041188,-1072.533697
3740.547228,-9992.780217,74.020594,-536.266849
3740.547558,-10732.986159,1110.308913,0.000000
3740.547886,-10881.027347,666.185348,459.657299
3740.548216,-10214.842000,222.061783,-689.485948
3740.548546,-9844.739029,148.041188,-76.609550
3740.548875,-9844.739029,666.185348,-383.047749
3740.549205,-9770.718434,592.164754,-995.924147
3740.549535,-9622.677246,666.185348,-536.266849
3740.549865,-9770.718434,666.185348,0.000000
3740.550194,-10288.862594,814.226536,842.705048
3740.550524,-10955.047942,1184.329507,459.657299
3740.550854,-10362.883188,740.205942,995.924147
3740.551183,-10288.862594,740.205942,76.609550
3740.551513,-10140.821405,74.020594,229.828649
3740.551843,-9844.739029,370.102971,612.876398
3740.552172,-9918.759623,148.041188,1838.629195
3740.552502,-10214.842000,370.102971,1455.581446
3740.552832,-9844.739029,74.020594,766.095498
3740.553162,-9400.615463,0.000000,612.876398
3740.553491,-9770.718434,296.082377,612.876398
3740.553821,-10214.842000,74.020594,536.266849
3740.554151,-9400.615463,0.000000,459.657299
3740.554480,-9252.574275,0.000000,-383.047749
3740.554810,-9252.574275,0.000000,-153.219100
3740.555140,-9474.636058,-296.082377,0.000000
3740.555469,-9252.574275,-740.205942,0.000000
3740.555799,-9400.615463,-666.185348,766.095498
3740.556129,-9400.615463,-740.205942,766.095498
3740.556459,-9326.594869,-592.164754,536.266849
3740.556788,-8882.471304,-1036.288319,536.266849
3740.557118,-8956.491898,-518.144159,306.438199
3740.557448,-9474.636058,74.020594,229.828649
3740.557777,-9844.739029,-296.082377,0.000000
3740.558107,-9474.636058,0.000000,383.047749
3740.558437,-9178.553681,0.000000,0.000000
3740.558766,-10288.862594,222.061783,-1149.143247
3740.559096,-10140.821405,0.000000,-1149.143247
3740.559426,-10362.883188,0.000000,-766.095498
3740.559755,-9770.718434,222.061783,-842.705048
3740.560085,-9400.615463,222.061783,-459.657299
3740.560415,-9844.739029,222.061783,0.000000
3740.560745,-10436.903782,518.144159,76.609550
3740.561074,-11029.068536,814.226536,76.609550
3740.561404,-10362.883188,740.205942,612.876398
3740.561734,-10584.944971,740.205942,536.266849
3740.562063,-10288.862594,666.185348,1149.143247
3740.562393,-9844.739029,148.041188,919.314598
3740.562723,-10066.800811,296.082377,1378.971896
3740.563052,-10436.903782,296.082377,1532.190996
3740.563382,-10955.047942,74.020594,995.924147
3740.563712,-10140.821405,222.061783,995.924147
3740.564042,-9696.697840,74.020594,1225.752797
3740.564371,-9474.636058,222.061783,1072.533697
3740.564701,-9992.780217,444.123565,1302.362347
3740.565031,-9918.759623,222.061783,1532.190996
3740.565360,-9770.718434,0.000000,689.485948
3740.565690,-9178.553681,-592.164754,306.438199
3740.566020,-8660.409521,-592.164754,1149.143247
3740.566349,-9252.574275,0.000000,1225.752797
3740.566679,-9474.636058,0.000000,383.047749
3740.567009,-9696.697840,-370.102971,-229.828649
3740.567339,-9622.677246,-444.123565,76.609550
3740.567668,-10066.800811,-74.020594,536.266849
3740.567998,-10140.821405,-444.123565,459.657299
3740.568328,-8142.265362,-888.247130,306.438199
3740.568657,-8586.388927,0.000000,76.609550
3740.568987,-9104.533087,0.000000,-306.438199
3740.569317,-9696.697840,0.000000,-459.657299
3740.569646,-9104.533087,222.061783,-459.657299
3740.569976,-9252.574275,296.082377,-383.047749
3740.570306,-10140.821405,444.123565,-306.438199
3740.570636,-10140.821405,222.061783,-766.095498
3740.570965,-10362.883188,-370.102971,-919.314598
3740.571295,-9696.697840,222.061783,-766.095498
3740.571625,-9474.636058,-296.082377,-689.485948
3740.571954,-9696.697840,0.000000,536.266849
3740.572284,-9844.739029,592.164754,689.485948
3740.572614,-10584.944971,592.164754,612.876398
3740.572943,-10288.862594,666.185348,-153.219100
3740.573273,-9992.780217,814.226536,-76.609550
3740.573603,-10436.903782,888.247130,229.828649
3740.573933,-10584.944971,1332.370696,612.876398
3740.574262,-10288.862594,518.144159,919.314598
3740.574592,-10140.821405,740.205942,1072.533697
3740.574922,-10288.862594,222.061783,536.266849
3740.575251,-10362.883188,740.205942,459.657299
3740.575581,-10510.924376,296.082377,536.266849
3740.575911,-9918.759623,592.164754,689.485948
3740.576240,-9992.780217,222.061783,766.095498
3740.576570,-9696.697840,0.000000,995.924147
3740.576900,-9918.759623,-148.041188,1072.533697
3740.577230,-9992.780217,148.041188,1072.533697
3740.577559,-9548.656652,-518.144159,689.485948
3740.577889,-9326.594869,-666.185348,0.000000
3740.578219,-8956.491898,-962.267725,536.266849
3740.578548,-9622.677246,-370.102971,76.609550
3740.578878,-8882.471304,-740.205942,-383.047749
3740.579208,-8734.430116,-444.123565,-306.438199
3740.579537,-8882.471304,-1110.308913,383.047749
3740.579867,-9918.759623,-666.185348,0.000000
3740.580197,-9548.656652,-666.185348,76.609550
3740.580527,-9030.512492,-740.205942,612.876398
3740.580856,-9548.656652,-444.123565,536.266849
3740.581186,-9548.656652,-592.164754,76.609550
3740.581516,-9696.697840,-444.123565,0.000000
3740.581845,-9770.718434,0.000000,0.000000
3740.582175,-9844.739029,-222.061783,-229.828649
3740.582505,-9030.512492,-666.185348,0.000000
3740.582834,-9474.636058,148.041188,-612.876398
3740.583164,-10140.821405,592.164754,-612.876398
3740.583494,-10288.862594,296.082377,-1838.629195
3740.583824,-9400.615463,-148.041188,-1991.848295
3740.584153,-9104.533087,0.000000,-536.266849
3740.584483,-10214.842000,74.020594,612.876398
3740.584813,-9992.780217,0.000000,1225.752797
3740.585142,-9400.615463,296.082377,1378.971896
3740.585472,-9696.697840,222.061783,995.924147
3740.585802,-10881.027347,888.247130,229.828649
3740.586131,-11325.150913,74.020594,612.876398
3740.586461,-10510.924376,740.205942,995.924147
3740.586791,-9178.553681,0.000000,766.095498
3740.587121,-9474.636058,0.000000,689.485948
3740.587450,-10066.800811,0.000000,995.924147
3740.587780,-9844.739029,592.164754,383.047749
3740.588110,-9770.718434,518.144159,-306.438199
3740.588439,-10214.842000,-148.041188,-306.438199
3740.588769,-10436.903782,592.164754,842.705048
3740.589099,-10066.800811,-296.082377,1149.143247
3740.589428,-8734.430116,0.000000,459.657299
3740.589758,-9030.512492,-592.164754,0.000000
3740.590088,-9770.718434,0.000000,-689.485948
3740.590418,-9844.739029,-444.123565,-612.876398
3740.590747,-9918.759623,-222.061783,-536.266849
3740.591077,-9104.533087,-296.082377,612.876398
3740.591407,-9326.594869,-814.226536,383.047749
3740.591736,-9696.697840,-888.247130,76.609550
3740.592066,-9030.512492,-1184.329507,536.266849
3740.592396,-8660.409521,-740.205942,459.657299
3740.592725,-8882.471304,-888.247130,76.609550
3740.593055,-9696.697840,-444.123565,153.219100
3740.593385,-9400.615463,0.000000,766.095498
3740.593715,-9474.636058,592.164754,383.047749
3740.594044,-10140.821405,296.082377,-229.828649
3740.594374,-9918.759623,148.041188,-536.266849
3740.594704,-9918.759623,592.164754,-76.609550
3740.595033,-9918.759623,740.205942,536.266849
3740.595363,-9918.759623,370.102971,-459.657299
3740.595693,-10362.883188,666.185348,0.000000
3740.596022,-10658.965565,592.164754,153.219100
3740.596352,-10658.965565,740.205942,0.000000
3740.596682,-10584.944971,666.185348,383.047749
3740.597012,-10214.842000,592.164754,919.314598
3740.597341,-9474.636058,1332.370696,919.314598
3740.597671,-9918.759623,1110.308913,612.876398
3740.598001,-10732.986159,1554.432478,612.876398
3740.598330,-11103.089130,1258.350101,612.876398
3740.598660,-10881.027347,888.247130,-383.047749
3740.598990,-10140.821405,518.144159,306.438199
3740.599319,-9622.677246,518.144159,1685.410096
3740.599649,-9548.656652,74.020594,2145.067394
3740.599979,-9696.697840,592.164754,1149.143247
3740.600309,-9548.656652,444.123565,842.705048
3740.600638,-10140.821405,592.164754,536.266849
3740.600968,-9918.759623,518.144159,612.876398
3740.601298,-9474.636058,222.061783,689.485948
3740.601627,-9474.636058,0.000000,459.657299
3740.601957,-9696.697840,74.020594,153.219100
3740.602287,-9474.636058,-370.102971,-689.485948
3740.602616,-9104.533087,-592.164754,-306.438199
3740.602946,-8364.327145,-370.102971,-76.609550
3740.603276,-9030.512492,0.000000,459.657299
3740.603606,-9548.656652,296.082377,1072.533697
3740.603935,-9918.759623,0.000000,306.438199
3740.604265,-9918.759623,0.000000,0.000000
3740.604595,-9548.656652,-370.102971,-536.266849
3740.604924,-9548.656652,-222.061783,0.000000
3740.605254,-9326.594869,0.000000,459.657299
3740.605584,-9030.512492,-148.041188,0.000000
3740.605913,-9252.574275,0.000000,-536.266849
3740.606243,-8956.491898,0.000000,-612.876398
3740.606573,-9844.739029,0.000000,-536.266849
3740.606903,-10881.027347,592.164754,383.047749
3740.607232,-10362.883188,296.082377,766.095498
3740.607562,-10288.862594,0.000000,153.219100
3740.607892,-9918.759623,0.000000,-766.095498
3740.608221,-9474.636058,-148.041188,-689.485948
3740.608551,-10066.800811,222.061783,0.000000
3740.608881,-10288.862594,222.061783,689.485948
3740.609210,-10214.842000,148.041188,766.095498
3740.609540,-10066.800811,222.061783,306.438199
3740.609870,-10881.027347,0.000000,306.438199
3740.610200,-10584.944971,-592.164754,229.828649
3740.610529,-10214.842000,-666.185348,229.828649
3740.610859,-9178.553681,-740.205942,1225.752797
3740.611189,-9400.615463,-962.267725,1991.848295
3740.611518,-9918.759623,-518.144159,2068.457845
3740.611848,-10436.903782,-740.205942,1072.533697
3740.612178,-10362.883188,-74.020594,766.095498
3740.612507,-9992.780217,-444.123565,76.609550
3740.612837,-10066.800811,-592.164754,-229.828649
3740.613167,-9326.594869,-740.205942,612.876398
3740.613497,-9548.656652,-888.247130,689.485948
3740.613826,-9326.594869,-666.185348,-689.485948
3740.614156,-9400.615463,-1332.370696,-1762.019645
3740.614486,-9178.553681,-666.185348,-536.266849
3740.614815,-9326.594869,-666.185348,153.219100
3740.615145,-9474.636058,-518.144159,306.438199
3740.615475,-8808.450710,-740.205942,612.876398
3740.615804,-9474.636058,-518.144159,995.924147
3740.616134,-10066.800811,-592.164754,1072.533697
3740.616464,-10881.027347,0.000000,306.438199
3740.616794,-9992.780217,0.000000,536.266849
3740.617123,-9622.677246,370.102971,383.047749
3740.617453,-9104.533087,296.082377,-153.219100
3740.617783,-8586.388927,962.267725,-306.438199
3740.618112,-9992.780217,888.247130,-612.876398
3740.618442,-10584.944971,1258.350101,-383.047749
3740.618772,-10288.862594,1036.288319,-536.266849
3740.619101,-10362.883188,962.267725,766.095498
3740.619431,-10436.903782,1332.370696,229.828649
3740.619761,-10362.883188,666.185348,0.000000
3740.620091,-9622.677246,370.102971,-153.219100
3740.620420,-9326.594869,444.123565,536.266849
3740.620750,-9622.677246,1110.308913,1762.019645
3740.621080,-10658.965565,1258.350101,1225.752797
3740.621409,-9992.780217,740.205942,612.876398
3740.621739,-9030.512492,444.123565,612.876398
3740.622069,-9844.739029,518.144159,919.314598
3740.622398,-10881.027347,814.226536,1225.752797
3740.622728,-10584.944971,444.123565,1762.019645
3740.623058,-9918.759623,888.247130,842.705048
3740.623388,-9474.636058,518.144159,459.657299
3740.623717,-9696.697840,0.000000,-306.438199
3740.624047,-9548.656652,148.041188,0.000000
3740.624377,-9622.677246,444.123565,0.000000
3740.624706,-9474.636058,0.000000,-536.266849
3740.625036,-9030.512492,0.000000,0.000000
3740.625366,-9770.718434,222.061783,383.047749
3740.625695,-9918.759623,370.102971,-612.876398
3740.626025,-9918.759623,-296.082377,-1225.752797
3740.626355,-9030.512492,-1332.370696,-995.924147
3740.626685,-8512.368333,-962.267725,-153.219100
3740.627014,-9030.512492,-1036.288319,459.657299
3740.627344,-8882.471304,-962.267725,459.657299
3740.627674,-8882.471304,-740.205942,306.438199
3740.628003,-8586.388927,-518.144159,76.609550
3740.628333,-9918.759623,-518.144159,0.000000
3740.628663,-10584.944971,-444.123565,229.828649
3740.628992,-9918.759623,-518.144159,383.047749
3740.629322,-9178.553681,-444.123565,-689.485948
3740.629652,-8956.491898,-370.102971,-689.485948
3740.629982,-10140.821405,-444.123565,0.000000
3740.630311,-10807.006753,0.000000,306.438199
3740.630641,-10288.862594,-148.041188,-842.705048
3740.630971,-9844.739029,-370.102971,459.657299
3740.631300,-9844.739029,-444.123565,1149.143247
3740.631630,-10955.047942,0.000000,1685.410096
3740.631960,-10140.821405,-296.082377,1072.533697
3740.632289,-9622.677246,0.000000,612.876398
3740.632619,-9548.656652,148.041188,459.657299
3740.632949,-10362.883188,0.000000,1149.143247
3740.633279,-11251.130318,0.000000,919.314598
3740.633608,-10436.903782,296.082377,1225.752797
3740.633938,-10436.903782,0.000000,153.219100
3740.634268,-9474.636058,-444.123565,0.000000
3740.634597,-9696.697840,-370.102971,1302.362347
3740.634927,-9770.718434,222.061783,1991.848295
3740.635257,-9992.780217,0.000000,1072.533697
3740.635586,-9548.656652,-296.082377,1302.362347
3740.635916,-10214.842000,444.123565,612.876398
3740.636246,-10807.006753,370.102971,0.000000
3740.636576,-10140.821405,74.020594,-306.438199
3740.636905,-9252.574275,0.000000,-766.095498
3740.637235,-9030.512492,0.000000,-766.095498
3740.637565,-9474.636058,222.061783,-459.657299
3740.637894,-9622.677246,-444.123565,536.266849
3740.638224,-8660.409521,-74.020594,306.438199
3740.638554,-8290.306550,0.000000,-1302.362347
3740.638883,-9178.553681,0.000000,-689.485948
3740.639213,-9844.739029,0.000000,536.266849
3740.639543,-9696.697840,74.020594,689.485948
3740.639873,-8512.368333,0.000000,306.438199
3740.640202,-8660.409521,-148.041188,229.828649
3740.640532,-9326.594869,74.020594,0.000000
3740.640862,-9548.656652,148.041188,383.047749
3740.641191,-9400.615463,592.164754,-383.047749
3740.641521,-9548.656652,518.144159,-459.657299
3740.641851,-10362.883188,962.267725,0.000000
3740.642180,-10510.924376,666.185348,995.924147
3740.642510,-9918.759623,962.267725,766.095498
3740.642840,-9844.739029,1110.308913,153.219100
3740.643169,-10066.800811,814.226536,-1455.581446
3740.643499,-10510.924376,666.185348,-1149.143247
3740.643829,-10214.842000,1332.370696,0.000000
3740.644159,-10214.842000,814.226536,76.609550
3740.644488,-9696.697840,666.185348,-383.047749
3740.644818,-9696.697840,296.082377,-689.485948
3740.645148,-9992.780217,592.164754,919.314598
3740.645477,-10066.800811,814.226536,1072.533697
3740.645807,-10658.965565,222.061783,1225.752797
3740.646137,-9770.718434,222.061783,1302.362347
3740.646466,-10510.924376,0.000000,1072.533697
3740.646796,-10807.006753,74.020594,995.924147
3740.647126,-10807.006753,-296.082377,689.485948
3740.647456,-9178.553681,-370.102971,229.828649
3740.647785,-8808.450710,-296.082377,0.000000
3740.648115,-9252.574275,148.041188,-842.705048
3740.648445,-9918.759623,0.000000,-536.266849
3740.648774,-10362.883188,148.041188,-383.047749
3740.649104,-10362.883188,296.082377,-383.047749
3740.649434,-9622.677246,-592.164754,-689.485948
3740.649763,-9326.594869,-1110.308913,153.219100
3740.650093,-8512.368333,-740.205942,306.438199
3740.650423,-8660.409521,-1258.350101,306.438199
3740.650753,-9696.697840,-666.185348,0.000000
3740.651083,-9548.656652,-592.164754,229.828649
3740.651413,-9622.677246,-444.123565,919.314598
3740.651742,-9770.718434,0.000000,1455.581446
3740.652072,-9918.759623,-666.185348,459.657299
3740.652402,-8956.491898,-370.102971,-229.828649
3740.652732,-8956.491898,-666.185348,-689.485948
3740.653062,-9770.718434,-74.020594,0.000000
3740.653391,-10510.924376,444.123565,306.438199
3740.653721,-10140.821405,148.041188,-383.047749
3740.654051,-8734.430116,-148.041188,-995.924147
3740.654381,-9770.718434,222.061783,-383.047749
3740.654711,-11177.109724,740.205942,153.219100
3740.655041,-10955.047942,0.000000,383.047749
3740.655370,-9696.697840,-148.041188,0.000000
3740.655700,-8882.471304,0.000000,919.314598
3740.656030,-9918.759623,740.205942,1685.410096
3740.656360,-11103.089130,0.000000,1532.190996
3740.656690,-10288.862594,74.020594,919.314598
3740.657019,-8808.450710,0.000000,766.095498
3740.657349,-9918.759623,296.082377,1149.143247
3740.657679,-11177.109724,444.123565,1302.362347
3740.658009,-10436.903782,0.000000,1072.533697
3740.658339,-8882.471304,0.000000,-153.219100
3740.658668,-9252.574275,444.123565,-766.095498
3740.658998,-9770.718434,0.000000,383.047749
3740.659328,-9622.677246,74.020594,1378.971896
3740.659658,-9178.553681,444.123565,1149.143247
3740.659988,-9474.636058,296.082377,0.000000
3740.660318,-10214.842000,222.061783,-383.047749
3740.660647,-10658.965565,0.000000,-76.609550
3740.660977,-10066.800811,-296.082377,-306.438199
3740.661307,-9474.636058,-370.102971,0.000000
3740.661637,-8216.285956,-370.102971,306.438199
3740.661967,-8660.409521,0.000000,459.657299
3740.662296,-9696.697840,0.000000,229.828649
3740.662626,-10362.883188,370.102971,0.000000
3740.662956,-10510.924376,-296.082377,-766.095498
3740.663286,-9178.553681,-592.164754,-383.047749
3740.663616,-9030.512492,-222.061783,76.609550
3740.663946,-9252.574275,-444.123565,1225.752797
3740.664275,-9030.512492,296.082377,76.609550
3740.664605,-9474.636058,444.123565,-1149.143247
3740.664935,-9918.759623,666.185348,-1915.238745
3740.665265,-11103.089130,814.226536,-995.924147
3740.665595,-11769.274478,814.226536,306.438199
3740.665924,-10510.924376,740.205942,689.485948
3740.666254,-9252.574275,0.000000,0.000000
3740.666584,-9326.594869,444.123565,153.219100
3740.666914,-10584.944971,222.061783,612.876398
3740.667244,-10214.842000,962.267725,689.485948
3740.667573,-9548.656652,592.164754,-153.219100
3740.667903,-9474.636058,1554.432478,-229.828649
3740.668233,-10807.006753,1184.329507,612.876398
3740.668563,-11177.109724,740.205942,766.095498
3740.668893,-10214.842000,444.123565,0.000000
3740.669223,-9252.574275,74.020594,-612.876398
3740.669552,-9178.553681,222.061783,0.000000
3740.669882,-9548.656652,0.000000,2145.067394
3740.670212,-10288.862594,370.102971,2911.162892
3740.670542,-9622.677246,444.123565,1838.629195
3740.670872,-10584.944971,370.102971,842.705048
3740.671201,-10288.862594,296.082377,1072.533697
3740.671531,-9844.739029,518.144159,766.095498
3740.671861,-9770.718434,370.102971,306.438199
3740.672191,-9400.615463,0.000000,0.000000
3740.672521,-9918.759623,0.000000,-76.609550
3740.672850,-9474.636058,-222.061783,-919.314598
3740.673180,-9474.636058,-370.102971,-383.047749
3740.673510,-8586.388927,-666.185348,229.828649
3740.673840,-8216.285956,-740.205942,0.000000
3740.674170,-9326.594869,-370.102971,0.000000
3740.674500,-9622.677246,0.000000,766.095498
3740.674829,-10732.986159,-296.082377,536.266849
3740.675159,-10140.821405,0.000000,0.000000
3740.675489,-9622.677246,-518.144159,-383.047749
3740.675819,-10140.821405,-74.020594,306.438199
3740.676149,-9474.636058,-222.061783,76.609550
3740.676478,-9178.553681,-666.185348,-612.876398
3740.676808,-8438.347739,-370.102971,-1455.581446
3740.677138,-9326.594869,-370.102971,-1302.362347
3740.677468,-10362.883188,444.123565,-536.266849
3740.677798,-10955.047942,148.041188,0.000000
3740.678128,-10362.883188,-222.061783,229.828649
3740.678457,-10362.883188,0.000000,153.219100
3740.678787,-10510.924376,-666.185348,-383.047749
3740.679117,-9992.780217,-592.164754,-306.438199
3740.679447,-9548.656652,-518.144159,1149.143247
3740.679777,-9696.697840,296.082377,1915.238745
3740.680106,-10881.027347,370.102971,1455.581446
3740.680436,-9844.739029,-222.061783,689.485948
3740.680766,-9992.780217,296.082377,229.828649
3740.681096,-10584.944971,-370.102971,-306.438199
3740.681426,-9844.739029,-518.144159,-229.828649
3740.681755,-9548.656652,-518.144159,536.266849
3740.682085,-9030.512492,-370.102971,1378.971896
3740.682415,-9622.677246,-222.061783,1915.238745
3740.682745,-10214.842000,-148.041188,1532.190996
3740.683075,-10288.862594,-296.082377,1072.533697
3740.683405,-10807.006753,-444.123565,229.828649
3740.683734,-10214.842000,-370.102971,0.000000
3740.684064,-10436.903782,-814.226536,1225.752797
3740.684394,-9400.615463,-222.061783,1991.848295
3740.684724,-8142.265362,-814.226536,-383.047749
3740.685054,-8142.265362,-666.185348,-842.705048
3740.685383,-8734.430116,0.000000,0.000000
3740.685713,-9770.718434,-74.020594,229.828649
3740.686043,-9918.759623,296.082377,383.047749
3740.686373,-10362.883188,0.000000,919.314598
3740.686703,-10807.006753,0.000000,919.314598
3740.687032,-9770.718434,-74.020594,306.438199
3740.687362,-8438.347739,-444.123565,0.000000
3740.687692,-8068.244768,370.102971,-76.609550
3740.688022,-8586.388927,814.226536,229.828649
3740.688352,-9770.718434,1554.432478,536.266849
3740.688682,-9844.739029,1702.473667,-459.657299
3740.689011,-11029.068536,1776.494261,-1378.971896
3740.689341,-10732.986159,1258.350101,-2145.067394
3740.689671,-9844.739029,444.123565,-1838.629195
3740.690001,-9474.636058,518.144159,-766.095498
3740.690331,-9252.574275,740.205942,612.876398
3740.690660,-9178.553681,1036.288319,306.438199
3740.690990,-9030.512492,962.267725,0.000000
3740.691320,-9918.759623,1258.350101,153.219100
3740.691650,-10807.006753,1776.494261,536.266849
3740.691980,-10658.965565,1406.391290,1149.143247
3740.692310,-10362.883188,740.205942,1608.800546
3740.692639,-9474.636058,666.185348,1149.143247
3740.692969,-9622.677246,592.164754,842.705048
3740.693299,-9474.636058,518.144159,689.485948
3740.693629,-9696.697840,592.164754,919.314598
3740.693959,-9474.636058,1110.308913,689.485948
3740.694288,-9770.718434,1110.308913,0.000000
3740.694618,-10510.924376,1036.288319,536.266849
3740.694948,-9992.780217,592.164754,153.219100
3740.695278,-10066.800811,444.123565,-536.266849
3740.695608,-9622.677246,444.123565,76.609550
3740.695937,-9844.739029,0.000000,459.657299
3740.696267,-9400.615463,0.000000,0.000000
3740.696597,-9474.636058,-296.082377,-689.485948
3740.696927,-10066.800811,-666.185348,76.609550
3740.697257,-10066.800811,-370.102971,612.876398
3740.697587,-10066.800811,-740.205942,229.828649
3740.697916,-8586.388927,-666.185348,76.609550
3740.698246,-8882.471304,-888.247130,612.876398
3740.698576,-9548.656652,-444.123565,1455.581446
3740.698906,-9918.759623,-888.247130,536.266849
3740.699236,-9622.677246,-666.185348,0.000000
3740.699565,-9400.615463,-888.247130,-306.438199
3740.699895,-9178.553681,-1184.329507,-459.657299
3740.700225,-9474.636058,-962.267725,-229.828649
3740.700555,-9474.636058,-592.164754,536.266849
3740.700885,-10510.924376,-518.144159,383.047749
3740.701215,-9696.697840,-370.102971,-536.266849
3740.701544,-9992.780217,-518.144159,-459.657299
3740.701874,-10436.903782,0.000000,-153.219100
3740.702204,-10881.027347,-370.102971,-383.047749
3740.702534,-10658.965565,-370.102971,-689.485948
3740.702864,-9326.594869,-1258.350101,-459.657299
3740.703193,-8660.409521,-814.226536,0.000000
3740.703523,-9474.636058,-666.185348,306.438199
3740.703853,-10140.821405,-592.164754,383.047749
3740.704183,-10140.821405,0.000000,153.219100
3740.704513,-10362.883188,-592.164754,229.828649
3740.704842,-10732.986159,-296.082377,0.000000
3740.705172,-10436.903782,-962.267725,459.657299
3740.705502,-9326.594869,-1036.288319,612.876398
3740.705832,-8734.430116,-962.267725,0.000000
3740.706162,-9400.615463,-814.226536,76.609550
3740.706492,-9696.697840,-592.164754,536.266849
3740.706821,-9844.739029,0.000000,536.266849
3740.707151,-10658.965565,0.000000,459.657299
3740.707481,-10066.800811,-518.144159,76.609550
3740.707811,-9992.780217,-666.185348,0.000000
3740.708141,-9474.636058,-592.164754,76.609550
3740.708470,-9400.615463,-814.226536,153.219100
3740.708800,-9326.594869,-666.185348,459.657299
3740.709130,-9252.574275,-222.061783,0.000000
3740.709460,-9104.533087,0.000000,-612.876398
3740.709790,-9030.512492,0.000000,0.000000
3740.710119,-9844.739029,0.000000,0.000000
3740.710449,-9474.636058,-370.102971,229.828649
3740.710779,-9252.574275,0.000000,306.438199
3740.711109,-9252.574275,0.000000,229.828649
3740.711439,-9770.718434,296.082377,0.000000
3740.711769,-9548.656652,0.000000,-306.438199
3740.712098,-9326.594869,666.185348,-689.485948
3740.712428,-9474.636058,592.164754,-383.047749
3740.712758,-10362.883188,1258.350101,0.000000
3740.713088,-11103.089130,1332.370696,76.609550
3740.713418,-10214.842000,1110.308913,0.000000
3740.713747,-9400.615463,888.247130,76.609550
3740.714077,-9696.697840,1258.350101,-842.705048
3740.714407,-10584.944971,1184.329507,229.828649
3740.714737,-9918.759623,888.247130,536.266849
3740.715067,-9326.594869,1036.288319,306.438199
3740.715397,-9622.677246,1110.308913,-689.485948
3740.715726,-9918.759623,888.247130,229.828649
3740.716056,-10436.903782,1110.308913,1378.971896
3740.716386,-10214.842000,666.185348,1149.143247
3740.716716,-9252.574275,444.123565,612.876398
3740.717046,-8956.491898,222.061783,1455.581446
3740.717375,-9770.718434,962.267725,2068.457845
3740.717705,-10436.903782,296.082377,1455.581446
3740.718035,-9844.739029,888.247130,1915.238745
3740.718365,-10436.903782,1332.370696,2068.457845
3740.718695,-10955.047942,962.267725,1225.752797
3740.719024,-9770.718434,518.144159,76.609550
3740.719354,-9326.594869,296.082377,306.438199
3740.719684,-9326.594869,1554.432478,0.000000
3740.720014,-9696.697840,962.267725,-689.485948
3740.720344,-9992.780217,370.102971,-995.924147
3740.720674,-9474.636058,222.061783,0.000000
3740.721003,-9696.697840,0.000000,0.000000
3740.721333,-9400.615463,-370.102971,229.828649
3740.721663,-8956.491898,-148.041188,995.924147
3740.721993,-9178.553681,0.000000,1149.143247
3740.722323,-9178.553681,518.144159,1302.362347
3740.722652,-9918.759623,592.164754,766.095498
3740.722982,-10362.883188,592.164754,919.314598
3740.723312,-10807.006753,296.082377,689.485948
3740.723642,-10288.862594,0.000000,612.876398
3740.723972,-9400.615463,666.185348,76.609550
3740.724302,-9474.636058,74.020594,-459.657299
3740.724631,-9326.594869,370.102971,-919.314598
3740.724961,-9178.553681,740.205942,-689.485948
3740.725291,-9992.780217,740.205942,-306.438199
3740.725621,-10658.965565,1036.288319,-612.876398
3740.725951,-10584.944971,74.020594,-306.438199
3740.726280,-9844.739029,-74.020594,306.438199
3740.726610,-9770.718434,-444.123565,1455.581446
3740.726940,-9992.780217,-666.185348,919.314598
3740.727270,-10510.924376,-444.123565,612.876398
3740.727600,-8882.471304,-296.082377,536.266849
3740.727929,-8882.471304,-370.102971,995.924147
3740.728259,-10066.800811,370.102971,1225.752797
3740.728589,-10658.965565,-148.041188,1532.190996
3740.728919,-10658.965565,-814.226536,842.705048
3740.729249,-9326.594869,-222.061783,153.219100
3740.729579,-9474.636058,-370.102971,-153.219100
3740.729908,-9770.718434,-666.185348,0.000000
3740.730238,-10362.883188,74.020594,76.609550
3740.730568,-10362.883188,-592.164754,-919.314598
3740.730898,-9696.697840,-148.041188,-1302.362347
3740.731228,-9918.759623,-814.226536,-1225.752797
3740.731557,-9252.574275,-888.247130,-459.657299
3740.731887,-8734.430116,-962.267725,-229.828649
3740.732217,-8216.285956,-1332.370696,459.657299
3740.732547,-9104.533087,-518.144159,1149.143247
3740.732877,-10436.903782,-1184.329507,612.876398
3740.733206,-9918.759623,-1554.432478,1072.533697
3740.733536,-9178.553681,-1554.432478,689.485948
3740.733866,-9030.512492,-1110.308913,1072.533697
3740.734196,-9178.553681,-1332.370696,612.876398
3740.734526,-9400.615463,-1480.411884,153.219100
3740.734856,-8142.265362,-296.082377,-306.438199
3740.735185,-9178.553681,74.020594,-689.485948
3740.735515,-10436.903782,444.123565,-766.095498
3740.735845,-11103.089130,296.082377,0.000000
3740.736175,-10288.862594,0.000000,0.000000
3740.736505,-9474.636058,222.061783,-459.657299
3740.736834,-10436.903782,148.041188,-919.314598
3740.737164,-10881.027347,814.226536,306.438199
3740.737494,-10066.800811,592.164754,153.219100
3740.737824,-9622.677246,1332.370696,-306.438199
3740.738154,-10066.800811,1480.411884,153.219100
3740.738484,-11029.068536,1110.308913,153.219100
3740.738813,-11547.212695,666.185348,612.876398
3740.739143,-10584.944971,814.226536,842.705048
3740.739473,-10140.821405,518.144159,995.924147
3740.739803,-9548.656652,222.061783,229.828649
3740.740133,-9400.615463,444.123565,-612.876398
3740.740462,-9326.594869,296.082377,0.000000
3740.740792,-10140.821405,666.185348,842.705048
3740.741122,-10584.944971,592.164754,1378.971896
3740.741452,-9844.739029,-148.041188,1149.143247
3740.741782,-8808.450710,370.102971,612.876398
3740.742111,-8956.491898,296.082377,0.000000
3740.742441,-9474.636058,592.164754,-689.485948
3740.742771,-9104.533087,0.000000,-459.657299
3740.743101,-8808.450710,-148.041188,383.047749
3740.743431,-9104.533087,0.000000,1225.752797
3740.743761,-10362.883188,-74.020594,536.266849
3740.744090,-9474.636058,-592.164754,153.219100
3740.744420,-8956.491898,-74.020594,-153.219100
3740.744750,-9178.553681,-296.082377,-306.438199
3740.745080,-9252.574275,-444.123565,-153.219100
3740.745410,-9178.553681,-518.144159,383.047749
3740.745739,-8364.327145,74.020594,1072.533697
3740.746069,-9178.553681,148.041188,536.266849
3740.746399,-10140.821405,148.041188,0.000000
3740.746729,-10214.842000,370.102971,-536.266849
3740.747059,-9474.636058,370.102971,-1302.362347
3740.747388,-9178.553681,518.144159,-766.095498
3740.747718,-10436.903782,444.123565,612.876398
3740.748048,-11399.171507,1110.308913,1608.800546
3740.748378,-11177.109724,148.041188,306.438199
3740.748708,-10362.883188,0.000000,-153.219100
3740.749037,-10066.800811,222.061783,306.438199
3740.749367,-10288.862594,-296.082377,459.657299
3740.749697,-9696.697840,0.000000,459.657299
3740.750027,-9622.677246,222.061783,1072.533697
3740.750356,-10362.883188,518.144159,459.657299
3740.750686,-10584.944971,0.000000,-306.438199
3740.751016,-9844.739029,0.000000,-459.657299
3740.751345,-9252.574275,-222.061783,0.000000
3740.751675,-9696.697840,-370.102971,0.000000
3740.752005,-9918.759623,74.020594,0.000000
3740.752335,-11177.109724,148.041188,1225.752797
3740.752664,-11695.253884,-296.082377,1455.581446
3740.752994,-10510.924376,-370.102971,1149.143247
3740.753324,-9548.656652,-814.226536,689.485948
3740.753653,-9548.656652,-444.123565,842.705048
3740.753983,-10066.800811,-814.226536,842.705048
3740.754313,-9474.636058,-666.185348,229.828649
3740.754643,-9030.512492,-666.185348,-306.438199
3740.754972,-9474.636058,-370.102971,-459.657299
3740.755302,-9548.656652,-296.082377,383.047749
3740.755632,-9548.656652,-888.247130,0.000000
3740.755961,-8660.409521,-962.267725,306.438199
3740.756291,-8882.471304,-1110.308913,-306.438199
3740.756621,-10140.821405,-740.205942,-76.609550
3740.756951,-9622.677246,-740.205942,459.657299
3740.757280,-9030.512492,-592.164754,1455.581446
3740.757610,-8512.368333,0.000000,842.705048
3740.757940,-9178.553681,0.000000,995.924147
3740.758269,-10140.821405,370.102971,1225.752797
3740.758599,-10066.800811,814.226536,306.438199
3740.758929,-10436.903782,814.226536,-459.657299
3740.759259,-10066.800811,518.144159,-1149.143247
3740.759588,-10510.924376,962.267725,-153.219100
3740.759918,-9770.718434,962.267725,-229.828649
3740.760248,-9548.656652,888.247130,-612.876398
3740.760577,-9474.636058,1332.370696,-689.485948
3740.760907,-9770.718434,1184.329507,0.000000
3740.761237,-10362.883188,1258.350101,-229.828649
3740.761567,-9992.780217,1480.411884,306.438199
3740.761896,-11325.150913,1184.329507,1455.581446
3740.762226,-11029.068536,1184.329507,2145.067394
3740.762556,-10066.800811,370.102971,0.000000
3740.762885,-9400.615463,148.041188,229.828649
3740.763215,-9474.636058,444.123565,229.828649
3740.763545,-10658.965565,444.123565,306.438199
3740.763874,-9770.718434,296.082377,383.047749
3740.764204,-9252.574275,296.082377,306.438199
3740.764534,-9696.697840,666.185348,689.485948
3740.764864,-10658.965565,222.061783,1149.143247
3740.765193,-10807.006753,0.000000,1455.581446
3740.765523,-9326.594869,0.000000,995.924147
3740.765853,-9252.574275,0.000000,306.438199
3740.766182,-9844.739029,0.000000,-306.438199
3740.766512,-9548.656652,-222.061783,-459.657299
3740.766842,-9474.636058,0.000000,-919.314598
3740.767172,-9252.574275,-296.082377,-612.876398
3740.767501,-9474.636058,-814.226536,536.266849
3740.767831,-9770.718434,-518.144159,1378.971896
3740.768161,-9252.574275,-592.164754,689.485948
3740.768490,-9104.533087,-592.164754,153.219100
3740.768820,-9104.533087,-888.247130,459.657299
3740.769150,-9770.718434,-666.185348,842.705048
3740.769480,-9474.636058,-222.061783,1072.533697
3740.769809,-9548.656652,-592.164754,76.609550
3740.770139,-9696.697840,-74.020594,0.000000
3740.770469,-9400.615463,-148.041188,-383.047749
3740.770798,-9918.759623,592.164754,-612.876398
3740.771128,-9696.697840,0.000000,-1608.800546
3740.771458,-10140.821405,0.000000,-1455.581446
3740.771788,-9400.615463,-148.041188,-766.095498
3740.772117,-9104.533087,148.041188,536.266849
3740.772447,-10066.800811,222.061783,459.657299
3740.772777,-10807.006753,296.082377,229.828649
3740.773106,-10584.944971,148.041188,-306.438199
3740.773436,-10214.842000,518.144159,0.000000
3740.773766,-10955.047942,518.144159,766.095498
3740.774096,-10955.047942,518.144159,1991.848295
3740.774425,-10362.883188,-222.061783,1225.752797
3740.774755,-9548.656652,0.000000,766.095498
3740.775085,-9844.739029,0.000000,229.828649
3740.775414,-10955.047942,0.000000,229.828649
3740.775744,-9918.759623,148.041188,459.657299
3740.776074,-9252.574275,0.000000,459.657299
3740.776404,-9030.512492,0.000000,0.000000
3740.776733,-9474.636058,0.000000,0.000000
3740.777063,-10214.842000,-74.020594,383.047749
3740.777393,-9696.697840,0.000000,1225.752797
3740.777722,-10362.883188,-148.041188,842.705048
3740.778052,-10955.047942,0.000000,689.485948
3740.778382,-10881.027347,-444.123565,842.705048
3740.778712,-8956.491898,-666.185348,153.219100
3740.779041,-8216.285956,-740.205942,-153.219100
3740.779371,-8808.450710,-666.185348,383.047749
3740.779701,-9548.656652,0.000000,995.924147
3740.780030,-9474.636058,-74.020594,76.609550
3740.780360,-9030.512492,148.041188,-153.219100
3740.780690,-9400.615463,296.082377,306.438199
3740.781020,-9844.739029,74.020594,306.438199
3740.781349,-9474.636058,-370.102971,0.000000
3740.781679,-9030.512492,0.000000,536.266849
3740.782009,-9104.533087,-148.041188,766.095498
3740.782338,-9622.677246,0.000000,459.657299
3740.782668,-10214.842000,0.000000,-153.219100
3740.782998,-10214.842000,444.123565,0.000000
3740.783327,-10510.924376,592.164754,459.657299
3740.783657,-10362.883188,592.164754,459.657299
3740.783987,-9696.697840,148.041188,153.219100
3740.784317,-9622.677246,962.267725,766.095498
3740.784646,-10140.821405,1110.308913,612.876398
3740.784976,-9770.718434,962.267725,-1225.752797
3740.785306,-8882.471304,814.226536,-1762.019645
3740.785635,-9178.553681,1110.308913,-1149.143247
3740.785965,-10362.883188,1184.329507,153.219100
3740.786295,-11251.130318,1110.308913,842.705048
3740.786625,-10807.006753,1110.308913,1149.143247
3740.786954,-10881.027347,444.123565,1225.752797
3740.787284,-11029.068536,0.000000,459.657299
3740.787614,-10658.965565,148.041188,1532.190996
3740.787943,-9400.615463,0.000000,1532.190996
3740.788273,-9326.594869,0.000000,1149.143247
3740.788603,-9178.553681,-222.061783,689.485948
3740.788933,-9104.533087,0.000000,1378.971896
3740.789262,-9844.739029,296.082377,1225.752797
3740.789592,-10807.006753,0.000000,-459.657299
3740.789922,-9770.718434,-592.164754,-383.047749
3740.790251,-9474.636058,-296.082377,0.000000
3740.790581,-8956.491898,0.000000,995.924147
3740.790911,-9030.512492,-370.102971,0.000000
3740.791241,-8956.491898,-1036.288319,459.657299
3740.791570,-9104.533087,-518.144159,383.047749
3740.791900,-9622.677246,-444.123565,229.828649
3740.792230,-9252.574275,0.000000,383.047749
3740.792559,-9474.636058,-222.061783,536.266849
3740.792889,-9548.656652,148.041188,76.609550
3740.793219,-9474.636058,148.041188,-229.828649
3740.793549,-10066.800811,0.000000,-612.876398
3740.793878,-9474.636058,74.020594,-459.657299
3740.794208,-9696.697840,222.061783,-306.438199
3740.794538,-9178.553681,0.000000,-919.314598
3740.794867,-9548.656652,296.082377,-459.657299
3740.795197,-10140.821405,296.082377,0.000000
3740.795527,-10362.883188,444.123565,76.609550
3740.795857,-10140.821405,0.000000,0.000000
3740.796186,-9548.656652,518.144159,383.047749
3740.796516,-9622.677246,370.102971,229.828649
3740.796846,-10214.842000,888.247130,459.657299
3740.797175,-10140.821405,592.164754,153.219100
3740.797505,-10362.883188,814.226536,-689.485948
3740.797835,-10732.986159,814.226536,-536.266849
3740.798165,-10732.986159,222.061783,995.924147
3740.798494,-10214.842000,222.061783,1072.533697
3740.798824,-9918.759623,0.000000,766.095498
3740.799154,-9474.636058,74.020594,-229.828649
3740.799483,-9992.780217,-370.102971,536.266849
3740.799813,-10362.883188,-518.144159,689.485948
3740.800143,-9844.739029,-296.082377,995.924147
3740.800473,-9844.739029,-592.164754,1072.533697
3740.800802,-9548.656652,-370.102971,919.314598
3740.801132,-9844.739029,-814.226536,689.485948
3740.801462,-9252.574275,-444.123565,-229.828649
3740.801791,-9104.533087,-814.226536,0.000000
3740.802121,-9992.780217,-740.205942,0.000000
3740.802451,-9696.697840,-888.247130,459.657299
3740.802780,-9252.574275,-1554.432478,153.219100
3740.803110,-8956.491898,-1332.370696,459.657299
3740.803440,-9548.656652,-740.205942,229.828649
3740.803770,-9696.697840,-1332.370696,-153.219100
3740.804099,-8438.347739,-888.247130,153.219100
3740.804429,-9178.553681,-518.144159,229.828649
3740.804759,-9252.574275,296.082377,153.219100
3740.805088,-10362.883188,-148.041188,0.000000
3740.805418,-9474.636058,-444.123565,153.219100
3740.805748,-9104.533087,-74.020594,-306.438199
3740.806078,-10288.862594,0.000000,-612.876398
3740.806407,-10510.924376,0.000000,-842.705048
3740.806737,-9400.615463,-222.061783,-306.438199
3740.807067,-9030.512492,592.164754,76.609550
3740.807396,-10066.800811,888.247130,0.000000
3740.807726,-10881.027347,888.247130,229.828649
3740.808056,-10436.903782,1406.391290,-383.047749
3740.808386,-10066.800811,814.226536,-842.705048
3740.808715,-10140.821405,888.247130,-536.266849
3740.809045,-10140.821405,1036.288319,153.219100
3740.809375,-10288.862594,888.247130,1225.752797
3740.809704,-9770.718434,1036.288319,153.219100
3740.810034,-10066.800811,814.226536,229.828649
3740.810364,-10584.944971,888.247130,383.047749
3740.810694,-10807.006753,592.164754,536.266849
3740.811023,-10066.800811,444.123565,842.705048
3740.811353,-10362.883188,222.061783,1455.581446
3740.811683,-10288.862594,0.000000,2068.457845
3740.812012,-9400.615463,0.000000,1072.533697
3740.812342,-9104.533087,-148.041188,229.828649
3740.812672,-9548.656652,592.164754,459.657299
3740.813002,-10214.842000,0.000000,0.000000
3740.813331,-9474.636058,74.020594,-306.438199
3740.813661,-9104.533087,0.000000,536.266849
3740.813991,-9622.677246,-222.061783,306.438199
3740.814320,-9696.697840,-444.123565,0.000000
3740.814650,-9474.636058,-592.164754,-689.485948
3740.814980,-8734.430116,-444.123565,153.219100
3740.815310,-9030.512492,-296.082377,1149.143247
3740.815639,-9696.697840,-296.082377,1532.190996
3740.815969,-9104.533087,-518.144159,995.924147
3740.816299,-9252.574275,0.000000,153.219100
3740.816628,-9622.677246,0.000000,-612.876398
3740.816958,-9992.780217,0.000000,-383.047749
3740.817288,-9104.533087,-222.061783,-459.657299
3740.817618,-8586.388927,-518.144159,-459.657299
3740.817947,-9622.677246,222.061783,229.828649
3740.818277,-9844.739029,296.082377,612.876398
3740.818607,-9844.739029,296.082377,-459.657299
3740.818936,-9178.553681,1406.391290,-1532.190996
3740.819266,-10214.842000,888.247130,-919.314598
3740.819596,-11473.192101,1258.350101,76.609550
3740.819926,-11695.253884,518.144159,1149.143247
3740.820255,-10807.006753,296.082377,766.095498
3740.820585,-9474.636058,-222.061783,689.485948
3740.820915,-10066.800811,74.020594,612.876398
3740.821244,-9770.718434,296.082377,459.657299
3740.821574,-9474.636058,74.020594,-229.828649
3740.821904,-8660.409521,222.061783,1149.143247
3740.822233,-11103.089130,370.102971,1915.238745
3740.822563,-11843.295072,296.082377,1608.800546
3740.822893,-11103.089130,-740.205942,1378.971896
3740.823223,-9252.574275,-1628.453072,1225.752797
3740.823552,-8734.430116,-1036.288319,1072.533697
3740.823882,-9474.636058,-370.102971,919.314598
3740.824212,-9622.677246,-518.144159,1225.752797
3740.824541,-9548.656652,148.041188,1149.143247
3740.824871,-9844.739029,148.041188,766.095498
3740.825201,-10584.944971,518.144159,0.000000
3740.825531,-10807.006753,74.020594,0.000000
3740.825860,-9770.718434,74.020594,-76.609550
3740.826190,-8808.450710,-222.061783,-766.095498
3740.826520,-8586.388927,-666.185348,0.000000
3740.826849,-9030.512492,0.000000,0.000000
3740.827179,-9992.780217,148.041188,383.047749
3740.827509,-9548.656652,0.000000,153.219100
3740.827839,-9178.553681,0.000000,306.438199
3740.828168,-9474.636058,370.102971,0.000000
3740.828498,-9474.636058,814.226536,0.000000
3740.828828,-9326.594869,592.164754,-153.219100
3740.829157,-9178.553681,1184.329507,76.609550
3740.829487,-9474.636058,814.226536,-1149.143247
3740.829817,-10214.842000,962.267725,-1149.143247
3740.830147,-10584.944971,888.247130,-612.876398
3740.830476,-10436.903782,592.164754,-153.219100
3740.830806,-9326.594869,592.164754,-689.485948
3740.831136,-9474.636058,444.123565,-536.266849
3740.831465,-9992.780217,888.247130,306.438199
3740.831795,-9622.677246,814.226536,459.657299
3740.832125,-9844.739029,666.185348,229.828649
3740.832455,-9400.615463,1110.308913,536.266849
3740.832784,-10436.903782,1184.329507,842.705048
3740.833114,-11251.130318,740.205942,306.438199
3740.833444,-10288.862594,296.082377,153.219100
3740.833773,-10140.821405,370.102971,842.705048
3740.834103,-10658.965565,444.123565,1532.190996
3740.834433,-11029.068536,148.041188,383.047749
3740.834763,-9770.718434,-296.082377,995.924147
3740.835092,-8956.491898,74.020594,689.485948
3740.835422,-9474.636058,0.000000,153.219100
3740.835752,-10658.965565,-74.020594,-842.705048
3740.836081,-9992.780217,-518.144159,0.000000
3740.836411,-9178.553681,-592.164754,306.438199
3740.836741,-9030.512492,-740.205942,-689.485948
3740.837071,-9918.759623,-814.226536,-919.314598
3740.837400,-9918.759623,-666.185348,-919.314598
3740.837730,-9252.574275,-1628.453072,0.000000
3740.838060,-9030.512492,-962.267725,383.047749
3740.838389,-9696.697840,-1110.308913,1302.362347
3740.838719,-10362.883188,-592.164754,459.657299
3740.839049,-9474.636058,-1554.432478,0.000000
3740.839379,-8068.244768,-1702.473667,0.000000
3740.839708,-8808.450710,-740.205942,383.047749
3740.840038,-9474.636058,-666.185348,383.047749
3740.840368,-9474.636058,-814.226536,-689.485948
3740.840697,-9104.533087,-518.144159,0.000000
3740.841027,-9770.718434,0.000000,-536.266849
3740.841357,-10658.965565,-444.123565,-1225.752797
3740.841686,-10436.903782,0.000000,-1225.752797
3740.842016,-10214.842000,-370.102971,306.438199
3740.842346,-9326.594869,0.000000,1225.752797
3740.842676,-9992.780217,222.061783,76.609550
3740.843005,-9844.739029,444.123565,-1532.190996
3740.843335,-10658.965565,592.164754,-995.924147
3740.843665,-10807.006753,592.164754,-1072.533697
3740.843994,-10214.842000,222.061783,-536.266849
3740.844324,-9770.718434,148.041188,383.047749
3740.844654,-9548.656652,0.000000,1608.800546
3740.844984,-9474.636058,0.000000,919.314598
3740.845313,-9992.780217,-148.041188,0.000000
3740.845643,-10658.965565,518.144159,306.438199
3740.845973,-10436.903782,148.041188,919.314598
3740.846302,-10732.986159,222.061783,1685.410096
3740.846632,-9696.697840,-222.061783,1838.629195
3740.846962,-9622.677246,148.041188,1762.019645
3740.847292,-8882.471304,296.082377,612.876398
3740.847621,-9474.636058,296.082377,-459.657299
3740.847951,-9770.718434,518.144159,0.000000
3740.848281,-9622.677246,888.247130,0.000000
3740.848610,-10214.842000,962.267725,0.000000
3740.848940,-10214.842000,444.123565,229.828649
3740.849270,-9992.780217,0.000000,-76.609550
3740.849600,-8808.450710,-888.247130,-306.438199
3740.849929,-8438.347739,-666.185348,306.438199
3740.850259,-9252.574275,0.000000,1685.410096
3740.850589,-9030.512492,74.020594,2221.676944
3740.850918,-8438.347739,0.000000,1149.143247
3740.851248,-9030.512492,444.123565,842.705048
3740.851578,-9844.739029,814.226536,459.657299
3740.851907,-10732.986159,592.164754,0.000000
3740.852237,-9104.533087,370.102971,-919.314598
3740.852567,-7846.182985,370.102971,-766.095498
3740.852896,-9104.533087,888.247130,-306.438199
3740.853226,-10510.924376,1110.308913,-459.657299
3740.853556,-10510.924376,962.267725,-1149.143247
3740.853886,-10288.862594,962.267725,-842.705048
3740.854215,-9918.759623,1406.391290,-612.876398
3740.854545,-11547.212695,888.247130,-306.438199
3740.854875,-10807.006753,962.267725,536.266849
3740.855204,-9992.780217,592.164754,-383.047749
3740.855534,-9622.677246,148.041188,-766.095498
3740.855864,-9252.574275,592.164754,153.219100
3740.856193,-10955.047942,962.267725,1378.971896
3740.856523,-10807.006753,814.226536,1225.752797
3740.856853,-10140.821405,74.020594,306.438199
3740.857182,-9400.615463,222.061783,689.485948
3740.857512,-10436.903782,222.061783,612.876398
3740.857842,-11473.192101,0.000000,612.876398
3740.858171,-10584.944971,-222.061783,842.705048
3740.858501,-9770.718434,-296.082377,536.266849
3740.858831,-9622.677246,-296.082377,689.485948
3740.859160,-9770.718434,-296.082377,536.266849
3740.859490,-9918.759623,-740.205942,536.266849
3740.859820,-9918.759623,-592.164754,689.485948
3740.860149,-9252.574275,-666.185348,459.657299
3740.860479,-9252.574275,-518.144159,306.438199
3740.860809,-10584.944971,-518.144159,995.924147
3740.861138,-10881.027347,-592.164754,995.924147
3740.861468,-9918.759623,-1110.308913,0.000000
3740.861798,-8808.450710,-2072.576638,-153.219100
3740.862127,-8808.450710,-1406.391290,842.705048
3740.862457,-9178.553681,-1406.391290,1455.581446
3740.862787,-8882.471304,-1036.288319,919.314598
3740.863116,-8068.244768,-962.267725,-383.047749
3740.863446,-9178.553681,-370.102971,-383.047749
3740.863776,-9844.739029,-222.061783,306.438199
3740.864105,-9992.780217,-592.164754,306.438199
3740.864435,-9696.697840,222.061783,383.047749
3740.864765,-9770.718434,-74.020594,-459.657299
3740.865094,-10214.842000,296.082377,-689.485948
3740.865424,-9770.718434,0.000000,-612.876398
3740.865754,-10066.800811,518.144159,0.000000
3740.866083,-9622.677246,592.164754,-612.876398
3740.866413,-9696.697840,666.185348,-766.095498
3740.866743,-9622.677246,444.123565,-306.438199
3740.867073,-9548.656652,962.267725,-383.047749
3740.867402,-10214.842000,740.205942,-842.705048
3740.867732,-10436.903782,518.144159,0.000000
3740.868062,-10807.006753,740.205942,689.485948
3740.868391,-10214.842000,444.123565,995.924147
3740.868721,-9474.636058,296.082377,689.485948
3740.869051,-9918.759623,592.164754,1455.581446
3740.869380,-10658.965565,592.164754,1072.533697
3740.869710,-10807.006753,666.185348,153.219100
3740.870040,-9992.780217,518.144159,1149.143247
3740.870369,-9992.780217,814.226536,1455.581446
3740.870699,-10436.903782,518.144159,383.047749
3740.871029,-9770.718434,74.020594,-153.219100
3740.871358,-9030.512492,74.020594,0.000000
3740.871688,-9622.677246,74.020594,536.266849
3740.872018,-9104.533087,0.000000,-153.219100
3740.872347,-8660.409521,-148.041188,-459.657299
3740.872677,-8882.471304,296.082377,0.000000
3740.873007,-9696.697840,-370.102971,459.657299
3740.873336,-9548.656652,-740.205942,842.705048
3740.873666,-9474.636058,-888.247130,1149.143247
3740.873996,-9326.594869,-592.164754,1149.143247
3740.874325,-8808.450710,-814.226536,536.266849
3740.874655,-8586.388927,-518.144159,612.876398
3740.874985,-9326.594869,-592.164754,766.095498
3740.875314,-9474.636058,-222.061783,76.609550
3740.875644,-9474.636058,0.000000,0.000000
3740.875974,-9548.656652,0.000000,306.438199
3740.876303,-9548.656652,666.185348,-153.219100
3740.876633,-10288.862594,370.102971,-1532.190996
3740.876963,-9992.780217,296.082377,-1608.800546
3740.877292,-9844.739029,296.082377,-1225.752797
3740.877622,-9474.636058,0.000000,-612.876398
3740.877952,-9178.553681,296.082377,0.000000
3740.878281,-9918.759623,518.144159,76.609550
3740.878611,-10214.842000,888.247130,459.657299
3740.878941,-11103.089130,518.144159,76.609550
3740.879270,-10807.006753,814.226536,306.438199
3740.879600,-10658.965565,1332.370696,1225.752797
3740.879930,-10584.944971,592.164754,995.924147
3740.880260,-10214.842000,740.205942,153.219100
3740.880589,-9548.656652,0.000000,-153.219100
3740.880919,-10140.821405,370.102971,153.219100
3740.881249,-10510.924376,518.144159,229.828649
3740.881578,-10362.883188,592.164754,229.828649
3740.881908,-9548.656652,0.000000,1302.362347
3740.882238,-9844.739029,148.041188,1378.971896
3740.882567,-9770.718434,0.000000,536.266849
3740.882897,-9992.780217,-370.102971,0.000000
3740.883227,-9696.697840,-444.123565,153.219100
3740.883556,-9326.594869,-222.061783,536.266849
3740.883886,-9918.759623,-518.144159,1455.581446
3740.884216,-10732.986159,-74.020594,2374.896044
3740.884545,-10140.821405,-888.247130,1532.190996
3740.884875,-8808.450710,-962.267725,306.438199
3740.885205,-8290.306550,-962.267725,536.266849
3740.885534,-9474.636058,-444.123565,1838.629195
3740.885864,-9030.512492,-518.144159,1225.752797
3740.886194,-8882.471304,-518.144159,-383.047749
3740.886523,-8512.368333,-444.123565,-689.485948
3740.886853,-9178.553681,0.000000,-153.219100
3740.887183,-10066.800811,0.000000,-459.657299
3740.887512,-9918.759623,222.061783,-459.657299
3740.887842,-8660.409521,-296.082377,229.828649
3740.888172,-9326.594869,814.226536,612.876398
3740.888501,-10732.986159,296.082377,229.828649
3740.888831,-10807.006753,740.205942,-689.485948
3740.889161,-9844.739029,296.082377,-612.876398
3740.889490,-9178.553681,296.082377,76.609550
3740.889820,-9770.718434,666.185348,229.828649
3740.890150,-10658.965565,888.247130,229.828649
3740.890479,-10214.842000,962.267725,-459.657299
3740.890809,-9696.697840,740.205942,-2221.676944
3740.891139,-9548.656652,888.247130,-1378.971896
3740.891468,-10732.986159,518.144159,0.000000
3740.891798,-11399.171507,296.082377,1685.410096
3740.892128,-10288.862594,0.000000,1302.362347
3740.892457,-9474.636058,-592.164754,459.657299
3740.892787,-9474.636058,74.020594,229.828649
3740.893117,-10362.883188,-296.082377,919.314598
3740.893447,-10510.924376,148.041188,1532.190996
3740.893776,-10140.821405,-148.041188,1991.848295
3740.894106,-9548.656652,0.000000,995.924147
3740.894436,-9622.677246,148.041188,229.828649
3740.894765,-10214.842000,-148.041188,0.000000
3740.895095,-9770.718434,74.020594,612.876398
3740.895425,-9992.780217,-296.082377,306.438199
3740.895754,-9770.718434,-740.205942,459.657299
3740.896084,-9252.574275,-814.226536,1302.362347
3740.896414,-9252.574275,-1184.329507,1455.581446
3740.896743,-9326.594869,-592.164754,0.000000
3740.897073,-9030.512492,-1480.411884,0.000000
3740.897403,-9104.533087,-518.144159,766.095498
3740.897732,-9770.718434,-444.123565,1302.362347
3740.898062,-9400.615463,-592.164754,1072.533697
3740.898392,-8660.409521,-518.144159,689.485948
3740.898721,-9326.594869,-148.041188,153.219100
3740.899051,-9474.636058,222.061783,0.000000
3740.899381,-9770.718434,0.000000,-306.438199
3740.899710,-9548.656652,888.247130,536.266849
3740.900040,-9326.594869,518.144159,-459.657299
3740.900370,-9844.739029,962.267725,-995.924147
3740.900699,-10807.006753,1480.411884,-995.924147
3740.901029,-11325.150913,1554.432478,-306.438199
3740.901359,-10066.800811,1110.308913,-1378.971896
3740.901688,-9622.677246,740.205942,-1302.362347
3740.902018,-9770.718434,666.185348,0.000000
3740.902348,-10214.842000,814.226536,536.266849
3740.902677,-9844.739029,518.144159,229.828649
3740.903007,-9104.533087,518.144159,0.000000
3740.903337,-10066.800811,814.226536,-76.609550
3740.903666,-10658.965565,1036.288319,0.000000
3740.903996,-10658.965565,370.102971,306.438199
3740.904326,-10214.842000,296.082377,1225.752797
3740.904655,-9770.718434,296.082377,1455.581446
3740.904985,-10732.986159,296.082377,919.314598
3740.905315,-10140.821405,0.000000,-153.219100
3740.905644,-9400.615463,0.000000,0.000000
3740.905974,-9326.594869,0.000000,0.000000
3740.906304,-10214.842000,0.000000,-383.047749
3740.906634,-9992.780217,0.000000,0.000000
3740.906963,-9400.615463,370.102971,459.657299
3740.907293,-9030.512492,-592.164754,153.219100
3740.907623,-9770.718434,0.000000,153.219100
3740.907952,-10140.821405,-740.205942,0.000000
3740.908282,-10732.986159,-296.082377,-229.828649
3740.908612,-9770.718434,-888.247130,459.657299
3740.908941,-9178.553681,-1776.494261,1302.362347
3740.909271,-8512.368333,-888.247130,1915.238745
3740.909601,-8882.471304,-1480.411884,1455.581446
3740.909930,-9252.574275,-814.226536,689.485948
3740.910260,-8660.409521,-1406.391290,689.485948
3740.910590,-9104.533087,-740.205942,153.219100
3740.910919,-9844.739029,-148.041188,0.000000
3740.911249,-10140.821405,0.000000,0.000000
3740.911579,-9252.574275,0.000000,612.876398
3740.911908,-8956.491898,-296.082377,-306.438199
3740.912238,-9844.739029,518.144159,-1149.143247
3740.912568,-10140.821405,74.020594,-612.876398
3740.912897,-10214.842000,222.061783,-459.657299
3740.913227,-9252.574275,148.041188,-306.438199
3740.913557,-9844.739029,444.123565,-383.047749
3740.913886,-10214.842000,666.185348,0.000000
3740.914216,-11103.089130,370.102971,306.438199
3740.914546,-10510.924376,592.164754,229.828649
3740.914875,-9918.759623,296.082377,153.219100
3740.915205,-10436.903782,222.061783,766.095498
3740.915535,-10584.944971,666.185348,1302.362347
3740.915864,-10066.800811,222.061783,1072.533697
3740.916194,-9918.759623,592.164754,689.485948
3740.916524,-10140.821405,592.164754,766.095498
3740.916853,-10955.047942,1110.308913,536.266849
3740.917183,-10732.986159,1110.308913,459.657299
3740.917513,-10214.842000,592.164754,153.219100
3740.917842,-9770.718434,444.123565,153.219100
3740.918172,-9844.739029,222.061783,-306.438199
3740.918502,-9992.780217,296.082377,919.314598
3740.918831,-9844.739029,222.061783,612.876398
3740.919161,-9104.533087,-444.123565,229.828649
3740.919491,-8216.285956,-222.061783,306.438199
3740.919821,-9326.594869,-518.144159,1072.533697
3740.920150,-10436.903782,74.020594,1838.629195
3740.920480,-9992.780217,-518.144159,1149.143247
3740.920810,-8364.327145,-888.247130,919.314598
3740.921139,-7624.121203,-370.102971,0.000000
3740.921469,-9030.512492,-148.041188,-229.828649
3740.921799,-9474.636058,0.000000,536.266849
3740.922128,-9474.636058,0.000000,0.000000
3740.922458,-8438.347739,0.000000,-459.657299
3740.922788,-9178.553681,444.123565,-459.657299
3740.923117,-9770.718434,-74.020594,-689.485948
3740.923447,-9548.656652,148.041188,383.047749
3740.923777,-9548.656652,0.000000,306.438199
3740.924106,-9918.759623,592.164754,-536.266849
3740.924436,-10362.883188,666.185348,0.000000
3740.924766,-10510.924376,592.164754,459.657299
3740.925095,-10362.883188,1036.288319,-612.876398
3740.925425,-10362.883188,370.102971,-306.438199
3740.925755,-10436.903782,666.185348,0.000000
3740.926084,-9844.739029,296.082377,0.000000
3740.926414,-9696.697840,814.226536,-153.219100
3740.926744,-9918.759623,0.000000,-383.047749
3740.927073,-10881.027347,370.102971,0.000000
3740.927403,-10510.924376,74.020594,-612.876398
3740.927733,-10214.842000,-222.061783,0.000000
3740.928062,-10214.842000,-74.020594,1072.533697
3740.928392,-9918.759623,-592.164754,919.314598
3740.928722,-9844.739029,-370.102971,766.095498
3740.929051,-9696.697840,-370.102971,1685.410096
3740.929381,-10510.924376,74.020594,1685.410096
3740.929711,-10436.903782,0.000000,919.314598
3740.930040,-10288.862594,-370.102971,-536.266849
3740.930370,-9844.739029,-518.144159,306.438199
3740.930700,-9326.594869,-814.226536,0.000000
3740.931029,-9474.636058,-1110.308913,76.609550
3740.931359,-8660.409521,-740.205942,-153.219100
3740.931689,-9252.574275,-518.144159,0.000000
3740.932018,-9400.615463,-592.164754,229.828649
3740.932348,-9326.594869,-1332.370696,1072.533697
3740.932678,-9548.656652,-740.205942,1762.019645
3740.933008,-9326.594869,-962.267725,1685.410096
3740.933337,-9400.615463,-888.247130,459.657299
3740.933667,-8956.491898,-1258.350101,459.657299
3740.933997,-8956.491898,-518.144159,612.876398
3740.934326,-9622.677246,-148.041188,306.438199
3740.934656,-10362.883188,0.000000,-306.438199
3740.934986,-9548.656652,0.000000,612.876398
3740.935315,-8882.471304,370.102971,306.438199
3740.935645,-9992.780217,962.267725,0.000000
3740.935975,-10658.965565,666.185348,-919.314598
3740.936304,-10881.027347,740.205942,-1532.190996
3740.936634,-9252.574275,444.123565,-1915.238745
3740.936964,-9770.718434,888.247130,-1608.800546
3740.937293,-10658.965565,740.205942,0.000000
3740.937623,-10362.883188,592.164754,153.219100
3740.937953,-9326.594869,370.102971,-459.657299
3740.938282,-9252.574275,222.061783,-459.657299
3740.938612,-10732.986159,444.123565,1072.533697
3740.938942,-11473.192101,444.123565,1455.581446
3740.939271,-9770.718434,222.061783,1072.533697
3740.939601,-8586.388927,74.020594,1225.752797
3740.939931,-9474.636058,296.082377,1302.362347
3740.940260,-10955.047942,370.102971,536.266849
3740.940590,-10288.862594,444.123565,0.000000
3740.940920,-8956.491898,148.041188,-306.438199
3740.941249,-9918.759623,296.082377,0.000000
3740.941579,-10732.986159,592.164754,766.095498
3740.941909,-10066.800811,-74.020594,536.266849
3740.942238,-8956.491898,666.185348,229.828649
3740.942568,-8438.347739,-296.082377,-995.924147
3740.942898,-9474.636058,-148.041188,0.000000
3740.943227,-9622.677246,-74.020594,1915.238745
3740.943557,-10362.883188,74.020594,2068.457845
3740.943887,-9400.615463,-888.247130,383.047749
3740.944216,-9104.533087,-1110.308913,-612.876398
3740.944546,-9030.512492,-740.205942,0.000000
3740.944876,-8734.430116,-666.185348,536.266849
3740.945205,-9030.512492,-370.102971,612.876398
3740.945535,-9030.512492,74.020594,1608.800546
3740.945865,-10214.842000,444.123565,842.705048
3740.946195,-11103.089130,518.144159,306.438199
3740.946524,-11325.150913,666.185348,-689.485948
3740.946854,-9992.780217,444.123565,-612.876398
3740.947184,-8586.388927,74.020594,-995.924147
3740.947513,-9252.574275,370.102971,-766.095498
3740.947843,-9992.780217,1036.288319,-76.609550
3740.948173,-10732.986159,1110.308913,-229.828649
3740.948502,-9844.739029,962.267725,-1838.629195
3740.948832,-9992.780217,888.247130,-1838.629195
3740.949162,-10807.006753,814.226536,0.000000
3740.949491,-10807.006753,444.123565,919.314598
3740.949821,-10362.883188,-148.041188,1149.143247
3740.950151,-8956.491898,-370.102971,689.485948
3740.950480,-9918.759623,-296.082377,842.705048
3740.950810,-10066.800811,222.061783,1225.752797
3740.951140,-9992.780217,0.000000,1532.190996
3740.951470,-9474.636058,74.020594,1378.971896
3740.951800,-9474.636058,370.102971,459.657299
3740.952129,-10436.903782,0.000000,612.876398
3740.952459,-9992.780217,0.000000,383.047749
3740.952789,-10288.862594,0.000000,153.219100
3740.953119,-9844.739029,518.144159,-306.438199
3740.953448,-9326.594869,74.020594,-919.314598
3740.953778,-9178.553681,-222.061783,0.000000
3740.954108,-9400.615463,222.061783,612.876398
3740.954438,-10881.027347,0.000000,1149.143247
3740.954767,-10584.944971,-370.102971,919.314598
3740.955097,-9844.739029,-888.247130,1225.752797
3740.955427,-9548.656652,-444.123565,1072.533697
3740.955757,-9474.636058,-592.164754,766.095498
3740.956086,-9252.574275,-888.247130,383.047749
3740.956416,-8438.347739,-666.185348,153.219100
3740.956746,-9030.512492,-740.205942,306.438199
3740.957076,-9622.677246,-296.082377,689.485948
3740.957406,-9252.574275,-518.144159,919.314598
3740.957735,-9474.636058,-592.164754,-153.219100
3740.958065,-8956.491898,0.000000,-766.095498
3740.958395,-9474.636058,-296.082377,-689.485948
3740.958725,-9548.656652,296.082377,-76.609550
3740.959054,-9548.656652,74.020594,-306.438199
3740.959384,-10140.821405,296.082377,-1455.581446
3740.959714,-10140.821405,444.123565,-766.095498
3740.960044,-10732.986159,0.000000,229.828649
3740.960373,-9696.697840,0.000000,0.000000
3740.960703,-9770.718434,148.041188,-919.314598
3740.961033,-10214.842000,592.164754,-383.047749
3740.961363,-9844.739029,0.000000,-383.047749
3740.961693,-9548.656652,444.123565,0.000000
3740.962022,-10140.821405,0.000000,229.828649
3740.962352,-11695.253884,592.164754,229.828649
3740.962682,-10807.006753,0.000000,0.000000
3740.963012,-10066.800811,-296.082377,0.000000
3740.963341,-9400.615463,0.000000,612.876398
3740.963671,-9844.739029,0.000000,842.705048
3740.964001,-10436.903782,0.000000,919.314598
3740.964331,-9400.615463,0.000000,306.438199
3740.964660,-9770.718434,148.041188,612.876398
3740.964990,-10140.821405,0.000000,842.705048
3740.965320,-10807.006753,-518.144159,76.609550
3740.965650,-9622.677246,-296.082377,612.876398
3740.965979,-9474.636058,-148.041188,536.266849
3740.966309,-10140.821405,-814.226536,612.876398
3740.966639,-9992.780217,-296.082377,306.438199
3740.966969,-9400.615463,-296.082377,766.095498
3740.967299,-8882.471304,0.000000,919.314598
3740.967628,-9622.677246,-74.020594,536.266849
3740.967958,-9696.697840,-592.164754,1149.143247
3740.968288,-9252.574275,-370.102971,689.485948
3740.968618,-8734.430116,-370.102971,0.000000
3740.968947,-9178.553681,-296.082377,0.000000
3740.969277,-9696.697840,0.000000,153.219100
3740.969607,-9178.553681,74.020594,383.047749
3740.969937,-8660.409521,0.000000,-536.266849
3740.970266,-9400.615463,222.061783,0.000000
3740.970596,-10140.821405,444.123565,306.438199
3740.970926,-9918.759623,888.247130,459.657299
3740.971256,-9400.615463,740.205942,-306.438199
3740.971586,-9770.718434,592.164754,0.000000
3740.971915,-10436.903782,962.267725,459.657299
3740.972245,-10658.965565,1036.288319,-76.609550
3740.972575,-9844.739029,518.144159,-995.924147
3740.972905,-9030.512492,1036.288319,-1072.533697
3740.973234,-9992.780217,592.164754,-612.876398
3740.973564,-10881.027347,1184.329507,0.000000
3740.973894,-10807.006753,444.123565,842.705048
3740.974224,-10214.842000,370.102971,612.876398
3740.974553,-9770.718434,222.061783,995.924147
3740.974883,-9696.697840,0.000000,1072.533697
3740.975213,-9696.697840,518.144159,689.485948
3740.975543,-10510.924376,444.123565,383.047749
3740.975872,-10288.862594,814.226536,229.828649
3740.976202,-9326.594869,444.123565,459.657299
3740.976532,-11029.068536,444.123565,536.266849
3740.976862,-10881.027347,74.020594,766.095498
3740.977192,-9992.780217,-222.061783,306.438199
3740.977521,-8882.471304,74.020594,612.876398
3740.977851,-9104.533087,-444.123565,0.000000
3740.978181,-9992.780217,0.000000,-306.438199
3740.978511,-9622.677246,-518.144159,0.000000
3740.978840,-9918.759623,-962.267725,229.828649
3740.979170,-9030.512492,-1036.288319,1072.533697
3740.979500,-9252.574275,-1332.370696,995.924147
3740.979830,-8734.430116,-962.267725,1378.971896
3740.980159,-9252.574275,-888.247130,919.314598
3740.980489,-8882.471304,-444.123565,-459.657299
3740.980819,-8808.450710,-666.185348,-536.266849
3740.981149,-9844.739029,0.000000,-229.828649
3740.981478,-9770.718434,0.000000,0.000000
3740.981808,-9474.636058,0.000000,-383.047749
3740.982138,-8290.306550,-444.123565,-612.876398
3740.982468,-9326.594869,222.061783,-842.705048
3740.982798,-10584.944971,370.102971,-766.095498
3740.983127,-10510.924376,370.102971,-919.314598
3740.983457,-10140.821405,888.247130,-536.266849
3740.983787,-10140.821405,518.144159,76.609550
3740.984117,-11029.068536,296.082377,306.438199
3740.984446,-11473.192101,0.000000,306.438199
3740.984776,-9918.759623,-148.041188,0.000000
3740.985106,-8956.491898,-296.082377,-306.438199
3740.985436,-9030.512492,148.041188,689.485948
3740.985765,-10510.924376,1036.288319,1685.410096
3740.986095,-10066.800811,740.205942,2145.067394
3740.986425,-10288.862594,666.185348,536.266849
3740.986755,-10807.006753,518.144159,612.876398
3740.987085,-11547.212695,1036.288319,919.314598
3740.987414,-11029.068536,-148.041188,383.047749
3740.987744,-9474.636058,-222.061783,0.000000
3740.988074,-8808.450710,-74.020594,689.485948
3740.988404,-9326.594869,0.000000,1072.533697
3740.988733,-10140.821405,0.000000,612.876398
3740.989063,-9252.574275,-148.041188,919.314598
3740.989393,-9400.615463,518.144159,1532.190996
3740.989723,-10436.903782,74.020594,1455.581446
3740.990052,-10362.883188,-296.082377,766.095498
3740.990382,-9104.533087,-1184.329507,612.876398
3740.990712,-8956.491898,-740.205942,1149.143247
3740.991042,-8216.285956,-666.185348,1378.971896
3740.991371,-8512.368333,-814.226536,995.924147
3740.991701,-9030.512492,-74.020594,536.266849
3740.992031,-8956.491898,-370.102971,-153.219100
3740.992361,-9474.636058,0.000000,-766.095498
3740.992691,-9252.574275,-222.061783,-842.705048
3740.993020,-9622.677246,0.000000,-229.828649
3740.993350,-8438.347739,0.000000,-459.657299
3740.993680,-7624.121203,0.000000,-459.657299
3740.994010,-8882.471304,740.205942,76.609550
3740.994339,-10436.903782,1332.370696,-766.095498
3740.994669,-11325.150913,1406.391290,-1532.190996
3740.994999,-10955.047942,1406.391290,-995.924147
3740.995329,-10732.986159,1184.329507,0.000000
3740.995658,-10658.965565,962.267725,-153.219100
3740.995988,-9844.739029,740.205942,-229.828649
3740.996318,-9844.739029,370.102971,-306.438199
3740.996648,-9104.533087,740.205942,-842.705048
3740.996977,-9770.718434,1036.288319,-536.266849
3740.997307,-10881.027347,1480.411884,-459.657299
3740.997637,-11843.295072,1480.411884,689.485948
3740.997967,-11177.109724,888.247130,919.314598
3740.998297,-9770.718434,-74.020594,842.705048
3740.998626,-10140.821405,0.000000,1685.410096
3740.998956,-10510.924376,0.000000,2145.067394
3740.999286,-9992.780217,-370.102971,612.876398
3740.999616,-8882.471304,-222.061783,153.219100
3740.999945,-9400.615463,0.000000,1149.143247
3741.000275,-10362.883188,370.102971,2221.676944
3741.000605,-10510.924376,-296.082377,1149.143247
3741.000935,-9548.656652,-962.267725,919.314598
3741.001264,-8956.491898,-592.164754,459.657299
3741.001594,-9696.697840,-666.185348,-766.095498
3741.001924,-9326.594869,-592.164754,-1149.143247
3741.002254,-8586.388927,-888.247130,-842.705048
3741.002584,-8512.368333,-1258.350101,0.000000
3741.002913,-8586.388927,-888.247130,306.438199
3741.003243,-9622.677246,-740.205942,76.609550
3741.003573,-9326.594869,-740.205942,76.609550
3741.003903,-8734.430116,-962.267725,0.000000
3741.004232,-9326.594869,-1036.288319,153.219100
3741.004562,-9252.574275,-888.247130,842.705048
3741.004892,-9622.677246,-962.267725,536.266849
3741.005222,-9030.512492,-740.205942,-612.876398
3741.005551,-8438.347739,-814.226536,-1072.533697
3741.005881,-8808.450710,666.185348,-383.047749
3741.006211,-10436.903782,222.061783,-612.876398
3741.006541,-11251.130318,666.185348,-919.314598
3741.006870,-10881.027347,740.205942,-612.876398
3741.007200,-10214.842000,444.123565,-612.876398
3741.007530,-10436.903782,296.082377,-612.876398
3741.007860,-10658.965565,148.041188,842.705048
3741.008190,-9696.697840,666.185348,1072.533697
3741.008519,-9844.739029,518.144159,306.438199
3741.008849,-9918.759623,666.185348,0.000000
3741.009179,-11251.130318,814.226536,842.705048
3741.009509,-12065.356855,1332.370696,1532.190996
3741.009838,-10584.944971,666.185348,1685.410096
3741.010168,-9178.553681,148.041188,919.314598
3741.010498,-9178.553681,74.020594,1532.190996
3741.010828,-9474.636058,0.000000,1455.581446
3741.011157,-10288.862594,148.041188,1149.143247
3741.011487,-10140.821405,74.020594,1225.752797
3741.011817,-10140.821405,0.000000,1532.190996
3741.012147,-9918.759623,0.000000,1532.190996
3741.012477,-9474.636058,-444.123565,919.314598
3741.012806,-9030.512492,-148.041188,1225.752797
3741.013136,-8882.471304,-296.082377,536.266849
3741.013466,-9696.697840,-148.041188,-612.876398
3741.013796,-9474.636058,148.041188,-842.705048
3741.014125,-9474.636058,0.000000,229.828649
3741.014455,-8586.388927,-814.226536,383.047749
3741.014785,-8734.430116,-444.123565,-153.219100
3741.015115,-9696.697840,-222.061783,0.000000
3741.015444,-9400.615463,148.041188,536.266849
3741.015774,-9104.533087,-296.082377,76.609550
3741.016104,-9252.574275,74.020594,-459.657299
3741.016434,-10140.821405,148.041188,-536.266849
3741.016763,-10140.821405,296.082377,-383.047749
3741.017093,-9548.656652,296.082377,-689.485948
3741.017423,-9030.512492,296.082377,0.000000
3741.017753,-9104.533087,592.164754,0.000000
3741.018083,-9844.739029,592.164754,-153.219100
3741.018412,-9622.677246,1110.308913,-459.657299
3741.018742,-9696.697840,1554.432478,-459.657299
3741.019072,-10140.821405,1554.432478,-766.095498
3741.019402,-11029.068536,1036.288319,-842.705048
3741.019731,-11399.171507,740.205942,-306.438199
3741.020061,-10955.047942,1406.391290,536.266849
3741.020391,-10584.944971,518.144159,229.828649
3741.020721,-10214.842000,518.144159,-306.438199
3741.021050,-9548.656652,444.123565,-153.219100
3741.021380,-9548.656652,888.247130,229.828649
3741.021710,-9918.759623,1110.308913,766.095498
3741.022040,-10584.944971,666.185348,1608.800546
3741.022369,-10510.924376,296.082377,1915.238745
3741.022699,-11029.068536,0.000000,1685.410096
3741.023029,-10732.986159,-444.123565,153.219100
3741.023359,-10140.821405,-592.164754,306.438199
3741.023689,-9622.677246,-518.144159,153.219100
3741.024018,-8660.409521,-370.102971,-459.657299
3741.024348,-8068.244768,-962.267725,-306.438199
3741.024678,-8438.347739,-518.144159,1455.581446
3741.025008,-10214.842000,-888.247130,689.485948
3741.025337,-10214.842000,-962.267725,-229.828649
3741.025667,-8808.450710,-1850.514855,-1225.752797
3741.025997,-9030.512492,-1258.350101,-689.485948
3741.026327,-8216.285956,-1258.350101,612.876398
3741.026656,-8438.347739,-1480.411884,842.705048
3741.026986,-9474.636058,-518.144159,919.314598
3741.027316,-10214.842000,-148.041188,-153.219100
3741.027646,-9992.780217,-518.144159,-995.924147
3741.027976,-9622.677246,-370.102971,-689.485948
3741.028305,-10510.924376,-370.102971,0.000000
3741.028635,-9400.615463,-444.123565,459.657299
3741.028965,-8512.368333,-888.247130,-459.657299
3741.029295,-8734.430116,-74.020594,-306.438199
3741.029624,-9548.656652,148.041188,-766.095498
3741.029954,-11029.068536,814.226536,-995.924147
3741.030284,-11103.089130,740.205942,-383.047749
3741.030614,-11473.192101,814.226536,229.828649
3741.030943,-10732.986159,0.000000,76.609550
3741.031273,-10436.903782,74.020594,-383.047749
3741.031603,-9844.739029,370.102971,76.609550
3741.031933,-9992.780217,370.102971,689.485948
3741.032262,-10436.903782,444.123565,766.095498
3741.032592,-10362.883188,370.102971,919.314598
3741.032922,-10140.821405,518.144159,1378.971896
3741.033252,-10066.800811,-74.020594,1072.533697
3741.033582,-9622.677246,-592.164754,689.485948
3741.033911,-9474.636058,-370.102971,1608.800546
3741.034241,-9400.615463,74.020594,1838.629195
3741.034571,-9252.574275,0.000000,1302.362347
3741.034901,-9548.656652,592.164754,1225.752797
3741.035230,-10658.965565,740.205942,766.095498
3741.035560,-11473.192101,666.185348,612.876398
3741.035890,-10140.821405,-444.123565,-383.047749
3741.036220,-8660.409521,-1258.350101,0.000000
3741.036549,-7920.203579,-518.144159,995.924147
3741.036879,-8290.306550,-518.144159,1225.752797
3741.037209,-8216.285956,0.000000,383.047749
3741.037539,-8956.491898,-222.061783,76.609550
3741.037869,-9918.759623,222.061783,0.000000
3741.038198,-10732.986159,74.020594,76.609550
3741.038528,-10362.883188,0.000000,1149.143247
3741.038858,-9770.718434,0.000000,1149.143247
3741.039188,-8956.491898,0.000000,229.828649
3741.039517,-8438.347739,0.000000,-766.095498
3741.039847,-9252.574275,666.185348,-1149.143247
3741.040177,-10066.800811,1036.288319,-459.657299
3741.040507,-9548.656652,1184.329507,-919.314598
3741.040836,-9548.656652,1036.288319,-1302.362347
3741.041166,-9770.718434,1480.411884,-995.924147
3741.041496,-10288.862594,1110.308913,-689.485948
3741.041826,-10510.924376,888.247130,-995.924147
3741.042155,-9918.759623,592.164754,-1149.143247
3741.042485,-10066.800811,1184.329507,-536.266849
3741.042815,-9770.718434,666.185348,689.485948
3741.043145,-10066.800811,666.185348,842.705048
3741.043475,-10658.965565,1184.329507,766.095498
3741.043804,-9992.780217,962.267725,306.438199
3741.044134,-9844.739029,1036.288319,0.000000
3741.044464,-9918.759623,1110.308913,536.266849
3741.044794,-10881.027347,814.226536,1225.752797
3741.045123,-10066.800811,666.185348,536.266849
3741.045453,-9400.615463,666.185348,-919.314598
3741.045783,-9400.615463,666.185348,-689.485948
3741.046113,-10732.986159,666.185348,76.609550
3741.046442,-11029.068536,74.020594,76.609550
3741.046772,-9844.739029,74.020594,459.657299
3741.047102,-9474.636058,148.041188,1302.362347
3741.047432,-9918.759623,-370.102971,1532.190996
3741.047761,-10066.800811,-740.205942,1302.362347
3741.048091,-8734.430116,-962.267725,1455.581446
3741.048421,-8438.347739,-592.164754,1455.581446
3741.048751,-9696.697840,-666.185348,919.314598
3741.049081,-10214.842000,-518.144159,766.095498
3741.049410,-9844.739029,-814.226536,383.047749
3741.049740,-8956.491898,-1184.329507,-612.876398
3741.050070,-8882.471304,-1406.391290,-689.485948
3741.050400,-9252.574275,-1406.391290,0.000000
3741.050729,-9030.512492,-962.267725,612.876398
3741.051059,-8882.471304,-1332.370696,0.000000
3741.051389,-8364.327145,-592.164754,76.609550
3741.051719,-9326.594869,-740.205942,-383.047749
3741.052048,-10140.821405,-370.102971,76.609550
3741.052378,-9696.697840,-370.102971,-536.266849
3741.052708,-9992.780217,-148.041188,153.219100
3741.053038,-9696.697840,0.000000,536.266849
3741.053368,-10658.965565,0.000000,0.000000
3741.053698,-11103.089130,0.000000,-612.876398
3741.054027,-10436.903782,-444.123565,-76.609550
3741.054357,-10362.883188,-222.061783,153.219100
3741.054687,-9844.739029,0.000000,-766.095498
3741.055017,-9918.759623,-296.082377,-306.438199
3741.055347,-9844.739029,296.082377,306.438199
3741.055676,-9548.656652,444.123565,229.828649
3741.056006,-9992.780217,296.082377,-383.047749
3741.056336,-10510.924376,666.185348,459.657299
3741.056666,-11251.130318,518.144159,1378.971896
3741.056996,-10362.883188,592.164754,1762.019645
3741.057326,-9992.780217,74.020594,1378.971896
3741.057655,-10362.883188,296.082377,1762.019645
3741.057985,-11325.150913,0.000000,1455.581446
3741.058315,-10732.986159,74.020594,383.047749
3741.058645,-9326.594869,0.000000,459.657299
3741.058975,-9474.636058,74.020594,689.485948
3741.059304,-9104.533087,296.082377,459.657299
3741.059634,-8808.450710,-148.041188,306.438199
3741.059964,-8734.430116,222.061783,1072.533697
3741.060294,-9474.636058,0.000000,919.314598
3741.060624,-10362.883188,-444.123565,459.657299
3741.060953,-9696.697840,-888.247130,689.485948
3741.061283,-9474.636058,-444.123565,1455.581446
3741.061613,-9030.512492,-814.226536,766.095498
3741.061943,-8364.327145,-1110.308913,-76.609550
3741.062273,-8586.388927,-370.102971,0.000000
3741.062603,-8734.430116,148.041188,229.828649
3741.062932,-9178.553681,74.020594,-383.047749
3741.063262,-9326.594869,148.041188,-306.438199
3741.063592,-9622.677246,592.164754,-536.266849
3741.063922,-8808.450710,518.144159,-1532.190996
3741.064252,-9474.636058,814.226536,-2298.286494
3741.064581,-9918.759623,888.247130,-1378.971896
3741.064911,-10510.924376,888.247130,-1072.533697
3741.065241,-10066.800811,814.226536,-919.314598
3741.065571,-10584.944971,1554.432478,0.000000
3741.065901,-11695.253884,1332.370696,383.047749
3741.066231,-10584.944971,1184.329507,0.000000
3741.066560,-9622.677246,962.267725,-1225.752797
3741.066890,-9104.533087,1036.288319,0.000000
3741.067220,-9992.780217,1554.432478,689.485948
3741.067550,-9918.759623,814.226536,459.657299
3741.067880,-9400.615463,1258.350101,0.000000
3741.068209,-9474.636058,1406.391290,229.828649
3741.068539,-10732.986159,1110.308913,612.876398
3741.068869,-11399.171507,1036.288319,536.266849
3741.069199,-11325.150913,666.185348,1302.362347
3741.069529,-9252.574275,1110.308913,1838.629195
3741.069859,-9474.636058,814.226536,1838.629195
3741.070188,-10362.883188,1036.288319,766.095498
3741.070518,-9992.780217,592.164754,1302.362347
3741.070848,-9548.656652,518.144159,459.657299
3741.071178,-9030.512492,444.123565,76.609550
3741.071508,-9696.697840,222.061783,0.000000
3741.071837,-9474.636058,518.144159,1302.362347
3741.072167,-9400.615463,74.020594,1149.143247
3741.072497,-10214.842000,222.061783,459.657299
3741.072827,-11325.150913,-296.082377,612.876398
3741.073157,-11177.109724,-518.144159,536.266849
3741.073487,-9474.636058,-1184.329507,689.485948
3741.073816,-8586.388927,-1480.411884,1225.752797
3741.074146,-9548.656652,-1036.288319,1915.238745
3741.074476,-9400.615463,-1110.308913,766.095498
3741.074806,-8808.450710,-1406.391290,-1072.533697
3741.075136,-8216.285956,-1110.308913,-919.314598
3741.075465,-9400.615463,-1258.350101,383.047749
3741.075795,-9696.697840,-1184.329507,459.657299
3741.076125,-8660.409521,-1628.453072,383.047749
3741.076455,-8734.430116,-1406.391290,383.047749
3741.076785,-9474.636058,-962.267725,0.000000
3741.077115,-9400.615463,-1258.350101,-1608.800546
3741.077444,-9622.677246,-518.144159,-1149.143247
3741.077774,-10510.924376,-148.041188,153.219100
3741.078104,-10362.883188,-370.102971,459.657299
3741.078434,-10140.821405,-814.226536,-383.047749
3741.078764,-10510.924376,-74.020594,-995.924147
3741.079093,-10436.903782,148.041188,-766.095498
3741.079423,-10881.027347,222.061783,-1455.581446
3741.079753,-9622.677246,148.041188,-1455.581446
3741.080083,-10288.862594,0.000000,153.219100
3741.080413,-10807.006753,0.000000,1225.752797
3741.080742,-11251.130318,-444.123565,689.485948
3741.081072,-11177.109724,-592.164754,536.266849
3741.081402,-10584.944971,-592.164754,0.000000
3741.081732,-10288.862594,-814.226536,-153.219100
3741.082062,-9696.697840,-1184.329507,766.095498
3741.082392,-9252.574275,-888.247130,1762.019645
3741.082721,-9548.656652,-370.102971,1915.238745
3741.083051,-9548.656652,-444.123565,612.876398
3741.083381,-9918.759623,0.000000,306.438199
3741.083711,-10436.903782,296.082377,0.000000
3741.084041,-10510.924376,-740.205942,0.000000
3741.084370,-9992.780217,-592.164754,459.657299
3741.084700,-9178.553681,-444.123565,1072.533697
3741.085030,-9104.533087,-592.164754,536.266849
3741.085360,-8586.388927,-296.082377,-536.266849
3741.085690,-8734.430116,-1184.329507,-995.924147
3741.086020,-9474.636058,-148.041188,76.609550
3741.086349,-9548.656652,-444.123565,766.095498
3741.086679,-7476.080014,222.061783,1225.752797
3741.087009,-7254.018232,74.020594,1302.362347
3741.087339,-9400.615463,1110.308913,1225.752797
3741.087669,-10510.924376,888.247130,153.219100
3741.087998,-10584.944971,148.041188,-1455.581446
3741.088328,-10214.842000,592.164754,-536.266849
3741.088658,-9474.636058,444.123565,383.047749
3741.088988,-9252.574275,1184.329507,153.219100
3741.089318,-8364.327145,1110.308913,-306.438199
3741.089648,-9104.533087,2146.597232,-689.485948
3741.089977,-10066.800811,2368.659014,-383.047749
3741.090307,-11399.171507,2072.576638,-689.485948
3741.090637,-12213.398043,2368.659014,536.266849
3741.090967,-12213.398043,2294.638420,1225.752797
3741.091297,-10140.821405,1184.329507,1072.533697
3741.091626,-9104.533087,888.247130,459.657299
3741.091956,-9622.677246,1110.308913,612.876398
3741.092286,-9548.656652,1258.350101,1378.971896
3741.092616,-10140.821405,1702.473667,1302.362347
3741.092946,-10955.047942,2294.638420,1915.238745
3741.093276,-11769.274478,2072.576638,1762.019645
3741.093605,-11399.171507,1776.494261,383.047749
3741.093935,-10510.924376,888.247130,0.000000
3741.094265,-9400.615463,518.144159,0.000000
3741.094595,-8734.430116,74.020594,0.000000
3741.094925,-9030.512492,518.144159,0.000000
3741.095254,-9548.656652,814.226536,1072.533697
3741.095584,-9696.697840,888.247130,919.314598
3741.095914,-10288.862594,666.185348,0.000000
3741.096244,-10214.842000,444.123565,-76.609550
3741.096574,-10362.883188,-222.061783,1378.971896
3741.096904,-10807.006753,-962.267725,1225.752797
3741.097233,-8956.491898,-1702.473667,383.047749
3741.097563,-7402.059420,-1406.391290,383.047749
3741.097893,-7846.182985,-370.102971,689.485948
3741.098223,-9918.759623,-666.185348,-153.219100
3741.098553,-9992.780217,-370.102971,-689.485948
3741.098882,-8882.471304,-1036.288319,-536.266849
3741.099212,-9326.594869,-814.226536,306.438199
3741.099542,-10140.821405,-1258.350101,229.828649
3741.099872,-9400.615463,-1628.453072,153.219100
3741.100202,-8290.306550,-1850.514855,-383.047749
3741.100531,-8734.430116,-1406.391290,-1455.581446
3741.100861,-9104.533087,-740.205942,-689.485948
3741.101191,-9844.739029,-962.267725,-76.609550
3741.101521,-9474.636058,-592.164754,0.000000
3741.101851,-9030.512492,-1110.308913,153.219100
3741.102181,-10362.883188,-666.185348,383.047749
3741.102510,-10584.944971,-222.061783,536.266849
3741.102840,-11029.068536,-296.082377,0.000000
3741.103170,-10288.862594,-444.123565,-766.095498
3741.103500,-10288.862594,-592.164754,153.219100
3741.103830,-10732.986159,-222.061783,1762.019645
3741.104159,-11251.130318,0.000000,919.314598
3741.104489,-10955.047942,-296.082377,-1608.800546
3741.104819,-9474.636058,1184.329507,-766.095498
3741.105149,-11251.130318,-148.041188,-1072.533697
3741.105479,-10584.944971,0.000000,-919.314598
3741.105809,-9178.553681,-74.020594,842.705048
3741.106138,-9474.636058,370.102971,1302.362347
3741.106468,-10140.821405,-444.123565,0.000000
3741.106798,-10584.944971,-888.247130,-689.485948
3741.107128,-11251.130318,-1184.329507,842.705048
3741.107458,-10436.903782,-888.247130,995.924147
3741.107787,-9326.594869,-1406.391290,383.047749
3741.108117,-8216.285956,-1110.308913,0.000000
3741.108447,-9474.636058,-962.267725,536.266849
3741.108777,-9030.512492,-666.185348,766.095498
3741.109107,-7476.080014,-1332.370696,0.000000
3741.109437,-7920.203579,-222.061783,153.219100
3741.109766,-9696.697840,592.164754,536.266849
3741.110096,-10066.800811,-222.061783,-153.219100
3741.110426,-8068.244768,-814.226536,-1072.533697
3741.110756,-7698.141797,-518.144159,0.000000
3741.111086,-9548.656652,0.000000,689.485948
3741.111415,-10214.842000,148.041188,689.485948
3741.111745,-9252.574275,296.082377,766.095498
3741.112075,-8734.430116,1110.308913,76.609550
3741.112405,-9326.594869,1110.308913,-919.314598
3741.112735,-10436.903782,1480.411884,-612.876398
3741.113065,-10510.924376,1554.432478,0.000000
3741.113394,-9252.574275,2072.576638,612.876398
3741.113724,-9252.574275,1480.411884,229.828649
