#time,accel_x,accel_y,accel_z
3865.040428,-9918.759623,0.000000,76.609550
3865.040758,-9696.697840,0.000000,153.219100
3865.041087,-9548.656652,148.041188,229.828649
3865.041417,-9918.759623,370.102971,459.657299
3865.041747,-9548.656652,0.000000,153.219100
3865.042077,-9844.739029,0.000000,-153.219100
3865.042406,-9844.739029,222.061783,-153.219100
3865.042736,-9474.636058,296.082377,229.828649
3865.043066,-9696.697840,0.000000,612.876398
3865.043396,-9696.697840,0.000000,1072.533697
3865.043725,-10288.862594,370.102971,1072.533697
3865.044055,-10288.862594,0.000000,383.047749
3865.044385,-9918.759623,-296.082377,-536.266849
3865.044715,-9622.677246,0.000000,-536.266849
3865.045044,-9844.739029,148.041188,-383.047749
3865.045374,-9918.759623,-296.082377,0.000000
3865.045704,-10140.821405,148.041188,229.828649
3865.046033,-9770.718434,-666.185348,0.000000
3865.046363,-9844.739029,-592.164754,-459.657299
3865.046693,-9696.697840,-444.123565,-459.657299
3865.047023,-10066.800811,-148.041188,-842.705048
3865.047352,-9622.677246,-296.082377,-459.657299
3865.047682,-9622.677246,-370.102971,-612.876398
3865.048012,-9696.697840,-592.164754,-76.609550
3865.048342,-9844.739029,-370.102971,0.000000
3865.048671,-10362.883188,-370.102971,-229.828649
3865.049001,-10140.821405,-444.123565,-842.705048
3865.049331,-9992.780217,-592.164754,-689.485948
3865.049661,-9622.677246,-814.226536,-1685.410096
3865.049990,-9548.656652,-888.247130,-1762.019645
3865.050320,-9474.636058,-1110.308913,-1455.581446
3865.050650,-9104.533087,-1184.329507,-1072.533697
3865.050980,-9178.553681,-1184.329507,0.000000
3865.051309,-9548.656652,-1110.308913,0.000000
3865.051639,-9992.780217,-962.267725,-536.266849
3865.051969,-9844.739029,-962.267725,-995.924147
3865.052299,-10214.842000,-666.185348,-1149.143247
3865.052628,-10436.903782,-444.123565,-1455.581446
3865.052958,-10436.903782,-888.247130,-1455.581446
3865.053288,-10288.862594,-962.267725,-1455.581446
3865.053617,-9992.780217,-1110.308913,-1991.848295
3865.053947,-9918.759623,-1554.432478,-2451.505594
3865.054277,-10066.800811,-1702.473667,-2604.724693
3865.054607,-9622.677246,-2072.576638,-2298.286494
3865.054936,-9030.512492,-2146.597232,-2221.676944
3865.055266,-8216.285956,-2368.659014,-1455.581446
3865.055596,-8586.388927,-2072.576638,-1072.533697
3865.055926,-9252.574275,-1850.514855,-306.438199
3865.056255,-10288.862594,-1258.350101,0.000000
3865.056585,-10807.006753,-962.267725,0.000000
3865.056915,-11621.233289,-1554.432478,-459.657299
3865.057245,-11991.336260,-1554.432478,-1532.190996
3865.057574,-11695.253884,-2368.659014,-2834.553343
3865.057904,-10436.903782,-2812.782580,-4366.744339
3865.058234,-8734.430116,-3775.050304,-5056.230287
3865.058564,-7105.977043,-3701.029710,-3830.477490
3865.058893,-7550.100608,-2886.803174,-1762.019645
3865.059223,-8734.430116,-1702.473667,-842.705048
3865.059553,-9622.677246,-1406.391290,-1838.629195
3865.059883,-10584.944971,-1258.350101,-3753.867940
3865.060212,-11473.192101,-1998.556043,-4749.792088
3865.060542,-11843.295072,-3552.988522,-4366.744339
3865.060872,-11251.130318,-4589.276840,-2987.772442
3865.061201,-8956.491898,-5033.400406,-2221.676944
3865.061531,-7550.100608,-5403.503377,-1991.848295
3865.061861,-7402.059420,-4589.276840,-2451.505594
3865.062191,-8216.285956,-3701.029710,-2757.943793
3865.062520,-9104.533087,-2368.659014,-2221.676944
3865.062850,-10658.965565,-1480.411884,-1532.190996
3865.063180,-11547.212695,-1406.391290,-1685.410096
3865.063510,-11251.130318,-2072.576638,-2681.334243
3865.063839,-10955.047942,-3775.050304,-4060.306139
3865.064169,-9770.718434,-4589.276840,-4903.011187
3865.064499,-9326.594869,-5329.482782,-3677.258390
3865.064829,-8808.450710,-5033.400406,-2451.505594
3865.065158,-8068.244768,-4811.338623,-383.047749
3865.065488,-7920.203579,-3775.050304,1225.752797
3865.065818,-9178.553681,-2516.700203,1455.581446
3865.066148,-11695.253884,-1554.432478,0.000000
3865.066477,-12657.521608,-1184.329507,-1915.238745
3865.066807,-11621.233289,-1998.556043,-3370.820191
3865.067137,-9844.739029,-3330.926739,-3370.820191
3865.067467,-9326.594869,-3849.070898,-2911.162892
3865.067796,-9400.615463,-4589.276840,-2604.724693
3865.068126,-8142.265362,-4219.173869,-1991.848295
3865.068456,-8216.285956,-4071.132681,-229.828649
3865.068785,-10881.027347,-1998.556043,-459.657299
3865.069115,-10288.862594,-1406.391290,-842.705048
3865.069445,-10288.862594,-1406.391290,612.876398
3865.069775,-11177.109724,-1406.391290,459.657299
3865.070104,-11917.315666,-1554.432478,-612.876398
3865.070434,-10288.862594,-2516.700203,-1225.752797
3865.070764,-9622.677246,-2368.659014,-766.095498
3865.071094,-9770.718434,-1998.556043,-2451.505594
3865.071423,-10140.821405,-2220.617826,-2987.772442
3865.071753,-9326.594869,-1924.535449,-3524.039291
3865.072083,-9474.636058,-1924.535449,-2681.334243
3865.072413,-9252.574275,-1184.329507,-153.219100
3865.072742,-10066.800811,-1110.308913,1378.971896
3865.073072,-9844.739029,-888.247130,-919.314598
3865.073402,-8660.409521,-1258.350101,-3370.820191
3865.073732,-9030.512492,-1628.453072,-3600.648841
3865.074061,-10066.800811,-1110.308913,-1838.629195
3865.074391,-9918.759623,-888.247130,76.609550
3865.074721,-10214.842000,-444.123565,459.657299
3865.075051,-10214.842000,-444.123565,-2068.457845
3865.075380,-10955.047942,-222.061783,-4749.792088
3865.075710,-11103.089130,-1332.370696,-4826.401637
3865.076040,-9992.780217,-1258.350101,-3524.039291
3865.076369,-9548.656652,-962.267725,-2145.067394
3865.076699,-9104.533087,-1184.329507,-1455.581446
3865.077029,-7550.100608,-1406.391290,-2604.724693
3865.077359,-7179.997637,-1702.473667,-4290.134789
3865.077688,-7698.141797,-962.267725,-3830.477490
3865.078018,-10288.862594,-814.226536,-1455.581446
3865.078348,-11843.295072,-370.102971,0.000000
3865.078678,-10584.944971,-592.164754,-536.266849
3865.079007,-10214.842000,-1110.308913,-1762.019645
3865.079337,-10362.883188,-1406.391290,-2374.896044
3865.079667,-11251.130318,-1702.473667,-3140.991542
3865.079997,-11251.130318,-1998.556043,-3447.429741
3865.080326,-9030.512492,-1554.432478,-3140.991542
3865.080656,-7254.018232,-1998.556043,-1838.629195
3865.080986,-7624.121203,-1480.411884,-766.095498
3865.081316,-9622.677246,-1332.370696,-1838.629195
3865.081645,-10658.965565,-740.205942,-2298.286494
3865.081975,-9696.697840,-1036.288319,-2221.676944
3865.082305,-8586.388927,-1628.453072,-153.219100
3865.082634,-10214.842000,-2146.597232,1072.533697
3865.082964,-12065.356855,-1998.556043,1608.800546
3865.083294,-12583.501014,-2590.720797,0.000000
3865.083624,-9918.759623,-3849.070898,-1608.800546
3865.083953,-9326.594869,-2886.803174,-1302.362347
3865.084283,-9474.636058,-2812.782580,-919.314598
3865.084613,-9622.677246,-1998.556043,0.000000
3865.084943,-9178.553681,-1850.514855,-612.876398
3865.085272,-8438.347739,-1776.494261,-3140.991542
3865.085602,-9548.656652,-1776.494261,-4826.401637
3865.085932,-11251.130318,-2368.659014,-4060.306139
3865.086262,-9844.739029,-2664.741391,-2374.896044
3865.086591,-9030.512492,-2738.761985,-1302.362347
3865.086921,-9400.615463,-3478.967927,-1302.362347
3865.087251,-10436.903782,-3923.091493,-1915.238745
3865.087581,-10214.842000,-3701.029710,-1762.019645
3865.087910,-9844.739029,-3552.988522,-2068.457845
3865.088240,-10214.842000,-3330.926739,-2221.676944
3865.088570,-10584.944971,-3404.947333,-1838.629195
3865.088900,-9474.636058,-3552.988522,-1991.848295
3865.089229,-9400.615463,-3108.864956,-2757.943793
3865.089559,-8512.368333,-2960.823768,-4290.134789
3865.089889,-8586.388927,-3404.947333,-4596.572988
3865.090218,-9400.615463,-2738.761985,-3600.648841
3865.090548,-10066.800811,-3108.864956,-2451.505594
3865.090878,-10510.924376,-2960.823768,-1378.971896
3865.091208,-9178.553681,-3404.947333,-2374.896044
3865.091537,-9548.656652,-3775.050304,-2911.162892
3865.091867,-10584.944971,-2960.823768,-2068.457845
3865.092197,-11103.089130,-2960.823768,-1149.143247
3865.092527,-10140.821405,-2886.803174,-1991.848295
3865.092856,-8216.285956,-2960.823768,-3064.381992
3865.093186,-8808.450710,-1924.535449,-2221.676944
3865.093516,-10807.006753,-2442.679609,-1991.848295
3865.093846,-10732.986159,-2220.617826,-2221.676944
3865.094175,-9474.636058,-2368.659014,-2145.067394
3865.094505,-9548.656652,-2442.679609,-2374.896044
3865.094835,-9696.697840,-2738.761985,-1838.629195
3865.095165,-10288.862594,-2960.823768,689.485948
3865.095495,-9770.718434,-2220.617826,536.266849
3865.095825,-9918.759623,-1924.535449,-306.438199
3865.096154,-9474.636058,-1924.535449,-1915.238745
3865.096484,-9400.615463,-2146.597232,-1991.848295
3865.096814,-9992.780217,-1776.494261,-689.485948
3865.097144,-10436.903782,-518.144159,-383.047749
3865.097474,-10955.047942,-962.267725,-1302.362347
3865.097804,-9844.739029,-1554.432478,-2298.286494
3865.098134,-9104.533087,-1776.494261,-2604.724693
3865.098464,-10658.965565,-1702.473667,-2145.067394
3865.098793,-10436.903782,-1480.411884,-1378.971896
3865.099123,-9696.697840,-592.164754,-1685.410096
3865.099453,-8660.409521,-1776.494261,-1991.848295
3865.099783,-9696.697840,-1776.494261,-1532.190996
3865.100113,-10658.965565,-1406.391290,-1149.143247
3865.100443,-10066.800811,-1702.473667,-2451.505594
3865.100773,-8438.347739,-2220.617826,-1991.848295
3865.101102,-7698.141797,-2368.659014,-1149.143247
3865.101432,-8290.306550,-1554.432478,383.047749
3865.101762,-9622.677246,-1406.391290,459.657299
3865.102092,-10732.986159,-740.205942,-1149.143247
3865.102422,-10584.944971,-888.247130,-2528.115143
3865.102752,-11103.089130,0.000000,-3217.601092
3865.103082,-10584.944971,-222.061783,-3677.258390
3865.103412,-10214.842000,-296.082377,-3524.039291
3865.103741,-9992.780217,-1036.288319,-2068.457845
3865.104071,-9474.636058,-888.247130,-2604.724693
3865.104401,-8660.409521,-666.185348,-2987.772442
3865.104731,-9696.697840,-518.144159,-3217.601092
3865.105061,-10288.862594,0.000000,-2451.505594
3865.105391,-10436.903782,-1036.288319,-2374.896044
3865.105721,-9252.574275,148.041188,-1532.190996
3865.106050,-9918.759623,-1406.391290,-1072.533697
3865.106380,-12213.398043,-1628.453072,-1378.971896
3865.106710,-11547.212695,-1258.350101,-1378.971896
3865.107040,-10362.883188,-2368.659014,-2451.505594
3865.107370,-9178.553681,-2146.597232,-2221.676944
3865.107700,-8734.430116,-1628.453072,-919.314598
3865.108030,-9548.656652,-2220.617826,0.000000
3865.108360,-9030.512492,-1628.453072,-459.657299
3865.108689,-9326.594869,-2368.659014,-1608.800546
3865.109019,-10288.862594,-1776.494261,-2145.067394
3865.109349,-11029.068536,-1924.535449,-2145.067394
3865.109679,-9770.718434,-2368.659014,-1838.629195
3865.110009,-7550.100608,-2590.720797,-1685.410096
3865.110339,-8290.306550,-2368.659014,-766.095498
3865.110669,-9622.677246,-2886.803174,0.000000
3865.110998,-9252.574275,-2294.638420,-1685.410096
3865.111328,-9326.594869,-2738.761985,-3064.381992
3865.111658,-8956.491898,-2960.823768,-1762.019645
3865.111988,-9548.656652,-1998.556043,459.657299
3865.112318,-9918.759623,-1702.473667,459.657299
3865.112648,-9252.574275,-2146.597232,-995.924147
3865.112978,-8808.450710,-2220.617826,-2451.505594
3865.113308,-9474.636058,-2146.597232,-2374.896044
3865.113637,-9918.759623,-2368.659014,-612.876398
3865.113967,-9770.718434,-1554.432478,-459.657299
3865.114297,-9918.759623,-1850.514855,-842.705048
3865.114627,-9548.656652,-1776.494261,-1532.190996
3865.114957,-11029.068536,-2294.638420,-2221.676944
3865.115287,-10584.944971,-1332.370696,-1915.238745
3865.115617,-10436.903782,-1702.473667,-1378.971896
3865.115946,-10436.903782,-1036.288319,-76.609550
3865.116276,-10214.842000,-1110.308913,383.047749
3865.116606,-11621.233289,-962.267725,-459.657299
3865.116936,-9770.718434,-1258.350101,-689.485948
3865.117266,-9696.697840,-1702.473667,-842.705048
3865.117596,-8956.491898,-1258.350101,-536.266849
3865.117926,-8956.491898,-1850.514855,919.314598
3865.118256,-9400.615463,-1332.370696,2451.505594
3865.118585,-9918.759623,-814.226536,2987.772442
3865.118915,-11177.109724,-444.123565,1225.752797
3865.119245,-10436.903782,-1480.411884,153.219100
3865.119575,-10510.924376,-370.102971,-1149.143247
3865.119905,-9992.780217,222.061783,229.828649
3865.120235,-8808.450710,-666.185348,612.876398
3865.120565,-8808.450710,666.185348,459.657299
3865.120894,-9696.697840,-370.102971,-459.657299
3865.121224,-11473.192101,296.082377,-1838.629195
3865.121554,-10288.862594,-444.123565,-2451.505594
3865.121884,-9030.512492,-962.267725,-1838.629195
3865.122214,-8956.491898,-1184.329507,0.000000
3865.122544,-8956.491898,-888.247130,1378.971896
3865.122874,-9030.512492,-1184.329507,1072.533697
3865.123204,-8068.244768,-666.185348,919.314598
3865.123533,-7772.162391,0.000000,842.705048
3865.123863,-9474.636058,296.082377,995.924147
3865.124193,-12361.439231,592.164754,1455.581446
3865.124523,-11325.150913,74.020594,1225.752797
3865.124853,-9326.594869,74.020594,1302.362347
3865.125183,-8660.409521,-592.164754,-229.828649
3865.125513,-9252.574275,0.000000,-306.438199
3865.125842,-9548.656652,296.082377,536.266849
3865.126172,-8808.450710,1036.288319,76.609550
3865.126502,-7994.224174,814.226536,995.924147
3865.126832,-10510.924376,1850.514855,536.266849
3865.127162,-10881.027347,1776.494261,306.438199
3865.127492,-10658.965565,2590.720797,842.705048
3865.127822,-11325.150913,3256.906145,1608.800546
3865.128152,-13175.665768,3108.864956,1149.143247
3865.128481,-11991.336260,2442.679609,-306.438199
3865.128811,-11177.109724,1702.473667,-1608.800546
3865.129141,-9770.718434,1776.494261,-2145.067394
3865.129471,-9622.677246,740.205942,-1225.752797
3865.129801,-8660.409521,148.041188,-612.876398
3865.130131,-7698.141797,0.000000,689.485948
3865.130461,-8142.265362,1036.288319,1838.629195
3865.130790,-9770.718434,518.144159,1762.019645
3865.131120,-10436.903782,518.144159,1455.581446
3865.131450,-8882.471304,-148.041188,1225.752797
3865.131780,-8290.306550,444.123565,2145.067394
3865.132110,-9474.636058,740.205942,2374.896044
3865.132440,-10955.047942,740.205942,1072.533697
3865.132770,-10807.006753,814.226536,0.000000
3865.133100,-11251.130318,444.123565,-383.047749
3865.133429,-9696.697840,296.082377,0.000000
3865.133759,-8808.450710,518.144159,383.047749
3865.134089,-7920.203579,1776.494261,-1072.533697
3865.134419,-8660.409521,1184.329507,-1072.533697
3865.134749,-9918.759623,2072.576638,-842.705048
3865.135079,-10436.903782,1184.329507,-1838.629195
3865.135409,-11103.089130,1628.453072,-1532.190996
3865.135738,-11325.150913,296.082377,-919.314598
3865.136068,-11177.109724,0.000000,-306.438199
3865.136398,-10066.800811,-666.185348,0.000000
3865.136728,-8882.471304,-1184.329507,-536.266849
3865.137058,-9474.636058,-962.267725,0.000000
3865.137388,-10140.821405,-888.247130,1302.362347
3865.137718,-9992.780217,-370.102971,2451.505594
3865.138048,-9622.677246,0.000000,1915.238745
3865.138377,-9622.677246,148.041188,459.657299
3865.138707,-10140.821405,-814.226536,-919.314598
3865.139037,-8808.450710,-1110.308913,-1608.800546
3865.139367,-8142.265362,-1554.432478,-842.705048
3865.139697,-9918.759623,-666.185348,1378.971896
3865.140027,-9622.677246,-814.226536,2834.553343
3865.140357,-9326.594869,-592.164754,1991.848295
3865.140686,-9474.636058,-1258.350101,153.219100
3865.141016,-9992.780217,-370.102971,-842.705048
3865.141346,-11029.068536,0.000000,919.314598
3865.141676,-10584.944971,0.000000,1838.629195
3865.142006,-9474.636058,-296.082377,1072.533697
3865.142336,-9474.636058,74.020594,306.438199
3865.142666,-9548.656652,0.000000,-1608.800546
3865.142996,-10066.800811,-148.041188,-2451.505594
3865.143325,-8512.368333,-962.267725,-2068.457845
3865.143655,-8808.450710,-814.226536,0.000000
3865.143985,-9622.677246,-444.123565,2145.067394
3865.144315,-10436.903782,-1110.308913,2604.724693
3865.144645,-10140.821405,-1258.350101,1149.143247
3865.144975,-9992.780217,-2072.576638,-306.438199
3865.145305,-9548.656652,-1406.391290,153.219100
3865.145634,-9992.780217,-740.205942,842.705048
3865.145964,-9474.636058,-962.267725,1838.629195
3865.146294,-8808.450710,-1332.370696,2911.162892
3865.146624,-8586.388927,-444.123565,2374.896044
3865.146954,-10288.862594,-444.123565,1225.752797
3865.147284,-9992.780217,0.000000,0.000000
3865.147614,-9844.739029,74.020594,459.657299
3865.147944,-10140.821405,592.164754,842.705048
3865.148273,-10732.986159,74.020594,1302.362347
3865.148603,-11177.109724,962.267725,766.095498
3865.148933,-10510.924376,296.082377,-306.438199
3865.149263,-10807.006753,666.185348,-1378.971896
3865.149593,-9548.656652,444.123565,-1072.533697
3865.149923,-9918.759623,0.000000,-995.924147
3865.150253,-9770.718434,740.205942,76.609550
3865.150582,-9178.553681,666.185348,306.438199
3865.150912,-9474.636058,1036.288319,-459.657299
3865.151242,-9622.677246,518.144159,-1225.752797
3865.151572,-9918.759623,518.144159,-1685.410096
3865.151902,-9474.636058,148.041188,-1072.533697
3865.152232,-9992.780217,592.164754,0.000000
3865.152562,-9770.718434,592.164754,0.000000
3865.152892,-9030.512492,148.041188,-766.095498
3865.153221,-9030.512492,518.144159,0.000000
3865.153551,-9696.697840,296.082377,766.095498
3865.153881,-10362.883188,222.061783,229.828649
3865.154211,-9030.512492,296.082377,-536.266849
3865.154541,-8586.388927,-518.144159,-1072.533697
3865.154871,-8142.265362,962.267725,-229.828649
3865.155201,-9030.512492,222.061783,1225.752797
3865.155530,-10362.883188,1480.411884,1455.581446
3865.155860,-9992.780217,814.226536,766.095498
3865.156190,-10066.800811,1258.350101,612.876398
3865.156520,-9992.780217,740.205942,1149.143247
3865.156850,-10214.842000,1110.308913,1225.752797
3865.157180,-11473.192101,1110.308913,766.095498
3865.157510,-10732.986159,1184.329507,-919.314598
3865.157840,-9770.718434,1036.288319,-1608.800546
3865.158169,-9104.533087,296.082377,-1608.800546
3865.158499,-9252.574275,592.164754,383.047749
3865.158829,-9474.636058,1110.308913,1685.410096
3865.159159,-9844.739029,592.164754,1072.533697
3865.159489,-9178.553681,444.123565,153.219100
3865.159819,-9548.656652,0.000000,-76.609550
3865.160149,-9844.739029,-222.061783,536.266849
3865.160478,-9622.677246,-148.041188,1225.752797
3865.160808,-10214.842000,0.000000,2911.162892
3865.161138,-9696.697840,-222.061783,3217.601092
3865.161468,-11029.068536,-518.144159,1838.629195
3865.161798,-9770.718434,74.020594,0.000000
3865.162128,-9030.512492,-148.041188,-536.266849
3865.162458,-8882.471304,222.061783,-383.047749
3865.162788,-9844.739029,0.000000,1532.190996
3865.163117,-10807.006753,740.205942,766.095498
3865.163447,-9844.739029,148.041188,-919.314598
3865.163777,-9178.553681,370.102971,-1685.410096
3865.164107,-10066.800811,-666.185348,-1685.410096
3865.164437,-11399.171507,0.000000,0.000000
3865.164767,-10955.047942,-814.226536,1072.533697
3865.165097,-10288.862594,-592.164754,1532.190996
3865.165426,-9178.553681,-814.226536,229.828649
3865.165756,-9548.656652,-888.247130,689.485948
3865.166086,-10288.862594,-296.082377,919.314598
3865.166416,-10288.862594,-148.041188,306.438199
3865.166746,-9548.656652,-296.082377,153.219100
3865.167076,-9548.656652,-518.144159,0.000000
3865.167406,-10288.862594,-370.102971,612.876398
3865.167736,-10584.944971,-592.164754,306.438199
3865.168065,-10214.842000,-296.082377,76.609550
3865.168395,-9178.553681,-1258.350101,459.657299
3865.168725,-8734.430116,-740.205942,536.266849
3865.169055,-9548.656652,-666.185348,766.095498
3865.169385,-9844.739029,-666.185348,1072.533697
3865.169715,-9326.594869,-962.267725,1685.410096
3865.170045,-9400.615463,0.000000,995.924147
3865.170374,-9992.780217,0.000000,0.000000
3865.170704,-10510.924376,296.082377,-383.047749
3865.171034,-9696.697840,-370.102971,-612.876398
3865.171364,-9178.553681,-518.144159,-919.314598
3865.171694,-9992.780217,0.000000,0.000000
3865.172024,-10066.800811,-962.267725,-306.438199
3865.172354,-8956.491898,-518.144159,-1225.752797
3865.172684,-8290.306550,-962.267725,-995.924147
3865.173013,-9622.677246,-74.020594,-306.438199
3865.173343,-10807.006753,-962.267725,536.266849
3865.173673,-9548.656652,-740.205942,1149.143247
3865.174003,-8882.471304,-1110.308913,1149.143247
3865.174333,-9770.718434,-148.041188,1225.752797
3865.174663,-10362.883188,-518.144159,459.657299
3865.174993,-9474.636058,74.020594,383.047749
3865.175322,-7846.182985,-888.247130,306.438199
3865.175652,-9030.512492,0.000000,1149.143247
3865.175982,-10732.986159,740.205942,919.314598
3865.176312,-10881.027347,888.247130,0.000000
3865.176642,-9918.759623,1184.329507,-1072.533697
3865.176972,-9622.677246,888.247130,-1378.971896
3865.177302,-9844.739029,740.205942,-1149.143247
3865.177632,-10510.924376,148.041188,0.000000
3865.177961,-9104.533087,-888.247130,612.876398
3865.178291,-9178.553681,1110.308913,1149.143247
3865.178621,-9992.780217,2072.576638,459.657299
3865.178951,-11399.171507,666.185348,-1608.800546
3865.179281,-11103.089130,740.205942,-2374.896044
3865.179611,-9030.512492,444.123565,229.828649
3865.179941,-10066.800811,666.185348,1378.971896
3865.180270,-10214.842000,666.185348,1762.019645
3865.180600,-9474.636058,0.000000,459.657299
3865.180930,-7624.121203,296.082377,0.000000
3865.181260,-8216.285956,-518.144159,-689.485948
3865.181590,-9030.512492,74.020594,766.095498
3865.181920,-10066.800811,222.061783,2068.457845
3865.182250,-9474.636058,592.164754,2987.772442
3865.182580,-9474.636058,0.000000,2528.115143
3865.182909,-10288.862594,518.144159,995.924147
3865.183239,-11103.089130,-222.061783,-459.657299
3865.183569,-9696.697840,666.185348,383.047749
3865.183899,-9252.574275,0.000000,1685.410096
3865.184229,-9178.553681,814.226536,1838.629195
3865.184559,-9104.533087,1036.288319,1455.581446
3865.184889,-10436.903782,1258.350101,76.609550
3865.185218,-11843.295072,2220.617826,-1302.362347
3865.185548,-11325.150913,962.267725,-2681.334243
3865.185878,-10510.924376,814.226536,-1532.190996
3865.186208,-10436.903782,444.123565,229.828649
3865.186538,-10140.821405,592.164754,842.705048
3865.186868,-10214.842000,74.020594,229.828649
3865.187198,-9326.594869,-74.020594,-1225.752797
3865.187528,-9178.553681,-148.041188,-995.924147
3865.187857,-9400.615463,74.020594,612.876398
3865.188187,-10214.842000,296.082377,2068.457845
3865.188517,-9844.739029,-444.123565,2451.505594
3865.188847,-9548.656652,0.000000,3064.381992
3865.189177,-9844.739029,-518.144159,2068.457845
3865.189507,-10436.903782,-444.123565,766.095498
3865.189837,-9770.718434,222.061783,306.438199
3865.190166,-9696.697840,0.000000,-459.657299
3865.190496,-9252.574275,148.041188,-919.314598
3865.190826,-9474.636058,148.041188,-459.657299
3865.191156,-9770.718434,0.000000,0.000000
3865.191486,-9400.615463,518.144159,536.266849
3865.191816,-9696.697840,814.226536,-229.828649
3865.192146,-9844.739029,814.226536,-306.438199
3865.192476,-10436.903782,-222.061783,0.000000
3865.192805,-9992.780217,148.041188,842.705048
3865.193135,-11473.192101,-148.041188,153.219100
3865.193465,-11473.192101,-518.144159,-842.705048
3865.193795,-9918.759623,-1258.350101,-919.314598
3865.194125,-8290.306550,-1258.350101,0.000000
3865.194455,-9030.512492,-888.247130,842.705048
3865.194784,-8734.430116,-1036.288319,153.219100
3865.195114,-8882.471304,-666.185348,612.876398
3865.195444,-8438.347739,-740.205942,766.095498
3865.195774,-8586.388927,-1184.329507,2451.505594
3865.196104,-10732.986159,148.041188,2221.676944
3865.196433,-11177.109724,0.000000,383.047749
3865.196763,-10288.862594,-444.123565,0.000000
3865.197093,-8808.450710,-296.082377,-536.266849
3865.197423,-10436.903782,-296.082377,229.828649
3865.197753,-11621.233289,222.061783,-306.438199
3865.198082,-9548.656652,0.000000,-536.266849
3865.198412,-8586.388927,444.123565,-229.828649
3865.198742,-8956.491898,592.164754,-766.095498
3865.199072,-10362.883188,814.226536,-1378.971896
3865.199402,-11103.089130,444.123565,-1455.581446
3865.199731,-9844.739029,444.123565,-1532.190996
3865.200061,-10066.800811,296.082377,-919.314598
3865.200391,-10214.842000,-148.041188,-383.047749
3865.200721,-10362.883188,-1036.288319,689.485948
3865.201051,-9770.718434,-1036.288319,536.266849
3865.201381,-8660.409521,-740.205942,919.314598
3865.201710,-9696.697840,-814.226536,0.000000
3865.202040,-8734.430116,-592.164754,306.438199
3865.202370,-9178.553681,0.000000,1532.190996
3865.202700,-9326.594869,74.020594,1915.238745
3865.203030,-9326.594869,-222.061783,459.657299
3865.203359,-9474.636058,-888.247130,76.609550
3865.203689,-9548.656652,-148.041188,995.924147
3865.204019,-9252.574275,74.020594,612.876398
3865.204349,-9770.718434,74.020594,383.047749
3865.204679,-10436.903782,-74.020594,383.047749
3865.205008,-10732.986159,592.164754,1455.581446
3865.205338,-11547.212695,1036.288319,995.924147
3865.205668,-10732.986159,666.185348,-306.438199
3865.205998,-9326.594869,370.102971,-1225.752797
3865.206328,-8586.388927,592.164754,-1225.752797
3865.206657,-10140.821405,888.247130,0.000000
3865.206987,-10066.800811,592.164754,-536.266849
3865.207317,-9474.636058,1184.329507,-1302.362347
3865.207647,-9622.677246,592.164754,-1149.143247
3865.207977,-10436.903782,296.082377,-1225.752797
3865.208307,-10658.965565,148.041188,-1072.533697
3865.208636,-10066.800811,-222.061783,-229.828649
3865.208966,-9252.574275,-370.102971,766.095498
3865.209296,-9252.574275,-962.267725,2374.896044
3865.209626,-9030.512492,0.000000,2604.724693
3865.209956,-9252.574275,-962.267725,2298.286494
3865.210285,-8660.409521,-444.123565,1225.752797
3865.210615,-8512.368333,74.020594,919.314598
3865.210945,-10955.047942,518.144159,919.314598
3865.211275,-10584.944971,148.041188,1072.533697
3865.211605,-9770.718434,370.102971,842.705048
3865.211934,-9178.553681,592.164754,0.000000
3865.212264,-9326.594869,592.164754,-383.047749
3865.212594,-9918.759623,444.123565,0.000000
3865.212924,-10362.883188,666.185348,0.000000
3865.213254,-10214.842000,962.267725,-306.438199
3865.213583,-10881.027347,592.164754,0.000000
3865.213913,-10362.883188,370.102971,-1302.362347
3865.214243,-10140.821405,148.041188,0.000000
3865.214573,-9992.780217,814.226536,536.266849
3865.214903,-10436.903782,0.000000,-536.266849
3865.215233,-10732.986159,592.164754,0.000000
3865.215562,-9844.739029,-592.164754,1072.533697
3865.215892,-9770.718434,296.082377,2145.067394
3865.216222,-9252.574275,-296.082377,1762.019645
3865.216552,-9400.615463,-370.102971,995.924147
3865.216882,-9696.697840,-740.205942,536.266849
3865.217211,-9992.780217,-1332.370696,1302.362347
3865.217541,-9252.574275,-592.164754,1838.629195
3865.217871,-8216.285956,-518.144159,1608.800546
3865.218201,-8808.450710,444.123565,153.219100
3865.218531,-9844.739029,0.000000,-459.657299
3865.218860,-10807.006753,0.000000,0.000000
3865.219190,-10510.924376,592.164754,383.047749
3865.219520,-10658.965565,370.102971,306.438199
3865.219850,-9770.718434,148.041188,-229.828649
3865.220180,-8734.430116,-296.082377,-536.266849
3865.220509,-9104.533087,814.226536,0.000000
3865.220839,-10436.903782,296.082377,76.609550
3865.221169,-10955.047942,74.020594,-689.485948
3865.221499,-9474.636058,-74.020594,0.000000
3865.221829,-9252.574275,1110.308913,1072.533697
3865.222158,-10658.965565,0.000000,2451.505594
3865.222488,-12065.356855,-370.102971,1455.581446
3865.222818,-9400.615463,-148.041188,-1378.971896
3865.223148,-8512.368333,0.000000,-1991.848295
3865.223478,-10362.883188,222.061783,0.000000
3865.223808,-11547.212695,814.226536,2604.724693
3865.224137,-10140.821405,518.144159,2834.553343
3865.224467,-8586.388927,518.144159,153.219100
3865.224797,-8660.409521,0.000000,-1762.019645
3865.225127,-10807.006753,74.020594,-1455.581446
3865.225457,-10288.862594,222.061783,459.657299
3865.225786,-9918.759623,-962.267725,1302.362347
3865.226116,-7698.141797,222.061783,1378.971896
3865.226446,-8882.471304,-370.102971,1149.143247
3865.226776,-11177.109724,222.061783,1225.752797
3865.227106,-11251.130318,370.102971,995.924147
3865.227435,-10362.883188,370.102971,0.000000
3865.227765,-9474.636058,370.102971,-229.828649
3865.228095,-9622.677246,888.247130,842.705048
3865.228425,-10658.965565,592.164754,229.828649
3865.228755,-10658.965565,296.082377,-1302.362347
3865.229084,-9252.574275,148.041188,-1608.800546
3865.229414,-8438.347739,-74.020594,-459.657299
3865.229744,-9622.677246,74.020594,153.219100
3865.230074,-10807.006753,740.205942,1838.629195
3865.230404,-9400.615463,222.061783,1302.362347
3865.230734,-9030.512492,0.000000,-306.438199
3865.231063,-9030.512492,-518.144159,-766.095498
3865.231393,-10436.903782,-370.102971,1762.019645
3865.231723,-10732.986159,148.041188,4060.306139
3865.232053,-10140.821405,0.000000,3524.039291
3865.232383,-8808.450710,740.205942,842.705048
3865.232712,-9622.677246,666.185348,-1302.362347
3865.233042,-10807.006753,740.205942,-1455.581446
3865.233372,-10510.924376,592.164754,76.609550
3865.233702,-9178.553681,1036.288319,766.095498
3865.234032,-9548.656652,1184.329507,459.657299
3865.234361,-10362.883188,962.267725,-1378.971896
3865.234691,-10214.842000,74.020594,-2068.457845
3865.235021,-9918.759623,740.205942,-1915.238745
3865.235351,-9696.697840,0.000000,-995.924147
3865.235681,-10288.862594,148.041188,612.876398
3865.236010,-10584.944971,222.061783,1838.629195
3865.236340,-10362.883188,-148.041188,1532.190996
3865.236670,-10288.862594,-740.205942,-229.828649
3865.237000,-9326.594869,-518.144159,-919.314598
3865.237330,-8586.388927,-370.102971,0.000000
3865.237659,-8956.491898,296.082377,919.314598
3865.237989,-9474.636058,-518.144159,1072.533697
3865.238319,-10066.800811,-444.123565,76.609550
3865.238649,-9770.718434,-592.164754,-383.047749
3865.238979,-9326.594869,-814.226536,-842.705048
3865.239309,-9326.594869,-962.267725,306.438199
3865.239638,-8882.471304,-296.082377,1072.533697
3865.239968,-9030.512492,-1036.288319,689.485948
3865.240298,-9696.697840,222.061783,536.266849
3865.240628,-9548.656652,370.102971,76.609550
3865.240958,-10510.924376,518.144159,-229.828649
3865.241287,-10584.944971,592.164754,-766.095498
3865.241617,-10362.883188,0.000000,-1072.533697
3865.241947,-9770.718434,-666.185348,-766.095498
3865.242277,-8290.306550,-814.226536,-766.095498
3865.242607,-9474.636058,-888.247130,-1302.362347
3865.242936,-9474.636058,-814.226536,-612.876398
3865.243266,-9400.615463,-666.185348,0.000000
3865.243596,-9104.533087,222.061783,1378.971896
3865.243926,-9696.697840,0.000000,1302.362347
3865.244256,-11473.192101,444.123565,1378.971896
3865.244585,-11769.274478,-148.041188,1149.143247
3865.244915,-10658.965565,0.000000,1149.143247
3865.245245,-9178.553681,-1110.308913,995.924147
3865.245575,-8734.430116,-1332.370696,995.924147
3865.245905,-9178.553681,-370.102971,1302.362347
3865.246235,-9252.574275,-740.205942,1149.143247
3865.246564,-8068.244768,370.102971,459.657299
3865.246894,-9474.636058,592.164754,536.266849
3865.247224,-10955.047942,1554.432478,995.924147
3865.247554,-11621.233289,962.267725,689.485948
3865.247884,-10955.047942,1258.350101,306.438199
3865.248213,-10584.944971,370.102971,-766.095498
3865.248543,-10066.800811,444.123565,-766.095498
3865.248873,-9992.780217,-518.144159,-1149.143247
3865.249203,-9252.574275,-222.061783,-1762.019645
3865.249533,-9030.512492,518.144159,-229.828649
3865.249862,-9474.636058,814.226536,0.000000
3865.250192,-9918.759623,370.102971,153.219100
3865.250522,-9474.636058,222.061783,0.000000
3865.250852,-9326.594869,888.247130,766.095498
3865.251182,-10955.047942,518.144159,1302.362347
3865.251511,-11325.150913,74.020594,1149.143247
3865.251841,-9770.718434,-296.082377,766.095498
3865.252171,-9474.636058,740.205942,995.924147
3865.252501,-10214.842000,-444.123565,-306.438199
3865.252831,-9844.739029,-222.061783,-76.609550
3865.253160,-8660.409521,0.000000,995.924147
3865.253490,-8216.285956,222.061783,995.924147
3865.253820,-8882.471304,962.267725,-459.657299
3865.254150,-9844.739029,518.144159,-1455.581446
3865.254480,-9844.739029,740.205942,-1762.019645
3865.254810,-10732.986159,962.267725,-1072.533697
3865.255139,-11029.068536,814.226536,-536.266849
3865.255469,-10288.862594,-666.185348,-842.705048
3865.255799,-8660.409521,370.102971,-689.485948
3865.256129,-9030.512492,-370.102971,0.000000
3865.256459,-9918.759623,0.000000,-153.219100
3865.256788,-10140.821405,148.041188,536.266849
3865.257118,-10362.883188,74.020594,766.095498
3865.257448,-10807.006753,74.020594,383.047749
3865.257778,-9548.656652,-222.061783,0.000000
3865.258108,-8734.430116,-1110.308913,459.657299
3865.258437,-7772.162391,-296.082377,153.219100
3865.258767,-9178.553681,-370.102971,383.047749
3865.259097,-10510.924376,0.000000,459.657299
3865.259427,-10140.821405,-296.082377,1225.752797
3865.259757,-9474.636058,-444.123565,1455.581446
3865.260086,-9918.759623,-518.144159,1225.752797
3865.260416,-10584.944971,-444.123565,536.266849
3865.260746,-9178.553681,-296.082377,-842.705048
3865.261076,-7994.224174,-296.082377,-1225.752797
3865.261406,-9474.636058,148.041188,0.000000
3865.261736,-10955.047942,296.082377,536.266849
3865.262065,-11325.150913,740.205942,612.876398
3865.262395,-11251.130318,444.123565,-1378.971896
3865.262725,-9696.697840,-518.144159,-1991.848295
3865.263055,-9622.677246,-296.082377,-842.705048
3865.263385,-9696.697840,-962.267725,-306.438199
3865.263714,-9918.759623,-592.164754,229.828649
3865.264044,-8956.491898,-296.082377,0.000000
3865.264374,-8882.471304,0.000000,0.000000
3865.264704,-9548.656652,-518.144159,0.000000
3865.265034,-10436.903782,-222.061783,-229.828649
3865.265363,-10732.986159,-888.247130,1302.362347
3865.265693,-9622.677246,-1258.350101,2604.724693
3865.266023,-9030.512492,-1702.473667,2987.772442
3865.266353,-8438.347739,-1184.329507,2911.162892
3865.266683,-10436.903782,-666.185348,2451.505594
3865.267012,-9696.697840,-740.205942,995.924147
3865.267342,-9326.594869,0.000000,0.000000
3865.267672,-9474.636058,296.082377,-383.047749
3865.268002,-10214.842000,888.247130,612.876398
3865.268332,-10955.047942,666.185348,-383.047749
3865.268662,-10066.800811,888.247130,-1685.410096
3865.268991,-9178.553681,666.185348,-2451.505594
3865.269321,-9326.594869,296.082377,-1838.629195
3865.269651,-10214.842000,592.164754,-459.657299
3865.269981,-10066.800811,888.247130,383.047749
3865.270311,-9696.697840,592.164754,536.266849
3865.270640,-9104.533087,0.000000,842.705048
3865.270970,-10362.883188,0.000000,2451.505594
3865.271300,-10732.986159,370.102971,2681.334243
3865.271630,-9696.697840,-518.144159,1838.629195
3865.271960,-8512.368333,518.144159,1532.190996
3865.272289,-9104.533087,370.102971,612.876398
3865.272619,-10066.800811,740.205942,995.924147
3865.272949,-9770.718434,740.205942,383.047749
3865.273279,-9548.656652,814.226536,-383.047749
3865.273609,-9400.615463,592.164754,-153.219100
3865.273938,-9474.636058,592.164754,536.266849
3865.274268,-9992.780217,888.247130,689.485948
3865.274598,-10214.842000,1406.391290,612.876398
3865.274928,-9474.636058,814.226536,-766.095498
3865.275258,-10066.800811,1406.391290,-536.266849
3865.275587,-11029.068536,1554.432478,383.047749
3865.275917,-10955.047942,1184.329507,536.266849
3865.276247,-10140.821405,740.205942,-383.047749
3865.276577,-9696.697840,370.102971,-766.095498
3865.276907,-8438.347739,592.164754,76.609550
3865.277237,-8956.491898,740.205942,766.095498
3865.277566,-9326.594869,740.205942,383.047749
3865.277896,-10510.924376,518.144159,459.657299
3865.278226,-10584.944971,740.205942,0.000000
3865.278556,-10807.006753,296.082377,-612.876398
3865.278886,-10955.047942,148.041188,76.609550
3865.279215,-9918.759623,-296.082377,919.314598
3865.279545,-8438.347739,0.000000,229.828649
3865.279875,-8438.347739,-222.061783,-536.266849
3865.280205,-9252.574275,0.000000,-612.876398
3865.280535,-8512.368333,-74.020594,689.485948
3865.280864,-9474.636058,222.061783,1225.752797
3865.281194,-9104.533087,74.020594,1532.190996
3865.281524,-10436.903782,-592.164754,1149.143247
3865.281854,-9844.739029,0.000000,306.438199
3865.282184,-9770.718434,-444.123565,-459.657299
3865.282513,-10066.800811,370.102971,-1455.581446
3865.282843,-10066.800811,-222.061783,-842.705048
3865.283173,-10362.883188,518.144159,306.438199
3865.283503,-8882.471304,0.000000,1072.533697
3865.283833,-10214.842000,74.020594,-919.314598
3865.284163,-10140.821405,222.061783,-2068.457845
3865.284492,-9326.594869,-1036.288319,-1838.629195
3865.284822,-7254.018232,0.000000,-383.047749
3865.285152,-7994.224174,-444.123565,1608.800546
3865.285482,-11621.233289,444.123565,1991.848295
3865.285812,-11251.130318,-222.061783,153.219100
3865.286141,-9400.615463,370.102971,-1685.410096
3865.286471,-9770.718434,-1110.308913,-766.095498
3865.286801,-11325.150913,-814.226536,1532.190996
3865.287131,-11177.109724,-1332.370696,3753.867940
3865.287461,-9252.574275,-370.102971,2221.676944
3865.287790,-7179.997637,-1406.391290,76.609550
3865.288120,-8364.327145,-814.226536,-1455.581446
3865.288450,-10066.800811,0.000000,-842.705048
3865.288780,-10881.027347,0.000000,229.828649
3865.289110,-8882.471304,0.000000,1072.533697
3865.289439,-8956.491898,-148.041188,1608.800546
3865.289769,-10510.924376,296.082377,1608.800546
3865.290099,-10955.047942,222.061783,306.438199
3865.290429,-10658.965565,370.102971,-612.876398
3865.290759,-11177.109724,-296.082377,-1072.533697
3865.291088,-10140.821405,370.102971,76.609550
3865.291418,-9474.636058,-370.102971,995.924147
3865.291748,-10066.800811,296.082377,76.609550
3865.292078,-11251.130318,-444.123565,306.438199
3865.292408,-9622.677246,148.041188,-1302.362347
3865.292738,-8586.388927,296.082377,-1762.019645
3865.293067,-9030.512492,222.061783,-995.924147
3865.293397,-9326.594869,0.000000,1225.752797
3865.293727,-10658.965565,296.082377,1378.971896
3865.294057,-10584.944971,-148.041188,-689.485948
3865.294387,-9548.656652,-1258.350101,-995.924147
3865.294716,-8216.285956,-814.226536,1225.752797
3865.295046,-8808.450710,-1480.411884,1838.629195
3865.295376,-8956.491898,0.000000,2298.286494
3865.295706,-9844.739029,-444.123565,1608.800546
3865.296036,-9622.677246,592.164754,842.705048
3865.296365,-10066.800811,222.061783,536.266849
3865.296695,-9030.512492,518.144159,-536.266849
3865.297025,-9770.718434,518.144159,-842.705048
3865.297354,-10955.047942,1332.370696,-612.876398
3865.297684,-10214.842000,518.144159,76.609550
3865.298014,-9474.636058,444.123565,-536.266849
3865.298344,-9696.697840,888.247130,-689.485948
3865.298673,-11325.150913,518.144159,-995.924147
3865.299003,-10658.965565,888.247130,-306.438199
3865.299333,-8882.471304,0.000000,-229.828649
3865.299662,-8734.430116,-296.082377,459.657299
3865.299992,-10066.800811,-222.061783,1378.971896
3865.300322,-9474.636058,740.205942,1762.019645
3865.300652,-8956.491898,370.102971,1608.800546
3865.300981,-9178.553681,444.123565,1072.533697
3865.301311,-10584.944971,-592.164754,1532.190996
3865.301641,-10362.883188,518.144159,1455.581446
3865.301971,-9696.697840,-740.205942,919.314598
3865.302300,-8142.265362,-148.041188,1225.752797
3865.302630,-9474.636058,370.102971,2451.505594
3865.302960,-11621.233289,1184.329507,1532.190996
3865.303289,-10584.944971,592.164754,-766.095498
3865.303619,-9474.636058,888.247130,-2451.505594
3865.303949,-9400.615463,518.144159,-919.314598
3865.304279,-10658.965565,1406.391290,1991.848295
3865.304608,-10140.821405,1924.535449,1838.629195
3865.304938,-9474.636058,1036.288319,-689.485948
3865.305268,-9178.553681,666.185348,-2374.896044
3865.305598,-10066.800811,-222.061783,-2145.067394
3865.305927,-10066.800811,814.226536,-383.047749
3865.306257,-10362.883188,0.000000,1455.581446
3865.306587,-9770.718434,74.020594,2298.286494
3865.306916,-8216.285956,-592.164754,766.095498
3865.307246,-9104.533087,-148.041188,-306.438199
3865.307576,-10140.821405,0.000000,-1149.143247
3865.307906,-11103.089130,0.000000,76.609550
3865.308235,-10436.903782,0.000000,2145.067394
3865.308565,-8586.388927,0.000000,2604.724693
3865.308895,-9252.574275,666.185348,1915.238745
3865.309224,-9770.718434,74.020594,-306.438199
3865.309554,-9622.677246,370.102971,-1915.238745
3865.309884,-9030.512492,-370.102971,-1915.238745
3865.310214,-9548.656652,1036.288319,153.219100
3865.310543,-10732.986159,518.144159,2528.115143
3865.310873,-10732.986159,740.205942,1838.629195
3865.311203,-9548.656652,370.102971,-1149.143247
3865.311533,-9844.739029,296.082377,-3294.210641
3865.311862,-11621.233289,-148.041188,-2911.162892
3865.312192,-10955.047942,74.020594,76.609550
3865.312522,-8956.491898,-444.123565,2374.896044
3865.312851,-8734.430116,74.020594,1608.800546
3865.313181,-9844.739029,-666.185348,-689.485948
3865.313511,-9548.656652,-962.267725,-1991.848295
3865.313841,-9030.512492,-666.185348,-612.876398
3865.314170,-9622.677246,-666.185348,995.924147
3865.314500,-10140.821405,74.020594,2145.067394
3865.314830,-9252.574275,-1110.308913,842.705048
3865.315159,-9104.533087,-888.247130,383.047749
3865.315489,-9178.553681,-1628.453072,-612.876398
3865.315819,-10214.842000,-1480.411884,-689.485948
3865.316149,-9770.718434,-1628.453072,306.438199
3865.316478,-8808.450710,-1184.329507,1455.581446
3865.316808,-8068.244768,-740.205942,1991.848295
3865.317138,-9400.615463,0.000000,1149.143247
3865.317468,-11029.068536,0.000000,-766.095498
3865.317797,-10436.903782,296.082377,-1685.410096
3865.318127,-9622.677246,222.061783,-1302.362347
3865.318457,-9844.739029,74.020594,1072.533697
3865.318786,-9178.553681,0.000000,2068.457845
3865.319116,-9918.759623,296.082377,612.876398
3865.319446,-10955.047942,370.102971,-1532.190996
3865.319776,-11621.233289,-370.102971,-1685.410096
3865.320105,-9992.780217,444.123565,306.438199
3865.320435,-9474.636058,-666.185348,1608.800546
3865.320765,-9548.656652,74.020594,1072.533697
3865.321094,-9844.739029,-592.164754,1072.533697
3865.321424,-9548.656652,370.102971,383.047749
3865.321754,-9548.656652,-370.102971,153.219100
3865.322084,-10658.965565,444.123565,1149.143247
3865.322413,-10288.862594,0.000000,2298.286494
3865.322743,-10436.903782,518.144159,2451.505594
3865.323073,-9326.594869,370.102971,1762.019645
3865.323403,-9770.718434,-148.041188,383.047749
3865.323732,-10066.800811,592.164754,306.438199
3865.324062,-9992.780217,518.144159,689.485948
3865.324392,-9548.656652,1332.370696,536.266849
3865.324721,-8956.491898,1332.370696,459.657299
3865.325051,-9548.656652,1332.370696,-153.219100
3865.325381,-9548.656652,592.164754,-1302.362347
3865.325711,-9844.739029,1110.308913,-1685.410096
3865.326040,-11177.109724,592.164754,-306.438199
3865.326370,-9992.780217,1258.350101,995.924147
3865.326700,-8512.368333,592.164754,689.485948
3865.327029,-9030.512492,1110.308913,-306.438199
3865.327359,-10214.842000,444.123565,0.000000
3865.327689,-10436.903782,666.185348,76.609550
3865.328019,-8956.491898,592.164754,383.047749
3865.328348,-9104.533087,444.123565,612.876398
3865.328678,-9178.553681,592.164754,842.705048
3865.329008,-9992.780217,444.123565,1378.971896
3865.329338,-9400.615463,1184.329507,383.047749
3865.329667,-9622.677246,222.061783,76.609550
3865.329997,-10881.027347,1036.288319,842.705048
3865.330327,-10510.924376,296.082377,766.095498
3865.330656,-9770.718434,1036.288319,-306.438199
3865.330986,-8734.430116,-296.082377,-919.314598
3865.331316,-10288.862594,666.185348,306.438199
3865.331646,-10658.965565,296.082377,1455.581446
3865.331975,-8734.430116,444.123565,153.219100
3865.332305,-8068.244768,1184.329507,-689.485948
3865.332635,-9770.718434,1480.411884,-689.485948
3865.332965,-12361.439231,1184.329507,0.000000
3865.333294,-12361.439231,444.123565,-766.095498
3865.333624,-10214.842000,296.082377,-1455.581446
3865.333954,-9770.718434,-888.247130,-1302.362347
3865.334283,-9252.574275,-1258.350101,0.000000
3865.334613,-9104.533087,-1480.411884,153.219100
3865.334943,-7920.203579,-814.226536,612.876398
3865.335273,-8586.388927,-666.185348,0.000000
3865.335602,-10436.903782,74.020594,-459.657299
3865.335932,-10658.965565,-592.164754,0.000000
3865.336262,-10658.965565,-1184.329507,1149.143247
3865.336591,-9622.677246,-1184.329507,1149.143247
3865.336921,-9918.759623,-1258.350101,1225.752797
3865.337251,-9622.677246,-2220.617826,306.438199
3865.337581,-7772.162391,-1628.453072,306.438199
3865.337910,-8290.306550,-814.226536,-153.219100
3865.338240,-11029.068536,-296.082377,-229.828649
3865.338570,-10658.965565,-1036.288319,-383.047749
3865.338900,-9992.780217,-1184.329507,-536.266849
3865.339229,-8734.430116,-666.185348,-459.657299
3865.339559,-10214.842000,0.000000,919.314598
3865.339889,-11695.253884,222.061783,306.438199
3865.340218,-10510.924376,-740.205942,-1685.410096
3865.340548,-9474.636058,-962.267725,-1455.581446
3865.340878,-10881.027347,-740.205942,-76.609550
3865.341208,-11177.109724,-814.226536,842.705048
3865.341537,-10214.842000,-1554.432478,612.876398
3865.341867,-8586.388927,-1702.473667,-459.657299
3865.342197,-8216.285956,-1924.535449,0.000000
3865.342526,-9548.656652,-1924.535449,689.485948
3865.342856,-9622.677246,-1332.370696,1838.629195
3865.343186,-9770.718434,-1184.329507,2528.115143
3865.343516,-9400.615463,-296.082377,2221.676944
3865.343845,-9252.574275,-1628.453072,689.485948
3865.344175,-9474.636058,-1406.391290,0.000000
3865.344505,-9178.553681,-1110.308913,1532.190996
3865.344835,-9400.615463,-444.123565,3217.601092
3865.345164,-10510.924376,518.144159,2757.943793
3865.345494,-9326.594869,1554.432478,383.047749
3865.345824,-9548.656652,518.144159,-1225.752797
3865.346153,-10881.027347,1628.453072,-1532.190996
3865.346483,-11843.295072,1036.288319,-919.314598
3865.346813,-11399.171507,962.267725,-536.266849
3865.347143,-9178.553681,740.205942,612.876398
3865.347472,-7772.162391,1628.453072,995.924147
3865.347802,-8956.491898,1702.473667,-1532.190996
3865.348132,-10584.944971,592.164754,-4060.306139
3865.348461,-10140.821405,962.267725,-2374.896044
3865.348791,-10807.006753,1036.288319,0.000000
3865.349121,-11029.068536,1184.329507,1378.971896
3865.349451,-10066.800811,0.000000,1991.848295
3865.349780,-8882.471304,222.061783,229.828649
3865.350110,-7994.224174,-222.061783,-1072.533697
3865.350440,-7994.224174,518.144159,-306.438199
3865.350770,-8660.409521,148.041188,1225.752797
3865.351099,-8956.491898,814.226536,3907.087040
3865.351429,-9844.739029,444.123565,3830.477490
3865.351759,-11547.212695,1702.473667,1072.533697
3865.352088,-11843.295072,1110.308913,-1532.190996
3865.352418,-11695.253884,888.247130,-2834.553343
3865.352748,-8586.388927,296.082377,-1608.800546
3865.353078,-7105.977043,666.185348,689.485948
3865.353407,-8216.285956,1998.556043,2221.676944
3865.353737,-9770.718434,1554.432478,919.314598
3865.354067,-10584.944971,2146.597232,-1991.848295
3865.354397,-11399.171507,1480.411884,-2834.553343
3865.354726,-11473.192101,1332.370696,-1991.848295
3865.355056,-11251.130318,518.144159,536.266849
3865.355386,-10214.842000,1036.288319,2374.896044
3865.355715,-10436.903782,148.041188,1608.800546
3865.356045,-8734.430116,370.102971,-1455.581446
3865.356375,-9326.594869,-222.061783,-2374.896044
3865.356705,-10436.903782,0.000000,-1455.581446
3865.357034,-10584.944971,0.000000,919.314598
3865.357364,-8586.388927,0.000000,1762.019645
3865.357694,-7328.038826,-1702.473667,2374.896044
3865.358023,-7698.141797,-1036.288319,919.314598
3865.358353,-9030.512492,-1036.288319,1072.533697
3865.358683,-10140.821405,-888.247130,1455.581446
3865.359013,-9992.780217,-222.061783,2068.457845
3865.359342,-9844.739029,-740.205942,2298.286494
3865.359672,-9696.697840,740.205942,2068.457845
3865.360002,-10584.944971,444.123565,995.924147
3865.360332,-11695.253884,740.205942,-1225.752797
3865.360661,-11177.109724,0.000000,-1378.971896
3865.360991,-10881.027347,296.082377,-229.828649
3865.361321,-8734.430116,-592.164754,842.705048
3865.361650,-7846.182985,666.185348,-229.828649
3865.361980,-9104.533087,592.164754,-612.876398
3865.362310,-11103.089130,518.144159,-1225.752797
3865.362640,-10807.006753,74.020594,-1838.629195
3865.362969,-9696.697840,0.000000,-1225.752797
3865.363299,-9474.636058,-518.144159,689.485948
3865.363629,-10881.027347,-518.144159,3064.381992
3865.363958,-10732.986159,-296.082377,2374.896044
3865.364288,-9178.553681,-1406.391290,0.000000
3865.364618,-7254.018232,-1332.370696,-1915.238745
3865.364948,-8364.327145,-1628.453072,-459.657299
3865.365277,-8882.471304,0.000000,1685.410096
3865.365607,-8734.430116,-370.102971,2145.067394
3865.365937,-9474.636058,0.000000,842.705048
3865.366267,-9474.636058,0.000000,0.000000
3865.366596,-10732.986159,-962.267725,-1838.629195
3865.366926,-11325.150913,-518.144159,-689.485948
3865.367256,-10288.862594,370.102971,1762.019645
3865.367585,-10214.842000,1110.308913,2987.772442
3865.367915,-9770.718434,518.144159,689.485948
3865.368245,-10066.800811,1110.308913,-1532.190996
3865.368575,-10955.047942,666.185348,-2757.943793
3865.368904,-10658.965565,888.247130,-2221.676944
3865.369234,-11029.068536,148.041188,-459.657299
3865.369564,-9548.656652,296.082377,153.219100
3865.369893,-8068.244768,-1036.288319,0.000000
3865.370223,-8660.409521,-370.102971,-995.924147
3865.370553,-9918.759623,-1110.308913,-995.924147
3865.370883,-10066.800811,-888.247130,-689.485948
3865.371212,-9474.636058,-814.226536,689.485948
3865.371542,-9400.615463,-592.164754,1991.848295
3865.371872,-9992.780217,-814.226536,2068.457845
3865.372202,-10214.842000,-1258.350101,1608.800546
3865.372531,-9474.636058,-1184.329507,0.000000
3865.372861,-9252.574275,-296.082377,-919.314598
3865.373191,-8438.347739,0.000000,-919.314598
3865.373520,-8808.450710,-962.267725,0.000000
3865.373850,-8734.430116,74.020594,0.000000
3865.374180,-10807.006753,0.000000,-306.438199
3865.374510,-10732.986159,0.000000,0.000000
3865.374839,-9178.553681,-148.041188,-842.705048
3865.375169,-8882.471304,0.000000,-1225.752797
3865.375499,-9992.780217,74.020594,76.609550
3865.375828,-10658.965565,1406.391290,995.924147
3865.376158,-11103.089130,1036.288319,0.000000
3865.376488,-10658.965565,592.164754,-1378.971896
3865.376818,-10436.903782,222.061783,-1455.581446
3865.377147,-9622.677246,0.000000,0.000000
3865.377477,-9696.697840,-296.082377,1608.800546
3865.377807,-8956.491898,0.000000,1378.971896
3865.378137,-8438.347739,-888.247130,1149.143247
3865.378466,-9474.636058,0.000000,1378.971896
3865.378796,-9400.615463,222.061783,2145.067394
3865.379126,-10362.883188,666.185348,1608.800546
3865.379455,-10436.903782,592.164754,995.924147
3865.379785,-10658.965565,-518.144159,1378.971896
3865.380115,-9252.574275,814.226536,1455.581446
3865.380445,-8956.491898,0.000000,1915.238745
3865.380774,-9844.739029,1258.350101,2068.457845
3865.381104,-10658.965565,1776.494261,1072.533697
3865.381434,-10510.924376,2590.720797,-536.266849
3865.381764,-9622.677246,1924.535449,-1225.752797
3865.382093,-9770.718434,2220.617826,-153.219100
3865.382423,-10732.986159,1924.535449,1225.752797
3865.382753,-11843.295072,1628.453072,919.314598
3865.383082,-10658.965565,592.164754,0.000000
3865.383412,-8734.430116,-592.164754,229.828649
3865.383742,-8808.450710,518.144159,1532.190996
3865.384072,-9918.759623,518.144159,2681.334243
3865.384401,-9622.677246,1184.329507,3447.429741
3865.384731,-9178.553681,962.267725,1455.581446
3865.385061,-9844.739029,962.267725,612.876398
3865.385390,-10807.006753,222.061783,76.609550
3865.385720,-10288.862594,1184.329507,612.876398
3865.386050,-9548.656652,-148.041188,1532.190996
3865.386380,-9030.512492,962.267725,1532.190996
3865.386709,-8956.491898,296.082377,459.657299
3865.387039,-8068.244768,0.000000,-842.705048
3865.387369,-8586.388927,370.102971,-1608.800546
3865.387699,-10510.924376,1776.494261,-383.047749
3865.388028,-11843.295072,2072.576638,76.609550
3865.388358,-11991.336260,1332.370696,153.219100
3865.388688,-9992.780217,814.226536,-612.876398
3865.389017,-10362.883188,370.102971,-766.095498
3865.389347,-9696.697840,74.020594,-1225.752797
3865.389677,-9992.780217,-518.144159,-919.314598
3865.390007,-9770.718434,888.247130,0.000000
3865.390336,-8364.327145,-370.102971,-1225.752797
3865.390666,-8438.347739,-666.185348,-2987.772442
3865.390996,-8882.471304,-1480.411884,-2221.676944
3865.391325,-9770.718434,-962.267725,306.438199
3865.391655,-9918.759623,-888.247130,1838.629195
3865.391985,-9178.553681,-1628.453072,842.705048
3865.392315,-7550.100608,-1036.288319,383.047749
3865.392644,-8512.368333,-1110.308913,-229.828649
3865.392974,-11251.130318,-518.144159,612.876398
3865.393304,-11769.274478,-740.205942,919.314598
3865.393634,-10732.986159,-296.082377,459.657299
3865.393963,-8586.388927,-1628.453072,153.219100
3865.394293,-9104.533087,-888.247130,536.266849
3865.394623,-9696.697840,-1036.288319,229.828649
3865.394952,-10510.924376,74.020594,-995.924147
3865.395282,-10066.800811,222.061783,-2374.896044
3865.395612,-9474.636058,-222.061783,-3064.381992
3865.395942,-10140.821405,0.000000,-1608.800546
3865.396271,-11325.150913,-222.061783,0.000000
3865.396601,-10732.986159,-814.226536,842.705048
3865.396931,-9844.739029,-1184.329507,1225.752797
3865.397261,-9918.759623,-1110.308913,1149.143247
3865.397590,-9622.677246,-1480.411884,1378.971896
3865.397920,-9178.553681,-1554.432478,1072.533697
3865.398250,-9696.697840,-1258.350101,2298.286494
3865.398580,-10732.986159,-592.164754,3217.601092
3865.398909,-10807.006753,-592.164754,2145.067394
3865.399239,-8882.471304,-1036.288319,-383.047749
3865.399569,-8956.491898,-1184.329507,-459.657299
3865.399899,-8808.450710,-518.144159,0.000000
3865.400229,-9548.656652,0.000000,995.924147
3865.400558,-9326.594869,444.123565,919.314598
3865.400888,-9770.718434,518.144159,919.314598
3865.401218,-10658.965565,1036.288319,0.000000
3865.401548,-11029.068536,222.061783,-612.876398
3865.401877,-11251.130318,148.041188,76.609550
3865.402207,-9474.636058,0.000000,1149.143247
3865.402537,-9400.615463,666.185348,2451.505594
3865.402867,-8956.491898,1184.329507,1532.190996
3865.403196,-8956.491898,1036.288319,459.657299
3865.403526,-10955.047942,1554.432478,-536.266849
3865.403856,-12139.377449,1110.308913,0.000000
3865.404186,-11177.109724,518.144159,-306.438199
3865.404515,-8734.430116,-74.020594,-536.266849
3865.404845,-8586.388927,-74.020594,612.876398
3865.405175,-10584.944971,148.041188,1532.190996
3865.405505,-10362.883188,0.000000,229.828649
3865.405834,-8956.491898,592.164754,-1455.581446
3865.406164,-8216.285956,1110.308913,-842.705048
3865.406494,-9474.636058,1184.329507,1072.533697
3865.406824,-11325.150913,1332.370696,2451.505594
3865.407153,-10584.944971,1036.288319,1378.971896
3865.407483,-9252.574275,296.082377,-536.266849
3865.407813,-9622.677246,1110.308913,-1685.410096
3865.408143,-10288.862594,74.020594,-1532.190996
3865.408472,-8956.491898,222.061783,-1072.533697
3865.408802,-8512.368333,444.123565,153.219100
3865.409132,-9548.656652,814.226536,-383.047749
3865.409462,-10288.862594,518.144159,-1072.533697
3865.409791,-9992.780217,370.102971,-1991.848295
3865.410121,-8734.430116,444.123565,-1072.533697
3865.410451,-9548.656652,814.226536,306.438199
3865.410781,-10510.924376,666.185348,383.047749
3865.411110,-9548.656652,-518.144159,0.000000
3865.411440,-8734.430116,0.000000,-1685.410096
3865.411770,-8660.409521,-370.102971,-1225.752797
3865.412100,-10732.986159,-444.123565,-153.219100
3865.412429,-10955.047942,0.000000,306.438199
3865.412759,-9400.615463,-222.061783,-306.438199
3865.413089,-8660.409521,-666.185348,-612.876398
3865.413419,-8734.430116,0.000000,-306.438199
3865.413748,-9474.636058,-370.102971,383.047749
3865.414078,-9400.615463,148.041188,689.485948
3865.414408,-10066.800811,-296.082377,689.485948
3865.414738,-10436.903782,444.123565,919.314598
3865.415067,-11029.068536,-592.164754,76.609550
3865.415397,-9992.780217,-222.061783,-153.219100
3865.415727,-11103.089130,-74.020594,689.485948
3865.416057,-11621.233289,-222.061783,1302.362347
3865.416386,-9844.739029,-370.102971,842.705048
3865.416716,-9178.553681,296.082377,-689.485948
3865.417046,-10288.862594,0.000000,-1225.752797
3865.417376,-10807.006753,-518.144159,-612.876398
3865.417705,-9622.677246,-148.041188,612.876398
3865.418035,-9104.533087,-1110.308913,536.266849
3865.418365,-8734.430116,-888.247130,1302.362347
3865.418695,-9770.718434,-1332.370696,2145.067394
3865.419024,-11177.109724,-1036.288319,1455.581446
3865.419354,-10732.986159,-1332.370696,766.095498
3865.419684,-9474.636058,-814.226536,459.657299
3865.420014,-9474.636058,-1110.308913,1072.533697
3865.420343,-9252.574275,-148.041188,1915.238745
3865.420673,-9252.574275,-740.205942,2145.067394
3865.421003,-9326.594869,-666.185348,919.314598
3865.421333,-8660.409521,-962.267725,536.266849
3865.421662,-8882.471304,-222.061783,919.314598
3865.421992,-8734.430116,0.000000,842.705048
3865.422322,-9844.739029,-592.164754,459.657299
3865.422652,-9770.718434,370.102971,1838.629195
3865.422981,-10288.862594,370.102971,1762.019645
3865.423311,-9918.759623,1184.329507,383.047749
3865.423641,-10807.006753,814.226536,-612.876398
3865.423971,-10436.903782,1554.432478,-1225.752797
3865.424300,-10807.006753,444.123565,-1072.533697
3865.424630,-10362.883188,1110.308913,-612.876398
3865.424960,-9030.512492,-296.082377,0.000000
3865.425290,-8660.409521,814.226536,383.047749
3865.425619,-8142.265362,370.102971,229.828649
3865.425949,-8882.471304,888.247130,-459.657299
3865.426279,-11103.089130,1258.350101,-153.219100
3865.426609,-12065.356855,1332.370696,919.314598
3865.426938,-10955.047942,814.226536,1608.800546
3865.427268,-9770.718434,518.144159,1302.362347
3865.427598,-9474.636058,592.164754,1991.848295
3865.427928,-10214.842000,666.185348,1915.238745
3865.428258,-9770.718434,740.205942,-383.047749
3865.428587,-9770.718434,370.102971,-766.095498
3865.428917,-8808.450710,1036.288319,-229.828649
3865.429247,-9326.594869,740.205942,919.314598
3865.429577,-10288.862594,2146.597232,919.314598
3865.429906,-9696.697840,1184.329507,-842.705048
3865.430236,-9400.615463,666.185348,-2757.943793
3865.430566,-8734.430116,222.061783,-2911.162892
3865.430896,-9400.615463,518.144159,-306.438199
3865.431225,-10658.965565,740.205942,2298.286494
3865.431555,-10288.862594,518.144159,2298.286494
3865.431885,-9326.594869,0.000000,76.609550
3865.432215,-9474.636058,148.041188,-2221.676944
3865.432544,-10288.862594,148.041188,-2681.334243
3865.432874,-10214.842000,-962.267725,-995.924147
3865.433204,-8882.471304,-888.247130,153.219100
3865.433534,-8438.347739,-518.144159,1378.971896
3865.433863,-7772.162391,-296.082377,-153.219100
3865.434193,-8734.430116,74.020594,-766.095498
3865.434523,-10807.006753,0.000000,-1762.019645
3865.434853,-10584.944971,-296.082377,-1685.410096
3865.435182,-10881.027347,148.041188,-306.438199
3865.435512,-9992.780217,-222.061783,689.485948
3865.435842,-10140.821405,-740.205942,1072.533697
3865.436172,-9622.677246,-814.226536,919.314598
3865.436501,-9030.512492,-1406.391290,153.219100
3865.436831,-9104.533087,-444.123565,-383.047749
3865.437161,-9844.739029,0.000000,919.314598
3865.437491,-9030.512492,-370.102971,1762.019645
3865.437820,-9252.574275,740.205942,2528.115143
3865.438150,-9548.656652,1406.391290,459.657299
3865.438480,-12139.377449,1110.308913,0.000000
3865.438810,-13471.748144,814.226536,-1455.581446
3865.439139,-11843.295072,148.041188,-919.314598
3865.439469,-10436.903782,0.000000,0.000000
3865.439799,-9918.759623,0.000000,229.828649
3865.440129,-9400.615463,-1036.288319,612.876398
3865.440458,-7698.141797,-1332.370696,612.876398
3865.440788,-7624.121203,-518.144159,536.266849
3865.441118,-9548.656652,-1110.308913,766.095498
3865.441448,-10214.842000,-518.144159,1685.410096
3865.441777,-9992.780217,518.144159,2987.772442
3865.442107,-10732.986159,148.041188,2757.943793
3865.442437,-9696.697840,-592.164754,1532.190996
3865.442767,-9918.759623,-814.226536,0.000000
3865.443096,-9030.512492,-814.226536,76.609550
3865.443426,-9030.512492,-814.226536,1302.362347
3865.443756,-9474.636058,296.082377,2834.553343
3865.444086,-9844.739029,0.000000,2298.286494
3865.444415,-10732.986159,296.082377,383.047749
3865.444745,-9622.677246,0.000000,-612.876398
3865.445075,-9548.656652,592.164754,-919.314598
3865.445405,-10140.821405,518.144159,-842.705048
3865.445734,-8364.327145,370.102971,-306.438199
3865.446064,-8586.388927,666.185348,-306.438199
3865.446394,-10214.842000,1110.308913,-842.705048
3865.446724,-11177.109724,296.082377,-612.876398
3865.447053,-12583.501014,-370.102971,229.828649
3865.447383,-11325.150913,-296.082377,842.705048
3865.447713,-9474.636058,-1036.288319,1455.581446
3865.448043,-7254.018232,-814.226536,1302.362347
3865.448372,-7402.059420,-962.267725,689.485948
3865.448702,-9770.718434,0.000000,689.485948
3865.449032,-10658.965565,148.041188,76.609550
3865.449362,-10510.924376,148.041188,-536.266849
3865.449691,-9992.780217,0.000000,-536.266849
3865.450021,-9844.739029,592.164754,0.000000
3865.450351,-10214.842000,0.000000,0.000000
3865.450681,-9474.636058,-740.205942,-1225.752797
3865.451010,-7772.162391,-888.247130,-1302.362347
3865.451340,-7846.182985,0.000000,919.314598
3865.451670,-10510.924376,740.205942,1302.362347
3865.452000,-10732.986159,296.082377,995.924147
3865.452329,-9622.677246,370.102971,-919.314598
3865.452659,-10066.800811,296.082377,-919.314598
3865.452989,-10288.862594,444.123565,-536.266849
3865.453319,-10658.965565,-74.020594,-459.657299
3865.453648,-9326.594869,962.267725,0.000000
3865.453978,-8956.491898,296.082377,0.000000
3865.454308,-9918.759623,1332.370696,-612.876398
3865.454638,-11029.068536,222.061783,-919.314598
3865.454967,-10288.862594,296.082377,-536.266849
3865.455297,-9104.533087,1110.308913,306.438199
3865.455627,-10288.862594,222.061783,842.705048
3865.455957,-9474.636058,148.041188,689.485948
3865.456287,-9622.677246,0.000000,536.266849
3865.456616,-9992.780217,740.205942,-612.876398
3865.456946,-10436.903782,-592.164754,306.438199
3865.457276,-9770.718434,-888.247130,919.314598
3865.457606,-9474.636058,-222.061783,2145.067394
3865.457935,-8734.430116,1776.494261,2604.724693
3865.458265,-8808.450710,-370.102971,995.924147
3865.458595,-9474.636058,666.185348,153.219100
3865.458925,-9622.677246,0.000000,-153.219100
3865.459254,-10066.800811,962.267725,842.705048
3865.459584,-10584.944971,1628.453072,1225.752797
3865.459914,-11251.130318,1406.391290,766.095498
3865.460244,-10362.883188,962.267725,-612.876398
3865.460573,-10881.027347,370.102971,-1455.581446
3865.460903,-10436.903782,74.020594,-1762.019645
3865.461233,-10140.821405,148.041188,-1149.143247
3865.461563,-8142.265362,518.144159,0.000000
3865.461892,-8586.388927,-814.226536,842.705048
3865.462222,-9474.636058,74.020594,1455.581446
3865.462552,-10066.800811,0.000000,1685.410096
3865.462882,-9474.636058,-444.123565,229.828649
3865.463211,-9696.697840,-666.185348,612.876398
3865.463541,-10140.821405,-1184.329507,2298.286494
3865.463871,-10288.862594,-740.205942,4213.525239
3865.464201,-10732.986159,-222.061783,2987.772442
3865.464530,-10288.862594,-1332.370696,306.438199
3865.464860,-8660.409521,-592.164754,-1378.971896
3865.465190,-8438.347739,740.205942,-1532.190996
3865.465520,-9178.553681,74.020594,-1072.533697
3865.465849,-9474.636058,370.102971,-383.047749
3865.466179,-9548.656652,0.000000,153.219100
3865.466509,-8956.491898,592.164754,-689.485948
3865.466839,-9696.697840,74.020594,-1608.800546
3865.467168,-10584.944971,-74.020594,-1149.143247
3865.467498,-12139.377449,-222.061783,229.828649
3865.467828,-10807.006753,-592.164754,1378.971896
3865.468158,-9622.677246,-1850.514855,919.314598
3865.468487,-9992.780217,-1258.350101,1378.971896
3865.468817,-9030.512492,-1998.556043,1072.533697
3865.469147,-7920.203579,-1036.288319,229.828649
3865.469477,-7698.141797,-148.041188,-536.266849
3865.469806,-9104.533087,0.000000,-459.657299
3865.470136,-10510.924376,0.000000,153.219100
3865.470466,-10214.842000,888.247130,-153.219100
3865.470796,-10510.924376,0.000000,-383.047749
3865.471125,-11325.150913,0.000000,153.219100
3865.471455,-11029.068536,-74.020594,919.314598
3865.471785,-9696.697840,-518.144159,995.924147
3865.472115,-8364.327145,-148.041188,153.219100
3865.472444,-8512.368333,-222.061783,-766.095498
3865.472774,-9622.677246,814.226536,0.000000
3865.473104,-11103.089130,1258.350101,612.876398
3865.473434,-10732.986159,1332.370696,766.095498
3865.473763,-10214.842000,888.247130,0.000000
3865.474093,-11251.130318,962.267725,-1149.143247
3865.474423,-10881.027347,444.123565,-536.266849
3865.474753,-10881.027347,740.205942,-1225.752797
3865.475082,-9474.636058,0.000000,-459.657299
3865.475412,-9474.636058,-296.082377,0.000000
3865.475742,-9400.615463,0.000000,919.314598
3865.476072,-9548.656652,-296.082377,766.095498
3865.476401,-8882.471304,444.123565,1149.143247
3865.476731,-8882.471304,-518.144159,-306.438199
3865.477061,-8734.430116,0.000000,0.000000
3865.477391,-9474.636058,-296.082377,536.266849
3865.477720,-9992.780217,74.020594,1302.362347
3865.478050,-9104.533087,0.000000,1685.410096
3865.478380,-9252.574275,74.020594,1225.752797
3865.478710,-9548.656652,-814.226536,-76.609550
3865.479039,-9474.636058,0.000000,-229.828649
3865.479369,-9400.615463,-592.164754,689.485948
3865.479699,-10140.821405,444.123565,995.924147
3865.480029,-8216.285956,148.041188,306.438199
3865.480358,-8808.450710,222.061783,-383.047749
3865.480688,-9178.553681,962.267725,-306.438199
3865.481018,-10362.883188,888.247130,-766.095498
3865.481348,-10066.800811,1850.514855,-842.705048
3865.481677,-9696.697840,1036.288319,-536.266849
3865.482007,-10807.006753,592.164754,612.876398
3865.482337,-11473.192101,296.082377,1072.533697
3865.482667,-10584.944971,-74.020594,1302.362347
3865.482996,-10214.842000,-370.102971,995.924147
3865.483326,-8808.450710,0.000000,689.485948
3865.483656,-9696.697840,-666.185348,1225.752797
3865.483986,-10584.944971,444.123565,689.485948
3865.484316,-9252.574275,74.020594,0.000000
3865.484645,-9400.615463,666.185348,153.219100
3865.484975,-10140.821405,592.164754,383.047749
3865.485305,-11621.233289,222.061783,842.705048
3865.485635,-10362.883188,592.164754,1225.752797
3865.485964,-8660.409521,0.000000,76.609550
3865.486294,-9104.533087,0.000000,383.047749
3865.486624,-9770.718434,0.000000,76.609550
3865.486954,-10584.944971,518.144159,842.705048
3865.487283,-10584.944971,444.123565,919.314598
3865.487613,-10881.027347,666.185348,229.828649
3865.487943,-10955.047942,74.020594,459.657299
3865.488273,-10584.944971,-296.082377,383.047749
3865.488602,-9474.636058,-740.205942,0.000000
3865.488932,-8216.285956,-592.164754,76.609550
3865.489262,-9918.759623,-666.185348,-306.438199
3865.489592,-9918.759623,-444.123565,-1532.190996
3865.489921,-8438.347739,-1036.288319,-1149.143247
3865.490251,-9104.533087,-666.185348,153.219100
3865.490581,-9104.533087,-444.123565,1455.581446
3865.490911,-9844.739029,-740.205942,1302.362347
3865.491240,-9400.615463,-74.020594,1378.971896
3865.491570,-9474.636058,-222.061783,766.095498
3865.491900,-9474.636058,0.000000,1072.533697
3865.492230,-9622.677246,-814.226536,0.000000
3865.492559,-10436.903782,-222.061783,0.000000
3865.492889,-10214.842000,-1036.288319,459.657299
3865.493219,-8808.450710,0.000000,612.876398
3865.493549,-8586.388927,0.000000,-995.924147
3865.493878,-9326.594869,592.164754,-2145.067394
3865.494208,-8734.430116,1110.308913,-1762.019645
3865.494538,-9918.759623,1332.370696,-612.876398
3865.494868,-9918.759623,1776.494261,-689.485948
3865.495197,-10881.027347,1406.391290,-536.266849
3865.495527,-11473.192101,1702.473667,-689.485948
3865.495857,-10732.986159,370.102971,-1149.143247
3865.496187,-10510.924376,0.000000,-919.314598
3865.496516,-9622.677246,-74.020594,1455.581446
3865.496846,-10066.800811,0.000000,1762.019645
3865.497176,-9548.656652,0.000000,1532.190996
3865.497506,-8660.409521,-592.164754,306.438199
3865.497835,-9548.656652,-296.082377,0.000000
3865.498165,-9622.677246,444.123565,153.219100
3865.498495,-10584.944971,0.000000,1149.143247
3865.498825,-10140.821405,74.020594,1991.848295
3865.499154,-7994.224174,-370.102971,2298.286494
3865.499484,-9474.636058,148.041188,1762.019645
3865.499814,-10436.903782,148.041188,229.828649
3865.500144,-10955.047942,296.082377,383.047749
3865.500473,-10140.821405,296.082377,766.095498
3865.500803,-9030.512492,740.205942,153.219100
3865.501133,-10066.800811,888.247130,1378.971896
3865.501463,-11103.089130,1110.308913,1991.848295
3865.501792,-9474.636058,370.102971,0.000000
3865.502122,-8660.409521,592.164754,-1608.800546
3865.502452,-9326.594869,1036.288319,-2221.676944
3865.502782,-11177.109724,370.102971,-612.876398
3865.503111,-10362.883188,0.000000,536.266849
3865.503441,-9252.574275,-222.061783,612.876398
3865.503771,-9992.780217,0.000000,0.000000
3865.504101,-9992.780217,-1184.329507,-383.047749
3865.504430,-9326.594869,-814.226536,-229.828649
3865.504760,-7920.203579,-1036.288319,1149.143247
3865.505090,-9104.533087,0.000000,919.314598
3865.505420,-9474.636058,-518.144159,995.924147
3865.505749,-9474.636058,0.000000,76.609550
3865.506079,-9918.759623,-222.061783,229.828649
3865.506409,-10362.883188,-444.123565,0.000000
3865.506739,-9992.780217,-148.041188,76.609550
3865.507068,-9400.615463,-296.082377,689.485948
3865.507398,-8660.409521,-296.082377,1225.752797
3865.507728,-9474.636058,666.185348,689.485948
3865.508058,-10955.047942,1036.288319,0.000000
3865.508387,-11991.336260,962.267725,-1685.410096
3865.508717,-10881.027347,1332.370696,-1608.800546
3865.509047,-10288.862594,740.205942,-76.609550
3865.509377,-10436.903782,666.185348,689.485948
3865.509706,-9474.636058,222.061783,153.219100
3865.510036,-9696.697840,666.185348,-842.705048
3865.510366,-9474.636058,518.144159,-1762.019645
3865.510696,-10955.047942,296.082377,-1455.581446
3865.511025,-10732.986159,-444.123565,-383.047749
3865.511355,-9992.780217,-296.082377,1149.143247
3865.511685,-8512.368333,-74.020594,2451.505594
3865.512015,-8438.347739,-740.205942,1838.629195
3865.512344,-8956.491898,-962.267725,689.485948
3865.512674,-9178.553681,-962.267725,76.609550
3865.513004,-9178.553681,-148.041188,1455.581446
3865.513334,-8734.430116,0.000000,2757.943793
3865.513663,-9844.739029,518.144159,2911.162892
3865.513993,-10214.842000,74.020594,2298.286494
3865.514323,-9474.636058,518.144159,459.657299
3865.514653,-9844.739029,148.041188,-842.705048
3865.514982,-10510.924376,814.226536,-1072.533697
3865.515312,-10214.842000,370.102971,-459.657299
3865.515642,-9844.739029,1258.350101,229.828649
3865.515972,-8882.471304,888.247130,76.609550
3865.516301,-9770.718434,1184.329507,-536.266849
3865.516631,-10807.006753,1110.308913,-2528.115143
3865.516961,-10732.986159,370.102971,-2528.115143
3865.517291,-9696.697840,74.020594,-1378.971896
3865.517620,-8734.430116,-444.123565,612.876398
3865.517950,-8956.491898,-370.102971,1608.800546
3865.518280,-10214.842000,-740.205942,1378.971896
3865.518610,-10066.800811,0.000000,229.828649
3865.518939,-9696.697840,296.082377,229.828649
3865.519269,-11029.068536,592.164754,459.657299
3865.519599,-10807.006753,-370.102971,919.314598
3865.519929,-10214.842000,-740.205942,1455.581446
3865.520258,-9474.636058,-444.123565,842.705048
3865.520588,-9400.615463,-1184.329507,76.609550
3865.520918,-7402.059420,-1332.370696,-1378.971896
3865.521248,-7105.977043,-1110.308913,-1072.533697
3865.521577,-8068.244768,0.000000,766.095498
3865.521907,-10362.883188,666.185348,1532.190996
3865.522237,-11769.274478,518.144159,383.047749
3865.522567,-11251.130318,0.000000,0.000000
3865.522896,-10436.903782,74.020594,153.219100
3865.523226,-10658.965565,-444.123565,612.876398
3865.523556,-10881.027347,-148.041188,995.924147
3865.523886,-9844.739029,-296.082377,306.438199
3865.524215,-8956.491898,444.123565,-842.705048
3865.524545,-8882.471304,0.000000,-2298.286494
3865.524875,-10362.883188,1110.308913,-1225.752797
3865.525205,-9696.697840,148.041188,-383.047749
3865.525534,-9030.512492,-222.061783,536.266849
3865.525864,-9252.574275,-518.144159,1455.581446
3865.526194,-10066.800811,-370.102971,1838.629195
3865.526524,-9844.739029,-666.185348,459.657299
3865.526853,-9918.759623,-1110.308913,766.095498
3865.527183,-10066.800811,-370.102971,1378.971896
3865.527513,-10066.800811,-370.102971,2221.676944
3865.527843,-9030.512492,0.000000,1149.143247
3865.528172,-8808.450710,-296.082377,-153.219100
3865.528502,-10066.800811,444.123565,-153.219100
3865.528832,-10881.027347,370.102971,0.000000
3865.529162,-9918.759623,518.144159,-842.705048
3865.529491,-8216.285956,592.164754,-536.266849
3865.529821,-8438.347739,296.082377,-689.485948
3865.530151,-9844.739029,740.205942,536.266849
3865.530481,-10362.883188,370.102971,842.705048
3865.530810,-10362.883188,666.185348,766.095498
3865.531140,-10732.986159,370.102971,1225.752797
3865.531470,-11547.212695,740.205942,1149.143247
3865.531800,-10732.986159,-74.020594,1149.143247
3865.532129,-9474.636058,740.205942,0.000000
3865.532459,-9104.533087,148.041188,0.000000
3865.532789,-10066.800811,962.267725,-536.266849
3865.533119,-9918.759623,370.102971,-612.876398
3865.533448,-9474.636058,518.144159,-153.219100
3865.533778,-8216.285956,518.144159,-153.219100
3865.534108,-9770.718434,222.061783,0.000000
3865.534438,-9992.780217,0.000000,612.876398
3865.534767,-9770.718434,-148.041188,995.924147
3865.535097,-9178.553681,0.000000,1762.019645
3865.535427,-10066.800811,-296.082377,2374.896044
3865.535757,-10510.924376,518.144159,1991.848295
3865.536086,-9474.636058,0.000000,612.876398
3865.536416,-9252.574275,1406.391290,-1455.581446
3865.536746,-10436.903782,0.000000,-1225.752797
3865.537076,-10955.047942,0.000000,-842.705048
3865.537405,-9770.718434,0.000000,0.000000
3865.537735,-8956.491898,148.041188,0.000000
3865.538065,-8660.409521,0.000000,-1302.362347
3865.538395,-9252.574275,0.000000,-2221.676944
3865.538724,-9770.718434,222.061783,-1685.410096
3865.539054,-10584.944971,666.185348,-383.047749
3865.539384,-11399.171507,-296.082377,1225.752797
3865.539714,-10584.944971,-740.205942,2604.724693
3865.540043,-9400.615463,-1628.453072,2068.457845
3865.540373,-8512.368333,-1332.370696,459.657299
3865.540703,-9030.512492,-518.144159,0.000000
3865.541033,-9696.697840,-666.185348,-459.657299
3865.541362,-9326.594869,222.061783,76.609550
3865.541692,-9400.615463,740.205942,612.876398
3865.542022,-9844.739029,74.020594,612.876398
3865.542352,-10140.821405,-222.061783,-306.438199
3865.542681,-9474.636058,-592.164754,-383.047749
3865.543011,-9622.677246,-592.164754,-76.609550
3865.543341,-9918.759623,592.164754,536.266849
3865.543671,-9622.677246,0.000000,1608.800546
3865.544000,-10214.842000,962.267725,919.314598
3865.544330,-9844.739029,740.205942,612.876398
3865.544660,-11029.068536,222.061783,1608.800546
3865.544990,-10732.986159,814.226536,1608.800546
3865.545319,-10214.842000,0.000000,842.705048
3865.545649,-10066.800811,0.000000,459.657299
3865.545979,-10214.842000,-296.082377,306.438199
3865.546308,-9400.615463,0.000000,459.657299
3865.546638,-8882.471304,0.000000,919.314598
3865.546968,-9030.512492,1554.432478,766.095498
3865.547298,-8882.471304,74.020594,612.876398
3865.547627,-10214.842000,888.247130,2298.286494
3865.547957,-10510.924376,0.000000,2374.896044
3865.548287,-10584.944971,0.000000,2298.286494
3865.548617,-8956.491898,222.061783,1532.190996
3865.548946,-8142.265362,666.185348,2374.896044
3865.549276,-8808.450710,1110.308913,2757.943793
3865.549606,-10658.965565,1924.535449,2911.162892
3865.549936,-11251.130318,1850.514855,2681.334243
3865.550265,-10732.986159,1998.556043,2068.457845
3865.550595,-9844.739029,2886.803174,995.924147
3865.550925,-10362.883188,1998.556043,536.266849
3865.551255,-10436.903782,2516.700203,536.266849
3865.551584,-9252.574275,2442.679609,0.000000
3865.551914,-8512.368333,2368.659014,306.438199
3865.552244,-8956.491898,2220.617826,459.657299
3865.552574,-10807.006753,2812.782580,1991.848295
3865.552903,-10510.924376,2886.803174,3140.991542
3865.553233,-10732.986159,1924.535449,2451.505594
3865.553563,-9918.759623,1184.329507,2757.943793
3865.553893,-9400.615463,1554.432478,3524.039291
3865.554222,-10140.821405,2516.700203,3064.381992
3865.554552,-8364.327145,2220.617826,2145.067394
3865.554882,-8438.347739,2072.576638,2757.943793
3865.555212,-8882.471304,2664.741391,3600.648841
3865.555541,-11251.130318,3034.844362,2834.553343
3865.555871,-11843.295072,3256.906145,2911.162892
3865.556201,-10214.842000,2368.659014,1685.410096
3865.556531,-9474.636058,3182.885551,1762.019645
3865.556860,-8364.327145,2590.720797,1225.752797
3865.557190,-9548.656652,3552.988522,1149.143247
3865.557520,-8808.450710,4663.297435,1685.410096
3865.557850,-9400.615463,3182.885551,2451.505594
3865.558179,-9918.759623,4293.194464,3753.867940
3865.558509,-11399.171507,3404.947333,3983.696590
3865.558839,-12065.356855,2442.679609,3217.601092
3865.559169,-9400.615463,2072.576638,2374.896044
3865.559498,-9030.512492,1554.432478,1838.629195
3865.559828,-9104.533087,1554.432478,2145.067394
3865.560158,-8734.430116,1628.453072,2757.943793
3865.560488,-8586.388927,2886.803174,3907.087040
3865.560817,-10066.800811,3627.009116,2528.115143
3865.561147,-11029.068536,3701.029710,1838.629195
3865.561477,-11029.068536,3256.906145,612.876398
3865.561807,-9844.739029,2072.576638,1302.362347
3865.562136,-9770.718434,2220.617826,3217.601092
3865.562466,-11251.130318,1924.535449,2604.724693
3865.562796,-9548.656652,814.226536,1225.752797
3865.563126,-8882.471304,1628.453072,612.876398
3865.563455,-7698.141797,1702.473667,229.828649
3865.563785,-9030.512492,1776.494261,1685.410096
3865.564115,-9474.636058,3108.864956,2834.553343
3865.564445,-8364.327145,1998.556043,4443.353888
3865.564774,-9992.780217,2738.761985,5056.230287
3865.565104,-10066.800811,2886.803174,2987.772442
3865.565434,-11251.130318,1554.432478,2298.286494
3865.565764,-11917.315666,1554.432478,1532.190996
3865.566093,-10140.821405,2220.617826,1915.238745
3865.566423,-9622.677246,592.164754,2528.115143
3865.566753,-9326.594869,1406.391290,1072.533697
3865.567083,-8216.285956,1924.535449,-306.438199
3865.567412,-7920.203579,1332.370696,919.314598
3865.567742,-8808.450710,2442.679609,1072.533697
3865.568072,-9178.553681,1702.473667,3064.381992
3865.568402,-9474.636058,2146.597232,5209.449386
3865.568731,-10436.903782,3034.844362,5439.278036
3865.569061,-11177.109724,1554.432478,3830.477490
3865.569391,-11399.171507,2072.576638,2298.286494
3865.569721,-11769.274478,1924.535449,1225.752797
3865.570050,-10658.965565,1110.308913,2298.286494
3865.570380,-9696.697840,1924.535449,2757.943793
3865.570710,-9770.718434,2368.659014,2451.505594
3865.571040,-8882.471304,1406.391290,1762.019645
3865.571369,-8586.388927,2368.659014,383.047749
3865.571699,-8882.471304,1406.391290,612.876398
3865.572029,-9326.594869,740.205942,2298.286494
3865.572359,-8956.491898,1110.308913,3294.210641
3865.572688,-9030.512492,592.164754,4519.963438
3865.573018,-9030.512492,1628.453072,4136.915689
3865.573348,-10362.883188,1702.473667,3140.991542
3865.573678,-11103.089130,1628.453072,2145.067394
3865.574007,-11473.192101,2072.576638,1991.848295
3865.574337,-10288.862594,1924.535449,1915.238745
3865.574667,-8216.285956,1554.432478,3524.039291
3865.574997,-8586.388927,2590.720797,3600.648841
3865.575326,-9252.574275,2072.576638,2145.067394
3865.575656,-8660.409521,1924.535449,306.438199
3865.575986,-9178.553681,1850.514855,536.266849
3865.576316,-9548.656652,1924.535449,995.924147
3865.576645,-9548.656652,2294.638420,2451.505594
3865.576975,-10066.800811,1850.514855,2145.067394
3865.577305,-9622.677246,2072.576638,2451.505594
3865.577635,-9474.636058,1850.514855,1838.629195
3865.577964,-10436.903782,2072.576638,1302.362347
3865.578294,-9622.677246,1702.473667,3140.991542
3865.578624,-9400.615463,2812.782580,5592.497135
3865.578954,-8882.471304,2442.679609,4749.792088
3865.579283,-9474.636058,3330.926739,3294.210641
3865.579613,-9844.739029,3108.864956,2374.896044
3865.579943,-10288.862594,3849.070898,1762.019645
3865.580273,-11325.150913,3849.070898,1762.019645
3865.580602,-11843.295072,3997.112087,766.095498
3865.580932,-10955.047942,3997.112087,1455.581446
3865.581262,-10732.986159,4219.173869,2604.724693
3865.581592,-10955.047942,3923.091493,1302.362347
3865.581921,-10214.842000,2516.700203,842.705048
3865.582251,-8438.347739,1924.535449,2145.067394
3865.582581,-8882.471304,2146.597232,4519.963438
3865.582911,-9104.533087,2664.741391,5975.544884
3865.583240,-10436.903782,2442.679609,4826.401637
3865.583570,-8956.491898,2146.597232,2221.676944
3865.583900,-9548.656652,2516.700203,1608.800546
3865.584230,-11325.150913,2960.823768,2145.067394
3865.584559,-12657.521608,2664.741391,2834.553343
3865.584889,-10584.944971,2960.823768,2451.505594
3865.585219,-8438.347739,2072.576638,919.314598
3865.585549,-8586.388927,2368.659014,459.657299
3865.585878,-8882.471304,1776.494261,383.047749
3865.586208,-9474.636058,1628.453072,459.657299
3865.586538,-7476.080014,1628.453072,1149.143247
3865.586868,-7550.100608,1554.432478,1762.019645
3865.587197,-7698.141797,2220.617826,2068.457845
3865.587527,-9400.615463,1258.350101,2374.896044
3865.587857,-10658.965565,2368.659014,1915.238745
3865.588187,-9400.615463,1702.473667,1149.143247
3865.588516,-10140.821405,2146.597232,1378.971896
3865.588846,-9400.615463,2146.597232,3140.991542
3865.589176,-11177.109724,2072.576638,4749.792088
3865.589506,-11843.295072,2368.659014,4673.182538
3865.589835,-9548.656652,1702.473667,1455.581446
3865.590165,-8512.368333,962.267725,0.000000
3865.590495,-9400.615463,1776.494261,306.438199
3865.590825,-10066.800811,2368.659014,2834.553343
3865.591154,-10288.862594,2368.659014,3600.648841
3865.591484,-9474.636058,2738.761985,995.924147
3865.591814,-8956.491898,1998.556043,995.924147
3865.592144,-11547.212695,2368.659014,2221.676944
3865.592473,-11695.253884,2220.617826,3524.039291
3865.592803,-9992.780217,1702.473667,5286.058936
3865.593133,-10214.842000,2294.638420,5745.716235
3865.593463,-10658.965565,2146.597232,5209.449386
3865.593792,-10955.047942,1480.411884,4519.963438
3865.594122,-10732.986159,2368.659014,1915.238745
3865.594452,-10288.862594,1480.411884,306.438199
3865.594782,-9326.594869,814.226536,2374.896044
3865.595111,-8660.409521,2220.617826,3217.601092
3865.595441,-8956.491898,1480.411884,3294.210641
3865.595771,-7698.141797,1702.473667,2068.457845
3865.596101,-8660.409521,1406.391290,-229.828649
3865.596430,-9030.512492,444.123565,153.219100
3865.596760,-9474.636058,1258.350101,2911.162892
3865.597090,-9178.553681,1258.350101,5362.668486
3865.597420,-9030.512492,814.226536,6281.983084
3865.597749,-9252.574275,2368.659014,4290.134789
3865.598079,-10140.821405,2368.659014,1149.143247
3865.598409,-10881.027347,2812.782580,-383.047749
3865.598739,-11325.150913,2960.823768,153.219100
3865.599068,-9548.656652,2738.761985,1532.190996
3865.599397,-9104.533087,2294.638420,1915.238745
3865.599727,-9400.615463,1924.535449,766.095498
3865.600057,-9326.594869,1702.473667,612.876398
3865.600387,-8512.368333,1480.411884,459.657299
3865.600717,-8438.347739,2294.638420,383.047749
3865.601047,-9252.574275,2072.576638,1455.581446
3865.601376,-10584.944971,3552.988522,3217.601092
3865.601706,-11621.233289,2960.823768,3370.820191
3865.602036,-11103.089130,2960.823768,2911.162892
3865.602366,-11251.130318,2738.761985,1685.410096
3865.602696,-11917.315666,2516.700203,1838.629195
3865.603026,-11103.089130,2886.803174,2681.334243
3865.603356,-9474.636058,2664.741391,2834.553343
3865.603686,-8068.244768,2590.720797,2451.505594
3865.604015,-8512.368333,2516.700203,2145.067394
3865.604345,-10288.862594,3256.906145,2068.457845
3865.604675,-10658.965565,3701.029710,1838.629195
3865.605005,-11103.089130,3256.906145,766.095498
3865.605335,-10807.006753,2368.659014,76.609550
3865.605665,-10214.842000,1924.535449,76.609550
3865.605995,-9548.656652,814.226536,1302.362347
3865.606325,-7624.121203,444.123565,2528.115143
3865.606654,-7254.018232,666.185348,4519.963438
3865.606984,-7402.059420,592.164754,4519.963438
3865.607314,-8142.265362,1850.514855,3983.696590
3865.607644,-8956.491898,2590.720797,2911.162892
3865.607974,-10436.903782,2442.679609,2298.286494
3865.608304,-11621.233289,3034.844362,2451.505594
3865.608634,-11399.171507,2812.782580,2604.724693
3865.608964,-10955.047942,1924.535449,2451.505594
3865.609293,-9326.594869,2072.576638,1915.238745
3865.609623,-8660.409521,1406.391290,1225.752797
3865.609953,-9252.574275,1258.350101,1838.629195
3865.610283,-8734.430116,2220.617826,2604.724693
3865.610613,-8586.388927,2220.617826,3983.696590
3865.610943,-9548.656652,2590.720797,4136.915689
3865.611273,-10066.800811,2812.782580,3294.210641
3865.611603,-10881.027347,1850.514855,1608.800546
3865.611932,-11177.109724,1850.514855,1302.362347
3865.612262,-11103.089130,1628.453072,2451.505594
3865.612592,-10362.883188,1554.432478,3140.991542
3865.612922,-9918.759623,1332.370696,3524.039291
3865.613252,-8586.388927,1628.453072,2604.724693
3865.613582,-9104.533087,2072.576638,1991.848295
3865.613912,-10140.821405,2590.720797,1685.410096
3865.614242,-10214.842000,2812.782580,2145.067394
3865.614571,-10732.986159,2220.617826,1915.238745
3865.614901,-10362.883188,2368.659014,1838.629195
3865.615231,-10584.944971,1480.411884,919.314598
3865.615561,-9548.656652,1332.370696,76.609550
3865.615891,-9474.636058,740.205942,-459.657299
3865.616221,-9474.636058,444.123565,306.438199
3865.616551,-9326.594869,0.000000,2834.553343
3865.616881,-9104.533087,74.020594,4136.915689
3865.617210,-9030.512492,74.020594,3447.429741
3865.617540,-9030.512492,0.000000,1991.848295
3865.617870,-8882.471304,74.020594,1455.581446
3865.618200,-9474.636058,148.041188,1455.581446
3865.618530,-9622.677246,444.123565,1991.848295
3865.618860,-9474.636058,370.102971,1608.800546
3865.619190,-9696.697840,518.144159,919.314598
3865.619520,-9400.615463,740.205942,612.876398
3865.619849,-10066.800811,1110.308913,1302.362347
3865.620179,-9992.780217,1110.308913,1302.362347
3865.620509,-9770.718434,814.226536,1455.581446
3865.620839,-9104.533087,592.164754,1838.629195
3865.621169,-8808.450710,592.164754,1685.410096
3865.621499,-9622.677246,666.185348,1915.238745
3865.621829,-10214.842000,370.102971,1685.410096
3865.622159,-10066.800811,518.144159,1762.019645
3865.622488,-8882.471304,296.082377,2374.896044
3865.622818,-9326.594869,1184.329507,3217.601092
3865.623148,-9622.677246,1406.391290,4290.134789
3865.623478,-9696.697840,1776.494261,4443.353888
3865.623808,-10140.821405,2738.761985,3600.648841
3865.624138,-10362.883188,2886.803174,2528.115143
3865.624468,-11547.212695,3256.906145,1991.848295
3865.624798,-11399.171507,2812.782580,1838.629195
3865.625127,-10732.986159,2812.782580,1838.629195
3865.625457,-9770.718434,2368.659014,2298.286494
3865.625787,-9474.636058,2664.741391,2451.505594
3865.626117,-8660.409521,2590.720797,3447.429741
3865.626447,-8512.368333,3108.864956,4443.353888
3865.626777,-9178.553681,3701.029710,4519.963438
3865.627107,-10362.883188,3923.091493,4290.134789
3865.627437,-11177.109724,4145.153275,3983.696590
3865.627766,-11325.150913,3404.947333,3830.477490
3865.628096,-10807.006753,3108.864956,3600.648841
3865.628426,-10066.800811,3108.864956,3370.820191
3865.628756,-9770.718434,3330.926739,3600.648841
3865.629086,-8956.491898,3701.029710,2987.772442
3865.629416,-8586.388927,3701.029710,1915.238745
3865.629746,-8364.327145,3923.091493,2528.115143
3865.630076,-8956.491898,4367.215058,3294.210641
3865.630405,-9844.739029,4885.359217,3753.867940
3865.630735,-9770.718434,4737.318029,4060.306139
3865.631065,-10140.821405,4737.318029,3370.820191
3865.631395,-10658.965565,4515.256246,3064.381992
3865.631725,-10732.986159,4367.215058,2221.676944
3865.632055,-10807.006753,4293.194464,1762.019645
3865.632385,-9696.697840,4145.153275,2145.067394
3865.632715,-9104.533087,4293.194464,2451.505594
3865.633044,-8808.450710,3775.050304,2451.505594
3865.633374,-9030.512492,3849.070898,2374.896044
3865.633704,-8882.471304,3701.029710,1915.238745
3865.634034,-8290.306550,3775.050304,1455.581446
3865.634364,-8586.388927,3923.091493,2298.286494
3865.634694,-9326.594869,3923.091493,3140.991542
3865.635024,-10288.862594,4219.173869,2451.505594
3865.635354,-10732.986159,4515.256246,612.876398
3865.635683,-10881.027347,4071.132681,-689.485948
3865.636013,-10584.944971,3775.050304,-306.438199
3865.636343,-10510.924376,3034.844362,919.314598
3865.636673,-10140.821405,2664.741391,2528.115143
3865.637003,-8882.471304,2442.679609,2298.286494
3865.637333,-7624.121203,2442.679609,612.876398
3865.637663,-7994.224174,2960.823768,995.924147
3865.637993,-8882.471304,2442.679609,842.705048
3865.638322,-10214.842000,3034.844362,1838.629195
3865.638652,-10140.821405,2886.803174,2834.553343
3865.638982,-10140.821405,2516.700203,3064.381992
3865.639312,-11103.089130,2220.617826,2757.943793
3865.639642,-11399.171507,1776.494261,2298.286494
3865.639972,-10436.903782,1480.411884,1072.533697
3865.640302,-9474.636058,1702.473667,2221.676944
3865.640632,-9326.594869,1110.308913,2681.334243
3865.640961,-9252.574275,1628.453072,4136.915689
3865.641291,-9400.615463,962.267725,3370.820191
3865.641621,-8882.471304,1480.411884,2528.115143
3865.641951,-9474.636058,1332.370696,995.924147
3865.642281,-9844.739029,1480.411884,1225.752797
3865.642611,-10955.047942,1110.308913,2528.115143
3865.642941,-10881.027347,1480.411884,3677.258390
3865.643271,-10066.800811,296.082377,2911.162892
3865.643600,-10732.986159,0.000000,1991.848295
3865.643930,-10436.903782,-296.082377,919.314598
3865.644260,-9844.739029,-888.247130,2757.943793
3865.644590,-9992.780217,-740.205942,3600.648841
3865.644920,-8660.409521,-444.123565,3600.648841
3865.645250,-8660.409521,-1702.473667,2374.896044
3865.645580,-8142.265362,0.000000,612.876398
3865.645910,-9252.574275,-666.185348,536.266849
3865.646239,-10881.027347,-592.164754,1225.752797
3865.646569,-9844.739029,-666.185348,383.047749
3865.646899,-9622.677246,-1258.350101,2145.067394
3865.647229,-9918.759623,-962.267725,2987.772442
3865.647559,-10066.800811,-814.226536,2528.115143
3865.647889,-8512.368333,-666.185348,2221.676944
3865.648219,-7920.203579,-888.247130,1455.581446
3865.648549,-8586.388927,370.102971,2681.334243
3865.648878,-9770.718434,888.247130,4366.744339
3865.649208,-11103.089130,1776.494261,3524.039291
3865.649538,-10732.986159,1258.350101,1532.190996
3865.649868,-10066.800811,1702.473667,383.047749
3865.650198,-10955.047942,2072.576638,306.438199
3865.650528,-10362.883188,1628.453072,2221.676944
3865.650858,-9918.759623,1998.556043,2987.772442
3865.651188,-9326.594869,2072.576638,2911.162892
3865.651517,-8956.491898,2072.576638,2451.505594
3865.651847,-9844.739029,2442.679609,1838.629195
3865.652177,-10362.883188,2368.659014,3064.381992
3865.652507,-9400.615463,1702.473667,4519.963438
3865.652837,-9548.656652,2590.720797,6052.154434
3865.653167,-9474.636058,3256.906145,5745.716235
3865.653497,-9918.759623,3627.009116,4596.572988
3865.653827,-10658.965565,4663.297435,4060.306139
3865.654156,-10732.986159,4737.318029,2145.067394
3865.654486,-11325.150913,5255.462188,1838.629195
3865.654816,-10436.903782,5107.421000,2298.286494
3865.655146,-9918.759623,4515.256246,3677.258390
3865.655476,-9918.759623,4515.256246,3370.820191
3865.655806,-8956.491898,3923.091493,1991.848295
3865.656136,-8068.244768,4145.153275,1608.800546
3865.656466,-8734.430116,4885.359217,2068.457845
3865.656795,-9770.718434,4737.318029,3217.601092
3865.657125,-10288.862594,4885.359217,3140.991542
3865.657455,-10362.883188,4737.318029,2145.067394
3865.657785,-10288.862594,4071.132681,1532.190996
3865.658115,-10807.006753,4293.194464,1685.410096
3865.658445,-10881.027347,2960.823768,1532.190996
3865.658775,-9622.677246,3182.885551,1455.581446
3865.659105,-7772.162391,2738.761985,766.095498
3865.659434,-7328.038826,2368.659014,-229.828649
3865.659764,-8438.347739,3182.885551,689.485948
3865.660094,-8142.265362,3182.885551,995.924147
3865.660424,-7994.224174,3182.885551,995.924147
3865.660754,-8438.347739,3923.091493,1225.752797
3865.661084,-9918.759623,4071.132681,1378.971896
3865.661414,-10732.986159,3627.009116,2298.286494
3865.661744,-10955.047942,3627.009116,2221.676944
3865.662073,-11917.315666,3849.070898,2757.943793
3865.662403,-10881.027347,4219.173869,2604.724693
3865.662733,-10881.027347,3701.029710,1532.190996
3865.663063,-10140.821405,3256.906145,0.000000
3865.663393,-9252.574275,2812.782580,383.047749
3865.663723,-9252.574275,3108.864956,1532.190996
3865.664053,-8808.450710,2516.700203,1838.629195
3865.664383,-8142.265362,2738.761985,2911.162892
3865.664712,-8660.409521,2294.638420,2987.772442
3865.665042,-9252.574275,2146.597232,3140.991542
3865.665372,-10214.842000,1998.556043,3140.991542
3865.665702,-11547.212695,1628.453072,3524.039291
3865.666032,-10807.006753,962.267725,4519.963438
3865.666362,-10658.965565,1110.308913,5439.278036
3865.666692,-11251.130318,1332.370696,4673.182538
3865.667022,-11473.192101,666.185348,1991.848295
3865.667351,-10214.842000,592.164754,459.657299
3865.667681,-9252.574275,-74.020594,1149.143247
3865.668011,-9030.512492,296.082377,1225.752797
3865.668341,-8216.285956,-1110.308913,2298.286494
3865.668671,-8216.285956,-592.164754,1838.629195
3865.669001,-7624.121203,-444.123565,1608.800546
3865.669331,-8586.388927,-888.247130,995.924147
3865.669661,-9400.615463,-888.247130,1685.410096
3865.669990,-9918.759623,-962.267725,5209.449386
3865.670320,-10658.965565,-962.267725,7814.174080
3865.670650,-9992.780217,0.000000,7124.688131
3865.670980,-10362.883188,74.020594,5132.839837
3865.671310,-11103.089130,370.102971,2681.334243
3865.671640,-10436.903782,592.164754,1302.362347
3865.671970,-9474.636058,444.123565,2374.896044
3865.672300,-8142.265362,2294.638420,2757.943793
3865.672629,-8290.306550,2442.679609,2987.772442
3865.672959,-9400.615463,1998.556043,1608.800546
3865.673289,-9918.759623,2590.720797,536.266849
3865.673619,-11177.109724,2294.638420,229.828649
3865.673949,-11917.315666,1924.535449,1378.971896
3865.674279,-10732.986159,1406.391290,2911.162892
3865.674609,-9696.697840,222.061783,5286.058936
3865.674939,-9252.574275,1258.350101,4903.011187
3865.675268,-9548.656652,1036.288319,2451.505594
3865.675598,-9548.656652,370.102971,1149.143247
3865.675928,-8808.450710,1998.556043,383.047749
3865.676258,-9696.697840,814.226536,1302.362347
3865.676588,-10288.862594,2516.700203,1838.629195
3865.676918,-10955.047942,1628.453072,612.876398
3865.677248,-10584.944971,2220.617826,-2068.457845
3865.677578,-8808.450710,1702.473667,-4366.744339
3865.677907,-10066.800811,1924.535449,-4213.525239
3865.678237,-9474.636058,1258.350101,-766.095498
3865.678567,-9474.636058,1332.370696,1685.410096
3865.678897,-7920.203579,1036.288319,2834.553343
3865.679227,-7105.977043,1998.556043,2987.772442
3865.679557,-9178.553681,1406.391290,2221.676944
3865.679887,-9696.697840,1480.411884,1838.629195
3865.680217,-9252.574275,2516.700203,1685.410096
3865.680546,-9178.553681,2664.741391,2911.162892
3865.680876,-9992.780217,3108.864956,3907.087040
3865.681206,-11991.336260,4441.235652,3600.648841
3865.681536,-11251.130318,3478.967927,1072.533697
3865.681866,-9326.594869,3478.967927,-1072.533697
3865.682196,-9474.636058,4071.132681,-1302.362347
3865.682526,-9696.697840,4219.173869,0.000000
3865.682856,-9844.739029,4293.194464,0.000000
3865.683185,-10140.821405,3478.967927,-536.266849
3865.683515,-9992.780217,2368.659014,-766.095498
3865.683845,-11103.089130,2368.659014,76.609550
3865.684175,-10658.965565,1628.453072,229.828649
3865.684505,-10066.800811,1480.411884,1302.362347
3865.684835,-9400.615463,1110.308913,1378.971896
3865.685165,-8364.327145,740.205942,1149.143247
3865.685495,-9992.780217,592.164754,919.314598
3865.685824,-10436.903782,888.247130,1072.533697
3865.686154,-9326.594869,-444.123565,995.924147
3865.686484,-8438.347739,74.020594,1762.019645
3865.686814,-7624.121203,74.020594,2528.115143
3865.687144,-8364.327145,-740.205942,1915.238745
3865.687474,-8808.450710,74.020594,1302.362347
3865.687804,-9918.759623,518.144159,1072.533697
3865.688134,-10288.862594,1184.329507,459.657299
3865.688463,-9918.759623,1924.535449,919.314598
3865.688793,-11843.295072,1998.556043,1762.019645
3865.689123,-12435.459826,2664.741391,2145.067394
3865.689453,-12065.356855,1628.453072,-995.924147
3865.689783,-9844.739029,444.123565,-3140.991542
3865.690113,-9400.615463,222.061783,-2681.334243
3865.690443,-10510.924376,0.000000,229.828649
3865.690773,-10140.821405,-1406.391290,1685.410096
3865.691102,-9474.636058,-222.061783,2068.457845
3865.691432,-8660.409521,-814.226536,689.485948
3865.691762,-9992.780217,-740.205942,-842.705048
3865.692092,-11251.130318,-1110.308913,-842.705048
3865.692422,-10436.903782,-1554.432478,229.828649
3865.692752,-8956.491898,-2516.700203,2298.286494
3865.693082,-8660.409521,-3108.864956,3907.087040
3865.693412,-8660.409521,-2738.761985,4519.963438
3865.693741,-7994.224174,-3256.906145,2987.772442
3865.694071,-7179.997637,-2368.659014,919.314598
3865.694401,-9252.574275,-1184.329507,612.876398
3865.694731,-12139.377449,0.000000,1838.629195
3865.695061,-11547.212695,814.226536,1225.752797
3865.695391,-10658.965565,888.247130,0.000000
3865.695721,-11325.150913,962.267725,-995.924147
3865.696051,-11473.192101,592.164754,-2145.067394
3865.696380,-10807.006753,-148.041188,-2604.724693
3865.696710,-9178.553681,-370.102971,-3524.039291
3865.697040,-8142.265362,-962.267725,-2374.896044
3865.697370,-9326.594869,-444.123565,-995.924147
3865.697700,-9992.780217,74.020594,-1225.752797
3865.698030,-10658.965565,-962.267725,-1838.629195
3865.698360,-10362.883188,-1036.288319,-1225.752797
3865.698690,-9918.759623,-2220.617826,-1149.143247
3865.699019,-8364.327145,-2960.823768,-612.876398
3865.699349,-7994.224174,-2738.761985,536.266849
3865.699679,-8364.327145,-2960.823768,2298.286494
3865.700009,-7550.100608,-3182.885551,2145.067394
3865.700339,-8142.265362,-1406.391290,-766.095498
3865.700669,-9918.759623,-1332.370696,-842.705048
3865.700998,-10214.842000,-518.144159,-153.219100
3865.701328,-9178.553681,0.000000,536.266849
3865.701658,-8956.491898,-592.164754,1762.019645
3865.701988,-10214.842000,518.144159,2374.896044
3865.702318,-11325.150913,666.185348,1915.238745
3865.702648,-10436.903782,370.102971,612.876398
3865.702977,-9918.759623,1554.432478,-536.266849
3865.703307,-9992.780217,1628.453072,-229.828649
3865.703637,-11917.315666,2146.597232,-76.609550
3865.703967,-12213.398043,2886.803174,-306.438199
3865.704297,-12139.377449,2368.659014,-1685.410096
3865.704627,-11103.089130,1998.556043,-3677.258390
3865.704957,-11029.068536,814.226536,-2834.553343
3865.705286,-9918.759623,-592.164754,-919.314598
3865.705616,-8586.388927,222.061783,0.000000
3865.705946,-8290.306550,-666.185348,76.609550
3865.706276,-9030.512492,0.000000,383.047749
3865.706606,-9474.636058,-444.123565,76.609550
3865.706936,-9548.656652,-1702.473667,766.095498
3865.707265,-8660.409521,-1480.411884,1608.800546
3865.707595,-8438.347739,-1332.370696,2911.162892
3865.707925,-8142.265362,-2146.597232,4060.306139
3865.708255,-8216.285956,-592.164754,3600.648841
3865.708585,-9178.553681,-814.226536,1532.190996
3865.708915,-9400.615463,296.082377,-306.438199
3865.709245,-9844.739029,592.164754,-919.314598
3865.709574,-7994.224174,-592.164754,76.609550
3865.709904,-8068.244768,1036.288319,1762.019645
3865.710234,-9622.677246,1776.494261,2451.505594
3865.710564,-11399.171507,1036.288319,689.485948
3865.710894,-10510.924376,2072.576638,-919.314598
3865.711224,-11177.109724,2368.659014,-1915.238745
3865.711553,-12805.562797,3330.926739,-2374.896044
3865.711883,-13397.727550,2960.823768,-2528.115143
3865.712213,-11399.171507,2960.823768,-2298.286494
3865.712543,-9252.574275,2146.597232,-2298.286494
3865.712873,-9770.718434,1406.391290,-2374.896044
3865.713203,-9548.656652,592.164754,-2681.334243
3865.713533,-9030.512492,592.164754,-1072.533697
3865.713862,-9326.594869,1184.329507,-536.266849
3865.714192,-8660.409521,370.102971,995.924147
3865.714522,-9474.636058,-518.144159,2068.457845
3865.714852,-9400.615463,-1776.494261,2757.943793
3865.715182,-8512.368333,-962.267725,3983.696590
3865.715512,-9400.615463,-962.267725,4979.620737
3865.715841,-9696.697840,-1554.432478,4903.011187
3865.716171,-8808.450710,-444.123565,4903.011187
3865.716501,-8586.388927,0.000000,2451.505594
3865.716831,-9326.594869,222.061783,995.924147
3865.717161,-9844.739029,666.185348,-383.047749
3865.717491,-10288.862594,1184.329507,-229.828649
3865.717821,-10436.903782,1036.288319,-1608.800546
3865.718150,-10066.800811,1628.453072,-3064.381992
3865.718480,-10362.883188,1332.370696,-3907.087040
3865.718810,-10584.944971,1406.391290,-4596.572988
3865.719140,-10510.924376,1036.288319,-3830.477490
3865.719470,-10288.862594,222.061783,-1608.800546
3865.719800,-11177.109724,74.020594,0.000000
3865.720129,-10881.027347,-962.267725,1149.143247
3865.720459,-9696.697840,-1628.453072,689.485948
3865.720789,-9844.739029,-1702.473667,306.438199
3865.721119,-9030.512492,-2664.741391,0.000000
3865.721449,-7920.203579,-3849.070898,229.828649
3865.721779,-5773.606348,-4071.132681,1532.190996
3865.722109,-7179.997637,-3330.926739,3600.648841
3865.722438,-8586.388927,-2368.659014,3907.087040
3865.722768,-9622.677246,-1110.308913,1838.629195
3865.723098,-9474.636058,-962.267725,-766.095498
3865.723428,-10214.842000,-370.102971,-689.485948
3865.723758,-10140.821405,-592.164754,1072.533697
3865.724088,-11547.212695,296.082377,3907.087040
3865.724417,-11695.253884,888.247130,2451.505594
3865.724747,-10436.903782,296.082377,-995.924147
3865.725077,-11399.171507,1554.432478,-4060.306139
3865.725407,-12065.356855,2220.617826,-4443.353888
3865.725737,-12287.418637,1850.514855,-4136.915689
3865.726067,-11547.212695,1998.556043,-2834.553343
3865.726397,-9252.574275,296.082377,-612.876398
3865.726726,-8808.450710,222.061783,383.047749
3865.727056,-9770.718434,-592.164754,76.609550
3865.727386,-10955.047942,-1480.411884,-1302.362347
3865.727716,-9918.759623,-2146.597232,229.828649
3865.728046,-8586.388927,-2590.720797,1225.752797
3865.728376,-7698.141797,-3923.091493,2681.334243
3865.728705,-7031.956449,-1924.535449,4596.572988
3865.729035,-8068.244768,-1776.494261,3907.087040
3865.729365,-8882.471304,-814.226536,2374.896044
3865.729695,-9474.636058,222.061783,383.047749
3865.730025,-10214.842000,814.226536,459.657299
3865.730355,-9400.615463,0.000000,842.705048
3865.730685,-8586.388927,592.164754,1685.410096
3865.731014,-9104.533087,592.164754,2374.896044
3865.731344,-11029.068536,814.226536,1762.019645
3865.731674,-10140.821405,1776.494261,153.219100
3865.732004,-9844.739029,1998.556043,-1608.800546
3865.732334,-10510.924376,3478.967927,-2604.724693
3865.732664,-12657.521608,3552.988522,-1915.238745
3865.732993,-12583.501014,3627.009116,-766.095498
3865.733323,-11991.336260,2294.638420,-1225.752797
3865.733653,-10436.903782,962.267725,-2374.896044
3865.733983,-8438.347739,296.082377,-1302.362347
3865.734313,-8438.347739,74.020594,-995.924147
3865.734643,-8438.347739,0.000000,0.000000
3865.734973,-8290.306550,-222.061783,459.657299
3865.735302,-8808.450710,-296.082377,76.609550
3865.735632,-9178.553681,-666.185348,-459.657299
3865.735962,-9400.615463,-1258.350101,459.657299
3865.736292,-9104.533087,-1258.350101,4136.915689
3865.736622,-9104.533087,-1332.370696,5056.230287
3865.736952,-8364.327145,-814.226536,3677.258390
3865.737281,-8734.430116,-962.267725,1685.410096
3865.737611,-8660.409521,592.164754,229.828649
3865.737941,-8956.491898,1554.432478,1072.533697
3865.738271,-10658.965565,2738.761985,1915.238745
3865.738601,-10732.986159,2886.803174,689.485948
3865.738931,-10584.944971,2220.617826,-1378.971896
3865.739261,-12213.398043,2960.823768,-2911.162892
3865.739590,-13471.748144,2812.782580,-4136.915689
3865.739920,-12213.398043,1258.350101,-5056.230287
3865.740250,-9104.533087,962.267725,-4749.792088
3865.740580,-8586.388927,1184.329507,-1455.581446
3865.740910,-10288.862594,666.185348,306.438199
3865.741240,-10288.862594,148.041188,459.657299
3865.741569,-9622.677246,-444.123565,0.000000
3865.741899,-9474.636058,-888.247130,-76.609550
3865.742229,-9696.697840,-1554.432478,1991.848295
3865.742559,-9030.512492,-1998.556043,3983.696590
3865.742889,-7476.080014,-2220.617826,4290.134789
3865.743219,-7624.121203,-2516.700203,4290.134789
3865.743549,-8586.388927,-1924.535449,3140.991542
3865.743878,-8512.368333,-1702.473667,2374.896044
3865.744208,-9622.677246,-1184.329507,1532.190996
3865.744538,-10140.821405,0.000000,2068.457845
3865.744868,-9918.759623,-740.205942,1838.629195
3865.745198,-8068.244768,222.061783,2298.286494
3865.745528,-8512.368333,740.205942,2604.724693
3865.745857,-12509.480420,1924.535449,0.000000
3865.746187,-12805.562797,1554.432478,-3064.381992
3865.746517,-10807.006753,2072.576638,-5362.668486
3865.746847,-9696.697840,1480.411884,-4213.525239
3865.747177,-11991.336260,2664.741391,-2221.676944
3865.747507,-13471.748144,1184.329507,-766.095498
3865.747837,-11103.089130,-296.082377,-1302.362347
3865.748166,-9104.533087,-296.082377,-1838.629195
3865.748496,-8882.471304,-888.247130,-2604.724693
3865.748826,-11029.068536,-1036.288319,-1608.800546
3865.749156,-9696.697840,-2664.741391,-766.095498
3865.749486,-6143.709319,-3552.988522,-383.047749
3865.749816,-5847.626942,-3923.091493,919.314598
3865.750145,-8882.471304,-2590.720797,3140.991542
3865.750475,-9104.533087,-3182.885551,4519.963438
3865.750805,-7550.100608,-1480.411884,3294.210641
3865.751135,-7550.100608,-1332.370696,2145.067394
3865.751465,-10288.862594,-444.123565,2604.724693
3865.751795,-11325.150913,0.000000,2451.505594
3865.752125,-9178.553681,-1110.308913,2604.724693
3865.752454,-9622.677246,148.041188,2451.505594
3865.752784,-11473.192101,296.082377,1608.800546
3865.753114,-12583.501014,1258.350101,-766.095498
3865.753444,-9918.759623,2442.679609,-4060.306139
3865.753774,-10288.862594,2590.720797,-5592.497135
3865.754104,-11251.130318,3849.070898,-5132.839837
3865.754433,-13101.645173,1776.494261,-3140.991542
3865.754763,-10881.027347,1036.288319,-1072.533697
3865.755093,-7476.080014,-296.082377,1072.533697
3865.755423,-9474.636058,-740.205942,1685.410096
3865.755753,-11177.109724,-2664.741391,536.266849
3865.756083,-10732.986159,-1554.432478,-76.609550
3865.756413,-8956.491898,-4515.256246,0.000000
3865.756742,-5551.544565,-3478.967927,4060.306139
3865.757072,-6883.915261,-2812.782580,6894.859482
3865.757402,-8660.409521,-2516.700203,6435.202183
3865.757732,-7550.100608,-1036.288319,4213.525239
3865.758062,-9474.636058,222.061783,1915.238745
3865.758392,-9178.553681,444.123565,-842.705048
3865.758721,-10362.883188,962.267725,-1532.190996
3865.759051,-9696.697840,740.205942,612.876398
3865.759381,-9178.553681,2220.617826,3064.381992
3865.759711,-9474.636058,1702.473667,1991.848295
3865.760041,-9918.759623,2738.761985,-1149.143247
3865.760371,-12879.583391,4737.318029,-4060.306139
3865.760701,-15248.242405,4959.379811,-5286.058936
3865.761030,-12805.562797,4515.256246,-5362.668486
3865.761360,-10732.986159,3256.906145,-2987.772442
3865.761690,-9622.677246,1776.494261,-1532.190996
3865.762020,-9178.553681,-222.061783,1072.533697
3865.762350,-9622.677246,444.123565,1838.629195
3865.762680,-10584.944971,-444.123565,383.047749
3865.763009,-9770.718434,0.000000,-1762.019645
3865.763339,-7698.141797,-1924.535449,-2068.457845
3865.763669,-5995.668130,-1998.556043,2145.067394
3865.763999,-7846.182985,-222.061783,6205.373534
3865.764329,-9844.739029,-962.267725,6741.640382
3865.764659,-10436.903782,0.000000,4826.401637
3865.764989,-8068.244768,0.000000,1838.629195
3865.765318,-9326.594869,0.000000,-1149.143247
3865.765648,-10436.903782,296.082377,-1532.190996
3865.765978,-10510.924376,370.102971,919.314598
3865.766308,-9770.718434,2146.597232,3600.648841
3865.766638,-9104.533087,1924.535449,2681.334243
3865.766968,-10510.924376,3923.091493,-919.314598
3865.767297,-12731.542202,5255.462188,-3370.820191
3865.767627,-12805.562797,5033.400406,-5975.544884
3865.767957,-13323.706956,4663.297435,-5592.497135
3865.768287,-12287.418637,1554.432478,-2834.553343
3865.768617,-11103.089130,888.247130,76.609550
3865.768947,-7031.956449,-2146.597232,1532.190996
3865.769277,-7698.141797,-1554.432478,383.047749
3865.769606,-9622.677246,-1924.535449,-995.924147
3865.769936,-8068.244768,-4589.276840,-2374.896044
3865.770266,-4663.297435,-4145.153275,76.609550
3865.770596,-5181.441594,-3849.070898,5362.668486
3865.770926,-8734.430116,-3404.947333,8273.831378
3865.771256,-9696.697840,-3108.864956,6358.592633
3865.771585,-8364.327145,-2220.617826,2451.505594
3865.771915,-8364.327145,-2516.700203,229.828649
3865.772245,-11399.171507,-1036.288319,-536.266849
3865.772575,-10140.821405,-1850.514855,995.924147
3865.772905,-9030.512492,-518.144159,2987.772442
3865.773235,-9326.594869,1702.473667,2911.162892
3865.773565,-12879.583391,1850.514855,0.000000
3865.773894,-13101.645173,1776.494261,-4673.182538
3865.774224,-9918.759623,2368.659014,-5592.497135
3865.774554,-11843.295072,3775.050304,-3907.087040
3865.774884,-14211.954086,3849.070898,-1532.190996
3865.775214,-12509.480420,1924.535449,-1762.019645
3865.775544,-8956.491898,-962.267725,-1915.238745
3865.775873,-8586.388927,-1184.329507,-1685.410096
3865.776203,-11843.295072,-1924.535449,1225.752797
3865.776533,-12509.480420,-1776.494261,1991.848295
3865.776863,-9178.553681,-3256.906145,383.047749
3865.777193,-5847.626942,-4515.256246,76.609550
3865.777523,-5551.544565,-3997.112087,3064.381992
3865.777853,-9030.512492,-3478.967927,4290.134789
3865.778182,-9104.533087,-2664.741391,2911.162892
3865.778512,-7624.121203,-2220.617826,1838.629195
3865.778842,-8216.285956,-1184.329507,1072.533697
3865.779172,-9326.594869,-296.082377,0.000000
3865.779502,-8882.471304,-666.185348,76.609550
3865.779832,-9474.636058,-370.102971,1455.581446
3865.780161,-9474.636058,74.020594,2911.162892
3865.780491,-10436.903782,1332.370696,2681.334243
3865.780821,-12435.459826,666.185348,-153.219100
3865.781151,-10807.006753,1628.453072,-2911.162892
3865.781481,-9844.739029,2442.679609,-2911.162892
3865.781811,-11621.233289,3404.947333,-2374.896044
3865.782141,-11769.274478,2664.741391,-2298.286494
3865.782470,-9992.780217,1628.453072,-2221.676944
3865.782800,-10214.842000,1702.473667,-1685.410096
3865.783130,-10881.027347,666.185348,-1532.190996
3865.783460,-10584.944971,0.000000,-1532.190996
3865.783790,-10288.862594,0.000000,-1225.752797
3865.784120,-9622.677246,-888.247130,306.438199
3865.784449,-9030.512492,-1554.432478,995.924147
3865.784779,-6513.812290,-2590.720797,919.314598
3865.785109,-7476.080014,-2294.638420,2681.334243
3865.785439,-7698.141797,-888.247130,4519.963438
3865.785769,-7994.224174,-592.164754,4596.572988
3865.786099,-9992.780217,-222.061783,2528.115143
3865.786429,-9770.718434,592.164754,1532.190996
3865.786758,-10362.883188,444.123565,306.438199
3865.787088,-9548.656652,518.144159,1302.362347
3865.787418,-9548.656652,888.247130,2374.896044
3865.787748,-8882.471304,1406.391290,1532.190996
3865.788078,-9474.636058,2368.659014,-919.314598
3865.788408,-11695.253884,4367.215058,-1072.533697
3865.788737,-14063.912898,5329.482782,-2221.676944
3865.789067,-14211.954086,5329.482782,-4903.011187
3865.789397,-13027.624579,4441.235652,-5745.716235
3865.789727,-10510.924376,1850.514855,-3830.477490
3865.790057,-9548.656652,592.164754,-1225.752797
3865.790387,-8882.471304,-1036.288319,995.924147
3865.790717,-8290.306550,-1406.391290,2145.067394
3865.791046,-9622.677246,-740.205942,995.924147
3865.791376,-8882.471304,-1776.494261,-919.314598
3865.791706,-8290.306550,-3552.988522,-1149.143247
3865.792036,-6513.812290,-3330.926739,2528.115143
3865.792366,-6661.853478,-3256.906145,5439.278036
3865.792696,-7624.121203,-2812.782580,5745.716235
3865.793025,-8068.244768,-2442.679609,4213.525239
3865.793355,-9548.656652,-740.205942,2068.457845
3865.793685,-10807.006753,296.082377,-153.219100
3865.794015,-11251.130318,592.164754,-1302.362347
3865.794345,-10436.903782,592.164754,919.314598
3865.794675,-9696.697840,1998.556043,2145.067394
3865.795005,-9844.739029,3182.885551,1378.971896
3865.795334,-12435.459826,4959.379811,-306.438199
3865.795664,-15322.262999,4737.318029,-4290.134789
3865.795994,-14730.098246,3997.112087,-7048.078582
3865.796324,-12657.521608,3108.864956,-6435.202183
3865.796654,-10807.006753,592.164754,-2221.676944
3865.796984,-8438.347739,-1554.432478,1149.143247
3865.797313,-6883.915261,-1776.494261,3600.648841
3865.797643,-9548.656652,-1924.535449,2834.553343
3865.797973,-11917.315666,-2886.803174,-995.924147
3865.798303,-7698.141797,-3849.070898,-2451.505594
3865.798633,-4441.235652,-4589.276840,306.438199
3865.798963,-7402.059420,-2738.761985,5132.839837
3865.799293,-9030.512492,-3108.864956,8273.831378
3865.799622,-10140.821405,-3182.885551,5745.716235
3865.799952,-7476.080014,-2294.638420,383.047749
3865.800282,-8438.347739,-1924.535449,-2451.505594
3865.800612,-8660.409521,-888.247130,-612.876398
3865.800942,-9992.780217,0.000000,1915.238745
3865.801272,-7698.141797,814.226536,3370.820191
3865.801602,-8068.244768,1776.494261,1225.752797
3865.801932,-10066.800811,2368.659014,-919.314598
3865.802261,-12583.501014,4663.297435,-1915.238745
3865.802591,-14582.057057,5477.523971,-5439.278036
3865.802921,-14211.954086,4441.235652,-5898.935335
3865.803251,-13101.645173,3256.906145,-3600.648841
3865.803581,-9252.574275,518.144159,-1608.800546
3865.803911,-7254.018232,-814.226536,76.609550
3865.804241,-8216.285956,-1036.288319,2068.457845
3865.804571,-11547.212695,-444.123565,1532.190996
3865.804901,-10732.986159,-2072.576638,-1838.629195
3865.805230,-6809.894666,-3256.906145,-2374.896044
3865.805560,-6291.750507,-4293.194464,1608.800546
3865.805890,-8586.388927,-3330.926739,6128.763984
3865.806220,-8808.450710,-2146.597232,7048.078582
3865.806550,-8364.327145,-814.226536,5132.839837
3865.806880,-9992.780217,666.185348,842.705048
3865.807210,-11325.150913,-296.082377,-1532.190996
3865.807540,-11251.130318,740.205942,-1685.410096
3865.807869,-11547.212695,74.020594,-919.314598
3865.808199,-8142.265362,888.247130,2068.457845
3865.808529,-9696.697840,1184.329507,3370.820191
3865.808859,-11325.150913,1406.391290,919.314598
3865.809189,-9844.739029,1776.494261,-2604.724693
3865.809519,-11473.192101,4589.276840,-5056.230287
3865.809849,-13323.706956,4959.379811,-4673.182538
3865.810179,-14211.954086,4071.132681,-4060.306139
3865.810509,-11103.089130,1776.494261,-2757.943793
3865.810838,-7772.162391,-1702.473667,-2298.286494
3865.811168,-8068.244768,-1184.329507,612.876398
3865.811498,-10658.965565,-1332.370696,1532.190996
3865.811828,-11251.130318,-1406.391290,-383.047749
3865.812158,-6069.688724,-4441.235652,-3140.991542
3865.812488,-2072.576638,-4219.173869,-1685.410096
3865.812818,-5107.421000,-3997.112087,4443.353888
3865.813148,-9622.677246,-2812.782580,7890.783629
3865.813478,-9326.594869,-1776.494261,7048.078582
3865.813807,-7476.080014,-1406.391290,2221.676944
3865.814137,-8586.388927,0.000000,-1378.971896
3865.814467,-10732.986159,0.000000,-995.924147
3865.814797,-11621.233289,-444.123565,1608.800546
3865.815127,-9030.512492,-1332.370696,3830.477490
3865.815457,-7328.038826,666.185348,5515.887586
3865.815787,-8808.450710,2442.679609,2298.286494
3865.816117,-11991.336260,5255.462188,-2145.067394
3865.816447,-15026.180623,6291.750507,-5515.887586
3865.816776,-15618.345376,6365.771101,-6511.811733
3865.817106,-14730.098246,6365.771101,-4979.620737
3865.817436,-11103.089130,2664.741391,-2068.457845
3865.817766,-9844.739029,666.185348,0.000000
3865.818096,-9252.574275,-1702.473667,1225.752797
3865.818426,-9474.636058,-1406.391290,1915.238745
3865.818756,-12139.377449,-1332.370696,0.000000
3865.819086,-9992.780217,-2960.823768,-842.705048
3865.819416,-5921.647536,-5255.462188,1225.752797
3865.819745,-3552.988522,-5255.462188,7048.078582
3865.820075,-6069.688724,-3330.926739,9346.365076
3865.820405,-8586.388927,-2960.823768,8197.221829
3865.820735,-9104.533087,-1110.308913,4443.353888
3865.821065,-7402.059420,-370.102971,76.609550
3865.821395,-9770.718434,1036.288319,-1149.143247
3865.821725,-10362.883188,444.123565,-2145.067394
3865.822055,-10288.862594,592.164754,919.314598
3865.822385,-10510.924376,2368.659014,1991.848295
3865.822714,-10510.924376,4959.379811,459.657299
3865.823044,-14359.995275,5847.626942,-3830.477490
3865.823374,-12953.603985,5773.606348,-5745.716235
3865.823704,-11843.295072,5995.668130,-5362.668486
3865.824034,-11177.109724,4515.256246,-3907.087040
3865.824364,-12583.501014,2294.638420,-2757.943793
3865.824694,-9770.718434,1480.411884,689.485948
3865.825024,-7254.018232,-888.247130,3140.991542
3865.825354,-10510.924376,0.000000,2451.505594
3865.825683,-13175.665768,-2368.659014,-995.924147
3865.826013,-6883.915261,-3404.947333,-3753.867940
3865.826343,-2664.741391,-5107.421000,-1378.971896
3865.826673,-4811.338623,-4367.215058,4519.963438
3865.827003,-9918.759623,-2146.597232,10265.679673
3865.827333,-11917.315666,-1036.288319,9729.412825
3865.827663,-8808.450710,888.247130,-153.219100
3865.827993,-8956.491898,148.041188,-7354.516781
3865.828323,-11695.253884,1480.411884,-8273.831378
3865.828652,-11103.089130,-296.082377,-2834.553343
3865.828982,-8438.347739,1998.556043,4826.401637
3865.829312,-10362.883188,1702.473667,4673.182538
3865.829642,-11177.109724,3182.885551,1378.971896
3865.829972,-13027.624579,3627.009116,-3600.648841
3865.830302,-12731.542202,3330.926739,-8580.269578
3865.830632,-12287.418637,4367.215058,-5209.449386
3865.830962,-13175.665768,2220.617826,536.266849
3865.831292,-11103.089130,370.102971,3907.087040
3865.831621,-6735.874072,-1924.535449,2604.724693
3865.831951,-5921.647536,-1850.514855,0.000000
3865.832281,-11695.253884,-1702.473667,-3447.429741
3865.832611,-11399.171507,-5033.400406,-5975.544884
3865.832941,-4663.297435,-4885.359217,-3370.820191
3865.833271,-2590.720797,-5255.462188,4596.572988
3865.833601,-6291.750507,-5181.441594,8810.098227
3865.833931,-8586.388927,-3627.009116,6741.640382
3865.834261,-7920.203579,-2590.720797,1149.143247
3865.834590,-10510.924376,-1702.473667,-3830.477490
3865.834920,-10140.821405,-888.247130,-1685.410096
3865.835250,-10436.903782,-1110.308913,2451.505594
3865.835580,-9992.780217,-1554.432478,4060.306139
3865.835910,-8586.388927,-222.061783,5056.230287
3865.836240,-12213.398043,222.061783,1685.410096
3865.836570,-12731.542202,814.226536,-1762.019645
3865.836900,-9548.656652,3034.844362,-5056.230287
3865.837230,-9252.574275,2812.782580,-5056.230287
3865.837559,-13915.871710,5181.441594,-229.828649
3865.837889,-13989.892304,3923.091493,1991.848295
3865.838219,-11769.274478,2368.659014,0.000000
3865.838549,-9178.553681,518.144159,-4673.182538
3865.838879,-9400.615463,-1036.288319,-3983.696590
3865.839209,-11325.150913,-1184.329507,-153.219100
3865.839539,-10658.965565,-1924.535449,4136.915689
3865.839869,-10288.862594,-2294.638420,4366.744339
3865.840198,-7476.080014,-3627.009116,2221.676944
3865.840528,-6365.771101,-3552.988522,1225.752797
3865.840858,-6735.874072,-3034.844362,1991.848295
3865.841188,-8290.306550,-1332.370696,3140.991542
3865.841518,-11103.089130,-740.205942,4903.011187
3865.841848,-10362.883188,444.123565,3907.087040
3865.842178,-8660.409521,0.000000,-459.657299
3865.842508,-8512.368333,0.000000,-2834.553343
3865.842838,-9474.636058,148.041188,-689.485948
3865.843167,-9326.594869,296.082377,1685.410096
3865.843497,-7624.121203,1406.391290,2145.067394
3865.843827,-9252.574275,1406.391290,1225.752797
3865.844157,-11843.295072,2886.803174,229.828649
3865.844487,-11843.295072,3849.070898,-842.705048
3865.844817,-11695.253884,3997.112087,-2987.772442
3865.845147,-11991.336260,4737.318029,-4749.792088
3865.845477,-11103.089130,3627.009116,-3524.039291
3865.845807,-9474.636058,1998.556043,-2374.896044
3865.846136,-9104.533087,1184.329507,-2068.457845
3865.846466,-10214.842000,0.000000,-1072.533697
3865.846796,-10955.047942,370.102971,-1072.533697
3865.847126,-11325.150913,518.144159,-1685.410096
3865.847456,-9696.697840,0.000000,-842.705048
3865.847786,-8438.347739,-962.267725,-689.485948
3865.848116,-7476.080014,-1998.556043,536.266849
3865.848446,-7105.977043,-2442.679609,2221.676944
3865.848776,-6809.894666,-2516.700203,3830.477490
3865.849105,-6365.771101,-2516.700203,4903.011187
3865.849435,-8142.265362,-1110.308913,5439.278036
3865.849765,-11473.192101,74.020594,3064.381992
3865.850095,-12213.398043,-74.020594,-153.219100
3865.850425,-9696.697840,-222.061783,-1225.752797
