#time,accel_x,accel_y,accel_z
4154.568255,-9770.718434,0.000000,76.609550
4154.568585,-9622.677246,222.061783,995.924147
4154.568914,-9918.759623,444.123565,383.047749
4154.569244,-10140.821405,296.082377,76.609550
4154.569574,-10066.800811,0.000000,306.438199
4154.569903,-9770.718434,0.000000,0.000000
4154.570233,-9548.656652,74.020594,76.609550
4154.570563,-9548.656652,74.020594,153.219100
4154.570893,-9770.718434,0.000000,612.876398
4154.571222,-9992.780217,0.000000,536.266849
4154.571552,-9696.697840,0.000000,536.266849
4154.571882,-9844.739029,222.061783,0.000000
4154.572211,-9622.677246,0.000000,153.219100
4154.572541,-9622.677246,74.020594,-153.219100
4154.572871,-9696.697840,0.000000,306.438199
4154.573200,-9696.697840,0.000000,229.828649
4154.573530,-9844.739029,0.000000,689.485948
4154.573860,-9474.636058,74.020594,229.828649
4154.574189,-9548.656652,74.020594,76.609550
4154.574519,-9548.656652,370.102971,229.828649
4154.574849,-9770.718434,0.000000,0.000000
4154.575178,-10066.800811,74.020594,229.828649
4154.575508,-9992.780217,74.020594,689.485948
4154.575838,-9622.677246,0.000000,612.876398
4154.576167,-9400.615463,-222.061783,612.876398
4154.576497,-9696.697840,-370.102971,1072.533697
4154.576827,-9918.759623,-296.082377,1762.019645
4154.577156,-10214.842000,-444.123565,1378.971896
4154.577486,-10066.800811,-74.020594,536.266849
4154.577816,-9770.718434,-370.102971,76.609550
4154.578145,-9844.739029,0.000000,0.000000
4154.578475,-9622.677246,-74.020594,153.219100
4154.578805,-9844.739029,-444.123565,1302.362347
4154.579134,-9918.759623,-296.082377,1762.019645
4154.579464,-9400.615463,-814.226536,2298.286494
4154.579794,-9622.677246,-666.185348,1991.848295
4154.580123,-9992.780217,-962.267725,2298.286494
4154.580453,-10140.821405,-1332.370696,2145.067394
4154.580783,-10066.800811,-1332.370696,2757.943793
4154.581112,-9992.780217,-1406.391290,3217.601092
4154.581442,-9770.718434,-1258.350101,3217.601092
4154.581772,-10066.800811,-1258.350101,3370.820191
4154.582101,-9992.780217,-962.267725,2757.943793
4154.582431,-10066.800811,-592.164754,2298.286494
4154.582761,-9992.780217,-888.247130,1608.800546
4154.583091,-10066.800811,-962.267725,1455.581446
4154.583420,-10140.821405,-1702.473667,2451.505594
4154.583750,-10362.883188,-2294.638420,3140.991542
4154.584080,-10214.842000,-2664.741391,3064.381992
4154.584409,-8956.491898,-3182.885551,2528.115143
4154.584739,-8216.285956,-3849.070898,2451.505594
4154.585069,-8290.306550,-3627.009116,3294.210641
4154.585398,-8586.388927,-3627.009116,4290.134789
4154.585728,-9622.677246,-3182.885551,4903.011187
4154.586058,-10066.800811,-2812.782580,4826.401637
4154.586387,-10955.047942,-2516.700203,3983.696590
4154.586717,-11547.212695,-2960.823768,2834.553343
4154.587047,-10955.047942,-2738.761985,1991.848295
4154.587376,-10584.944971,-2812.782580,612.876398
4154.587706,-9474.636058,-2738.761985,0.000000
4154.588036,-8882.471304,-2738.761985,995.924147
4154.588365,-8882.471304,-2960.823768,1838.629195
4154.588695,-9104.533087,-3552.988522,2374.896044
4154.589025,-9844.739029,-3775.050304,2757.943793
4154.589354,-10214.842000,-4145.153275,2681.334243
4154.589684,-10288.862594,-4293.194464,2604.724693
4154.590014,-9474.636058,-4441.235652,3140.991542
4154.590343,-9696.697840,-4293.194464,4136.915689
4154.590673,-10584.944971,-3256.906145,4136.915689
4154.591003,-10955.047942,-2812.782580,3064.381992
4154.591332,-11547.212695,-2072.576638,2298.286494
4154.591662,-10955.047942,-2072.576638,1532.190996
4154.591992,-10288.862594,-2590.720797,1378.971896
4154.592321,-9844.739029,-3108.864956,1915.238745
4154.592651,-9770.718434,-2960.823768,2298.286494
4154.592981,-9474.636058,-3330.926739,1302.362347
4154.593310,-9030.512492,-3478.967927,842.705048
4154.593640,-8882.471304,-3034.844362,1225.752797
4154.593970,-9474.636058,-2738.761985,1991.848295
4154.594299,-11177.109724,-2442.679609,3370.820191
4154.594629,-10955.047942,-1924.535449,3217.601092
4154.594959,-9992.780217,-1924.535449,3524.039291
4154.595289,-9104.533087,-2368.659014,2834.553343
4154.595618,-9696.697840,-2294.638420,2681.334243
4154.595948,-10658.965565,-2072.576638,2528.115143
4154.596278,-10066.800811,-2220.617826,2528.115143
4154.596607,-9622.677246,-1554.432478,3217.601092
4154.596937,-9030.512492,-1850.514855,2528.115143
4154.597267,-9400.615463,-1258.350101,919.314598
4154.597596,-9548.656652,-1184.329507,842.705048
4154.597926,-9696.697840,-888.247130,1149.143247
4154.598256,-9326.594869,-666.185348,1838.629195
4154.598585,-9326.594869,-814.226536,3140.991542
4154.598915,-10066.800811,-666.185348,3983.696590
4154.599245,-10955.047942,-814.226536,3753.867940
4154.599574,-11029.068536,-888.247130,2681.334243
4154.599904,-10881.027347,-962.267725,2145.067394
4154.600234,-9844.739029,-666.185348,2374.896044
4154.600563,-9548.656652,-1036.288319,2834.553343
4154.600893,-9400.615463,-296.082377,3064.381992
4154.601223,-9770.718434,-592.164754,2451.505594
4154.601552,-9992.780217,-222.061783,766.095498
4154.601882,-10066.800811,-222.061783,229.828649
4154.602212,-9622.677246,-518.144159,842.705048
4154.602541,-10066.800811,-888.247130,2298.286494
4154.602871,-9548.656652,-1184.329507,3140.991542
4154.603201,-9770.718434,-1184.329507,3064.381992
4154.603530,-9622.677246,-1332.370696,2221.676944
4154.603860,-9548.656652,-1184.329507,1685.410096
4154.604190,-9770.718434,-1110.308913,1838.629195
4154.604519,-9770.718434,-666.185348,2145.067394
4154.604849,-10362.883188,-518.144159,2681.334243
4154.605179,-10140.821405,-888.247130,2528.115143
4154.605508,-10288.862594,-814.226536,2451.505594
4154.605838,-9918.759623,-1702.473667,1072.533697
4154.606168,-9326.594869,-2664.741391,919.314598
4154.606497,-8882.471304,-2368.659014,1608.800546
4154.606827,-9030.512492,-1850.514855,2757.943793
4154.607157,-9030.512492,-2294.638420,2757.943793
4154.607487,-9622.677246,-2072.576638,2681.334243
4154.607816,-10288.862594,-2146.597232,1991.848295
4154.608146,-10881.027347,-2368.659014,2374.896044
4154.608476,-10658.965565,-2516.700203,2451.505594
4154.608805,-9770.718434,-3108.864956,2528.115143
4154.609135,-9326.594869,-2960.823768,3447.429741
4154.609465,-8882.471304,-2738.761985,2911.162892
4154.609794,-10214.842000,-1998.556043,2757.943793
4154.610124,-11621.233289,-2220.617826,1838.629195
4154.610454,-10881.027347,-2590.720797,1225.752797
4154.610783,-9844.739029,-2960.823768,2068.457845
4154.611113,-9474.636058,-3552.988522,2911.162892
4154.611443,-9696.697840,-3108.864956,3830.477490
4154.611772,-9548.656652,-3478.967927,3600.648841
4154.612102,-9548.656652,-3775.050304,2221.676944
4154.612432,-9252.574275,-3849.070898,2221.676944
4154.612761,-9622.677246,-3256.906145,2757.943793
4154.613091,-10584.944971,-3478.967927,3600.648841
4154.613421,-10807.006753,-3108.864956,4443.353888
4154.613750,-9844.739029,-3627.009116,3524.039291
4154.614080,-9844.739029,-3775.050304,2604.724693
4154.614410,-9696.697840,-2516.700203,2451.505594
4154.614739,-11177.109724,-2886.803174,2451.505594
4154.615069,-10732.986159,-2442.679609,2757.943793
4154.615399,-9474.636058,-2738.761985,3140.991542
4154.615728,-9400.615463,-3108.864956,1991.848295
4154.616058,-9252.574275,-2664.741391,1608.800546
4154.616388,-9178.553681,-2738.761985,1532.190996
4154.616717,-9104.533087,-2886.803174,2145.067394
4154.617047,-9104.533087,-2368.659014,2221.676944
4154.617377,-9918.759623,-2368.659014,3064.381992
4154.617706,-10362.883188,-2294.638420,3907.087040
4154.618036,-9696.697840,-2294.638420,3524.039291
4154.618366,-9696.697840,-2368.659014,2451.505594
4154.618695,-9770.718434,-1998.556043,1915.238745
4154.619025,-9696.697840,-1924.535449,2681.334243
4154.619355,-9844.739029,-1480.411884,2834.553343
4154.619685,-9844.739029,-1110.308913,2911.162892
4154.620014,-10881.027347,-814.226536,2681.334243
4154.620344,-10881.027347,-1332.370696,1915.238745
4154.620674,-10436.903782,-888.247130,995.924147
4154.621003,-9622.677246,-1628.453072,766.095498
4154.621333,-8808.450710,-1332.370696,995.924147
4154.621663,-8512.368333,-1184.329507,1685.410096
4154.621992,-9400.615463,-1110.308913,3064.381992
4154.622322,-10881.027347,-1036.288319,3370.820191
4154.622652,-10362.883188,-888.247130,2987.772442
4154.622982,-9770.718434,-1554.432478,2221.676944
4154.623312,-9844.739029,-1332.370696,1762.019645
4154.623642,-10140.821405,-1480.411884,1838.629195
4154.623971,-9474.636058,-1332.370696,2528.115143
4154.624301,-9252.574275,-666.185348,2221.676944
4154.624631,-9622.677246,-740.205942,1072.533697
4154.624961,-10066.800811,-666.185348,689.485948
4154.625291,-9992.780217,-1036.288319,153.219100
4154.625621,-9030.512492,-444.123565,689.485948
4154.625951,-8808.450710,-888.247130,1072.533697
4154.626281,-9474.636058,-1036.288319,842.705048
4154.626610,-9918.759623,-1110.308913,536.266849
4154.626940,-9770.718434,-666.185348,76.609550
4154.627270,-9844.739029,-962.267725,689.485948
4154.627600,-10140.821405,-814.226536,919.314598
4154.627930,-9770.718434,148.041188,1149.143247
4154.628260,-9548.656652,-740.205942,842.705048
4154.628590,-9400.615463,-222.061783,689.485948
4154.628919,-10066.800811,0.000000,1685.410096
4154.629249,-10288.862594,-888.247130,766.095498
4154.629579,-10214.842000,-1332.370696,766.095498
4154.629909,-9844.739029,-962.267725,1532.190996
4154.630239,-9474.636058,-1184.329507,1915.238745
4154.630569,-10140.821405,-444.123565,612.876398
4154.630899,-10140.821405,-296.082377,383.047749
4154.631229,-9992.780217,0.000000,-153.219100
4154.631558,-11029.068536,666.185348,0.000000
4154.631888,-11473.192101,1110.308913,842.705048
4154.632218,-11399.171507,74.020594,153.219100
4154.632548,-9770.718434,0.000000,-612.876398
4154.632878,-9474.636058,-666.185348,-306.438199
4154.633208,-9178.553681,-518.144159,-383.047749
4154.633538,-8142.265362,-444.123565,-229.828649
4154.633867,-8438.347739,296.082377,76.609550
4154.634197,-9474.636058,-74.020594,612.876398
4154.634527,-10436.903782,0.000000,842.705048
4154.634857,-10955.047942,148.041188,1685.410096
4154.635187,-10584.944971,-740.205942,1302.362347
4154.635517,-9770.718434,-518.144159,1378.971896
4154.635847,-8956.491898,-666.185348,1225.752797
4154.636177,-8808.450710,-592.164754,766.095498
4154.636506,-8438.347739,888.247130,76.609550
4154.636836,-9178.553681,666.185348,-459.657299
4154.637166,-10584.944971,1036.288319,-1072.533697
4154.637496,-10066.800811,1110.308913,-919.314598
4154.637826,-10214.842000,222.061783,-612.876398
4154.638156,-9770.718434,-444.123565,-306.438199
4154.638486,-9548.656652,0.000000,229.828649
4154.638815,-8808.450710,-370.102971,-229.828649
4154.639145,-8882.471304,-370.102971,-842.705048
4154.639475,-9104.533087,814.226536,-306.438199
4154.639805,-10732.986159,296.082377,1072.533697
4154.640135,-10732.986159,1110.308913,842.705048
4154.640465,-10362.883188,592.164754,995.924147
4154.640795,-10807.006753,1110.308913,1149.143247
4154.641124,-10807.006753,740.205942,229.828649
4154.641454,-10436.903782,-962.267725,-995.924147
4154.641784,-8586.388927,-222.061783,-536.266849
4154.642114,-9178.553681,-74.020594,766.095498
4154.642444,-10584.944971,518.144159,612.876398
4154.642774,-9474.636058,-1258.350101,153.219100
4154.643104,-9400.615463,222.061783,-612.876398
4154.643434,-8734.430116,-592.164754,76.609550
4154.643763,-10214.842000,740.205942,919.314598
4154.644093,-10881.027347,740.205942,1225.752797
4154.644423,-9770.718434,0.000000,1455.581446
4154.644753,-10140.821405,0.000000,306.438199
4154.645083,-10362.883188,0.000000,76.609550
4154.645413,-10140.821405,-666.185348,0.000000
4154.645743,-9030.512492,-666.185348,-459.657299
4154.646072,-7772.162391,-740.205942,229.828649
4154.646402,-9030.512492,-814.226536,612.876398
4154.646732,-9252.574275,-444.123565,153.219100
4154.647062,-9548.656652,-222.061783,-229.828649
4154.647392,-9622.677246,-814.226536,-459.657299
4154.647722,-9622.677246,444.123565,229.828649
4154.648052,-9474.636058,-74.020594,1225.752797
4154.648382,-10955.047942,0.000000,766.095498
4154.648711,-10288.862594,518.144159,153.219100
4154.649041,-10362.883188,-222.061783,0.000000
4154.649371,-10436.903782,888.247130,-306.438199
4154.649701,-9844.739029,-222.061783,-536.266849
4154.650031,-8660.409521,-370.102971,0.000000
4154.650361,-9548.656652,-222.061783,1149.143247
4154.650691,-10658.965565,888.247130,766.095498
4154.651020,-10214.842000,-222.061783,229.828649
4154.651350,-10436.903782,740.205942,0.000000
4154.651680,-10658.965565,1036.288319,536.266849
4154.652010,-10140.821405,592.164754,306.438199
4154.652340,-10584.944971,1332.370696,0.000000
4154.652670,-10288.862594,888.247130,536.266849
4154.653000,-10584.944971,888.247130,383.047749
4154.653330,-11177.109724,370.102971,0.000000
4154.653659,-9992.780217,222.061783,612.876398
4154.653989,-8660.409521,-666.185348,-383.047749
4154.654319,-8068.244768,74.020594,-536.266849
4154.654649,-8808.450710,0.000000,459.657299
4154.654979,-9696.697840,296.082377,76.609550
4154.655309,-9474.636058,888.247130,0.000000
4154.655639,-9622.677246,1406.391290,-306.438199
4154.655968,-10807.006753,370.102971,-1072.533697
4154.656298,-9844.739029,740.205942,-383.047749
4154.656628,-9400.615463,-296.082377,306.438199
4154.656958,-9252.574275,74.020594,0.000000
4154.657288,-8068.244768,-296.082377,0.000000
4154.657618,-8068.244768,-518.144159,-153.219100
4154.657948,-8364.327145,-222.061783,0.000000
4154.658278,-9844.739029,814.226536,995.924147
4154.658607,-10658.965565,444.123565,0.000000
4154.658937,-10362.883188,370.102971,0.000000
4154.659267,-9548.656652,814.226536,306.438199
4154.659597,-9992.780217,444.123565,766.095498
4154.659927,-10362.883188,814.226536,-459.657299
4154.660257,-9770.718434,740.205942,-1378.971896
4154.660587,-10066.800811,0.000000,-1378.971896
4154.660916,-9918.759623,666.185348,536.266849
4154.661246,-10288.862594,962.267725,1149.143247
4154.661576,-10658.965565,-296.082377,383.047749
4154.661906,-9104.533087,370.102971,-842.705048
4154.662236,-9474.636058,-74.020594,0.000000
4154.662566,-10807.006753,740.205942,229.828649
4154.662896,-11325.150913,740.205942,995.924147
4154.663226,-10658.965565,518.144159,1225.752797
4154.663555,-10584.944971,148.041188,76.609550
4154.663885,-9770.718434,814.226536,536.266849
4154.664215,-9844.739029,-444.123565,-842.705048
4154.664545,-9474.636058,-148.041188,-306.438199
4154.664875,-8734.430116,-222.061783,689.485948
4154.665205,-9326.594869,-592.164754,766.095498
4154.665535,-9400.615463,-222.061783,-306.438199
4154.665864,-9696.697840,0.000000,153.219100
4154.666194,-10140.821405,-1036.288319,153.219100
4154.666524,-9770.718434,74.020594,76.609550
4154.666854,-9252.574275,-814.226536,612.876398
4154.667184,-10066.800811,-1036.288319,612.876398
4154.667514,-9474.636058,0.000000,1608.800546
4154.667844,-9844.739029,-1036.288319,1378.971896
4154.668174,-10436.903782,0.000000,612.876398
4154.668503,-9696.697840,0.000000,-306.438199
4154.668833,-8882.471304,-444.123565,306.438199
4154.669163,-9178.553681,0.000000,153.219100
4154.669493,-9622.677246,0.000000,536.266849
4154.669823,-9918.759623,-666.185348,0.000000
4154.670153,-10584.944971,74.020594,153.219100
4154.670483,-10214.842000,74.020594,1149.143247
4154.670812,-10510.924376,-592.164754,612.876398
4154.671142,-9770.718434,444.123565,766.095498
4154.671472,-9400.615463,-592.164754,1378.971896
4154.671802,-10066.800811,-148.041188,842.705048
4154.672132,-10732.986159,0.000000,1378.971896
4154.672462,-10881.027347,-444.123565,919.314598
4154.672792,-9918.759623,-444.123565,-459.657299
4154.673122,-8660.409521,0.000000,0.000000
4154.673451,-9326.594869,0.000000,766.095498
4154.673781,-10584.944971,0.000000,766.095498
4154.674111,-9548.656652,0.000000,-153.219100
4154.674441,-8956.491898,0.000000,-1225.752797
4154.674771,-9992.780217,370.102971,-2298.286494
4154.675101,-9992.780217,592.164754,-383.047749
4154.675431,-9622.677246,-370.102971,76.609550
4154.675760,-8956.491898,518.144159,383.047749
4154.676090,-8586.388927,222.061783,0.000000
4154.676420,-9992.780217,-370.102971,-1072.533697
4154.676750,-9992.780217,74.020594,-306.438199
4154.677080,-9252.574275,148.041188,536.266849
4154.677410,-10066.800811,0.000000,1455.581446
4154.677740,-9696.697840,-296.082377,1532.190996
4154.678070,-8586.388927,-370.102971,1532.190996
4154.678399,-9326.594869,-444.123565,306.438199
4154.678729,-9770.718434,666.185348,612.876398
4154.679059,-10288.862594,0.000000,153.219100
4154.679389,-10066.800811,444.123565,0.000000
4154.679719,-9622.677246,222.061783,689.485948
4154.680049,-10214.842000,592.164754,689.485948
4154.680379,-10510.924376,-74.020594,-459.657299
4154.680708,-9178.553681,-148.041188,-459.657299
4154.681038,-8808.450710,-444.123565,-536.266849
4154.681368,-9622.677246,518.144159,153.219100
4154.681698,-10140.821405,592.164754,919.314598
4154.682028,-10436.903782,296.082377,-153.219100
4154.682358,-9844.739029,592.164754,-306.438199
4154.682688,-10066.800811,222.061783,76.609550
4154.683018,-11399.171507,296.082377,0.000000
4154.683347,-10584.944971,296.082377,536.266849
4154.683677,-9252.574275,444.123565,383.047749
4154.684007,-9326.594869,0.000000,-766.095498
4154.684337,-9696.697840,222.061783,-842.705048
4154.684667,-9844.739029,-666.185348,-919.314598
4154.684997,-9696.697840,0.000000,-536.266849
4154.685327,-9326.594869,222.061783,0.000000
4154.685656,-10362.883188,-222.061783,459.657299
4154.685986,-9918.759623,0.000000,0.000000
4154.686316,-9326.594869,-444.123565,612.876398
4154.686646,-10066.800811,0.000000,1072.533697
4154.686976,-9918.759623,0.000000,766.095498
4154.687306,-9844.739029,296.082377,1838.629195
4154.687636,-10066.800811,-444.123565,1225.752797
4154.687966,-9918.759623,296.082377,1225.752797
4154.688295,-10436.903782,-296.082377,842.705048
4154.688625,-9992.780217,-666.185348,383.047749
4154.688955,-9030.512492,-518.144159,1455.581446
4154.689285,-9030.512492,-296.082377,1225.752797
4154.689615,-9474.636058,-74.020594,995.924147
4154.689945,-9696.697840,148.041188,612.876398
4154.690275,-9992.780217,222.061783,-76.609550
4154.690604,-10362.883188,666.185348,0.000000
4154.690934,-10510.924376,1110.308913,306.438199
4154.691264,-11103.089130,148.041188,-383.047749
4154.691594,-9474.636058,148.041188,-536.266849
4154.691924,-9030.512492,0.000000,306.438199
4154.692254,-9918.759623,-370.102971,0.000000
4154.692584,-10066.800811,148.041188,383.047749
4154.692914,-8734.430116,0.000000,-153.219100
4154.693243,-8808.450710,-370.102971,-1302.362347
4154.693573,-9178.553681,518.144159,0.000000
4154.693903,-10140.821405,0.000000,536.266849
4154.694233,-10584.944971,-74.020594,306.438199
4154.694563,-9178.553681,-74.020594,612.876398
4154.694893,-9844.739029,-370.102971,1072.533697
4154.695223,-10066.800811,370.102971,842.705048
4154.695552,-10140.821405,148.041188,766.095498
4154.695882,-9400.615463,-296.082377,-459.657299
4154.696212,-9474.636058,0.000000,-689.485948
4154.696542,-9622.677246,1110.308913,919.314598
4154.696872,-10658.965565,-74.020594,76.609550
4154.697202,-9622.677246,592.164754,0.000000
4154.697532,-9474.636058,370.102971,0.000000
4154.697862,-10288.862594,222.061783,-383.047749
4154.698191,-10732.986159,148.041188,459.657299
4154.698521,-10436.903782,296.082377,689.485948
4154.698851,-10732.986159,0.000000,612.876398
4154.699181,-9992.780217,370.102971,536.266849
4154.699511,-9326.594869,-444.123565,-76.609550
4154.699841,-9474.636058,148.041188,-383.047749
4154.700171,-9918.759623,296.082377,459.657299
4154.700500,-9770.718434,0.000000,229.828649
4154.700830,-10140.821405,444.123565,-229.828649
4154.701160,-9696.697840,-296.082377,459.657299
4154.701490,-9326.594869,-222.061783,-306.438199
4154.701820,-9548.656652,0.000000,0.000000
4154.702150,-9474.636058,0.000000,-766.095498
4154.702480,-10066.800811,-444.123565,-612.876398
4154.702809,-9104.533087,370.102971,-612.876398
4154.703139,-9178.553681,74.020594,153.219100
4154.703469,-9844.739029,0.000000,612.876398
4154.703799,-9622.677246,0.000000,1225.752797
4154.704129,-9474.636058,0.000000,1378.971896
4154.704459,-9844.739029,-592.164754,766.095498
4154.704789,-9844.739029,0.000000,1225.752797
4154.705119,-10066.800811,-518.144159,842.705048
4154.705448,-9400.615463,0.000000,153.219100
4154.705778,-9474.636058,296.082377,689.485948
4154.706108,-10584.944971,814.226536,1072.533697
4154.706438,-10732.986159,518.144159,689.485948
4154.706768,-9992.780217,740.205942,0.000000
4154.707098,-9918.759623,222.061783,-612.876398
4154.707428,-10288.862594,740.205942,-459.657299
4154.707757,-9992.780217,148.041188,306.438199
4154.708087,-9696.697840,-296.082377,766.095498
4154.708417,-8660.409521,444.123565,1302.362347
4154.708747,-9326.594869,-222.061783,229.828649
4154.709077,-10436.903782,74.020594,0.000000
4154.709407,-10214.842000,0.000000,612.876398
4154.709737,-10436.903782,370.102971,1149.143247
4154.710067,-10214.842000,-222.061783,995.924147
4154.710396,-9844.739029,74.020594,1149.143247
4154.710726,-9474.636058,-518.144159,536.266849
4154.711056,-9474.636058,-370.102971,-995.924147
4154.711386,-9104.533087,-296.082377,-995.924147
4154.711716,-9104.533087,-740.205942,-995.924147
4154.712046,-9030.512492,0.000000,0.000000
4154.712376,-9474.636058,0.000000,306.438199
4154.712705,-10584.944971,-518.144159,459.657299
4154.713035,-9844.739029,-222.061783,-153.219100
4154.713365,-9178.553681,-592.164754,-153.219100
4154.713695,-9104.533087,-1036.288319,-536.266849
4154.714025,-9474.636058,0.000000,536.266849
4154.714355,-9696.697840,74.020594,1378.971896
4154.714685,-9918.759623,-74.020594,766.095498
4154.715015,-10066.800811,-74.020594,536.266849
4154.715344,-10510.924376,0.000000,-459.657299
4154.715674,-10214.842000,-370.102971,-689.485948
4154.716004,-9400.615463,74.020594,-229.828649
4154.716334,-8734.430116,-740.205942,-306.438199
4154.716664,-8956.491898,148.041188,-306.438199
4154.716994,-9548.656652,666.185348,-229.828649
4154.717324,-10881.027347,222.061783,-612.876398
4154.717653,-10732.986159,666.185348,-536.266849
4154.717983,-10658.965565,370.102971,229.828649
4154.718313,-10140.821405,0.000000,612.876398
4154.718643,-9548.656652,74.020594,1149.143247
4154.718973,-9548.656652,0.000000,689.485948
4154.719303,-10140.821405,-296.082377,-459.657299
4154.719633,-9178.553681,666.185348,-842.705048
4154.719963,-9548.656652,0.000000,-1149.143247
4154.720292,-9918.759623,148.041188,-1149.143247
4154.720622,-9474.636058,518.144159,229.828649
4154.720952,-9474.636058,444.123565,0.000000
4154.721282,-9770.718434,148.041188,229.828649
4154.721612,-9622.677246,518.144159,-76.609550
4154.721942,-9844.739029,0.000000,-459.657299
4154.722272,-9696.697840,222.061783,-612.876398
4154.722601,-9474.636058,370.102971,459.657299
4154.722931,-10288.862594,0.000000,612.876398
4154.723261,-10436.903782,666.185348,995.924147
4154.723591,-9622.677246,148.041188,766.095498
4154.723921,-9326.594869,296.082377,-919.314598
4154.724251,-9474.636058,296.082377,-536.266849
4154.724581,-9844.739029,296.082377,1149.143247
4154.724910,-10436.903782,0.000000,1991.848295
4154.725240,-9770.718434,1184.329507,1149.143247
4154.725570,-9770.718434,-370.102971,536.266849
4154.725900,-10214.842000,814.226536,-306.438199
4154.726229,-9474.636058,148.041188,459.657299
4154.726559,-10214.842000,74.020594,842.705048
4154.726889,-10066.800811,74.020594,536.266849
4154.727219,-9696.697840,518.144159,612.876398
4154.727549,-9622.677246,222.061783,0.000000
4154.727878,-10066.800811,592.164754,-766.095498
4154.728208,-10214.842000,740.205942,-306.438199
4154.728538,-10436.903782,-222.061783,229.828649
4154.728868,-9770.718434,148.041188,536.266849
4154.729197,-9696.697840,0.000000,1149.143247
4154.729527,-9918.759623,0.000000,689.485948
4154.729857,-9548.656652,-296.082377,459.657299
4154.730187,-9252.574275,148.041188,306.438199
4154.730516,-9770.718434,-1332.370696,-536.266849
4154.730846,-8586.388927,-370.102971,0.000000
4154.731176,-9252.574275,-370.102971,842.705048
4154.731506,-10658.965565,148.041188,459.657299
4154.731836,-9770.718434,0.000000,612.876398
4154.732165,-9844.739029,-370.102971,-306.438199
4154.732495,-9548.656652,-296.082377,-536.266849
4154.732825,-9548.656652,222.061783,0.000000
4154.733155,-10066.800811,-296.082377,0.000000
4154.733484,-9918.759623,0.000000,0.000000
4154.733814,-9474.636058,148.041188,-536.266849
4154.734144,-10214.842000,222.061783,0.000000
4154.734474,-9622.677246,0.000000,459.657299
4154.734803,-9992.780217,-370.102971,1149.143247
4154.735133,-10362.883188,74.020594,229.828649
4154.735463,-10362.883188,148.041188,383.047749
4154.735793,-9992.780217,0.000000,0.000000
4154.736123,-10214.842000,0.000000,0.000000
4154.736452,-9548.656652,0.000000,-306.438199
4154.736782,-9918.759623,0.000000,-536.266849
4154.737112,-9770.718434,-296.082377,-383.047749
4154.737442,-10362.883188,74.020594,0.000000
4154.737771,-9548.656652,-740.205942,-842.705048
4154.738101,-9178.553681,-518.144159,-766.095498
4154.738431,-9326.594869,0.000000,0.000000
4154.738761,-9844.739029,-222.061783,-612.876398
4154.739091,-10288.862594,444.123565,-612.876398
4154.739420,-9474.636058,148.041188,-536.266849
4154.739750,-9918.759623,-592.164754,-153.219100
4154.740080,-9474.636058,0.000000,536.266849
4154.740410,-8660.409521,-518.144159,842.705048
4154.740739,-9400.615463,296.082377,306.438199
4154.741069,-9474.636058,592.164754,0.000000
4154.741399,-10140.821405,0.000000,-536.266849
4154.741729,-9548.656652,-296.082377,-1072.533697
4154.742058,-9030.512492,148.041188,76.609550
4154.742388,-9548.656652,74.020594,1225.752797
4154.742718,-9696.697840,444.123565,1302.362347
4154.743048,-9030.512492,148.041188,689.485948
4154.743378,-9992.780217,148.041188,76.609550
4154.743707,-10807.006753,1184.329507,-383.047749
4154.744037,-11251.130318,814.226536,995.924147
4154.744367,-9992.780217,222.061783,1302.362347
4154.744697,-9326.594869,962.267725,1225.752797
4154.745026,-9400.615463,1036.288319,459.657299
4154.745356,-9918.759623,148.041188,-1072.533697
4154.745686,-9770.718434,666.185348,-842.705048
4154.746016,-9474.636058,592.164754,76.609550
4154.746345,-9844.739029,888.247130,1225.752797
4154.746675,-9918.759623,666.185348,1225.752797
4154.747005,-9992.780217,370.102971,536.266849
4154.747335,-9474.636058,370.102971,0.000000
4154.747665,-10140.821405,666.185348,76.609550
4154.747994,-10436.903782,296.082377,0.000000
4154.748324,-10066.800811,222.061783,689.485948
4154.748654,-9030.512492,518.144159,383.047749
4154.748984,-9548.656652,0.000000,-306.438199
4154.749313,-9474.636058,666.185348,-1225.752797
4154.749643,-9252.574275,74.020594,-1149.143247
4154.749973,-9030.512492,0.000000,-1302.362347
4154.750303,-9844.739029,814.226536,306.438199
4154.750632,-10140.821405,296.082377,1225.752797
4154.750962,-9844.739029,0.000000,766.095498
4154.751292,-8956.491898,-148.041188,459.657299
4154.751622,-9844.739029,0.000000,229.828649
4154.751952,-10362.883188,-370.102971,383.047749
4154.752281,-10140.821405,0.000000,919.314598
4154.752611,-9548.656652,-222.061783,689.485948
4154.752941,-9548.656652,0.000000,383.047749
4154.753271,-9696.697840,518.144159,459.657299
4154.753600,-9474.636058,518.144159,383.047749
4154.753930,-10066.800811,444.123565,-459.657299
4154.754260,-9844.739029,666.185348,0.000000
4154.754590,-10658.965565,-148.041188,-383.047749
4154.754920,-10584.944971,74.020594,306.438199
4154.755249,-9548.656652,-296.082377,612.876398
4154.755579,-10362.883188,-296.082377,0.000000
4154.755909,-9696.697840,0.000000,0.000000
4154.756239,-9030.512492,-370.102971,-383.047749
4154.756568,-9400.615463,-518.144159,-459.657299
4154.756898,-9696.697840,370.102971,689.485948
4154.757228,-10436.903782,148.041188,1072.533697
4154.757558,-10066.800811,0.000000,536.266849
4154.757887,-8956.491898,0.000000,0.000000
4154.758217,-9400.615463,-592.164754,-842.705048
4154.758547,-9474.636058,-148.041188,-1149.143247
4154.758877,-9770.718434,-296.082377,-536.266849
4154.759207,-9844.739029,0.000000,689.485948
4154.759536,-9474.636058,0.000000,919.314598
4154.759866,-9844.739029,518.144159,919.314598
4154.760196,-9844.739029,-148.041188,-76.609550
4154.760526,-9770.718434,296.082377,-459.657299
4154.760855,-9474.636058,0.000000,0.000000
4154.761185,-9918.759623,-592.164754,536.266849
4154.761515,-9844.739029,-370.102971,1455.581446
4154.761845,-9326.594869,-666.185348,1072.533697
4154.762174,-9844.739029,-518.144159,766.095498
4154.762504,-9770.718434,0.000000,76.609550
4154.762834,-9622.677246,-518.144159,0.000000
4154.763164,-9918.759623,148.041188,383.047749
4154.763494,-9992.780217,222.061783,1685.410096
4154.763823,-10140.821405,0.000000,1072.533697
4154.764153,-10658.965565,296.082377,153.219100
4154.764483,-10362.883188,0.000000,459.657299
4154.764813,-9844.739029,-592.164754,229.828649
4154.765142,-9252.574275,-444.123565,229.828649
4154.765472,-9844.739029,370.102971,1378.971896
4154.765802,-10658.965565,-592.164754,1149.143247
4154.766132,-9548.656652,0.000000,383.047749
4154.766461,-9030.512492,0.000000,0.000000
4154.766791,-10066.800811,0.000000,-306.438199
4154.767121,-10362.883188,444.123565,76.609550
4154.767451,-9696.697840,0.000000,612.876398
4154.767781,-9622.677246,148.041188,689.485948
4154.768110,-9622.677246,370.102971,995.924147
4154.768440,-10214.842000,-444.123565,229.828649
4154.768770,-10288.862594,-370.102971,0.000000
4154.769100,-8956.491898,0.000000,383.047749
4154.769429,-9400.615463,-296.082377,766.095498
4154.769759,-9770.718434,370.102971,306.438199
4154.770089,-10066.800811,0.000000,76.609550
4154.770419,-10066.800811,222.061783,0.000000
4154.770749,-9548.656652,888.247130,-383.047749
4154.771078,-9844.739029,518.144159,-306.438199
4154.771408,-10214.842000,0.000000,-153.219100
4154.771738,-9770.718434,962.267725,995.924147
4154.772068,-10362.883188,74.020594,1608.800546
4154.772397,-10584.944971,592.164754,229.828649
4154.772727,-9918.759623,74.020594,153.219100
4154.773057,-9474.636058,0.000000,-153.219100
4154.773387,-8734.430116,0.000000,-306.438199
4154.773716,-9474.636058,666.185348,0.000000
4154.774046,-10066.800811,222.061783,383.047749
4154.774376,-10288.862594,296.082377,383.047749
4154.774706,-9474.636058,592.164754,229.828649
4154.775036,-9548.656652,-518.144159,-459.657299
4154.775365,-10510.924376,962.267725,-459.657299
4154.775695,-9992.780217,592.164754,536.266849
4154.776025,-9992.780217,148.041188,-306.438199
4154.776355,-9844.739029,296.082377,-1149.143247
4154.776684,-9400.615463,0.000000,-1149.143247
4154.777014,-9770.718434,-518.144159,-1072.533697
4154.777344,-9252.574275,148.041188,383.047749
4154.777674,-9104.533087,0.000000,1685.410096
4154.778003,-9844.739029,-148.041188,459.657299
4154.778333,-9400.615463,0.000000,612.876398
4154.778663,-10140.821405,-296.082377,153.219100
4154.778993,-10584.944971,370.102971,0.000000
4154.779323,-9770.718434,592.164754,689.485948
4154.779652,-10066.800811,-444.123565,1072.533697
4154.779982,-9992.780217,444.123565,153.219100
4154.780312,-9918.759623,222.061783,0.000000
4154.780642,-10140.821405,0.000000,-995.924147
4154.780971,-9474.636058,0.000000,-919.314598
4154.781301,-8956.491898,148.041188,0.000000
4154.781631,-8808.450710,-148.041188,229.828649
4154.781961,-9474.636058,148.041188,1149.143247
4154.782291,-10510.924376,0.000000,919.314598
4154.782620,-10288.862594,-592.164754,536.266849
4154.782950,-10362.883188,222.061783,766.095498
4154.783280,-10140.821405,-592.164754,919.314598
4154.783610,-10955.047942,0.000000,919.314598
4154.783939,-9474.636058,148.041188,766.095498
4154.784269,-9178.553681,-444.123565,229.828649
4154.784599,-9252.574275,0.000000,153.219100
4154.784929,-9992.780217,222.061783,842.705048
4154.785258,-10362.883188,-444.123565,612.876398
4154.785588,-9400.615463,0.000000,383.047749
4154.785918,-8808.450710,-222.061783,153.219100
4154.786248,-9548.656652,-1702.473667,-153.219100
4154.786578,-9474.636058,-74.020594,536.266849
4154.786907,-9400.615463,-370.102971,766.095498
4154.787237,-9548.656652,0.000000,1225.752797
4154.787567,-10362.883188,592.164754,689.485948
4154.787897,-11029.068536,74.020594,766.095498
4154.788226,-10732.986159,222.061783,0.000000
4154.788556,-10288.862594,370.102971,153.219100
4154.788886,-9622.677246,-444.123565,229.828649
4154.789216,-9622.677246,0.000000,153.219100
4154.789545,-9104.533087,148.041188,229.828649
4154.789875,-9696.697840,-444.123565,0.000000
4154.790205,-9474.636058,74.020594,306.438199
4154.790535,-9992.780217,666.185348,766.095498
4154.790865,-11029.068536,-518.144159,-76.609550
4154.791194,-9326.594869,74.020594,689.485948
4154.791524,-9326.594869,370.102971,1149.143247
4154.791854,-10362.883188,0.000000,383.047749
4154.792184,-9622.677246,-592.164754,0.000000
4154.792513,-8290.306550,-370.102971,0.000000
4154.792843,-9326.594869,0.000000,383.047749
4154.793173,-10584.944971,518.144159,229.828649
4154.793503,-10807.006753,0.000000,536.266849
4154.793832,-9770.718434,-1036.288319,0.000000
4154.794162,-9474.636058,-444.123565,153.219100
4154.794492,-9104.533087,-592.164754,842.705048
4154.794822,-9548.656652,222.061783,383.047749
4154.795152,-9326.594869,370.102971,-229.828649
4154.795481,-9770.718434,-74.020594,-1532.190996
4154.795811,-10584.944971,222.061783,-612.876398
4154.796141,-10362.883188,666.185348,-689.485948
4154.796471,-9548.656652,0.000000,-229.828649
4154.796800,-8142.265362,-222.061783,-766.095498
4154.797130,-8438.347739,222.061783,-383.047749
4154.797460,-9474.636058,-148.041188,-1149.143247
4154.797790,-9918.759623,0.000000,76.609550
4154.798120,-9844.739029,74.020594,229.828649
4154.798449,-10362.883188,370.102971,0.000000
4154.798779,-9844.739029,740.205942,0.000000
4154.799109,-9548.656652,0.000000,0.000000
4154.799439,-9918.759623,296.082377,-383.047749
4154.799768,-10066.800811,592.164754,919.314598
4154.800098,-10140.821405,74.020594,1149.143247
4154.800428,-10140.821405,1110.308913,536.266849
4154.800758,-9474.636058,888.247130,-153.219100
4154.801087,-10362.883188,296.082377,-1302.362347
4154.801417,-10288.862594,222.061783,-1225.752797
4154.801747,-8882.471304,0.000000,-229.828649
4154.802077,-9622.677246,444.123565,919.314598
4154.802407,-10066.800811,592.164754,1532.190996
4154.802736,-9622.677246,370.102971,459.657299
4154.803066,-10214.842000,148.041188,-459.657299
4154.803396,-10214.842000,666.185348,-153.219100
4154.803726,-11029.068536,222.061783,1072.533697
4154.804055,-11325.150913,0.000000,2145.067394
4154.804385,-9474.636058,0.000000,766.095498
4154.804715,-8808.450710,74.020594,-229.828649
4154.805045,-9474.636058,74.020594,-689.485948
4154.805374,-10140.821405,0.000000,-383.047749
4154.805704,-10140.821405,-518.144159,-612.876398
4154.806034,-9252.574275,-296.082377,0.000000
4154.806364,-8660.409521,0.000000,1302.362347
4154.806694,-9918.759623,-962.267725,1225.752797
4154.807023,-9326.594869,148.041188,306.438199
4154.807353,-8956.491898,-814.226536,229.828649
4154.807683,-9770.718434,0.000000,153.219100
4154.808013,-10214.842000,0.000000,1762.019645
4154.808342,-9918.759623,0.000000,1532.190996
4154.808672,-9696.697840,-592.164754,612.876398
4154.809002,-9030.512492,148.041188,383.047749
4154.809332,-9696.697840,-592.164754,153.219100
4154.809662,-10881.027347,0.000000,-76.609550
4154.809991,-10214.842000,-148.041188,0.000000
4154.810321,-8660.409521,-222.061783,229.828649
4154.810651,-8882.471304,0.000000,229.828649
4154.810981,-9474.636058,296.082377,536.266849
4154.811310,-10955.047942,0.000000,306.438199
4154.811640,-10140.821405,296.082377,-306.438199
4154.811970,-9992.780217,518.144159,-612.876398
4154.812300,-10214.842000,-148.041188,0.000000
4154.812629,-9992.780217,0.000000,766.095498
4154.812959,-9548.656652,-296.082377,1225.752797
4154.813289,-9474.636058,-370.102971,0.000000
4154.813619,-9474.636058,-296.082377,-689.485948
4154.813949,-10140.821405,148.041188,-842.705048
4154.814278,-10436.903782,0.000000,153.219100
4154.814608,-10140.821405,444.123565,1225.752797
4154.814938,-10066.800811,222.061783,1762.019645
4154.815268,-10807.006753,518.144159,383.047749
4154.815597,-9992.780217,444.123565,0.000000
4154.815927,-9104.533087,-370.102971,-995.924147
4154.816257,-9622.677246,0.000000,76.609550
4154.816587,-9474.636058,0.000000,842.705048
4154.816916,-9252.574275,-1036.288319,383.047749
4154.817246,-9474.636058,222.061783,229.828649
4154.817576,-8882.471304,-148.041188,76.609550
4154.817906,-9770.718434,-888.247130,-383.047749
4154.818236,-9474.636058,-74.020594,76.609550
4154.818565,-9622.677246,-518.144159,1149.143247
4154.818895,-9844.739029,148.041188,1991.848295
4154.819225,-9844.739029,74.020594,1608.800546
4154.819555,-9844.739029,74.020594,-153.219100
4154.819884,-9992.780217,0.000000,-1225.752797
4154.820214,-9770.718434,592.164754,0.000000
4154.820544,-10658.965565,-592.164754,306.438199
4154.820874,-10066.800811,370.102971,0.000000
4154.821203,-7920.203579,296.082377,-383.047749
4154.821533,-8216.285956,74.020594,-689.485948
4154.821863,-9548.656652,814.226536,-612.876398
4154.822193,-10658.965565,518.144159,-459.657299
4154.822523,-11029.068536,888.247130,-153.219100
4154.822852,-10288.862594,592.164754,-612.876398
4154.823182,-10658.965565,592.164754,459.657299
4154.823512,-10658.965565,370.102971,229.828649
4154.823841,-9918.759623,888.247130,536.266849
4154.824171,-9474.636058,518.144159,0.000000
4154.824501,-9104.533087,592.164754,-1149.143247
4154.824830,-9474.636058,1110.308913,-612.876398
4154.825160,-9696.697840,888.247130,0.000000
4154.825490,-10584.944971,740.205942,306.438199
4154.825819,-10066.800811,1036.288319,995.924147
4154.826149,-9696.697840,-222.061783,0.000000
4154.826479,-9030.512492,74.020594,-536.266849
4154.826808,-8586.388927,444.123565,76.609550
4154.827138,-9696.697840,518.144159,0.000000
4154.827467,-9844.739029,1332.370696,842.705048
4154.827797,-10658.965565,1332.370696,1302.362347
4154.828127,-11177.109724,1258.350101,536.266849
4154.828456,-10214.842000,814.226536,766.095498
4154.828786,-9918.759623,814.226536,-689.485948
4154.829116,-9252.574275,-222.061783,-1072.533697
4154.829445,-8216.285956,0.000000,-459.657299
4154.829775,-8438.347739,-222.061783,153.219100
4154.830105,-9104.533087,814.226536,919.314598
4154.830434,-9770.718434,814.226536,0.000000
4154.830764,-9992.780217,0.000000,-1685.410096
4154.831094,-10066.800811,444.123565,-1149.143247
4154.831423,-10214.842000,888.247130,612.876398
4154.831753,-10881.027347,74.020594,842.705048
4154.832083,-9400.615463,0.000000,612.876398
4154.832412,-8290.306550,0.000000,-459.657299
4154.832742,-8882.471304,-740.205942,-842.705048
4154.833071,-10214.842000,0.000000,-842.705048
4154.833401,-10436.903782,-222.061783,766.095498
4154.833731,-9844.739029,-814.226536,842.705048
4154.834060,-9178.553681,-592.164754,1072.533697
4154.834390,-9178.553681,-592.164754,842.705048
4154.834720,-10214.842000,-962.267725,689.485948
4154.835049,-10436.903782,0.000000,536.266849
4154.835379,-10066.800811,-592.164754,0.000000
4154.835709,-10436.903782,-296.082377,383.047749
4154.836038,-10658.965565,296.082377,995.924147
4154.836368,-10436.903782,-370.102971,306.438199
4154.836698,-9548.656652,-592.164754,-383.047749
4154.837027,-9548.656652,-740.205942,0.000000
4154.837357,-9918.759623,-1628.453072,0.000000
4154.837686,-9696.697840,-666.185348,1149.143247
4154.838016,-8882.471304,-222.061783,1455.581446
4154.838346,-9474.636058,-592.164754,0.000000
4154.838675,-9326.594869,222.061783,-536.266849
4154.839005,-10288.862594,-592.164754,-153.219100
4154.839335,-11103.089130,-370.102971,459.657299
4154.839664,-10658.965565,0.000000,1608.800546
4154.839994,-10214.842000,-666.185348,306.438199
4154.840324,-9770.718434,-1110.308913,0.000000
4154.840653,-9104.533087,-666.185348,383.047749
4154.840983,-9252.574275,-1110.308913,459.657299
4154.841313,-9474.636058,296.082377,0.000000
4154.841642,-8956.491898,-222.061783,-229.828649
4154.841972,-9104.533087,-888.247130,383.047749
4154.842301,-9548.656652,0.000000,383.047749
4154.842631,-10362.883188,0.000000,1072.533697
4154.842961,-10881.027347,-592.164754,1149.143247
4154.843290,-9178.553681,-962.267725,689.485948
4154.843620,-8216.285956,-444.123565,919.314598
4154.843950,-9326.594869,0.000000,1072.533697
4154.844279,-11177.109724,518.144159,1608.800546
4154.844609,-10510.924376,0.000000,1225.752797
4154.844939,-10140.821405,0.000000,383.047749
4154.845268,-9696.697840,222.061783,383.047749
4154.845598,-9474.636058,592.164754,229.828649
4154.845928,-10140.821405,148.041188,0.000000
4154.846257,-9326.594869,888.247130,-383.047749
4154.846587,-9844.739029,444.123565,-842.705048
4154.846917,-10288.862594,888.247130,-995.924147
4154.847246,-9770.718434,1332.370696,919.314598
4154.847576,-10362.883188,1036.288319,766.095498
4154.847905,-10658.965565,1110.308913,689.485948
4154.848235,-10881.027347,962.267725,536.266849
4154.848565,-10510.924376,296.082377,-76.609550
4154.848894,-9252.574275,370.102971,229.828649
4154.849224,-8438.347739,962.267725,153.219100
4154.849554,-9030.512492,0.000000,-612.876398
4154.849883,-9178.553681,1406.391290,-383.047749
4154.850213,-9770.718434,592.164754,-459.657299
4154.850543,-10510.924376,962.267725,-766.095498
4154.850872,-10066.800811,222.061783,-1072.533697
4154.851202,-9104.533087,740.205942,-1149.143247
4154.851532,-9104.533087,222.061783,-612.876398
4154.851861,-9326.594869,962.267725,229.828649
4154.852191,-9770.718434,0.000000,459.657299
4154.852520,-10436.903782,1184.329507,383.047749
4154.852850,-9918.759623,962.267725,229.828649
4154.853180,-9844.739029,222.061783,-383.047749
4154.853509,-9992.780217,888.247130,-383.047749
4154.853839,-10658.965565,666.185348,306.438199
4154.854169,-10066.800811,148.041188,0.000000
4154.854498,-8586.388927,518.144159,-229.828649
4154.854828,-9030.512492,1036.288319,306.438199
4154.855158,-10140.821405,666.185348,0.000000
4154.855487,-10436.903782,888.247130,-459.657299
4154.855817,-10214.842000,-444.123565,-459.657299
4154.856147,-9770.718434,370.102971,536.266849
4154.856476,-9696.697840,666.185348,1225.752797
4154.856806,-9992.780217,-296.082377,383.047749
4154.857135,-9326.594869,-592.164754,76.609550
4154.857465,-9030.512492,222.061783,459.657299
4154.857795,-10140.821405,-592.164754,1302.362347
4154.858124,-11103.089130,74.020594,1608.800546
4154.858454,-9548.656652,148.041188,689.485948
4154.858784,-9326.594869,-518.144159,0.000000
4154.859113,-9252.574275,296.082377,-612.876398
4154.859443,-10066.800811,-296.082377,-919.314598
4154.859773,-10362.883188,222.061783,76.609550
4154.860102,-9326.594869,74.020594,153.219100
4154.860432,-9326.594869,518.144159,383.047749
4154.860762,-10140.821405,0.000000,-459.657299
4154.861091,-10436.903782,666.185348,-1149.143247
4154.861421,-10066.800811,-962.267725,-842.705048
4154.861750,-9770.718434,-370.102971,0.000000
4154.862080,-9992.780217,0.000000,766.095498
4154.862410,-10140.821405,-148.041188,919.314598
4154.862739,-9178.553681,-148.041188,-153.219100
4154.863069,-9326.594869,296.082377,-306.438199
4154.863399,-10807.006753,-296.082377,383.047749
4154.863728,-11917.315666,148.041188,689.485948
4154.864058,-9474.636058,0.000000,1378.971896
4154.864388,-8956.491898,-1258.350101,919.314598
4154.864717,-8882.471304,0.000000,536.266849
4154.865047,-9178.553681,-962.267725,0.000000
4154.865377,-10510.924376,-740.205942,-689.485948
4154.865706,-9770.718434,-666.185348,306.438199
4154.866036,-9844.739029,-1036.288319,1455.581446
4154.866366,-9400.615463,-444.123565,2221.676944
4154.866695,-9030.512492,0.000000,1072.533697
4154.867025,-10140.821405,-518.144159,842.705048
4154.867354,-10510.924376,-148.041188,459.657299
4154.867684,-9844.739029,0.000000,919.314598
4154.868014,-9992.780217,-518.144159,153.219100
4154.868343,-9178.553681,0.000000,-612.876398
4154.868673,-8882.471304,-222.061783,842.705048
4154.869003,-9622.677246,0.000000,689.485948
4154.869332,-9178.553681,-370.102971,-919.314598
4154.869662,-9622.677246,74.020594,-1455.581446
4154.869992,-9622.677246,-592.164754,-612.876398
4154.870321,-9326.594869,0.000000,536.266849
4154.870651,-9622.677246,74.020594,919.314598
4154.870981,-10140.821405,0.000000,536.266849
4154.871310,-9622.677246,444.123565,76.609550
4154.871640,-9252.574275,740.205942,-536.266849
4154.871969,-9918.759623,0.000000,-919.314598
4154.872299,-10584.944971,444.123565,153.219100
4154.872629,-10288.862594,148.041188,1072.533697
4154.872958,-10510.924376,-222.061783,919.314598
4154.873288,-8882.471304,-370.102971,153.219100
4154.873618,-8808.450710,-592.164754,0.000000
4154.873947,-8882.471304,-370.102971,153.219100
4154.874277,-9770.718434,148.041188,842.705048
4154.874607,-10658.965565,74.020594,995.924147
4154.874936,-11029.068536,592.164754,995.924147
4154.875266,-10510.924376,518.144159,459.657299
4154.875596,-10362.883188,-370.102971,0.000000
4154.875925,-9770.718434,518.144159,0.000000
4154.876255,-9474.636058,222.061783,-383.047749
4154.876584,-8882.471304,148.041188,0.000000
4154.876914,-8808.450710,592.164754,1302.362347
4154.877244,-10140.821405,592.164754,995.924147
4154.877573,-10732.986159,296.082377,-229.828649
4154.877903,-10288.862594,962.267725,-1225.752797
4154.878233,-8586.388927,0.000000,-1991.848295
4154.878562,-9104.533087,666.185348,-536.266849
4154.878892,-10066.800811,1184.329507,383.047749
4154.879222,-9992.780217,74.020594,612.876398
4154.879551,-9548.656652,814.226536,0.000000
4154.879881,-9474.636058,1332.370696,-306.438199
4154.880211,-11399.171507,74.020594,-995.924147
4154.880540,-10436.903782,-222.061783,0.000000
4154.880870,-8142.265362,444.123565,689.485948
4154.881200,-8586.388927,148.041188,153.219100
4154.881529,-9474.636058,814.226536,0.000000
4154.881859,-9696.697840,0.000000,153.219100
4154.882188,-9474.636058,888.247130,-383.047749
4154.882518,-9178.553681,666.185348,229.828649
4154.882848,-10732.986159,592.164754,689.485948
4154.883177,-10584.944971,222.061783,919.314598
4154.883507,-9252.574275,740.205942,1149.143247
4154.883837,-9178.553681,0.000000,1072.533697
4154.884166,-9992.780217,518.144159,459.657299
4154.884496,-10288.862594,1184.329507,76.609550
4154.884826,-10140.821405,74.020594,459.657299
4154.885155,-10288.862594,740.205942,612.876398
4154.885485,-10658.965565,518.144159,766.095498
4154.885815,-9844.739029,-370.102971,76.609550
4154.886144,-8734.430116,-518.144159,229.828649
4154.886474,-8734.430116,-74.020594,536.266849
4154.886803,-9622.677246,-222.061783,1762.019645
4154.887133,-10288.862594,444.123565,1149.143247
4154.887463,-9548.656652,-296.082377,0.000000
4154.887792,-10140.821405,222.061783,0.000000
4154.888122,-10510.924376,592.164754,536.266849
4154.888452,-10436.903782,-518.144159,306.438199
4154.888781,-8290.306550,-592.164754,-536.266849
4154.889111,-8068.244768,0.000000,0.000000
4154.889441,-9992.780217,-444.123565,459.657299
4154.889770,-10436.903782,-814.226536,689.485948
4154.890100,-9400.615463,-222.061783,383.047749
4154.890430,-9548.656652,-1184.329507,0.000000
4154.890759,-9918.759623,0.000000,-76.609550
4154.891089,-9474.636058,-518.144159,842.705048
4154.891418,-9992.780217,-296.082377,153.219100
4154.891748,-9844.739029,222.061783,919.314598
4154.892078,-10436.903782,0.000000,383.047749
4154.892407,-10658.965565,-296.082377,153.219100
4154.892737,-9474.636058,370.102971,0.000000
4154.893067,-9622.677246,-222.061783,0.000000
4154.893396,-10732.986159,0.000000,153.219100
4154.893726,-10140.821405,-222.061783,612.876398
4154.894056,-9474.636058,-814.226536,306.438199
4154.894385,-8586.388927,-74.020594,-459.657299
4154.894715,-9474.636058,296.082377,536.266849
4154.895045,-11029.068536,-444.123565,1149.143247
4154.895374,-10955.047942,0.000000,919.314598
4154.895704,-9548.656652,0.000000,536.266849
4154.896033,-9844.739029,-222.061783,76.609550
4154.896363,-10140.821405,148.041188,306.438199
4154.896693,-9918.759623,-592.164754,0.000000
4154.897022,-9474.636058,-666.185348,-612.876398
4154.897352,-9474.636058,0.000000,0.000000
4154.897682,-9400.615463,-222.061783,0.000000
4154.898011,-8882.471304,296.082377,0.000000
4154.898341,-9030.512492,370.102971,0.000000
4154.898671,-10288.862594,-592.164754,-306.438199
4154.899000,-10881.027347,0.000000,76.609550
4154.899330,-9252.574275,-444.123565,536.266849
4154.899660,-9326.594869,-740.205942,-383.047749
4154.899989,-9030.512492,148.041188,153.219100
4154.900319,-9474.636058,0.000000,459.657299
4154.900649,-9474.636058,0.000000,-306.438199
4154.900978,-9030.512492,-222.061783,-919.314598
4154.901308,-9992.780217,0.000000,153.219100
4154.901637,-9548.656652,-370.102971,612.876398
4154.901967,-9548.656652,74.020594,689.485948
4154.902297,-9252.574275,740.205942,995.924147
4154.902626,-9992.780217,444.123565,689.485948
4154.902956,-10955.047942,814.226536,612.876398
4154.903286,-10658.965565,296.082377,459.657299
4154.903615,-9844.739029,370.102971,153.219100
4154.903945,-10214.842000,962.267725,995.924147
4154.904275,-11029.068536,296.082377,1149.143247
4154.904604,-10140.821405,518.144159,306.438199
4154.904934,-8586.388927,1184.329507,-689.485948
4154.905264,-9326.594869,518.144159,-995.924147
4154.905593,-10140.821405,444.123565,76.609550
4154.905923,-10510.924376,888.247130,1149.143247
4154.906252,-10510.924376,74.020594,459.657299
4154.906582,-10214.842000,962.267725,306.438199
4154.906912,-9770.718434,518.144159,0.000000
4154.907241,-9918.759623,-74.020594,-229.828649
4154.907571,-9548.656652,740.205942,383.047749
4154.907901,-10066.800811,814.226536,536.266849
4154.908230,-10807.006753,1110.308913,536.266849
4154.908560,-9844.739029,1184.329507,229.828649
4154.908890,-9474.636058,296.082377,-306.438199
4154.909219,-9474.636058,0.000000,-306.438199
4154.909549,-9474.636058,296.082377,536.266849
4154.909879,-9992.780217,-592.164754,0.000000
4154.910208,-9178.553681,-592.164754,-306.438199
4154.910538,-8660.409521,0.000000,0.000000
4154.910867,-9696.697840,-222.061783,-383.047749
4154.911197,-10140.821405,444.123565,766.095498
4154.911527,-9548.656652,74.020594,842.705048
4154.911856,-9474.636058,0.000000,612.876398
4154.912186,-9622.677246,666.185348,76.609550
4154.912516,-9548.656652,0.000000,76.609550
4154.912845,-9622.677246,-814.226536,0.000000
4154.913175,-9770.718434,370.102971,919.314598
4154.913505,-10214.842000,-518.144159,995.924147
4154.913834,-9770.718434,-444.123565,0.000000
4154.914164,-8734.430116,-370.102971,-766.095498
4154.914494,-8956.491898,-370.102971,-766.095498
4154.914823,-10066.800811,74.020594,0.000000
4154.915153,-10362.883188,740.205942,1685.410096
4154.915483,-10658.965565,-518.144159,1072.533697
4154.915812,-10362.883188,-222.061783,0.000000
4154.916142,-9548.656652,0.000000,-919.314598
4154.916471,-9548.656652,-518.144159,-1378.971896
4154.916801,-9696.697840,0.000000,-689.485948
4154.917131,-9030.512492,-148.041188,536.266849
4154.917460,-9622.677246,-222.061783,536.266849
4154.917790,-9696.697840,0.000000,0.000000
4154.918120,-9252.574275,-444.123565,-689.485948
4154.918449,-9400.615463,-444.123565,-383.047749
4154.918779,-9918.759623,370.102971,459.657299
4154.919109,-10955.047942,-962.267725,689.485948
4154.919438,-9622.677246,-1110.308913,1455.581446
4154.919768,-8512.368333,-370.102971,1455.581446
4154.920098,-9992.780217,-148.041188,1378.971896
4154.920427,-10732.986159,-148.041188,383.047749
4154.920757,-10288.862594,370.102971,0.000000
4154.921086,-9474.636058,-666.185348,-536.266849
4154.921416,-9696.697840,-296.082377,76.609550
4154.921746,-9696.697840,-222.061783,1149.143247
4154.922075,-9770.718434,-518.144159,612.876398
4154.922405,-9252.574275,296.082377,-995.924147
4154.922735,-9474.636058,0.000000,-919.314598
4154.923064,-10658.965565,74.020594,-306.438199
4154.923394,-10436.903782,222.061783,536.266849
4154.923724,-9326.594869,296.082377,995.924147
4154.924053,-9548.656652,0.000000,1225.752797
4154.924383,-10214.842000,592.164754,383.047749
4154.924713,-9992.780217,-444.123565,0.000000
4154.925042,-9992.780217,444.123565,-766.095498
4154.925372,-9696.697840,296.082377,842.705048
4154.925701,-10066.800811,0.000000,766.095498
4154.926031,-9622.677246,74.020594,612.876398
4154.926360,-9770.718434,814.226536,612.876398
4154.926690,-10362.883188,370.102971,-383.047749
4154.927020,-10362.883188,518.144159,-612.876398
4154.927350,-9992.780217,962.267725,0.000000
4154.927679,-9548.656652,370.102971,229.828649
4154.928009,-9104.533087,814.226536,766.095498
4154.928339,-9770.718434,222.061783,306.438199
4154.928669,-10140.821405,148.041188,-995.924147
4154.928998,-9622.677246,518.144159,-612.876398
4154.929328,-9918.759623,0.000000,229.828649
4154.929658,-10510.924376,370.102971,766.095498
4154.929988,-9844.739029,666.185348,1532.190996
4154.930317,-9474.636058,-148.041188,919.314598
4154.930647,-9696.697840,444.123565,153.219100
4154.930977,-9548.656652,666.185348,-306.438199
4154.931307,-9030.512492,-296.082377,-383.047749
4154.931636,-9326.594869,592.164754,842.705048
4154.931966,-9474.636058,592.164754,536.266849
4154.932296,-10881.027347,0.000000,383.047749
4154.932626,-10584.944971,444.123565,-536.266849
4154.932955,-8734.430116,-592.164754,-1378.971896
4154.933285,-8364.327145,0.000000,-1149.143247
4154.933615,-8438.347739,592.164754,842.705048
4154.933945,-9622.677246,518.144159,919.314598
4154.934274,-9844.739029,666.185348,536.266849
4154.934604,-10658.965565,1332.370696,229.828649
4154.934934,-11103.089130,370.102971,-459.657299
4154.935264,-10288.862594,370.102971,-1072.533697
4154.935593,-9474.636058,444.123565,0.000000
4154.935923,-9252.574275,0.000000,76.609550
4154.936253,-9400.615463,0.000000,-536.266849
4154.936582,-9474.636058,370.102971,-1072.533697
4154.936912,-9844.739029,74.020594,-153.219100
4154.937242,-9992.780217,1184.329507,536.266849
4154.937572,-10436.903782,296.082377,919.314598
4154.937901,-10807.006753,370.102971,459.657299
4154.938231,-10288.862594,296.082377,689.485948
4154.938561,-9770.718434,0.000000,689.485948
4154.938891,-10584.944971,-296.082377,689.485948
4154.939220,-10362.883188,0.000000,1225.752797
4154.939550,-9770.718434,-74.020594,1608.800546
4154.939880,-9548.656652,74.020594,459.657299
4154.940210,-9178.553681,-370.102971,-536.266849
4154.940539,-9474.636058,-888.247130,-306.438199
4154.940869,-9474.636058,-444.123565,0.000000
4154.941199,-9770.718434,-296.082377,1149.143247
4154.941529,-10214.842000,-370.102971,1455.581446
4154.941858,-9400.615463,-444.123565,306.438199
4154.942188,-8808.450710,0.000000,-229.828649
4154.942518,-9548.656652,-814.226536,-842.705048
4154.942848,-10214.842000,0.000000,383.047749
4154.943177,-10140.821405,-518.144159,2068.457845
4154.943507,-10510.924376,0.000000,842.705048
4154.943837,-9474.636058,-74.020594,229.828649
4154.944167,-9252.574275,-222.061783,-995.924147
4154.944496,-9252.574275,-370.102971,-919.314598
4154.944826,-9474.636058,222.061783,76.609550
4154.945156,-9326.594869,-444.123565,383.047749
4154.945486,-9844.739029,0.000000,842.705048
4154.945815,-9992.780217,444.123565,459.657299
4154.946145,-10288.862594,-370.102971,-383.047749
4154.946475,-10732.986159,-370.102971,0.000000
4154.946805,-10288.862594,74.020594,1455.581446
4154.947134,-10066.800811,-518.144159,1762.019645
4154.947464,-9252.574275,-148.041188,1149.143247
4154.947794,-9030.512492,0.000000,383.047749
4154.948124,-10362.883188,-148.041188,229.828649
4154.948453,-10510.924376,814.226536,0.000000
4154.948783,-10510.924376,74.020594,459.657299
4154.949113,-10362.883188,-148.041188,0.000000
4154.949443,-9104.533087,296.082377,76.609550
4154.949772,-8734.430116,-592.164754,-153.219100
4154.950102,-9474.636058,-222.061783,-306.438199
4154.950432,-9844.739029,0.000000,0.000000
4154.950762,-10658.965565,0.000000,842.705048
4154.951091,-10436.903782,0.000000,919.314598
4154.951421,-8882.471304,296.082377,459.657299
4154.951751,-9548.656652,-296.082377,459.657299
4154.952081,-9844.739029,148.041188,0.000000
4154.952410,-10732.986159,518.144159,383.047749
4154.952740,-10214.842000,222.061783,-229.828649
4154.953070,-9622.677246,592.164754,-536.266849
4154.953400,-8808.450710,592.164754,0.000000
4154.953729,-9770.718434,-296.082377,-383.047749
4154.954059,-9918.759623,888.247130,-459.657299
4154.954389,-9178.553681,0.000000,-76.609550
4154.954719,-9474.636058,148.041188,-306.438199
4154.955048,-10140.821405,148.041188,306.438199
4154.955378,-10214.842000,-370.102971,0.000000
4154.955708,-9548.656652,-962.267725,76.609550
4154.956038,-8808.450710,-74.020594,306.438199
4154.956367,-8882.471304,0.000000,612.876398
4154.956697,-9918.759623,518.144159,383.047749
4154.957027,-10584.944971,592.164754,153.219100
4154.957357,-10510.924376,0.000000,-383.047749
4154.957686,-9992.780217,1332.370696,153.219100
4154.958016,-10214.842000,370.102971,0.000000
4154.958346,-9918.759623,-148.041188,-536.266849
4154.958676,-8660.409521,0.000000,0.000000
4154.959005,-8660.409521,296.082377,383.047749
4154.959335,-10140.821405,148.041188,459.657299
4154.959665,-10807.006753,444.123565,689.485948
4154.959995,-10510.924376,-222.061783,229.828649
4154.960324,-8882.471304,148.041188,153.219100
4154.960654,-8808.450710,0.000000,153.219100
4154.960984,-9474.636058,518.144159,0.000000
4154.961314,-9992.780217,444.123565,-153.219100
4154.961643,-9770.718434,740.205942,0.000000
4154.961973,-9770.718434,518.144159,0.000000
4154.962303,-11177.109724,814.226536,0.000000
4154.962633,-9844.739029,296.082377,-306.438199
4154.962962,-9400.615463,-444.123565,-383.047749
4154.963292,-8512.368333,592.164754,-689.485948
4154.963622,-9252.574275,0.000000,0.000000
4154.963952,-9400.615463,222.061783,0.000000
4154.964281,-9770.718434,296.082377,612.876398
4154.964611,-10362.883188,1332.370696,-459.657299
4154.964941,-10436.903782,74.020594,76.609550
4154.965271,-10140.821405,1036.288319,689.485948
4154.965600,-9918.759623,0.000000,1072.533697
4154.965930,-10140.821405,370.102971,919.314598
4154.966260,-10807.006753,296.082377,766.095498
4154.966589,-9696.697840,-518.144159,-612.876398
4154.966919,-8438.347739,0.000000,-383.047749
4154.967249,-8586.388927,370.102971,612.876398
4154.967579,-10140.821405,-222.061783,842.705048
4154.967908,-10436.903782,296.082377,842.705048
4154.968238,-9622.677246,888.247130,689.485948
4154.968568,-9992.780217,74.020594,-459.657299
4154.968898,-10066.800811,370.102971,-766.095498
4154.969227,-10066.800811,0.000000,842.705048
4154.969557,-9918.759623,-814.226536,842.705048
4154.969887,-9178.553681,-592.164754,842.705048
4154.970217,-9252.574275,-518.144159,459.657299
4154.970546,-9696.697840,-1184.329507,383.047749
4154.970876,-9030.512492,-296.082377,0.000000
4154.971206,-9770.718434,-962.267725,536.266849
4154.971536,-10436.903782,-148.041188,766.095498
4154.971865,-10066.800811,296.082377,842.705048
4154.972195,-9400.615463,-444.123565,153.219100
4154.972525,-9622.677246,-444.123565,-919.314598
4154.972855,-10214.842000,-148.041188,0.000000
4154.973184,-10658.965565,-592.164754,229.828649
4154.973514,-9918.759623,-444.123565,1455.581446
4154.973844,-9030.512492,-518.144159,919.314598
4154.974174,-9326.594869,-1036.288319,0.000000
4154.974503,-10288.862594,222.061783,-536.266849
4154.974833,-10732.986159,-518.144159,-76.609550
4154.975163,-10510.924376,-370.102971,689.485948
4154.975493,-10066.800811,222.061783,1378.971896
4154.975822,-9326.594869,0.000000,842.705048
4154.976152,-9548.656652,-296.082377,0.000000
4154.976482,-9696.697840,0.000000,0.000000
4154.976812,-10066.800811,-370.102971,76.609550
4154.977141,-10066.800811,-222.061783,-459.657299
4154.977471,-8882.471304,666.185348,-383.047749
4154.977801,-9326.594869,-814.226536,536.266849
4154.978131,-9252.574275,370.102971,689.485948
4154.978460,-9844.739029,222.061783,153.219100
4154.978790,-10140.821405,0.000000,0.000000
4154.979120,-9770.718434,0.000000,0.000000
4154.979450,-9326.594869,592.164754,0.000000
4154.979779,-9992.780217,0.000000,306.438199
4154.980109,-9918.759623,1036.288319,153.219100
4154.980439,-9770.718434,444.123565,-383.047749
4154.980769,-9400.615463,666.185348,-1685.410096
4154.981098,-9918.759623,370.102971,-919.314598
4154.981428,-10436.903782,592.164754,0.000000
4154.981758,-9622.677246,222.061783,1455.581446
4154.982088,-9770.718434,888.247130,919.314598
4154.982417,-9474.636058,0.000000,-229.828649
4154.982747,-10214.842000,222.061783,-1072.533697
4154.983077,-9844.739029,666.185348,-1149.143247
4154.983407,-9918.759623,148.041188,153.219100
4154.983736,-9770.718434,592.164754,1225.752797
4154.984066,-9030.512492,740.205942,1608.800546
4154.984396,-9696.697840,1406.391290,0.000000
4154.984726,-10807.006753,962.267725,-536.266849
4154.985055,-10584.944971,444.123565,-612.876398
4154.985385,-10362.883188,-222.061783,153.219100
4154.985715,-9326.594869,370.102971,1302.362347
4154.986045,-8660.409521,-666.185348,2451.505594
4154.986374,-9178.553681,0.000000,1838.629195
4154.986704,-9548.656652,296.082377,612.876398
4154.987034,-10362.883188,0.000000,-229.828649
4154.987364,-9918.759623,0.000000,-383.047749
4154.987693,-10140.821405,814.226536,1378.971896
4154.988023,-10214.842000,370.102971,1915.238745
4154.988353,-9770.718434,666.185348,612.876398
4154.988683,-9400.615463,1110.308913,-1149.143247
4154.989012,-9770.718434,-222.061783,-1838.629195
4154.989342,-10140.821405,740.205942,-1072.533697
4154.989672,-9918.759623,296.082377,153.219100
4154.990002,-9548.656652,-518.144159,612.876398
4154.990331,-9400.615463,666.185348,919.314598
4154.990661,-9696.697840,-74.020594,-612.876398
4154.990991,-10066.800811,-148.041188,-1762.019645
4154.991321,-9844.739029,222.061783,-1225.752797
4154.991650,-9178.553681,0.000000,612.876398
4154.991980,-9548.656652,222.061783,1762.019645
4154.992310,-9326.594869,370.102971,1762.019645
4154.992640,-10436.903782,0.000000,612.876398
4154.992969,-10510.924376,-370.102971,-689.485948
4154.993299,-9992.780217,-740.205942,-1302.362347
4154.993629,-9992.780217,-888.247130,229.828649
4154.993959,-9104.533087,-888.247130,1838.629195
4154.994288,-8216.285956,-518.144159,1838.629195
4154.994618,-8660.409521,-444.123565,383.047749
4154.994948,-9918.759623,148.041188,-919.314598
4154.995278,-10955.047942,296.082377,-1225.752797
4154.995607,-10881.027347,-370.102971,-153.219100
4154.995937,-11103.089130,222.061783,1302.362347
4154.996267,-9992.780217,0.000000,2374.896044
4154.996596,-9770.718434,-814.226536,459.657299
4154.996926,-8808.450710,-592.164754,-689.485948
4154.997256,-8956.491898,-888.247130,-459.657299
4154.997586,-9992.780217,-592.164754,536.266849
4154.997915,-9918.759623,222.061783,1991.848295
4154.998245,-9770.718434,-296.082377,1225.752797
4154.998575,-9178.553681,-74.020594,689.485948
4154.998905,-9400.615463,148.041188,-459.657299
4154.999234,-10807.006753,-518.144159,-612.876398
4154.999564,-10807.006753,-296.082377,-766.095498
4154.999894,-9400.615463,222.061783,229.828649
4155.000224,-8438.347739,-222.061783,459.657299
4155.000553,-8956.491898,666.185348,0.000000
4155.000883,-10436.903782,518.144159,0.000000
4155.001213,-11621.233289,74.020594,-842.705048
4155.001543,-9918.759623,1110.308913,-689.485948
4155.001872,-8586.388927,0.000000,153.219100
4155.002202,-8956.491898,-296.082377,919.314598
4155.002532,-9770.718434,370.102971,536.266849
4155.002862,-10214.842000,0.000000,306.438199
4155.003191,-9400.615463,-444.123565,-842.705048
4155.003521,-9252.574275,370.102971,-1072.533697
4155.003851,-10066.800811,-74.020594,1072.533697
4155.004181,-9918.759623,518.144159,2145.067394
4155.004510,-9918.759623,0.000000,2068.457845
4155.004840,-9548.656652,-296.082377,919.314598
4155.005170,-9844.739029,74.020594,383.047749
4155.005500,-10362.883188,0.000000,306.438199
4155.005829,-9844.739029,-296.082377,-306.438199
4155.006159,-9178.553681,518.144159,229.828649
4155.006489,-8808.450710,222.061783,612.876398
4155.006819,-10066.800811,814.226536,612.876398
4155.007148,-10436.903782,1110.308913,0.000000
4155.007478,-9844.739029,74.020594,-766.095498
4155.007808,-9548.656652,296.082377,-383.047749
4155.008138,-10066.800811,296.082377,766.095498
4155.008467,-10362.883188,-148.041188,1225.752797
4155.008797,-10066.800811,0.000000,919.314598
4155.009127,-9622.677246,74.020594,383.047749
4155.009457,-9844.739029,-296.082377,-383.047749
4155.009786,-9770.718434,518.144159,0.000000
4155.010116,-9696.697840,222.061783,842.705048
4155.010446,-10288.862594,666.185348,383.047749
4155.010776,-9844.739029,518.144159,-306.438199
4155.011105,-9400.615463,74.020594,-1072.533697
4155.011435,-9918.759623,0.000000,-1225.752797
4155.011765,-9548.656652,222.061783,-1072.533697
4155.012095,-8956.491898,-74.020594,229.828649
4155.012424,-9696.697840,0.000000,536.266849
4155.012754,-10066.800811,296.082377,153.219100
4155.013084,-10362.883188,-370.102971,0.000000
4155.013414,-10732.986159,0.000000,766.095498
4155.013743,-9622.677246,-222.061783,995.924147
4155.014073,-9696.697840,-148.041188,919.314598
4155.014403,-9326.594869,-74.020594,0.000000
4155.014733,-9104.533087,-148.041188,0.000000
4155.015062,-9252.574275,-592.164754,-383.047749
4155.015392,-9770.718434,222.061783,-842.705048
4155.015722,-9696.697840,-666.185348,536.266849
4155.016052,-9474.636058,-592.164754,995.924147
4155.016381,-9252.574275,0.000000,1378.971896
4155.016711,-9400.615463,-296.082377,689.485948
4155.017041,-9844.739029,-740.205942,306.438199
4155.017371,-9474.636058,222.061783,0.000000
4155.017700,-9474.636058,-148.041188,76.609550
4155.018030,-9844.739029,592.164754,995.924147
4155.018360,-9992.780217,666.185348,1072.533697
4155.018690,-9844.739029,666.185348,383.047749
4155.019019,-10066.800811,444.123565,-306.438199
4155.019349,-10436.903782,1036.288319,-306.438199
4155.019679,-9992.780217,-296.082377,-306.438199
4155.020009,-9400.615463,666.185348,0.000000
4155.020338,-9030.512492,296.082377,536.266849
4155.020668,-9992.780217,0.000000,306.438199
4155.020998,-9696.697840,148.041188,0.000000
4155.021328,-9548.656652,666.185348,459.657299
4155.021657,-10288.862594,0.000000,306.438199
4155.021987,-10584.944971,888.247130,383.047749
4155.022317,-10436.903782,0.000000,76.609550
4155.022647,-9548.656652,148.041188,1225.752797
4155.022976,-9178.553681,222.061783,766.095498
4155.023306,-10362.883188,-444.123565,689.485948
4155.023636,-10510.924376,-666.185348,766.095498
4155.023966,-9104.533087,0.000000,612.876398
4155.024295,-9178.553681,-74.020594,306.438199
4155.024625,-9622.677246,74.020594,459.657299
4155.024955,-9918.759623,0.000000,612.876398
4155.025285,-10214.842000,-370.102971,766.095498
4155.025614,-10288.862594,666.185348,383.047749
4155.025944,-10066.800811,0.000000,-229.828649
4155.026274,-9918.759623,-592.164754,-689.485948
4155.026604,-9030.512492,-148.041188,0.000000
4155.026934,-9030.512492,-1036.288319,536.266849
4155.027263,-9548.656652,-148.041188,689.485948
4155.027593,-10066.800811,-74.020594,689.485948
4155.027923,-9992.780217,-444.123565,459.657299
4155.028253,-9548.656652,0.000000,153.219100
4155.028583,-10066.800811,592.164754,306.438199
4155.028912,-11325.150913,-740.205942,153.219100
4155.029242,-10362.883188,0.000000,229.828649
4155.029572,-9030.512492,-148.041188,-459.657299
4155.029902,-9326.594869,-74.020594,-1302.362347
4155.030232,-10066.800811,518.144159,-1378.971896
4155.030561,-9696.697840,444.123565,-842.705048
4155.030891,-9992.780217,-296.082377,0.000000
4155.031221,-10140.821405,74.020594,1608.800546
4155.031551,-10140.821405,-222.061783,1149.143247
4155.031881,-9548.656652,-740.205942,0.000000
4155.032211,-8586.388927,-370.102971,0.000000
4155.032540,-9622.677246,-296.082377,536.266849
4155.032870,-10658.965565,-740.205942,919.314598
4155.033200,-9770.718434,444.123565,1302.362347
4155.033530,-9474.636058,370.102971,306.438199
4155.033860,-9474.636058,296.082377,-995.924147
4155.034189,-9992.780217,740.205942,-919.314598
4155.034519,-10140.821405,370.102971,-995.924147
4155.034849,-9844.739029,666.185348,-306.438199
4155.035179,-9400.615463,1110.308913,-306.438199
4155.035509,-9844.739029,-74.020594,-689.485948
4155.035838,-9696.697840,888.247130,-306.438199
4155.036168,-9696.697840,740.205942,459.657299
4155.036498,-10362.883188,518.144159,383.047749
4155.036828,-10214.842000,1332.370696,306.438199
4155.037158,-9844.739029,1258.350101,306.438199
4155.037487,-9474.636058,148.041188,-536.266849
4155.037817,-9474.636058,1110.308913,153.219100
4155.038147,-10066.800811,1184.329507,1225.752797
4155.038477,-10732.986159,740.205942,612.876398
4155.038807,-9252.574275,740.205942,-1302.362347
4155.039136,-8808.450710,-296.082377,-1149.143247
4155.039466,-9474.636058,-148.041188,-536.266849
4155.039796,-9548.656652,148.041188,306.438199
4155.040126,-9770.718434,0.000000,919.314598
4155.040456,-9400.615463,666.185348,995.924147
4155.040785,-9548.656652,1184.329507,1072.533697
4155.041115,-10362.883188,222.061783,76.609550
4155.041445,-10288.862594,666.185348,-306.438199
4155.041775,-9992.780217,814.226536,383.047749
4155.042105,-9770.718434,-370.102971,766.095498
4155.042434,-9918.759623,592.164754,689.485948
4155.042764,-9622.677246,0.000000,0.000000
4155.043094,-9696.697840,-962.267725,-766.095498
4155.043424,-9252.574275,222.061783,-612.876398
4155.043754,-9474.636058,-518.144159,229.828649
4155.044083,-9844.739029,0.000000,1378.971896
4155.044413,-7846.182985,518.144159,1991.848295
4155.044743,-8956.491898,-148.041188,919.314598
4155.045073,-10881.027347,296.082377,153.219100
4155.045403,-11621.233289,222.061783,-153.219100
4155.045732,-11399.171507,-1110.308913,459.657299
4155.046062,-9844.739029,-1258.350101,919.314598
4155.046392,-8660.409521,-370.102971,1915.238745
4155.046722,-9030.512492,-1184.329507,1608.800546
4155.047052,-9326.594869,-222.061783,0.000000
4155.047381,-9474.636058,-370.102971,0.000000
4155.047711,-9622.677246,-1036.288319,-383.047749
4155.048041,-9918.759623,296.082377,-229.828649
4155.048371,-9622.677246,0.000000,919.314598
4155.048701,-10658.965565,-296.082377,229.828649
4155.049030,-9992.780217,-74.020594,383.047749
4155.049360,-10140.821405,-1110.308913,-153.219100
4155.049690,-10807.006753,-370.102971,-536.266849
4155.050020,-9622.677246,74.020594,229.828649
4155.050350,-9104.533087,-592.164754,995.924147
4155.050679,-8956.491898,0.000000,229.828649
4155.051009,-9918.759623,222.061783,229.828649
4155.051339,-10955.047942,-814.226536,0.000000
4155.051669,-10732.986159,0.000000,153.219100
4155.051999,-9474.636058,-74.020594,536.266849
4155.052328,-9474.636058,-888.247130,306.438199
4155.052658,-9400.615463,148.041188,459.657299
4155.052988,-9178.553681,-296.082377,229.828649
4155.053318,-9844.739029,-296.082377,-306.438199
4155.053648,-9844.739029,0.000000,-459.657299
4155.053977,-10066.800811,0.000000,306.438199
4155.054307,-9252.574275,0.000000,1378.971896
4155.054637,-9400.615463,74.020594,1455.581446
4155.054967,-10362.883188,0.000000,1149.143247
4155.055297,-10510.924376,74.020594,306.438199
4155.055626,-9548.656652,888.247130,229.828649
4155.055956,-9104.533087,444.123565,-383.047749
4155.056286,-9622.677246,222.061783,-612.876398
4155.056616,-9992.780217,444.123565,0.000000
4155.056946,-10955.047942,370.102971,306.438199
4155.057275,-9992.780217,1036.288319,536.266849
4155.057605,-8660.409521,592.164754,-76.609550
4155.057935,-10362.883188,592.164754,-306.438199
4155.058265,-9770.718434,740.205942,-306.438199
4155.058595,-9474.636058,666.185348,383.047749
4155.058924,-9770.718434,370.102971,459.657299
4155.059254,-9992.780217,222.061783,383.047749
4155.059584,-9918.759623,222.061783,689.485948
4155.059914,-9696.697840,0.000000,76.609550
4155.060244,-9326.594869,814.226536,0.000000
4155.060573,-9770.718434,74.020594,383.047749
4155.060903,-9992.780217,592.164754,153.219100
4155.061233,-10140.821405,518.144159,536.266849
4155.061563,-9918.759623,666.185348,229.828649
4155.061893,-9844.739029,0.000000,-459.657299
4155.062222,-9252.574275,74.020594,-306.438199
4155.062552,-9104.533087,-222.061783,76.609550
4155.062882,-9252.574275,592.164754,-383.047749
4155.063212,-9918.759623,0.000000,536.266849
4155.063542,-10066.800811,-148.041188,-153.219100
4155.063871,-9400.615463,296.082377,-689.485948
4155.064201,-9696.697840,370.102971,-306.438199
4155.064531,-10658.965565,0.000000,306.438199
4155.064861,-10140.821405,518.144159,842.705048
4155.065191,-9992.780217,-296.082377,306.438199
4155.065520,-9326.594869,-222.061783,-459.657299
4155.065850,-9918.759623,592.164754,-689.485948
4155.066180,-11103.089130,-444.123565,-612.876398
4155.066510,-9918.759623,-370.102971,-306.438199
4155.066840,-8512.368333,0.000000,612.876398
4155.067169,-9326.594869,-592.164754,229.828649
4155.067499,-9844.739029,-148.041188,0.000000
4155.067829,-10066.800811,-444.123565,-459.657299
4155.068159,-9992.780217,-148.041188,-766.095498
4155.068489,-10066.800811,592.164754,0.000000
4155.068818,-9992.780217,0.000000,306.438199
4155.069148,-9548.656652,-370.102971,612.876398
4155.069478,-9252.574275,444.123565,842.705048
4155.069808,-10362.883188,0.000000,229.828649
4155.070138,-10732.986159,-888.247130,-153.219100
4155.070467,-9696.697840,0.000000,229.828649
4155.070797,-8586.388927,-888.247130,766.095498
4155.071127,-9400.615463,0.000000,1302.362347
4155.071457,-9992.780217,74.020594,1072.533697
4155.071787,-10066.800811,0.000000,459.657299
4155.072117,-9474.636058,148.041188,-229.828649
4155.072446,-9696.697840,518.144159,-229.828649
4155.072776,-10510.924376,814.226536,-689.485948
4155.073106,-10214.842000,444.123565,-383.047749
4155.073436,-8956.491898,444.123565,-612.876398
4155.073766,-9548.656652,0.000000,0.000000
4155.074095,-10214.842000,888.247130,612.876398
4155.074425,-9770.718434,74.020594,1225.752797
4155.074755,-9474.636058,0.000000,536.266849
4155.075085,-9326.594869,518.144159,536.266849
4155.075415,-9844.739029,0.000000,-229.828649
4155.075744,-9474.636058,0.000000,-229.828649
4155.076074,-9400.615463,518.144159,766.095498
4155.076404,-9104.533087,148.041188,1378.971896
4155.076734,-10214.842000,740.205942,1149.143247
4155.077064,-10362.883188,1036.288319,383.047749
4155.077393,-10436.903782,-518.144159,0.000000
4155.077723,-9770.718434,-444.123565,306.438199
4155.078053,-9326.594869,74.020594,1455.581446
4155.078383,-9696.697840,0.000000,1838.629195
4155.078713,-9252.574275,444.123565,766.095498
4155.079042,-9030.512492,74.020594,-459.657299
4155.079372,-10436.903782,370.102971,-383.047749
4155.079702,-10140.821405,222.061783,0.000000
4155.080032,-10214.842000,148.041188,536.266849
4155.080362,-9548.656652,-444.123565,766.095498
4155.080691,-9474.636058,370.102971,766.095498
4155.081021,-9326.594869,-666.185348,76.609550
4155.081351,-10362.883188,-148.041188,-766.095498
4155.081681,-10510.924376,444.123565,-1072.533697
4155.082011,-9844.739029,-518.144159,459.657299
4155.082340,-9474.636058,0.000000,919.314598
4155.082670,-8808.450710,518.144159,842.705048
4155.083000,-10510.924376,148.041188,459.657299
4155.083330,-10807.006753,296.082377,-1225.752797
4155.083660,-9178.553681,-370.102971,-2451.505594
4155.083989,-9030.512492,-740.205942,-1532.190996
4155.084319,-9548.656652,222.061783,153.219100
4155.084649,-10066.800811,-222.061783,1455.581446
4155.084979,-9400.615463,-592.164754,612.876398
4155.085309,-9326.594869,0.000000,-612.876398
4155.085638,-9548.656652,-592.164754,-612.876398
4155.085968,-10732.986159,-296.082377,-76.609550
4155.086298,-9326.594869,222.061783,689.485948
4155.086628,-8882.471304,-296.082377,1378.971896
4155.086958,-10140.821405,444.123565,1149.143247
4155.087287,-10732.986159,0.000000,0.000000
4155.087617,-9918.759623,-740.205942,-612.876398
4155.087947,-9400.615463,592.164754,-689.485948
4155.088277,-10066.800811,888.247130,1072.533697
4155.088607,-10658.965565,222.061783,1532.190996
4155.088936,-10955.047942,888.247130,1455.581446
4155.089266,-10436.903782,370.102971,229.828649
4155.089596,-9770.718434,148.041188,-1072.533697
4155.089926,-10510.924376,296.082377,-1608.800546
4155.090256,-9548.656652,296.082377,-306.438199
4155.090585,-9326.594869,-296.082377,306.438199
4155.090915,-9326.594869,1110.308913,229.828649
4155.091245,-9622.677246,74.020594,612.876398
4155.091575,-10881.027347,0.000000,306.438199
4155.091905,-10066.800811,666.185348,536.266849
4155.092234,-10288.862594,-296.082377,1072.533697
4155.092564,-9770.718434,-74.020594,459.657299
4155.092894,-8808.450710,148.041188,306.438199
4155.093224,-9104.533087,-814.226536,306.438199
4155.093554,-9548.656652,0.000000,0.000000
4155.093883,-9844.739029,222.061783,536.266849
4155.094213,-9844.739029,-296.082377,995.924147
4155.094543,-9178.553681,444.123565,689.485948
4155.094873,-8660.409521,74.020594,306.438199
4155.095203,-9918.759623,-518.144159,612.876398
4155.095532,-9918.759623,74.020594,536.266849
4155.095862,-9474.636058,-370.102971,153.219100
4155.096192,-9474.636058,-74.020594,-383.047749
4155.096522,-9326.594869,370.102971,-383.047749
4155.096852,-9844.739029,74.020594,1225.752797
4155.097181,-9844.739029,-222.061783,1149.143247
4155.097511,-9400.615463,444.123565,1149.143247
4155.097841,-10732.986159,148.041188,1225.752797
4155.098171,-10510.924376,444.123565,612.876398
4155.098501,-9918.759623,296.082377,-153.219100
4155.098830,-10066.800811,0.000000,0.000000
4155.099160,-10658.965565,666.185348,0.000000
4155.099490,-10362.883188,-370.102971,0.000000
4155.099820,-8882.471304,-814.226536,-383.047749
4155.100150,-8438.347739,0.000000,-842.705048
4155.100479,-10066.800811,148.041188,-536.266849
4155.100809,-11103.089130,-222.061783,0.000000
4155.101139,-10584.944971,74.020594,612.876398
4155.101469,-9030.512492,-592.164754,766.095498
4155.101799,-10214.842000,222.061783,842.705048
4155.102128,-10140.821405,0.000000,766.095498
4155.102458,-9104.533087,-592.164754,459.657299
4155.102788,-9400.615463,74.020594,229.828649
4155.103118,-10584.944971,444.123565,76.609550
4155.103448,-10807.006753,-222.061783,153.219100
4155.103777,-9400.615463,-370.102971,-842.705048
4155.104107,-8216.285956,148.041188,-153.219100
4155.104437,-9548.656652,-518.144159,229.828649
4155.104767,-11029.068536,222.061783,153.219100
4155.105097,-9696.697840,-296.082377,689.485948
4155.105426,-8364.327145,0.000000,766.095498
4155.105756,-9104.533087,296.082377,76.609550
4155.106086,-10362.883188,0.000000,383.047749
4155.106416,-10881.027347,0.000000,383.047749
4155.106746,-9400.615463,222.061783,459.657299
4155.107075,-9696.697840,-592.164754,-306.438199
4155.107405,-10140.821405,74.020594,76.609550
4155.107735,-9918.759623,0.000000,0.000000
4155.108065,-8290.306550,74.020594,0.000000
4155.108395,-8956.491898,148.041188,-383.047749
4155.108724,-10510.924376,740.205942,229.828649
4155.109054,-9844.739029,-296.082377,306.438199
4155.109384,-9030.512492,0.000000,-153.219100
4155.109714,-8956.491898,0.000000,-229.828649
4155.110044,-10288.862594,0.000000,0.000000
4155.110374,-9992.780217,0.000000,0.000000
4155.110703,-9252.574275,-296.082377,536.266849
4155.111033,-9622.677246,0.000000,689.485948
4155.111363,-10214.842000,962.267725,536.266849
4155.111693,-10362.883188,740.205942,-153.219100
4155.112023,-10140.821405,148.041188,-459.657299
4155.112352,-9178.553681,1110.308913,-536.266849
4155.112682,-9696.697840,296.082377,0.000000
4155.113012,-9548.656652,0.000000,-459.657299
4155.113342,-9104.533087,222.061783,459.657299
4155.113672,-9918.759623,296.082377,612.876398
4155.114001,-10214.842000,444.123565,536.266849
4155.114331,-10214.842000,814.226536,536.266849
4155.114661,-9992.780217,222.061783,842.705048
4155.114991,-9696.697840,518.144159,306.438199
4155.115321,-9474.636058,222.061783,612.876398
4155.115650,-11251.130318,-518.144159,306.438199
4155.115980,-10066.800811,444.123565,0.000000
4155.116310,-8882.471304,-296.082377,0.000000
4155.116640,-9030.512492,0.000000,919.314598
4155.116970,-9622.677246,444.123565,689.485948
4155.117299,-9992.780217,444.123565,689.485948
4155.117629,-10214.842000,296.082377,-306.438199
4155.117959,-10436.903782,814.226536,229.828649
4155.118289,-10436.903782,-444.123565,383.047749
4155.118619,-9770.718434,-592.164754,306.438199
4155.118948,-9252.574275,-74.020594,229.828649
4155.119278,-8808.450710,-666.185348,383.047749
4155.119608,-9548.656652,-370.102971,0.000000
4155.119938,-10066.800811,-74.020594,536.266849
4155.120268,-9918.759623,-444.123565,1149.143247
4155.120597,-10214.842000,370.102971,842.705048
4155.120927,-10214.842000,0.000000,1225.752797
4155.121257,-9918.759623,-814.226536,229.828649
4155.121587,-8734.430116,-74.020594,-229.828649
4155.121917,-8882.471304,-296.082377,-536.266849
4155.122246,-10436.903782,0.000000,153.219100
4155.122576,-10510.924376,148.041188,229.828649
4155.122906,-9844.739029,-296.082377,0.000000
4155.123236,-9252.574275,-888.247130,-229.828649
4155.123566,-9992.780217,-370.102971,0.000000
4155.123895,-9622.677246,-740.205942,459.657299
4155.124225,-9474.636058,-296.082377,536.266849
4155.124555,-9622.677246,296.082377,612.876398
4155.124885,-10732.986159,-148.041188,612.876398
4155.125215,-10584.944971,222.061783,0.000000
4155.125544,-9622.677246,0.000000,0.000000
4155.125874,-9844.739029,0.000000,306.438199
4155.126204,-9992.780217,296.082377,0.000000
4155.126534,-9622.677246,-740.205942,459.657299
4155.126864,-9548.656652,-666.185348,-459.657299
4155.127193,-8882.471304,74.020594,-153.219100
4155.127523,-9548.656652,0.000000,229.828649
4155.127853,-9770.718434,-222.061783,612.876398
4155.128183,-9474.636058,814.226536,1225.752797
4155.128513,-9696.697840,-370.102971,1225.752797
4155.128843,-10584.944971,-296.082377,-229.828649
4155.129172,-10510.924376,296.082377,0.000000
4155.129502,-9474.636058,-296.082377,536.266849
4155.129832,-8734.430116,-222.061783,842.705048
4155.130162,-8882.471304,222.061783,689.485948
4155.130492,-8882.471304,0.000000,153.219100
4155.130822,-9252.574275,370.102971,76.609550
4155.131151,-9474.636058,370.102971,-229.828649
4155.131481,-10732.986159,-222.061783,229.828649
4155.131811,-10510.924376,518.144159,842.705048
4155.132141,-9400.615463,0.000000,1302.362347
4155.132471,-8882.471304,0.000000,459.657299
4155.132801,-9326.594869,1110.308913,76.609550
4155.133130,-10288.862594,740.205942,-229.828649
4155.133460,-10658.965565,592.164754,-383.047749
4155.133790,-10214.842000,962.267725,-612.876398
4155.134120,-10584.944971,296.082377,229.828649
4155.134450,-11103.089130,0.000000,1072.533697
4155.134780,-9548.656652,0.000000,995.924147
4155.135109,-9252.574275,-296.082377,766.095498
4155.135439,-8808.450710,0.000000,153.219100
4155.135769,-9770.718434,148.041188,612.876398
4155.136099,-9844.739029,-74.020594,1455.581446
4155.136429,-10288.862594,592.164754,919.314598
4155.136758,-10362.883188,370.102971,0.000000
4155.137088,-11103.089130,-74.020594,0.000000
4155.137418,-9992.780217,222.061783,-612.876398
4155.137748,-8956.491898,0.000000,-229.828649
4155.138078,-9178.553681,0.000000,0.000000
4155.138408,-9326.594869,0.000000,612.876398
4155.138737,-9326.594869,296.082377,1532.190996
4155.139067,-10066.800811,222.061783,459.657299
4155.139397,-10807.006753,592.164754,-995.924147
4155.139727,-9548.656652,-296.082377,-995.924147
4155.140057,-9326.594869,0.000000,-1608.800546
4155.140387,-9030.512492,666.185348,-306.438199
4155.140716,-10362.883188,-518.144159,612.876398
4155.141046,-9918.759623,74.020594,995.924147
4155.141376,-8586.388927,148.041188,0.000000
4155.141706,-9474.636058,740.205942,-383.047749
4155.142036,-10955.047942,1036.288319,-153.219100
4155.142366,-11177.109724,74.020594,459.657299
4155.142695,-9844.739029,-296.082377,536.266849
4155.143025,-9104.533087,592.164754,153.219100
4155.143355,-9326.594869,-222.061783,-612.876398
4155.143685,-9326.594869,0.000000,-1225.752797
4155.144015,-8734.430116,592.164754,-459.657299
4155.144345,-9622.677246,370.102971,-459.657299
4155.144674,-11177.109724,740.205942,-612.876398
4155.145004,-10362.883188,222.061783,0.000000
4155.145334,-9770.718434,74.020594,766.095498
4155.145664,-9770.718434,222.061783,612.876398
4155.145994,-9918.759623,0.000000,0.000000
4155.146324,-9252.574275,-518.144159,689.485948
4155.146653,-9178.553681,222.061783,306.438199
4155.146983,-9548.656652,666.185348,536.266849
4155.147313,-10658.965565,222.061783,536.266849
4155.147643,-11103.089130,1110.308913,76.609550
4155.147973,-9992.780217,0.000000,766.095498
4155.148302,-9844.739029,0.000000,459.657299
4155.148632,-9178.553681,148.041188,306.438199
4155.148962,-8956.491898,-296.082377,842.705048
4155.149292,-8734.430116,222.061783,229.828649
4155.149622,-9178.553681,1110.308913,0.000000
4155.149952,-11251.130318,740.205942,-383.047749
4155.150281,-12213.398043,740.205942,-689.485948
4155.150611,-10510.924376,666.185348,0.000000
4155.150941,-9400.615463,-296.082377,76.609550
4155.151271,-9326.594869,0.000000,383.047749
4155.151601,-9178.553681,-444.123565,1532.190996
4155.151931,-8882.471304,-666.185348,1072.533697
4155.152260,-8956.491898,370.102971,383.047749
4155.152590,-10510.924376,0.000000,0.000000
4155.152920,-10955.047942,-370.102971,306.438199
4155.153250,-9844.739029,0.000000,153.219100
4155.153580,-9770.718434,-740.205942,1378.971896
4155.153910,-9844.739029,-740.205942,1225.752797
4155.154239,-8438.347739,-444.123565,689.485948
4155.154569,-8216.285956,-962.267725,612.876398
4155.154899,-9770.718434,-666.185348,459.657299
4155.155229,-10955.047942,-444.123565,919.314598
4155.155559,-10362.883188,-518.144159,995.924147
4155.155889,-9474.636058,-814.226536,76.609550
4155.156218,-8660.409521,-518.144159,-383.047749
4155.156548,-9474.636058,-1110.308913,76.609550
4155.156878,-10362.883188,0.000000,536.266849
4155.157208,-9918.759623,0.000000,306.438199
4155.157538,-9696.697840,-148.041188,0.000000
4155.157868,-9696.697840,74.020594,-76.609550
4155.158197,-10362.883188,-74.020594,229.828649
4155.158527,-10584.944971,-592.164754,76.609550
4155.158857,-10066.800811,-518.144159,306.438199
4155.159187,-9918.759623,-1406.391290,153.219100
4155.159517,-9992.780217,-740.205942,459.657299
4155.159846,-8956.491898,0.000000,0.000000
4155.160176,-8956.491898,-222.061783,-153.219100
4155.160506,-9992.780217,222.061783,-689.485948
4155.160836,-10436.903782,296.082377,919.314598
4155.161166,-11029.068536,592.164754,1149.143247
4155.161496,-10436.903782,592.164754,229.828649
4155.161825,-9770.718434,74.020594,-919.314598
4155.162155,-9252.574275,-296.082377,-689.485948
4155.162485,-9474.636058,-370.102971,-383.047749
4155.162815,-9548.656652,-222.061783,612.876398
4155.163145,-9918.759623,222.061783,1149.143247
4155.163475,-9326.594869,666.185348,0.000000
4155.163804,-9400.615463,666.185348,-306.438199
4155.164134,-10584.944971,740.205942,-612.876398
4155.164464,-11103.089130,518.144159,76.609550
4155.164794,-10658.965565,444.123565,153.219100
4155.165124,-9252.574275,-74.020594,0.000000
4155.165454,-7772.162391,148.041188,-229.828649
4155.165783,-8364.327145,-222.061783,-229.828649
4155.166113,-8882.471304,444.123565,153.219100
4155.166443,-9770.718434,1110.308913,766.095498
4155.166773,-10362.883188,1036.288319,306.438199
4155.167103,-10510.924376,962.267725,153.219100
4155.167433,-10066.800811,592.164754,153.219100
4155.167762,-9844.739029,222.061783,-306.438199
4155.168092,-9104.533087,666.185348,-1072.533697
4155.168422,-9918.759623,370.102971,0.000000
4155.168752,-9770.718434,74.020594,306.438199
4155.169082,-8808.450710,1554.432478,1072.533697
4155.169412,-9696.697840,1702.473667,-306.438199
4155.169741,-10807.006753,962.267725,-306.438199
4155.170071,-9918.759623,666.185348,-919.314598
4155.170401,-9548.656652,148.041188,0.000000
4155.170731,-10436.903782,518.144159,919.314598
4155.171061,-10362.883188,0.000000,1378.971896
4155.171391,-9548.656652,-592.164754,1302.362347
4155.171720,-8290.306550,148.041188,383.047749
4155.172050,-9104.533087,814.226536,459.657299
4155.172380,-11251.130318,518.144159,76.609550
4155.172710,-10881.027347,370.102971,536.266849
4155.173040,-9696.697840,518.144159,1072.533697
4155.173369,-10066.800811,-222.061783,919.314598
4155.173699,-10362.883188,814.226536,0.000000
4155.174029,-10140.821405,-740.205942,0.000000
4155.174359,-8734.430116,-814.226536,-153.219100
4155.174689,-8734.430116,148.041188,383.047749
4155.175019,-11399.171507,-148.041188,0.000000
4155.175348,-10288.862594,-666.185348,229.828649
4155.175678,-8882.471304,-148.041188,995.924147
4155.176008,-9474.636058,-962.267725,1532.190996
4155.176338,-10436.903782,-74.020594,383.047749
4155.176668,-10140.821405,-296.082377,766.095498
4155.176998,-9770.718434,-1110.308913,229.828649
4155.177327,-9548.656652,0.000000,0.000000
4155.177657,-9474.636058,-592.164754,0.000000
4155.177987,-10066.800811,-962.267725,0.000000
4155.178317,-8956.491898,-666.185348,1225.752797
4155.178647,-8364.327145,-444.123565,459.657299
4155.178977,-10510.924376,-962.267725,0.000000
4155.179306,-11103.089130,296.082377,-612.876398
4155.179636,-10214.842000,-592.164754,-612.876398
4155.179966,-9326.594869,0.000000,0.000000
4155.180296,-9770.718434,-74.020594,0.000000
4155.180626,-9326.594869,-296.082377,689.485948
4155.180956,-9918.759623,74.020594,0.000000
4155.181285,-10066.800811,0.000000,-383.047749
4155.181615,-10214.842000,-370.102971,0.000000
4155.181945,-10214.842000,-370.102971,306.438199
4155.182275,-9178.553681,0.000000,1072.533697
4155.182605,-9548.656652,-888.247130,842.705048
4155.182935,-9770.718434,-444.123565,229.828649
4155.183264,-9030.512492,-592.164754,0.000000
4155.183594,-9548.656652,0.000000,0.000000
4155.183924,-9770.718434,814.226536,0.000000
4155.184254,-10658.965565,740.205942,766.095498
4155.184584,-10510.924376,370.102971,536.266849
4155.184913,-9992.780217,1036.288319,-689.485948
4155.185243,-9548.656652,592.164754,-919.314598
4155.185573,-9696.697840,-74.020594,-383.047749
4155.185903,-9326.594869,740.205942,76.609550
4155.186233,-8512.368333,-888.247130,689.485948
4155.186563,-9696.697840,148.041188,766.095498
4155.186892,-9696.697840,222.061783,612.876398
4155.187222,-9696.697840,0.000000,1072.533697
4155.187552,-9400.615463,814.226536,0.000000
4155.187882,-9252.574275,1480.411884,-536.266849
4155.188212,-10288.862594,1036.288319,766.095498
4155.188542,-10584.944971,1480.411884,689.485948
4155.188871,-10658.965565,1036.288319,153.219100
4155.189201,-10140.821405,666.185348,0.000000
4155.189531,-9326.594869,1184.329507,-766.095498
4155.189861,-9030.512492,0.000000,-995.924147
4155.190191,-8586.388927,0.000000,-536.266849
4155.190521,-8586.388927,222.061783,153.219100
4155.190850,-9400.615463,148.041188,1149.143247
4155.191180,-10140.821405,444.123565,1378.971896
4155.191510,-11103.089130,1036.288319,842.705048
4155.191840,-11473.192101,148.041188,612.876398
4155.192170,-10510.924376,444.123565,383.047749
4155.192500,-9844.739029,444.123565,459.657299
4155.192829,-9178.553681,0.000000,612.876398
4155.193159,-9474.636058,296.082377,842.705048
4155.193489,-9104.533087,814.226536,689.485948
4155.193819,-9622.677246,0.000000,76.609550
4155.194149,-10584.944971,148.041188,-1225.752797
4155.194479,-10066.800811,-666.185348,-919.314598
4155.194808,-9770.718434,-888.247130,-153.219100
4155.195138,-8882.471304,0.000000,459.657299
4155.195468,-10066.800811,0.000000,1072.533697
4155.195798,-10584.944971,0.000000,612.876398
4155.196128,-10140.821405,296.082377,-76.609550
4155.196458,-10732.986159,592.164754,536.266849
4155.196787,-10658.965565,296.082377,383.047749
4155.197117,-10436.903782,296.082377,536.266849
4155.197447,-10288.862594,-222.061783,689.485948
4155.197777,-10066.800811,-222.061783,459.657299
4155.198107,-9104.533087,-814.226536,-536.266849
4155.198436,-8882.471304,-740.205942,-536.266849
4155.198766,-8882.471304,148.041188,-306.438199
4155.199096,-8882.471304,148.041188,-459.657299
4155.199426,-10362.883188,74.020594,-1149.143247
4155.199756,-10807.006753,370.102971,-1378.971896
4155.200086,-10732.986159,148.041188,-612.876398
4155.200415,-9918.759623,-370.102971,306.438199
4155.200745,-9474.636058,148.041188,612.876398
4155.201075,-9548.656652,-1110.308913,1532.190996
4155.201405,-9474.636058,-518.144159,459.657299
4155.201735,-8956.491898,-518.144159,0.000000
4155.202065,-10066.800811,-740.205942,612.876398
4155.202394,-9548.656652,-814.226536,995.924147
4155.202724,-8512.368333,-296.082377,1072.533697
4155.203054,-9400.615463,-148.041188,0.000000
4155.203384,-9770.718434,-296.082377,0.000000
4155.203714,-10288.862594,296.082377,383.047749
4155.204044,-10066.800811,-148.041188,306.438199
4155.204373,-8956.491898,0.000000,459.657299
4155.204703,-9474.636058,0.000000,995.924147
4155.205033,-9918.759623,0.000000,1072.533697
4155.205363,-10214.842000,-222.061783,536.266849
4155.205693,-9770.718434,-518.144159,0.000000
4155.206023,-8660.409521,-962.267725,229.828649
4155.206352,-8734.430116,962.267725,919.314598
4155.206682,-9844.739029,148.041188,1072.533697
4155.207012,-10214.842000,222.061783,0.000000
4155.207342,-9992.780217,740.205942,0.000000
4155.207672,-10881.027347,740.205942,229.828649
4155.208002,-10955.047942,370.102971,-76.609550
4155.208331,-10066.800811,74.020594,0.000000
4155.208661,-8734.430116,-444.123565,612.876398
4155.208991,-9178.553681,0.000000,766.095498
4155.209321,-9918.759623,370.102971,1149.143247
4155.209651,-10066.800811,-666.185348,612.876398
4155.209980,-9992.780217,222.061783,842.705048
4155.210310,-9252.574275,0.000000,1378.971896
4155.210640,-9844.739029,0.000000,1149.143247
4155.210970,-9918.759623,222.061783,153.219100
4155.211300,-9770.718434,222.061783,0.000000
4155.211630,-9918.759623,0.000000,-76.609550
4155.211959,-9696.697840,888.247130,459.657299
4155.212289,-10214.842000,0.000000,-153.219100
4155.212619,-10362.883188,74.020594,0.000000
4155.212949,-9400.615463,-666.185348,-153.219100
4155.213279,-8882.471304,-1036.288319,153.219100
4155.213609,-9400.615463,-148.041188,842.705048
4155.213938,-9844.739029,148.041188,766.095498
4155.214268,-9992.780217,-592.164754,612.876398
4155.214598,-10140.821405,0.000000,306.438199
4155.214928,-9548.656652,-74.020594,229.828649
4155.215258,-9696.697840,0.000000,1225.752797
4155.215588,-9326.594869,592.164754,0.000000
4155.215917,-8734.430116,222.061783,-689.485948
4155.216247,-9770.718434,0.000000,-1532.190996
4155.216577,-10362.883188,0.000000,-1455.581446
4155.216907,-10066.800811,-740.205942,-1302.362347
4155.217237,-9178.553681,-592.164754,-306.438199
4155.217567,-9326.594869,-74.020594,766.095498
4155.217896,-9252.574275,-518.144159,383.047749
4155.218226,-9918.759623,370.102971,229.828649
4155.218556,-10214.842000,888.247130,-383.047749
4155.218886,-10436.903782,666.185348,306.438199
4155.219216,-10955.047942,1258.350101,153.219100
4155.219546,-11029.068536,814.226536,459.657299
4155.219875,-11177.109724,0.000000,919.314598
4155.220205,-10140.821405,-222.061783,383.047749
4155.220535,-8438.347739,-444.123565,459.657299
4155.220865,-8808.450710,-222.061783,0.000000
4155.221195,-9030.512492,296.082377,153.219100
4155.221524,-8882.471304,148.041188,689.485948
4155.221854,-10066.800811,962.267725,1072.533697
4155.222184,-10510.924376,1332.370696,229.828649
4155.222514,-11843.295072,666.185348,-229.828649
4155.222844,-11251.130318,222.061783,0.000000
4155.223174,-9474.636058,148.041188,0.000000
4155.223503,-8956.491898,-370.102971,919.314598
4155.223833,-9178.553681,74.020594,153.219100
4155.224163,-9474.636058,-74.020594,153.219100
4155.224493,-8734.430116,-740.205942,459.657299
4155.224823,-8882.471304,148.041188,536.266849
4155.225153,-9992.780217,-296.082377,766.095498
4155.225482,-10140.821405,-370.102971,1532.190996
4155.225812,-9918.759623,0.000000,612.876398
4155.226142,-9326.594869,740.205942,-383.047749
4155.226472,-9548.656652,-444.123565,-306.438199
4155.226802,-9992.780217,518.144159,0.000000
4155.227131,-9474.636058,222.061783,919.314598
4155.227461,-10214.842000,888.247130,0.000000
4155.227791,-10807.006753,148.041188,-1225.752797
4155.228121,-10066.800811,-370.102971,-1225.752797
4155.228451,-8956.491898,-592.164754,-459.657299
4155.228780,-8586.388927,-370.102971,0.000000
4155.229110,-9992.780217,148.041188,612.876398
4155.229440,-10362.883188,-370.102971,689.485948
4155.229770,-9474.636058,370.102971,306.438199
4155.230100,-9844.739029,-296.082377,0.000000
4155.230429,-10584.944971,370.102971,0.000000
4155.230759,-10807.006753,370.102971,229.828649
4155.231089,-10436.903782,296.082377,229.828649
4155.231419,-9770.718434,740.205942,-612.876398
4155.231749,-9400.615463,370.102971,-1225.752797
4155.232078,-9844.739029,74.020594,-1225.752797
4155.232408,-9474.636058,444.123565,-919.314598
4155.232738,-9696.697840,296.082377,-459.657299
4155.233068,-10658.965565,0.000000,-536.266849
4155.233398,-10066.800811,814.226536,-842.705048
4155.233727,-9844.739029,-222.061783,-383.047749
4155.234057,-9992.780217,444.123565,-383.047749
4155.234387,-10288.862594,666.185348,0.000000
4155.234717,-9696.697840,666.185348,76.609550
4155.235047,-9326.594869,518.144159,-612.876398
4155.235376,-9252.574275,1258.350101,-612.876398
4155.235706,-9474.636058,0.000000,-306.438199
4155.236036,-9622.677246,962.267725,-689.485948
4155.236366,-9548.656652,592.164754,-1072.533697
4155.236696,-9548.656652,148.041188,-1838.629195
4155.237025,-9104.533087,888.247130,-1991.848295
4155.237355,-8660.409521,740.205942,-995.924147
4155.237685,-9548.656652,1924.535449,-766.095498
4155.238015,-10066.800811,2442.679609,-842.705048
4155.238345,-9474.636058,2590.720797,-1762.019645
4155.238674,-9918.759623,2368.659014,-2528.115143
4155.239004,-10140.821405,3330.926739,-2068.457845
4155.239334,-11399.171507,2220.617826,-1378.971896
4155.239664,-10955.047942,2368.659014,-1685.410096
4155.239994,-8660.409521,1998.556043,-2451.505594
4155.240323,-7994.224174,1924.535449,-4443.353888
4155.240653,-9178.553681,2294.638420,-4213.525239
4155.240983,-9326.594869,2368.659014,-2911.162892
4155.241313,-9548.656652,2738.761985,-1225.752797
4155.241643,-9548.656652,3997.112087,-76.609550
4155.241973,-10362.883188,3701.029710,-459.657299
4155.242302,-11325.150913,3034.844362,-1608.800546
4155.242632,-10881.027347,2960.823768,-2834.553343
4155.242962,-9918.759623,2960.823768,-2911.162892
4155.243292,-10584.944971,2368.659014,-1991.848295
4155.243622,-9474.636058,2368.659014,-1685.410096
4155.243951,-7624.121203,1924.535449,-1532.190996
4155.244281,-7254.018232,2368.659014,-1838.629195
4155.244611,-9622.677246,3552.988522,-1378.971896
4155.244941,-10732.986159,3478.967927,-1915.238745
4155.245271,-10658.965565,3256.906145,-1991.848295
4155.245600,-10436.903782,3256.906145,-995.924147
4155.245930,-11843.295072,3404.947333,0.000000
4155.246260,-11843.295072,2886.803174,-1302.362347
4155.246590,-9696.697840,1924.535449,-2528.115143
4155.246920,-8142.265362,1332.370696,-2681.334243
4155.247249,-7772.162391,1406.391290,-1991.848295
4155.247579,-8290.306550,1628.453072,-919.314598
4155.247909,-8660.409521,1924.535449,-153.219100
4155.248239,-8290.306550,2072.576638,-919.314598
4155.248569,-9474.636058,2146.597232,-2451.505594
4155.248898,-10066.800811,2072.576638,-3447.429741
4155.249228,-11029.068536,2220.617826,-3140.991542
4155.249558,-10584.944971,2294.638420,-2221.676944
4155.249888,-9918.759623,1480.411884,-1991.848295
4155.250218,-8882.471304,2516.700203,-1225.752797
4155.250547,-9030.512492,2072.576638,-1762.019645
4155.250877,-10658.965565,2146.597232,-2834.553343
4155.251207,-9992.780217,1924.535449,-3064.381992
4155.251537,-9622.677246,1924.535449,-1608.800546
4155.251867,-9326.594869,1628.453072,-2451.505594
4155.252196,-9326.594869,2072.576638,-2298.286494
4155.252526,-9696.697840,1702.473667,-2757.943793
4155.252856,-9474.636058,1406.391290,-3753.867940
4155.253186,-8808.450710,1776.494261,-3753.867940
4155.253516,-10288.862594,1628.453072,-1838.629195
4155.253845,-11251.130318,2442.679609,-459.657299
4155.254175,-10288.862594,1628.453072,0.000000
4155.254505,-9178.553681,2072.576638,-1915.238745
4155.254835,-9844.739029,1776.494261,-1991.848295
4155.255165,-11177.109724,1776.494261,-1532.190996
4155.255494,-11473.192101,666.185348,-1149.143247
4155.255824,-9030.512492,2590.720797,-2145.067394
4155.256154,-8512.368333,2368.659014,-3140.991542
4155.256484,-10584.944971,2516.700203,-2145.067394
4155.256814,-9696.697840,2442.679609,-612.876398
4155.257143,-8734.430116,1776.494261,-1991.848295
4155.257473,-9696.697840,1628.453072,-2681.334243
4155.257803,-10658.965565,1258.350101,-1225.752797
4155.258133,-9844.739029,1850.514855,-306.438199
4155.258463,-9104.533087,1776.494261,0.000000
4155.258792,-8586.388927,1998.556043,-1149.143247
4155.259122,-8586.388927,2072.576638,-2451.505594
4155.259452,-9918.759623,2368.659014,-2451.505594
4155.259782,-10658.965565,3034.844362,-1838.629195
4155.260112,-10881.027347,2516.700203,-1072.533697
4155.260441,-10066.800811,2442.679609,-2068.457845
4155.260771,-8660.409521,1850.514855,-3064.381992
4155.261101,-8808.450710,1628.453072,-2757.943793
4155.261431,-9326.594869,2368.659014,-1608.800546
4155.261761,-9770.718434,2220.617826,-1532.190996
4155.262090,-9474.636058,2590.720797,-1685.410096
4155.262420,-9030.512492,2442.679609,-3217.601092
4155.262750,-9474.636058,2442.679609,-3753.867940
4155.263080,-10066.800811,2220.617826,-2374.896044
4155.263410,-9992.780217,2294.638420,-1072.533697
4155.263739,-8660.409521,1628.453072,-1991.848295
4155.264069,-8660.409521,1332.370696,-2681.334243
4155.264399,-9178.553681,2146.597232,-1991.848295
4155.264729,-10584.944971,2220.617826,-1225.752797
4155.265059,-10510.924376,2442.679609,-1685.410096
4155.265388,-10066.800811,2442.679609,-1685.410096
4155.265718,-10066.800811,2368.659014,-1072.533697
4155.266048,-10436.903782,2442.679609,-1072.533697
4155.266378,-10214.842000,2368.659014,-2145.067394
4155.266708,-9992.780217,2146.597232,-2834.553343
4155.267037,-9622.677246,1628.453072,-3370.820191
4155.267367,-9548.656652,1406.391290,-2145.067394
4155.267697,-9252.574275,1406.391290,-766.095498
4155.268027,-9178.553681,1480.411884,-383.047749
4155.268357,-9178.553681,1258.350101,-919.314598
4155.268686,-9696.697840,1998.556043,-1762.019645
4155.269016,-9918.759623,1850.514855,-1991.848295
4155.269346,-10288.862594,2146.597232,-1072.533697
4155.269676,-10362.883188,2368.659014,-842.705048
4155.270006,-10140.821405,2368.659014,-536.266849
4155.270335,-10288.862594,2146.597232,-1608.800546
4155.270665,-10807.006753,2442.679609,-2068.457845
4155.270995,-9844.739029,2146.597232,-3217.601092
4155.271325,-9104.533087,1924.535449,-3140.991542
4155.271655,-8586.388927,1924.535449,-3064.381992
4155.271984,-9400.615463,2072.576638,-2221.676944
4155.272314,-9696.697840,2368.659014,-1302.362347
4155.272644,-10584.944971,2220.617826,-1762.019645
4155.272974,-10362.883188,1924.535449,-3140.991542
4155.273304,-9104.533087,1480.411884,-3524.039291
4155.273633,-9178.553681,1480.411884,-2068.457845
4155.273963,-9918.759623,1850.514855,536.266849
4155.274293,-10066.800811,2442.679609,842.705048
4155.274623,-9770.718434,2368.659014,-1838.629195
4155.274953,-9474.636058,2516.700203,-4060.306139
4155.275282,-9844.739029,2960.823768,-4519.963438
4155.275612,-10436.903782,3256.906145,-3064.381992
4155.275942,-10807.006753,3034.844362,-1915.238745
4155.276272,-9992.780217,2812.782580,-1302.362347
4155.276602,-9104.533087,2368.659014,-1991.848295
4155.276931,-8956.491898,1924.535449,-2987.772442
4155.277261,-9474.636058,1998.556043,-3064.381992
4155.277591,-9326.594869,1776.494261,-2451.505594
4155.277921,-9252.574275,1924.535449,0.000000
4155.278251,-9178.553681,1554.432478,459.657299
4155.278580,-9992.780217,2516.700203,153.219100
4155.278910,-10807.006753,2886.803174,-1225.752797
4155.279240,-10807.006753,3034.844362,-2451.505594
4155.279570,-10510.924376,3108.864956,-2987.772442
4155.279900,-9548.656652,2812.782580,-2681.334243
4155.280229,-9844.739029,2886.803174,-1532.190996
4155.280559,-9474.636058,2294.638420,-842.705048
4155.280889,-9622.677246,1702.473667,-1302.362347
4155.281219,-8882.471304,1702.473667,-2451.505594
4155.281549,-9178.553681,1406.391290,-2987.772442
4155.281878,-8956.491898,1332.370696,-2374.896044
4155.282208,-9030.512492,1850.514855,-842.705048
4155.282538,-9252.574275,2368.659014,-1225.752797
4155.282868,-9030.512492,2072.576638,-1838.629195
4155.283198,-10732.986159,2368.659014,-1838.629195
4155.283527,-11251.130318,2368.659014,-1762.019645
4155.283857,-10881.027347,2442.679609,-1838.629195
4155.284187,-10214.842000,2442.679609,-1608.800546
4155.284517,-9030.512492,1480.411884,-1762.019645
4155.284847,-8956.491898,1258.350101,-1915.238745
4155.285176,-8734.430116,1184.329507,-2145.067394
4155.285506,-8956.491898,1480.411884,-2528.115143
4155.285836,-8660.409521,1406.391290,-2834.553343
4155.286166,-9474.636058,1776.494261,-2298.286494
4155.286496,-10584.944971,2072.576638,-1225.752797
4155.286825,-11325.150913,2146.597232,-1072.533697
4155.287155,-11177.109724,1554.432478,-536.266849
4155.287485,-10436.903782,962.267725,-536.266849
4155.287815,-10288.862594,888.247130,229.828649
4155.288145,-9992.780217,740.205942,459.657299
4155.288474,-9770.718434,666.185348,383.047749
4155.288804,-9326.594869,740.205942,-459.657299
4155.289134,-9474.636058,962.267725,-1455.581446
4155.289464,-9474.636058,1110.308913,-1532.190996
4155.289794,-9400.615463,1184.329507,-1991.848295
4155.290123,-9252.574275,1332.370696,-2451.505594
4155.290453,-9252.574275,1184.329507,-2757.943793
4155.290783,-9474.636058,1110.308913,-2374.896044
4155.291113,-9622.677246,1184.329507,-1608.800546
4155.291443,-10436.903782,1406.391290,-919.314598
4155.291772,-10288.862594,962.267725,-2068.457845
4155.292102,-9474.636058,962.267725,-2911.162892
4155.292432,-8734.430116,518.144159,-3524.039291
4155.292762,-8956.491898,1036.288319,-2298.286494
4155.293092,-9326.594869,1036.288319,-1072.533697
4155.293421,-8956.491898,1332.370696,-1225.752797
4155.293751,-8512.368333,1480.411884,-2451.505594
4155.294081,-9030.512492,1998.556043,-3370.820191
4155.294411,-9992.780217,1998.556043,-3217.601092
4155.294741,-10732.986159,2146.597232,-2911.162892
4155.295070,-10288.862594,2368.659014,-2987.772442
4155.295400,-9326.594869,2368.659014,-2451.505594
4155.295730,-9400.615463,2368.659014,-1991.848295
4155.296060,-9992.780217,2516.700203,-1991.848295
4155.296390,-9992.780217,2812.782580,-2374.896044
4155.296719,-9474.636058,2516.700203,-2911.162892
4155.297049,-9844.739029,2812.782580,-2451.505594
4155.297379,-9992.780217,3034.844362,-2068.457845
4155.297709,-9696.697840,3108.864956,-2374.896044
4155.298039,-9474.636058,3182.885551,-2528.115143
4155.298369,-10214.842000,3552.988522,-1991.848295
4155.298698,-10066.800811,3404.947333,-1225.752797
4155.299028,-10732.986159,3701.029710,-766.095498
4155.299358,-10362.883188,3627.009116,-1455.581446
4155.299688,-9400.615463,3404.947333,-1915.238745
4155.300018,-9104.533087,3182.885551,-2451.505594
4155.300347,-9770.718434,3330.926739,-2451.505594
4155.300677,-9844.739029,3108.864956,-919.314598
4155.301007,-9696.697840,3478.967927,-1302.362347
4155.301337,-8956.491898,3404.947333,-2451.505594
4155.301667,-8586.388927,3552.988522,-3524.039291
4155.301996,-9474.636058,4071.132681,-3217.601092
4155.302326,-10658.965565,3775.050304,-2374.896044
4155.302656,-11177.109724,4219.173869,-919.314598
4155.302986,-10066.800811,3997.112087,-1455.581446
4155.303316,-9548.656652,3404.947333,-1532.190996
4155.303645,-10140.821405,3182.885551,-1685.410096
4155.303975,-9770.718434,2812.782580,-1991.848295
4155.304305,-9104.533087,2442.679609,-2757.943793
4155.304635,-8438.347739,2590.720797,-3140.991542
4155.304965,-8882.471304,2738.761985,-2987.772442
4155.305294,-9696.697840,3256.906145,-1838.629195
4155.305624,-10362.883188,3701.029710,-2451.505594
4155.305954,-10066.800811,3182.885551,-3064.381992
4155.306284,-10510.924376,3182.885551,-2145.067394
4155.306614,-10658.965565,2516.700203,-1608.800546
4155.306943,-10288.862594,2442.679609,-459.657299
4155.307273,-9474.636058,1850.514855,-1378.971896
4155.307603,-8882.471304,1258.350101,-2911.162892
4155.307933,-8364.327145,814.226536,-3370.820191
4155.308263,-9326.594869,1554.432478,-1225.752797
4155.308592,-9548.656652,1036.288319,-229.828649
4155.308922,-9474.636058,1184.329507,76.609550
4155.309252,-9178.553681,1406.391290,-995.924147
4155.309582,-10066.800811,1480.411884,-1991.848295
4155.309912,-11103.089130,1480.411884,-1991.848295
4155.310241,-10807.006753,1480.411884,-1532.190996
4155.310571,-10584.944971,1110.308913,-766.095498
4155.310901,-10066.800811,666.185348,-1149.143247
4155.311231,-9104.533087,222.061783,-1838.629195
4155.311561,-8734.430116,222.061783,-2451.505594
4155.311890,-8364.327145,0.000000,-2451.505594
4155.312220,-9030.512492,-148.041188,-1302.362347
4155.312550,-9474.636058,296.082377,0.000000
4155.312880,-9548.656652,666.185348,153.219100
4155.313210,-9918.759623,1184.329507,-919.314598
4155.313539,-9918.759623,888.247130,-1608.800546
4155.313869,-10807.006753,1184.329507,-1991.848295
4155.314199,-11473.192101,1850.514855,-1685.410096
4155.314529,-10955.047942,1850.514855,-1455.581446
4155.314859,-10658.965565,814.226536,-1685.410096
4155.315188,-9178.553681,1110.308913,-2911.162892
4155.315518,-8364.327145,1036.288319,-3370.820191
4155.315848,-9104.533087,370.102971,-2221.676944
4155.316178,-9326.594869,1258.350101,-842.705048
4155.316508,-9326.594869,888.247130,0.000000
4155.316837,-9770.718434,1850.514855,-1532.190996
4155.317167,-9918.759623,1998.556043,-1532.190996
4155.317497,-10510.924376,2220.617826,-1378.971896
4155.317827,-11695.253884,2664.741391,-1302.362347
4155.318157,-10881.027347,2516.700203,-2145.067394
4155.318486,-9622.677246,1850.514855,-2298.286494
4155.318816,-8660.409521,2368.659014,-2681.334243
4155.319146,-9622.677246,2220.617826,-2068.457845
4155.319476,-9918.759623,1850.514855,-2374.896044
4155.319806,-8808.450710,1850.514855,-3830.477490
4155.320135,-7550.100608,1406.391290,-3600.648841
4155.320465,-8808.450710,2368.659014,-1532.190996
4155.320795,-10140.821405,2738.761985,0.000000
4155.321125,-10955.047942,2590.720797,-383.047749
4155.321455,-10288.862594,3034.844362,-1838.629195
4155.321784,-9770.718434,2590.720797,-2451.505594
4155.322114,-10955.047942,2960.823768,-1991.848295
4155.322444,-9548.656652,2516.700203,-2068.457845
4155.322774,-8660.409521,2516.700203,-2374.896044
4155.323104,-8068.244768,2220.617826,-2757.943793
4155.323433,-9178.553681,2738.761985,-2987.772442
4155.323763,-9474.636058,3108.864956,-3447.429741
4155.324093,-9770.718434,3849.070898,-3294.210641
4155.324423,-9474.636058,3256.906145,-3600.648841
4155.324753,-9474.636058,3330.926739,-3447.429741
4155.325082,-9622.677246,2960.823768,-2604.724693
4155.325412,-10436.903782,2960.823768,-1762.019645
4155.325742,-10658.965565,3034.844362,-919.314598
4155.326072,-10362.883188,2738.761985,-995.924147
4155.326402,-9474.636058,2812.782580,-1685.410096
4155.326731,-8956.491898,2368.659014,-1838.629195
4155.327061,-9400.615463,2886.803174,-2374.896044
4155.327391,-9474.636058,2368.659014,-2298.286494
4155.327721,-9400.615463,2886.803174,-2604.724693
4155.328051,-9474.636058,2516.700203,-2528.115143
4155.328380,-10140.821405,3552.988522,-2451.505594
4155.328710,-10955.047942,3404.947333,-1838.629195
4155.329040,-10732.986159,3108.864956,-1838.629195
4155.329369,-9918.759623,2886.803174,-2451.505594
4155.329699,-9252.574275,2368.659014,-2528.115143
4155.330029,-10510.924376,1998.556043,-919.314598
4155.330359,-10140.821405,2146.597232,-766.095498
4155.330688,-8808.450710,1776.494261,-1455.581446
4155.331018,-8660.409521,1776.494261,-1915.238745
4155.331348,-9992.780217,1924.535449,-1685.410096
4155.331678,-10732.986159,2220.617826,-1378.971896
4155.332007,-10140.821405,1702.473667,-1608.800546
4155.332337,-9474.636058,1628.453072,-919.314598
4155.332667,-10066.800811,1998.556043,-153.219100
4155.332996,-10066.800811,1628.453072,459.657299
4155.333326,-10140.821405,1628.453072,0.000000
4155.333656,-10140.821405,1184.329507,-1762.019645
4155.333986,-9918.759623,962.267725,-2528.115143
4155.334315,-10140.821405,518.144159,-1991.848295
4155.334645,-9252.574275,444.123565,-612.876398
4155.334975,-9030.512492,592.164754,842.705048
4155.335305,-8882.471304,740.205942,612.876398
4155.335634,-8956.491898,592.164754,-383.047749
4155.335964,-10140.821405,1110.308913,-1608.800546
4155.336294,-10881.027347,1184.329507,-1455.581446
4155.336624,-9770.718434,814.226536,-612.876398
4155.336953,-9696.697840,962.267725,-229.828649
4155.337283,-10140.821405,148.041188,-306.438199
4155.337613,-9548.656652,-370.102971,-229.828649
4155.337942,-8882.471304,-222.061783,-1685.410096
4155.338272,-9178.553681,222.061783,-1838.629195
4155.338602,-9696.697840,148.041188,-1072.533697
4155.338932,-9474.636058,370.102971,766.095498
4155.339261,-9326.594869,592.164754,1149.143247
4155.339591,-9400.615463,296.082377,0.000000
4155.339921,-9326.594869,-74.020594,-1072.533697
4155.340251,-9474.636058,-222.061783,-1378.971896
4155.340580,-9844.739029,-296.082377,-536.266849
4155.340910,-10436.903782,0.000000,842.705048
4155.341240,-9030.512492,-592.164754,1302.362347
4155.341569,-9548.656652,-888.247130,919.314598
4155.341899,-9548.656652,-592.164754,306.438199
4155.342229,-9252.574275,-962.267725,766.095498
4155.342559,-10066.800811,-666.185348,919.314598
4155.342888,-9992.780217,-518.144159,1838.629195
4155.343218,-10584.944971,0.000000,1685.410096
4155.343548,-9548.656652,-518.144159,766.095498
4155.343878,-9474.636058,444.123565,-1225.752797
4155.344207,-10214.842000,444.123565,-1532.190996
4155.344537,-10510.924376,0.000000,-1838.629195
4155.344867,-10658.965565,0.000000,-536.266849
4155.345196,-8808.450710,-666.185348,0.000000
4155.345526,-9844.739029,-888.247130,1302.362347
4155.345856,-9474.636058,-962.267725,689.485948
4155.346186,-8808.450710,-962.267725,-306.438199
4155.346515,-8586.388927,-222.061783,-766.095498
4155.346845,-10066.800811,370.102971,612.876398
4155.347175,-11325.150913,444.123565,1378.971896
4155.347505,-11103.089130,592.164754,995.924147
4155.347834,-10658.965565,740.205942,-459.657299
4155.348164,-10732.986159,-222.061783,-995.924147
4155.348494,-10510.924376,444.123565,-766.095498
4155.348823,-9770.718434,-296.082377,-76.609550
4155.349153,-8290.306550,-962.267725,76.609550
4155.349483,-7994.224174,0.000000,0.000000
4155.349813,-8882.471304,740.205942,229.828649
4155.350142,-10288.862594,222.061783,-229.828649
4155.350472,-10510.924376,1554.432478,-1072.533697
4155.350802,-10732.986159,1554.432478,-1072.533697
4155.351132,-10955.047942,1036.288319,229.828649
4155.351461,-10066.800811,1110.308913,995.924147
4155.351791,-9326.594869,0.000000,459.657299
4155.352121,-8512.368333,148.041188,76.609550
4155.352451,-8660.409521,0.000000,153.219100
4155.352780,-8734.430116,-592.164754,76.609550
4155.353110,-9622.677246,0.000000,919.314598
4155.353440,-9400.615463,518.144159,919.314598
4155.353769,-8734.430116,74.020594,1225.752797
4155.354099,-9474.636058,1406.391290,612.876398
4155.354429,-9770.718434,1258.350101,0.000000
4155.354759,-10510.924376,1110.308913,383.047749
4155.355088,-11251.130318,2220.617826,-383.047749
4155.355418,-9918.759623,1184.329507,-459.657299
4155.355748,-9844.739029,0.000000,-842.705048
4155.356078,-9844.739029,592.164754,-766.095498
4155.356407,-9104.533087,-74.020594,612.876398
4155.356737,-8882.471304,0.000000,1302.362347
4155.357067,-8660.409521,222.061783,612.876398
4155.357396,-9326.594869,0.000000,1225.752797
4155.357726,-10510.924376,0.000000,1685.410096
4155.358056,-10881.027347,740.205942,1072.533697
4155.358386,-10658.965565,74.020594,383.047749
4155.358715,-10732.986159,444.123565,306.438199
4155.359045,-9474.636058,222.061783,-536.266849
4155.359375,-8586.388927,-296.082377,-995.924147
4155.359705,-9622.677246,74.020594,-1225.752797
4155.360034,-9474.636058,-444.123565,-383.047749
4155.360364,-9178.553681,-1036.288319,689.485948
4155.360694,-8734.430116,444.123565,995.924147
4155.361023,-8808.450710,-444.123565,995.924147
4155.361353,-10732.986159,-888.247130,153.219100
4155.361683,-11103.089130,222.061783,-766.095498
4155.362013,-9622.677246,-444.123565,-153.219100
4155.362342,-10732.986159,-296.082377,612.876398
4155.362672,-10510.924376,-74.020594,842.705048
4155.363002,-9696.697840,-888.247130,1225.752797
4155.363332,-9622.677246,-1258.350101,153.219100
4155.363661,-8808.450710,-814.226536,-689.485948
4155.363991,-9918.759623,-1110.308913,76.609550
4155.364321,-10362.883188,-740.205942,536.266849
4155.364650,-9474.636058,-1110.308913,153.219100
4155.364980,-8438.347739,-888.247130,612.876398
4155.365310,-9844.739029,-222.061783,689.485948
4155.365640,-10658.965565,0.000000,459.657299
4155.365969,-10214.842000,-370.102971,0.000000
4155.366299,-10066.800811,518.144159,-689.485948
4155.366629,-10658.965565,444.123565,383.047749
4155.366959,-12213.398043,0.000000,1532.190996
4155.367288,-11843.295072,0.000000,1149.143247
4155.367618,-9326.594869,-888.247130,383.047749
4155.367948,-8216.285956,-1036.288319,-612.876398
4155.368278,-8734.430116,-296.082377,-383.047749
4155.368607,-9400.615463,-444.123565,612.876398
4155.368937,-10214.842000,148.041188,1225.752797
4155.369267,-9104.533087,148.041188,-153.219100
4155.369596,-9770.718434,0.000000,459.657299
4155.369926,-10510.924376,-148.041188,0.000000
4155.370256,-9622.677246,0.000000,153.219100
4155.370586,-8290.306550,-740.205942,229.828649
4155.370915,-9400.615463,-74.020594,459.657299
4155.371245,-9178.553681,-222.061783,1991.848295
4155.371575,-9548.656652,-296.082377,1838.629195
4155.371905,-9326.594869,1036.288319,-306.438199
4155.372234,-9696.697840,0.000000,-459.657299
4155.372564,-11473.192101,666.185348,-306.438199
4155.372894,-9918.759623,0.000000,-1072.533697
4155.373223,-8956.491898,0.000000,459.657299
4155.373553,-7920.203579,-296.082377,1378.971896
4155.373883,-8660.409521,370.102971,1225.752797
4155.374213,-9622.677246,370.102971,0.000000
4155.374542,-11325.150913,148.041188,-766.095498
4155.374872,-10955.047942,962.267725,0.000000
4155.375202,-9252.574275,0.000000,842.705048
4155.375532,-9474.636058,518.144159,995.924147
4155.375861,-9622.677246,296.082377,1149.143247
4155.376191,-9696.697840,-444.123565,229.828649
4155.376521,-9030.512492,222.061783,-842.705048
4155.376850,-9474.636058,296.082377,-842.705048
4155.377180,-10214.842000,296.082377,-153.219100
4155.377510,-10066.800811,592.164754,0.000000
4155.377840,-9770.718434,444.123565,1762.019645
4155.378169,-10362.883188,370.102971,612.876398
4155.378499,-10510.924376,370.102971,-842.705048
4155.378829,-10362.883188,-74.020594,-766.095498
4155.379159,-10066.800811,296.082377,153.219100
4155.379488,-9104.533087,888.247130,536.266849
4155.379818,-9104.533087,370.102971,689.485948
4155.380148,-10436.903782,518.144159,-229.828649
4155.380477,-9918.759623,814.226536,-383.047749
4155.380807,-9770.718434,0.000000,-919.314598
4155.381137,-10288.862594,592.164754,-153.219100
4155.381467,-10584.944971,962.267725,842.705048
4155.381796,-10807.006753,-148.041188,689.485948
4155.382126,-9474.636058,222.061783,-306.438199
4155.382456,-8438.347739,592.164754,-536.266849
4155.382786,-9770.718434,74.020594,-229.828649
4155.383115,-10140.821405,592.164754,0.000000
4155.383445,-9844.739029,518.144159,306.438199
4155.383775,-8586.388927,-222.061783,-229.828649
4155.384105,-9104.533087,666.185348,-229.828649
4155.384434,-9844.739029,74.020594,383.047749
4155.384764,-11473.192101,444.123565,919.314598
4155.385094,-9400.615463,1036.288319,383.047749
4155.385423,-8882.471304,222.061783,919.314598
4155.385753,-10436.903782,962.267725,459.657299
4155.386083,-11251.130318,1184.329507,689.485948
4155.386413,-10288.862594,-222.061783,76.609550
4155.386742,-9474.636058,592.164754,-306.438199
4155.387072,-9474.636058,666.185348,383.047749
4155.387402,-10066.800811,0.000000,536.266849
4155.387732,-8586.388927,518.144159,0.000000
4155.388061,-8660.409521,74.020594,383.047749
4155.388391,-9992.780217,148.041188,766.095498
4155.388721,-10732.986159,814.226536,995.924147
4155.389050,-9474.636058,74.020594,229.828649
4155.389380,-9400.615463,-444.123565,459.657299
4155.389710,-10436.903782,0.000000,1072.533697
4155.390040,-10362.883188,-222.061783,1838.629195
4155.390369,-9844.739029,0.000000,1532.190996
4155.390699,-8956.491898,148.041188,995.924147
4155.391029,-9474.636058,-296.082377,766.095498
4155.391359,-10510.924376,518.144159,229.828649
4155.391688,-9474.636058,74.020594,-229.828649
4155.392018,-8660.409521,-518.144159,459.657299
4155.392348,-9548.656652,518.144159,842.705048
4155.392677,-10732.986159,592.164754,536.266849
4155.393007,-10510.924376,-370.102971,-153.219100
4155.393337,-9030.512492,-148.041188,-459.657299
4155.393667,-8660.409521,-370.102971,-153.219100
