#time,accel_x,accel_y,accel_z
3998.915333,-9696.697840,-740.205942,1838.629195
3998.915663,-9548.656652,-962.267725,459.657299
3998.915993,-8808.450710,-888.247130,-306.438199
3998.916323,-8438.347739,-666.185348,-689.485948
3998.916653,-8290.306550,-962.267725,689.485948
3998.916984,-8512.368333,-518.144159,2374.896044
3998.917314,-8660.409521,-296.082377,3064.381992
3998.917644,-9696.697840,0.000000,2528.115143
3998.917974,-10288.862594,74.020594,1685.410096
3998.918304,-10140.821405,0.000000,842.705048
3998.918634,-10436.903782,814.226536,1762.019645
3998.918964,-10658.965565,1184.329507,2528.115143
3998.919294,-11473.192101,1184.329507,3064.381992
3998.919624,-10214.842000,1110.308913,1225.752797
3998.919954,-9918.759623,1332.370696,-612.876398
3998.920285,-9548.656652,1110.308913,-995.924147
3998.920615,-10214.842000,1036.288319,-383.047749
3998.920945,-9844.739029,370.102971,306.438199
3998.921275,-9252.574275,370.102971,612.876398
3998.921605,-9474.636058,222.061783,1915.238745
3998.921935,-10140.821405,148.041188,2374.896044
3998.922265,-10658.965565,222.061783,2451.505594
3998.922595,-10362.883188,-222.061783,2145.067394
3998.922925,-10510.924376,148.041188,2681.334243
3998.923256,-10140.821405,0.000000,3677.258390
3998.923586,-11029.068536,-370.102971,3677.258390
3998.923916,-8216.285956,-444.123565,2911.162892
3998.924246,-9918.759623,-592.164754,766.095498
3998.924576,-9030.512492,-296.082377,459.657299
3998.924906,-8290.306550,-1480.411884,1608.800546
3998.925236,-9474.636058,-1850.514855,1302.362347
3998.925566,-8808.450710,-1998.556043,1608.800546
3998.925896,-8364.327145,-2368.659014,1915.238745
3998.926226,-8956.491898,-2812.782580,2068.457845
3998.926557,-9474.636058,-2368.659014,3524.039291
3998.926887,-10436.903782,-3182.885551,4443.353888
3998.927217,-10584.944971,-3034.844362,5209.449386
3998.927547,-10066.800811,-3701.029710,4903.011187
3998.927877,-10214.842000,-3701.029710,4366.744339
3998.928207,-9918.759623,-3775.050304,2681.334243
3998.928537,-10436.903782,-4071.132681,1608.800546
3998.928867,-9474.636058,-3775.050304,1532.190996
3998.929197,-9770.718434,-3997.112087,2911.162892
3998.929528,-9474.636058,-3775.050304,3830.477490
3998.929858,-10214.842000,-4071.132681,3140.991542
3998.930188,-10362.883188,-4071.132681,842.705048
3998.930518,-10955.047942,-4293.194464,76.609550
3998.930848,-10436.903782,-4737.318029,1378.971896
3998.931178,-9844.739029,-5329.482782,4596.572988
3998.931508,-9770.718434,-5551.544565,6358.592633
3998.931838,-9992.780217,-4885.359217,4903.011187
3998.932168,-10066.800811,-4737.318029,2757.943793
3998.932498,-9844.739029,-4737.318029,919.314598
3998.932829,-9548.656652,-4145.153275,76.609550
3998.933159,-9622.677246,-3923.091493,459.657299
3998.933489,-9548.656652,-3775.050304,2221.676944
3998.933819,-8586.388927,-4145.153275,2298.286494
3998.934149,-8216.285956,-4293.194464,919.314598
3998.934479,-8586.388927,-3627.009116,-919.314598
3998.934809,-9474.636058,-3997.112087,0.000000
3998.935139,-10214.842000,-3478.967927,1378.971896
3998.935469,-10584.944971,-2960.823768,2451.505594
3998.935800,-9918.759623,-2664.741391,2068.457845
3998.936130,-9474.636058,-2664.741391,306.438199
3998.936460,-9548.656652,-2368.659014,-919.314598
3998.936790,-9844.739029,-1924.535449,-1762.019645
3998.937120,-9770.718434,-1184.329507,-153.219100
3998.937450,-9252.574275,-888.247130,306.438199
3998.937780,-8956.491898,-592.164754,766.095498
3998.938110,-9474.636058,-370.102971,229.828649
3998.938440,-10658.965565,-370.102971,0.000000
3998.938770,-11399.171507,222.061783,-536.266849
3998.939100,-10955.047942,0.000000,-459.657299
3998.939430,-9474.636058,0.000000,0.000000
3998.939760,-8364.327145,444.123565,689.485948
3998.940090,-9104.533087,740.205942,1149.143247
3998.940420,-9622.677246,1702.473667,612.876398
3998.940750,-9770.718434,2368.659014,-306.438199
3998.941080,-10140.821405,2738.761985,-459.657299
3998.941410,-10288.862594,2442.679609,0.000000
3998.941740,-10658.965565,2738.761985,383.047749
3998.942070,-10584.944971,2590.720797,153.219100
3998.942400,-9696.697840,2442.679609,-1225.752797
3998.942730,-9474.636058,2442.679609,-1455.581446
3998.943060,-8808.450710,2442.679609,-1072.533697
3998.943391,-8734.430116,2886.803174,-229.828649
3998.943721,-8586.388927,3182.885551,-612.876398
3998.944051,-8364.327145,3330.926739,-612.876398
3998.944381,-9030.512492,3552.988522,0.000000
3998.944711,-10214.842000,4219.173869,919.314598
3998.945041,-11177.109724,4367.215058,383.047749
3998.945371,-11029.068536,4293.194464,-2068.457845
3998.945701,-9918.759623,4219.173869,-3600.648841
3998.946031,-9326.594869,4071.132681,-4213.525239
3998.946361,-9622.677246,3849.070898,-2528.115143
3998.946691,-10066.800811,3627.009116,-689.485948
3998.947021,-9178.553681,3256.906145,-153.219100
3998.947351,-8438.347739,3182.885551,-536.266849
3998.947681,-9474.636058,2812.782580,-383.047749
3998.948011,-10362.883188,2812.782580,-459.657299
3998.948341,-10584.944971,2294.638420,-383.047749
3998.948671,-9474.636058,2294.638420,-459.657299
3998.949001,-9918.759623,1924.535449,766.095498
3998.949331,-10807.006753,2072.576638,1455.581446
3998.949661,-11251.130318,1776.494261,1149.143247
3998.949991,-10510.924376,1184.329507,153.219100
3998.950321,-9474.636058,518.144159,-766.095498
3998.950651,-9400.615463,-296.082377,459.657299
3998.950981,-9326.594869,-518.144159,2145.067394
3998.951311,-9030.512492,-888.247130,2528.115143
3998.951641,-8512.368333,-370.102971,306.438199
3998.951971,-8660.409521,-888.247130,-1915.238745
3998.952301,-9400.615463,-814.226536,-2451.505594
3998.952631,-10881.027347,-592.164754,-306.438199
3998.952961,-11621.233289,-740.205942,1685.410096
3998.953291,-10288.862594,-1924.535449,2451.505594
3998.953621,-7846.182985,-2664.741391,1532.190996
3998.953951,-8882.471304,-2812.782580,536.266849
3998.954281,-9992.780217,-3182.885551,383.047749
3998.954611,-9992.780217,-3330.926739,995.924147
3998.954941,-8882.471304,-3627.009116,1608.800546
3998.955271,-8364.327145,-3478.967927,1532.190996
3998.955601,-9400.615463,-2368.659014,1225.752797
3998.955931,-10584.944971,-2368.659014,306.438199
3998.956261,-10955.047942,-2072.576638,-842.705048
3998.956592,-9474.636058,-2738.761985,-1302.362347
3998.956922,-10140.821405,-2960.823768,842.705048
3998.957252,-10510.924376,-3182.885551,2528.115143
3998.957582,-10955.047942,-2886.803174,3064.381992
3998.957912,-9696.697840,-2960.823768,919.314598
3998.958242,-9326.594869,-3108.864956,-1149.143247
3998.958572,-9548.656652,-2442.679609,-1608.800546
3998.958902,-10436.903782,-2146.597232,1838.629195
3998.959232,-10807.006753,-1332.370696,3064.381992
3998.959562,-10066.800811,-1184.329507,2834.553343
3998.959892,-10066.800811,-1110.308913,1302.362347
3998.960222,-11177.109724,-1332.370696,-612.876398
3998.960552,-11473.192101,-1776.494261,-842.705048
3998.960882,-10658.965565,-1776.494261,536.266849
3998.961212,-9252.574275,-1924.535449,1762.019645
3998.961542,-8438.347739,-1036.288319,1915.238745
3998.961872,-8808.450710,-814.226536,1455.581446
3998.962202,-9696.697840,0.000000,0.000000
3998.962532,-10214.842000,370.102971,-536.266849
3998.962862,-9400.615463,148.041188,0.000000
3998.963192,-9992.780217,296.082377,1532.190996
3998.963522,-9548.656652,370.102971,2911.162892
3998.963852,-9474.636058,370.102971,1149.143247
3998.964182,-8512.368333,222.061783,-2145.067394
3998.964512,-8438.347739,592.164754,-3753.867940
3998.964842,-9400.615463,1184.329507,-2068.457845
3998.965172,-9548.656652,1850.514855,1149.143247
3998.965502,-9474.636058,2146.597232,2451.505594
3998.965832,-8586.388927,1702.473667,1149.143247
3998.966162,-9252.574275,2072.576638,-766.095498
3998.966492,-10066.800811,2146.597232,-1915.238745
3998.966822,-9770.718434,1998.556043,-1762.019645
3998.967152,-8586.388927,2368.659014,-995.924147
3998.967482,-9178.553681,2442.679609,0.000000
3998.967812,-9548.656652,2738.761985,0.000000
3998.968142,-10362.883188,3256.906145,-383.047749
3998.968472,-10510.924376,3256.906145,-1608.800546
3998.968802,-10288.862594,2812.782580,-2451.505594
3998.969132,-10066.800811,2442.679609,-1072.533697
3998.969462,-9844.739029,2442.679609,1532.190996
3998.969793,-9992.780217,2516.700203,1838.629195
3998.970123,-9474.636058,2664.741391,-383.047749
3998.970453,-9474.636058,2220.617826,-3907.087040
3998.970783,-9918.759623,2220.617826,-4290.134789
3998.971113,-10436.903782,2368.659014,-1225.752797
3998.971443,-10288.862594,2664.741391,1915.238745
3998.971773,-10066.800811,2442.679609,2221.676944
3998.972103,-9548.656652,1702.473667,306.438199
3998.972433,-10066.800811,1554.432478,-1302.362347
3998.972763,-10436.903782,1184.329507,-1072.533697
3998.973093,-10140.821405,888.247130,-536.266849
3998.973423,-9326.594869,592.164754,536.266849
3998.973753,-8882.471304,592.164754,689.485948
3998.974083,-9622.677246,666.185348,766.095498
3998.974413,-9918.759623,518.144159,-383.047749
3998.974743,-9696.697840,222.061783,-1302.362347
3998.975073,-9474.636058,-148.041188,-766.095498
3998.975403,-9622.677246,-222.061783,1149.143247
3998.975733,-10214.842000,-518.144159,2987.772442
3998.976063,-9696.697840,-740.205942,2068.457845
3998.976393,-9548.656652,-1110.308913,-536.266849
3998.976723,-9548.656652,-1258.350101,-2221.676944
3998.977053,-9918.759623,-888.247130,-1532.190996
3998.977383,-10288.862594,-1110.308913,995.924147
3998.977713,-9992.780217,-740.205942,2757.943793
3998.978043,-9622.677246,-888.247130,2145.067394
3998.978373,-9770.718434,-1110.308913,766.095498
3998.978703,-10510.924376,-1628.453072,-459.657299
3998.979033,-11103.089130,-1480.411884,-383.047749
3998.979363,-10140.821405,-1850.514855,612.876398
3998.979693,-9474.636058,-1628.453072,1838.629195
3998.980023,-8956.491898,-1480.411884,1838.629195
3998.980353,-10214.842000,-888.247130,1378.971896
3998.980683,-10584.944971,-888.247130,-229.828649
3998.981013,-10288.862594,-1406.391290,-383.047749
3998.981343,-9326.594869,-1702.473667,383.047749
3998.981673,-10362.883188,-1406.391290,2987.772442
3998.982003,-10288.862594,-1628.453072,3600.648841
3998.982333,-9992.780217,-1850.514855,2068.457845
3998.982663,-9030.512492,-1702.473667,-766.095498
3998.982994,-9326.594869,-2072.576638,-1838.629195
3998.983324,-10362.883188,-962.267725,-383.047749
3998.983654,-10066.800811,-592.164754,2374.896044
3998.983984,-9770.718434,-518.144159,2604.724693
3998.984314,-9030.512492,-1036.288319,1915.238745
3998.984644,-9400.615463,-1332.370696,0.000000
3998.984974,-10066.800811,-1406.391290,-689.485948
3998.985304,-10066.800811,-1702.473667,-153.219100
3998.985634,-9030.512492,-1480.411884,306.438199
3998.985964,-8586.388927,-1258.350101,1762.019645
3998.986294,-9474.636058,-444.123565,1685.410096
3998.986624,-10436.903782,148.041188,536.266849
3998.986954,-10732.986159,444.123565,-1532.190996
3998.987284,-9770.718434,0.000000,-1072.533697
3998.987614,-9622.677246,-222.061783,612.876398
3998.987944,-10140.821405,-296.082377,2987.772442
3998.988274,-10066.800811,0.000000,2298.286494
3998.988604,-9252.574275,-222.061783,-766.095498
3998.988934,-9030.512492,-296.082377,-3064.381992
3998.989264,-9474.636058,0.000000,-2681.334243
3998.989594,-10214.842000,518.144159,76.609550
3998.989924,-10140.821405,1184.329507,2068.457845
3998.990254,-9252.574275,814.226536,2451.505594
3998.990584,-9326.594869,592.164754,76.609550
3998.990914,-10214.842000,444.123565,-1149.143247
3998.991244,-11177.109724,1036.288319,-1302.362347
3998.991574,-10436.903782,444.123565,-612.876398
3998.991904,-9252.574275,444.123565,153.219100
3998.992234,-9104.533087,666.185348,919.314598
3998.992564,-9992.780217,1332.370696,306.438199
3998.992894,-10436.903782,1702.473667,-766.095498
3998.993224,-10066.800811,1406.391290,-2298.286494
3998.993554,-9252.574275,1110.308913,-2068.457845
3998.993884,-9770.718434,1258.350101,612.876398
3998.994214,-10436.903782,1332.370696,2681.334243
3998.994544,-10288.862594,740.205942,995.924147
3998.994874,-9104.533087,370.102971,-1762.019645
3998.995204,-8882.471304,592.164754,-3370.820191
3998.995534,-9622.677246,962.267725,-2221.676944
3998.995864,-10362.883188,1258.350101,919.314598
3998.996195,-9844.739029,1406.391290,2757.943793
3998.996525,-9252.574275,1036.288319,1532.190996
3998.996855,-9474.636058,1036.288319,-153.219100
3998.997185,-10288.862594,666.185348,-1302.362347
3998.997515,-10214.842000,370.102971,-1225.752797
3998.997845,-9104.533087,592.164754,-229.828649
3998.998175,-8882.471304,592.164754,306.438199
3998.998505,-9474.636058,1258.350101,536.266849
3998.998835,-10362.883188,1628.453072,76.609550
3998.999165,-10584.944971,1776.494261,-1455.581446
3998.999495,-10066.800811,888.247130,-1838.629195
3998.999825,-9548.656652,962.267725,-1149.143247
3999.000155,-10140.821405,888.247130,2528.115143
3999.000485,-10066.800811,444.123565,2681.334243
3999.000815,-9622.677246,518.144159,612.876398
3999.001145,-9252.574275,518.144159,-2528.115143
3999.001475,-9548.656652,0.000000,-2834.553343
3999.001805,-10288.862594,444.123565,-536.266849
3999.002135,-10510.924376,666.185348,1915.238745
3999.002465,-9918.759623,518.144159,2681.334243
3999.002795,-9178.553681,-148.041188,1455.581446
3999.003125,-9622.677246,-296.082377,0.000000
3999.003455,-10658.965565,-518.144159,-383.047749
3999.003785,-10288.862594,-888.247130,-153.219100
3999.004115,-8882.471304,-814.226536,689.485948
3999.004445,-8808.450710,-962.267725,1149.143247
3999.004775,-9400.615463,-444.123565,1455.581446
3999.005105,-10288.862594,-148.041188,689.485948
3999.005435,-9992.780217,0.000000,0.000000
3999.005765,-9548.656652,-1110.308913,-229.828649
3999.006095,-10140.821405,-1110.308913,1608.800546
3999.006425,-10584.944971,-888.247130,3140.991542
3999.006755,-10362.883188,-1184.329507,2681.334243
3999.007085,-9030.512492,-1702.473667,-612.876398
3999.007415,-8512.368333,-1702.473667,-2604.724693
3999.007745,-9326.594869,-1406.391290,-1762.019645
3999.008075,-10066.800811,-888.247130,766.095498
3999.008405,-10066.800811,-592.164754,2604.724693
3999.008735,-9400.615463,-814.226536,2451.505594
3999.009065,-9030.512492,-1332.370696,1302.362347
3999.009396,-9992.780217,-1702.473667,0.000000
3999.009726,-10510.924376,-888.247130,-306.438199
3999.010056,-9844.739029,-1480.411884,459.657299
3999.010386,-9548.656652,-1332.370696,612.876398
3999.010716,-9548.656652,-962.267725,1225.752797
3999.011046,-10362.883188,-74.020594,1532.190996
3999.011376,-10658.965565,148.041188,76.609550
3999.011706,-10214.842000,-444.123565,-1302.362347
3999.012036,-9400.615463,-518.144159,-919.314598
3999.012366,-9918.759623,-592.164754,1149.143247
3999.012696,-10066.800811,-592.164754,2987.772442
3999.013026,-10066.800811,-518.144159,1378.971896
3999.013356,-9326.594869,-888.247130,-1455.581446
3999.013686,-9252.574275,-740.205942,-2757.943793
3999.014016,-10066.800811,0.000000,-383.047749
3999.014346,-10584.944971,0.000000,2145.067394
3999.014676,-10140.821405,296.082377,2987.772442
3999.015006,-9474.636058,222.061783,1685.410096
3999.015336,-9844.739029,592.164754,306.438199
3999.015666,-10436.903782,0.000000,-536.266849
3999.015996,-10510.924376,0.000000,-919.314598
3999.016326,-9252.574275,74.020594,-536.266849
3999.016656,-8438.347739,74.020594,0.000000
3999.016986,-9326.594869,1036.288319,766.095498
3999.017316,-10066.800811,1184.329507,76.609550
3999.017646,-10214.842000,1554.432478,-919.314598
3999.017976,-9548.656652,1184.329507,-1608.800546
3999.018306,-9326.594869,814.226536,536.266849
3999.018636,-10066.800811,1036.288319,1762.019645
3999.018966,-10288.862594,814.226536,2145.067394
3999.019296,-9326.594869,666.185348,0.000000
3999.019626,-8808.450710,666.185348,-2221.676944
3999.019956,-9400.615463,1184.329507,-2604.724693
3999.020286,-9992.780217,1480.411884,-306.438199
3999.020616,-10288.862594,2146.597232,1915.238745
3999.020946,-9696.697840,1628.453072,1838.629195
3999.021276,-9400.615463,1258.350101,76.609550
3999.021606,-10214.842000,1406.391290,-1072.533697
3999.021936,-10436.903782,1036.288319,-1608.800546
3999.022266,-9992.780217,814.226536,-612.876398
3999.022597,-9474.636058,814.226536,0.000000
3999.022927,-8882.471304,1184.329507,459.657299
3999.023257,-9548.656652,1036.288319,459.657299
3999.023587,-10362.883188,1406.391290,0.000000
3999.023917,-10362.883188,1258.350101,-459.657299
3999.024247,-9918.759623,814.226536,-1149.143247
3999.024577,-9770.718434,518.144159,919.314598
3999.024907,-10066.800811,592.164754,2298.286494
3999.025237,-10214.842000,296.082377,2528.115143
3999.025567,-8882.471304,0.000000,-1225.752797
3999.025897,-8438.347739,-296.082377,-2834.553343
3999.026227,-9474.636058,370.102971,-1685.410096
3999.026557,-10436.903782,444.123565,919.314598
3999.026887,-10140.821405,518.144159,2145.067394
3999.027217,-9474.636058,74.020594,1762.019645
3999.027547,-9474.636058,-444.123565,153.219100
3999.027877,-10066.800811,-592.164754,-919.314598
3999.028207,-11103.089130,-296.082377,-153.219100
3999.028537,-9844.739029,-592.164754,383.047749
3999.028867,-9178.553681,-666.185348,995.924147
3999.029197,-9252.574275,-666.185348,1838.629195
3999.029527,-10140.821405,0.000000,1608.800546
3999.029857,-10732.986159,0.000000,-153.219100
3999.030187,-10288.862594,-222.061783,-766.095498
3999.030517,-9548.656652,-666.185348,0.000000
3999.030847,-10066.800811,-962.267725,1685.410096
3999.031177,-10362.883188,-1110.308913,2451.505594
3999.031507,-10066.800811,-962.267725,1072.533697
3999.031837,-9326.594869,-1258.350101,-1378.971896
3999.032167,-9400.615463,-962.267725,-2145.067394
3999.032497,-10807.006753,-148.041188,-612.876398
3999.032827,-10658.965565,0.000000,2298.286494
3999.033157,-10288.862594,-74.020594,2604.724693
3999.033487,-9474.636058,-666.185348,1608.800546
3999.033817,-9400.615463,-814.226536,0.000000
3999.034147,-10362.883188,-1110.308913,-383.047749
3999.034477,-10362.883188,-1184.329507,0.000000
3999.034807,-9474.636058,-888.247130,536.266849
3999.035137,-8586.388927,-1036.288319,1608.800546
3999.035467,-9252.574275,0.000000,1302.362347
3999.035797,-9992.780217,148.041188,919.314598
3999.036128,-10436.903782,296.082377,-383.047749
3999.036458,-10066.800811,0.000000,-1532.190996
3999.036787,-9474.636058,-148.041188,153.219100
3999.037117,-9918.759623,-592.164754,2145.067394
3999.037447,-9696.697840,-444.123565,2451.505594
3999.037777,-9104.533087,-518.144159,76.609550
3999.038107,-8512.368333,-444.123565,-2451.505594
3999.038437,-9400.615463,0.000000,-2451.505594
3999.038767,-10288.862594,666.185348,153.219100
3999.039096,-10584.944971,1110.308913,2451.505594
3999.039426,-9992.780217,814.226536,1991.848295
3999.039756,-9548.656652,444.123565,612.876398
3999.040086,-9770.718434,0.000000,-766.095498
3999.040416,-10362.883188,0.000000,-842.705048
3999.040746,-9918.759623,74.020594,-459.657299
3999.041076,-9104.533087,370.102971,383.047749
3999.041405,-8956.491898,0.000000,1225.752797
3999.041735,-10140.821405,814.226536,1072.533697
3999.042065,-10807.006753,1110.308913,0.000000
3999.042395,-9992.780217,666.185348,-995.924147
3999.042725,-9474.636058,444.123565,-1225.752797
3999.043055,-9548.656652,222.061783,612.876398
3999.043385,-10066.800811,222.061783,2298.286494
3999.043715,-9400.615463,296.082377,1455.581446
3999.044044,-9104.533087,0.000000,-1915.238745
3999.044374,-9252.574275,444.123565,-2834.553343
3999.044704,-10288.862594,592.164754,-1608.800546
3999.045034,-10584.944971,888.247130,1532.190996
3999.045364,-9992.780217,888.247130,2451.505594
3999.045694,-9030.512492,518.144159,1608.800546
3999.046024,-8882.471304,296.082377,-306.438199
3999.046353,-10288.862594,74.020594,-1072.533697
3999.046683,-10436.903782,0.000000,-1072.533697
3999.047013,-9622.677246,296.082377,0.000000
3999.047343,-9104.533087,370.102971,612.876398
3999.047673,-9474.636058,518.144159,1149.143247
3999.048003,-10288.862594,962.267725,1149.143247
3999.048333,-10436.903782,740.205942,-536.266849
3999.048662,-9548.656652,74.020594,-1149.143247
3999.048992,-9326.594869,-148.041188,-766.095498
3999.049322,-9548.656652,0.000000,1838.629195
3999.049652,-10140.821405,74.020594,2451.505594
3999.049982,-10066.800811,0.000000,689.485948
3999.050312,-9326.594869,0.000000,-2451.505594
3999.050642,-9548.656652,148.041188,-2451.505594
3999.050971,-10140.821405,370.102971,-306.438199
3999.051301,-10288.862594,888.247130,2374.896044
3999.051631,-10066.800811,592.164754,2068.457845
3999.051961,-9104.533087,-148.041188,459.657299
3999.052291,-9548.656652,-592.164754,-842.705048
3999.052621,-10288.862594,-296.082377,-1225.752797
3999.052951,-10362.883188,-370.102971,-383.047749
3999.053281,-9400.615463,-666.185348,766.095498
3999.053610,-9474.636058,-222.061783,1149.143247
3999.053940,-9770.718434,0.000000,1455.581446
3999.054270,-10362.883188,0.000000,459.657299
3999.054600,-10214.842000,0.000000,-689.485948
3999.054930,-9548.656652,-148.041188,-919.314598
3999.055260,-9400.615463,-370.102971,76.609550
3999.055590,-10066.800811,0.000000,2528.115143
3999.055919,-9844.739029,-444.123565,1685.410096
3999.056249,-9474.636058,-148.041188,-459.657299
3999.056579,-9178.553681,-444.123565,-3064.381992
3999.056909,-9696.697840,-222.061783,-2221.676944
3999.057239,-10362.883188,74.020594,842.705048
3999.057569,-10288.862594,0.000000,2911.162892
3999.057899,-9326.594869,74.020594,2145.067394
3999.058228,-9474.636058,-222.061783,766.095498
3999.058558,-10214.842000,-518.144159,-1149.143247
3999.058888,-10510.924376,-444.123565,-306.438199
3999.059218,-9844.739029,-444.123565,459.657299
3999.059548,-9178.553681,-74.020594,995.924147
3999.059878,-9030.512492,-148.041188,1608.800546
3999.060208,-10288.862594,370.102971,1149.143247
3999.060537,-10436.903782,0.000000,-306.438199
3999.060867,-9770.718434,74.020594,-995.924147
3999.061197,-9252.574275,-74.020594,-536.266849
3999.061527,-9400.615463,-370.102971,1532.190996
3999.061857,-10066.800811,-296.082377,2834.553343
3999.062187,-9696.697840,-666.185348,1532.190996
3999.062517,-9400.615463,0.000000,-1685.410096
3999.062846,-9252.574275,-444.123565,-2451.505594
3999.063176,-10066.800811,0.000000,-689.485948
3999.063506,-10362.883188,518.144159,2298.286494
3999.063836,-9770.718434,444.123565,2528.115143
3999.064166,-8956.491898,0.000000,1608.800546
3999.064496,-9622.677246,-74.020594,-766.095498
3999.064826,-10436.903782,0.000000,-1532.190996
3999.065156,-10658.965565,0.000000,-766.095498
3999.065485,-9548.656652,0.000000,153.219100
3999.065815,-9400.615463,0.000000,1225.752797
3999.066145,-9104.533087,74.020594,1685.410096
3999.066475,-10140.821405,962.267725,229.828649
3999.066805,-10362.883188,592.164754,-689.485948
3999.067135,-10066.800811,666.185348,-1915.238745
3999.067465,-9770.718434,222.061783,-383.047749
3999.067794,-10436.903782,222.061783,2451.505594
3999.068124,-10214.842000,370.102971,2068.457845
3999.068454,-9770.718434,222.061783,0.000000
3999.068784,-8882.471304,0.000000,-2528.115143
3999.069114,-9178.553681,0.000000,-2298.286494
3999.069444,-9918.759623,444.123565,0.000000
3999.069774,-10510.924376,518.144159,2757.943793
3999.070103,-9696.697840,444.123565,2681.334243
3999.070433,-9104.533087,0.000000,1072.533697
3999.070763,-10288.862594,0.000000,-1149.143247
3999.071093,-10584.944971,-370.102971,-1302.362347
3999.071423,-10140.821405,0.000000,0.000000
3999.071753,-9326.594869,0.000000,1072.533697
3999.072083,-8660.409521,74.020594,1915.238745
3999.072412,-9770.718434,518.144159,1072.533697
3999.072742,-10362.883188,370.102971,0.000000
3999.073072,-10436.903782,592.164754,-995.924147
3999.073402,-9622.677246,0.000000,-766.095498
3999.073732,-9400.615463,-518.144159,1072.533697
3999.074062,-9844.739029,-666.185348,2834.553343
3999.074392,-9696.697840,-296.082377,2068.457845
3999.074722,-9178.553681,-370.102971,-612.876398
3999.075051,-8808.450710,-222.061783,-2834.553343
3999.075381,-9844.739029,0.000000,-1991.848295
3999.075711,-10436.903782,370.102971,1302.362347
3999.076041,-10584.944971,666.185348,2911.162892
3999.076371,-9622.677246,296.082377,1762.019645
3999.076701,-9104.533087,0.000000,-383.047749
3999.077031,-10214.842000,-296.082377,-1608.800546
3999.077360,-10288.862594,-222.061783,-1378.971896
3999.077690,-9326.594869,-370.102971,-306.438199
3999.078020,-8660.409521,-444.123565,612.876398
3999.078350,-9030.512492,74.020594,1225.752797
3999.078680,-10214.842000,74.020594,842.705048
3999.079010,-11029.068536,296.082377,-76.609550
3999.079340,-10510.924376,0.000000,-1072.533697
3999.079669,-9696.697840,0.000000,0.000000
3999.079999,-10140.821405,-222.061783,1762.019645
3999.080329,-10362.883188,0.000000,3064.381992
3999.080659,-9844.739029,0.000000,1455.581446
3999.080989,-9252.574275,-296.082377,-1455.581446
3999.081319,-8882.471304,-296.082377,-2604.724693
3999.081649,-9918.759623,296.082377,-383.047749
3999.081978,-10214.842000,296.082377,2298.286494
3999.082308,-9918.759623,444.123565,2757.943793
3999.082638,-8956.491898,-370.102971,1225.752797
3999.082968,-9400.615463,-370.102971,-766.095498
3999.083298,-10140.821405,-592.164754,-995.924147
3999.083628,-10288.862594,-370.102971,153.219100
3999.083958,-9178.553681,-444.123565,842.705048
3999.084288,-8660.409521,-148.041188,1685.410096
3999.084617,-9326.594869,0.000000,1685.410096
3999.084947,-10807.006753,592.164754,842.705048
3999.085277,-10584.944971,518.144159,-612.876398
3999.085607,-9770.718434,74.020594,-1072.533697
3999.085937,-9474.636058,0.000000,0.000000
3999.086267,-9548.656652,-296.082377,2451.505594
3999.086597,-9770.718434,0.000000,2298.286494
3999.086926,-9400.615463,-296.082377,0.000000
3999.087256,-8956.491898,0.000000,-2451.505594
3999.087586,-9474.636058,-296.082377,-2528.115143
3999.087916,-10362.883188,518.144159,0.000000
3999.088246,-10584.944971,888.247130,1915.238745
3999.088576,-9770.718434,740.205942,1762.019645
3999.088906,-9326.594869,222.061783,306.438199
3999.089235,-10066.800811,0.000000,-1072.533697
3999.089565,-10658.965565,0.000000,-612.876398
3999.089895,-10066.800811,-296.082377,229.828649
3999.090225,-8734.430116,-592.164754,383.047749
3999.090555,-8956.491898,-296.082377,1302.362347
3999.090885,-10066.800811,666.185348,1225.752797
3999.091215,-10658.965565,1036.288319,0.000000
3999.091544,-10732.986159,740.205942,-1455.581446
3999.091874,-9696.697840,222.061783,-1532.190996
3999.092204,-9696.697840,0.000000,919.314598
3999.092534,-10510.924376,0.000000,3064.381992
3999.092864,-10066.800811,-296.082377,2298.286494
3999.093194,-9474.636058,-74.020594,-842.705048
3999.093524,-8808.450710,-592.164754,-2834.553343
3999.093854,-9622.677246,-296.082377,-1608.800546
3999.094183,-10214.842000,74.020594,1302.362347
3999.094513,-10066.800811,592.164754,2757.943793
3999.094843,-9400.615463,296.082377,1532.190996
3999.095173,-9030.512492,222.061783,0.000000
3999.095503,-10214.842000,-148.041188,-995.924147
3999.095833,-10658.965565,0.000000,-766.095498
3999.096163,-9844.739029,-370.102971,229.828649
3999.096492,-8660.409521,-444.123565,995.924147
3999.096822,-8956.491898,-370.102971,1149.143247
3999.097152,-9844.739029,296.082377,766.095498
3999.097482,-10288.862594,148.041188,-536.266849
3999.097812,-9992.780217,74.020594,-1532.190996
3999.098142,-9104.533087,0.000000,-612.876398
3999.098472,-9622.677246,0.000000,1685.410096
3999.098801,-10066.800811,0.000000,2681.334243
3999.099131,-9992.780217,-74.020594,1149.143247
3999.099461,-8882.471304,0.000000,-1838.629195
3999.099791,-9400.615463,-222.061783,-3064.381992
3999.100121,-10436.903782,370.102971,-536.266849
3999.100451,-10807.006753,1110.308913,1915.238745
3999.100781,-9770.718434,888.247130,1532.190996
3999.101110,-9326.594869,518.144159,1072.533697
3999.101440,-9548.656652,0.000000,-766.095498
3999.101770,-10732.986159,0.000000,-919.314598
3999.102100,-10658.965565,592.164754,-689.485948
3999.102430,-9178.553681,0.000000,76.609550
3999.102760,-8808.450710,-222.061783,766.095498
3999.103090,-9696.697840,296.082377,766.095498
3999.103419,-10658.965565,444.123565,459.657299
3999.103749,-10436.903782,814.226536,-536.266849
3999.104079,-9918.759623,0.000000,-1225.752797
3999.104409,-9622.677246,0.000000,536.266849
3999.104739,-10140.821405,0.000000,3217.601092
3999.105069,-9992.780217,74.020594,2757.943793
3999.105399,-9770.718434,-296.082377,459.657299
3999.105729,-9030.512492,-814.226536,-2451.505594
3999.106058,-9474.636058,-296.082377,-2681.334243
3999.106388,-9844.739029,666.185348,0.000000
3999.106718,-10140.821405,592.164754,2451.505594
3999.107048,-9326.594869,518.144159,1915.238745
3999.107378,-9178.553681,148.041188,76.609550
3999.107708,-9992.780217,0.000000,-842.705048
3999.108038,-10584.944971,-148.041188,-995.924147
3999.108367,-10436.903782,-222.061783,459.657299
3999.108697,-9030.512492,-518.144159,995.924147
3999.109027,-8808.450710,-518.144159,1072.533697
3999.109357,-9252.574275,444.123565,612.876398
3999.109687,-10214.842000,296.082377,0.000000
3999.110017,-10140.821405,814.226536,-1225.752797
3999.110347,-9474.636058,444.123565,-1072.533697
3999.110676,-9770.718434,518.144159,1378.971896
3999.111006,-10362.883188,370.102971,2681.334243
3999.111336,-9770.718434,0.000000,1608.800546
3999.111666,-9030.512492,0.000000,-1532.190996
3999.111996,-9178.553681,-222.061783,-3294.210641
3999.112326,-9918.759623,74.020594,-1762.019645
3999.112656,-10362.883188,592.164754,1149.143247
3999.112985,-9992.780217,666.185348,2451.505594
3999.113315,-9474.636058,444.123565,1685.410096
3999.113645,-9474.636058,0.000000,-459.657299
3999.113975,-10436.903782,0.000000,-536.266849
3999.114305,-10807.006753,0.000000,-306.438199
3999.114635,-9918.759623,-296.082377,306.438199
3999.114965,-8512.368333,0.000000,536.266849
3999.115295,-9326.594869,0.000000,842.705048
3999.115624,-10066.800811,296.082377,153.219100
3999.115954,-10584.944971,296.082377,-842.705048
3999.116284,-9770.718434,666.185348,-1225.752797
3999.116614,-9030.512492,-222.061783,0.000000
3999.116944,-9696.697840,-148.041188,2221.676944
3999.117274,-10214.842000,-74.020594,2681.334243
3999.117604,-9844.739029,-518.144159,1072.533697
3999.117933,-9104.533087,-888.247130,-1685.410096
3999.118263,-8956.491898,-518.144159,-2604.724693
3999.118593,-10140.821405,148.041188,-459.657299
3999.118923,-10584.944971,666.185348,2221.676944
3999.119253,-9844.739029,814.226536,1915.238745
3999.119583,-9474.636058,296.082377,766.095498
3999.119913,-9696.697840,74.020594,-689.485948
3999.120242,-10436.903782,-370.102971,-1072.533697
3999.120572,-10658.965565,148.041188,-383.047749
3999.120902,-9178.553681,-666.185348,766.095498
3999.121232,-8734.430116,-666.185348,1072.533697
3999.121562,-9770.718434,0.000000,842.705048
3999.121892,-10510.924376,444.123565,0.000000
3999.122222,-10288.862594,444.123565,-995.924147
3999.122551,-9178.553681,0.000000,-1072.533697
3999.122881,-9252.574275,74.020594,919.314598
3999.123211,-10066.800811,222.061783,2757.943793
3999.123541,-9844.739029,222.061783,1685.410096
3999.123871,-9400.615463,0.000000,-766.095498
3999.124201,-9178.553681,-296.082377,-3524.039291
3999.124531,-9770.718434,148.041188,-2681.334243
3999.124861,-9992.780217,592.164754,-536.266849
3999.125190,-9548.656652,592.164754,2145.067394
3999.125520,-9178.553681,370.102971,1838.629195
3999.125850,-9252.574275,296.082377,229.828649
3999.126180,-10288.862594,444.123565,-995.924147
3999.126510,-10510.924376,74.020594,-383.047749
3999.126840,-10214.842000,-296.082377,153.219100
3999.127170,-9326.594869,-370.102971,383.047749
3999.127499,-9252.574275,-222.061783,995.924147
3999.127829,-9474.636058,370.102971,383.047749
3999.128159,-10584.944971,370.102971,-153.219100
3999.128489,-10362.883188,222.061783,-689.485948
3999.128819,-9622.677246,-296.082377,0.000000
3999.129149,-9474.636058,0.000000,2145.067394
3999.129479,-10362.883188,74.020594,3140.991542
3999.129808,-10214.842000,0.000000,1608.800546
3999.130138,-9252.574275,-148.041188,-1455.581446
3999.130468,-8956.491898,-296.082377,-2528.115143
3999.130798,-9770.718434,0.000000,-1532.190996
3999.131128,-10658.965565,518.144159,1378.971896
3999.131458,-10288.862594,518.144159,2451.505594
3999.131788,-9178.553681,148.041188,1149.143247
3999.132117,-9326.594869,-296.082377,-536.266849
3999.132447,-10066.800811,-296.082377,-919.314598
3999.132777,-10288.862594,-592.164754,0.000000
3999.133107,-9770.718434,-370.102971,536.266849
3999.133437,-9030.512492,-296.082377,1455.581446
3999.133767,-9400.615463,0.000000,1072.533697
3999.134097,-10807.006753,666.185348,536.266849
3999.134427,-10436.903782,444.123565,-459.657299
3999.134756,-9326.594869,0.000000,-995.924147
3999.135086,-9030.512492,-222.061783,306.438199
3999.135416,-9918.759623,0.000000,2451.505594
3999.135746,-10362.883188,0.000000,2528.115143
3999.136076,-9844.739029,-148.041188,0.000000
3999.136406,-9178.553681,-592.164754,-2528.115143
3999.136736,-8956.491898,-592.164754,-2681.334243
3999.137065,-9696.697840,0.000000,0.000000
3999.137395,-9696.697840,370.102971,2451.505594
3999.137725,-9548.656652,592.164754,2221.676944
3999.138055,-9770.718434,296.082377,1149.143247
3999.138385,-10214.842000,0.000000,-229.828649
3999.138715,-11325.150913,222.061783,-536.266849
3999.139045,-10288.862594,0.000000,-536.266849
3999.139374,-9326.594869,-518.144159,229.828649
3999.139704,-8364.327145,-370.102971,612.876398
3999.140034,-9252.574275,0.000000,689.485948
3999.140364,-9992.780217,740.205942,153.219100
3999.140694,-10362.883188,888.247130,-1378.971896
3999.141023,-9622.677246,148.041188,-612.876398
3999.141353,-9474.636058,74.020594,995.924147
3999.141683,-10214.842000,0.000000,2987.772442
3999.142013,-10214.842000,0.000000,1991.848295
3999.142343,-9622.677246,-148.041188,-383.047749
3999.142672,-9030.512492,-592.164754,-2834.553343
3999.143002,-9844.739029,0.000000,-1532.190996
3999.143332,-10140.821405,666.185348,919.314598
3999.143662,-10140.821405,518.144159,2834.553343
3999.143992,-9474.636058,666.185348,1838.629195
3999.144322,-9326.594869,0.000000,0.000000
3999.144651,-9696.697840,0.000000,-2221.676944
3999.144981,-10214.842000,0.000000,-766.095498
3999.145311,-9992.780217,-370.102971,0.000000
3999.145641,-8882.471304,-444.123565,306.438199
3999.145971,-8956.491898,0.000000,689.485948
3999.146300,-9770.718434,296.082377,0.000000
3999.146630,-10584.944971,518.144159,-306.438199
3999.146960,-10140.821405,666.185348,-842.705048
3999.147290,-9474.636058,148.041188,383.047749
3999.147620,-9770.718434,296.082377,2451.505594
3999.147949,-10140.821405,-74.020594,2987.772442
3999.148279,-9992.780217,0.000000,1149.143247
3999.148609,-9104.533087,-444.123565,-2068.457845
3999.148939,-8512.368333,-592.164754,-3983.696590
3999.149269,-9696.697840,370.102971,-1685.410096
3999.149599,-10436.903782,962.267725,1302.362347
3999.149928,-10214.842000,962.267725,2604.724693
3999.150258,-9474.636058,814.226536,1225.752797
3999.150588,-9696.697840,444.123565,-536.266849
3999.150918,-10807.006753,148.041188,-995.924147
3999.151248,-11029.068536,-148.041188,-153.219100
3999.151577,-9844.739029,-296.082377,459.657299
3999.151907,-8660.409521,0.000000,689.485948
3999.152237,-8882.471304,296.082377,919.314598
3999.152567,-9918.759623,814.226536,0.000000
3999.152897,-10584.944971,962.267725,-1072.533697
3999.153226,-9696.697840,740.205942,-766.095498
3999.153556,-9548.656652,0.000000,0.000000
3999.153886,-9992.780217,148.041188,2145.067394
3999.154216,-9992.780217,74.020594,2374.896044
3999.154546,-9474.636058,296.082377,0.000000
3999.154876,-8882.471304,-296.082377,-2604.724693
3999.155205,-9252.574275,0.000000,-2911.162892
3999.155535,-9992.780217,518.144159,-306.438199
3999.155865,-10436.903782,962.267725,2451.505594
3999.156195,-10140.821405,814.226536,2604.724693
3999.156525,-9326.594869,370.102971,919.314598
3999.156854,-9622.677246,0.000000,0.000000
3999.157184,-10288.862594,-518.144159,-612.876398
3999.157514,-9696.697840,-592.164754,459.657299
3999.157844,-9104.533087,-518.144159,919.314598
3999.158174,-8734.430116,0.000000,919.314598
3999.158503,-9474.636058,148.041188,766.095498
3999.158833,-9844.739029,370.102971,612.876398
3999.159163,-10140.821405,296.082377,-536.266849
3999.159493,-9400.615463,0.000000,-612.876398
3999.159823,-9474.636058,0.000000,842.705048
3999.160153,-10066.800811,74.020594,2757.943793
3999.160482,-9918.759623,0.000000,1838.629195
3999.160812,-9326.594869,-444.123565,-919.314598
3999.161142,-9474.636058,-444.123565,-2681.334243
3999.161472,-9770.718434,-296.082377,-2145.067394
3999.161802,-9918.759623,148.041188,1378.971896
3999.162131,-9918.759623,296.082377,2528.115143
3999.162461,-9326.594869,222.061783,1991.848295
3999.162791,-9400.615463,-444.123565,383.047749
3999.163121,-9918.759623,-666.185348,-612.876398
3999.163451,-10658.965565,-592.164754,-153.219100
3999.163781,-10066.800811,-592.164754,459.657299
3999.164110,-8956.491898,-592.164754,689.485948
3999.164440,-9474.636058,-518.144159,842.705048
3999.164770,-10066.800811,222.061783,766.095498
3999.165100,-10732.986159,444.123565,76.609550
3999.165430,-10214.842000,222.061783,-689.485948
3999.165759,-9474.636058,0.000000,-459.657299
3999.166089,-9844.739029,0.000000,1915.238745
3999.166419,-9992.780217,-222.061783,2298.286494
3999.166749,-9770.718434,-370.102971,689.485948
3999.167079,-8956.491898,-518.144159,-1915.238745
3999.167408,-9252.574275,0.000000,-3140.991542
3999.167738,-10140.821405,148.041188,-766.095498
3999.168068,-10288.862594,74.020594,1838.629195
3999.168398,-9770.718434,518.144159,2451.505594
3999.168728,-9252.574275,0.000000,689.485948
3999.169058,-9548.656652,-296.082377,-306.438199
3999.169387,-10288.862594,-370.102971,-536.266849
3999.169717,-10214.842000,-222.061783,-383.047749
3999.170047,-9474.636058,-296.082377,229.828649
3999.170377,-8882.471304,0.000000,842.705048
3999.170707,-9474.636058,296.082377,306.438199
3999.171036,-10288.862594,370.102971,153.219100
3999.171366,-10436.903782,888.247130,-842.705048
3999.171696,-9474.636058,666.185348,-1378.971896
3999.172026,-9548.656652,0.000000,459.657299
3999.172356,-10214.842000,0.000000,2145.067394
3999.172685,-10066.800811,0.000000,1838.629195
3999.173015,-9474.636058,296.082377,-919.314598
3999.173345,-8882.471304,0.000000,-2145.067394
3999.173675,-9326.594869,74.020594,-1838.629195
3999.174005,-10584.944971,814.226536,536.266849
3999.174335,-10436.903782,814.226536,2374.896044
3999.174664,-9622.677246,592.164754,2068.457845
3999.174994,-9178.553681,74.020594,153.219100
3999.175324,-9474.636058,148.041188,-536.266849
3999.175654,-10214.842000,148.041188,-1072.533697
3999.175984,-10066.800811,222.061783,0.000000
3999.176313,-9104.533087,74.020594,0.000000
3999.176643,-9252.574275,370.102971,1149.143247
3999.176973,-10584.944971,814.226536,1225.752797
3999.177303,-10881.027347,1258.350101,153.219100
3999.177633,-10436.903782,518.144159,-612.876398
3999.177962,-9252.574275,222.061783,-919.314598
3999.178292,-9548.656652,0.000000,766.095498
3999.178622,-10214.842000,518.144159,2374.896044
3999.178952,-9918.759623,148.041188,1532.190996
3999.179282,-9400.615463,148.041188,-1149.143247
3999.179612,-9178.553681,0.000000,-2451.505594
3999.179941,-9918.759623,370.102971,-1149.143247
3999.180271,-10658.965565,592.164754,1302.362347
3999.180601,-10140.821405,592.164754,2374.896044
3999.180931,-9178.553681,0.000000,1532.190996
3999.181261,-9474.636058,-74.020594,-153.219100
3999.181590,-10288.862594,0.000000,-1225.752797
3999.181920,-10584.944971,-148.041188,-612.876398
3999.182250,-9696.697840,-592.164754,0.000000
3999.182580,-8660.409521,-592.164754,306.438199
3999.182910,-9178.553681,74.020594,842.705048
3999.183239,-10140.821405,222.061783,1225.752797
3999.183569,-10510.924376,74.020594,229.828649
3999.183899,-9918.759623,0.000000,-1225.752797
3999.184229,-9474.636058,-518.144159,-383.047749
3999.184559,-10140.821405,-222.061783,1455.581446
3999.184889,-10140.821405,-370.102971,2298.286494
3999.185218,-9400.615463,-370.102971,919.314598
3999.185548,-8734.430116,-592.164754,-1608.800546
3999.185878,-8956.491898,-74.020594,-2298.286494
3999.186208,-10288.862594,0.000000,0.000000
3999.186538,-10510.924376,370.102971,1608.800546
3999.186867,-10140.821405,296.082377,2374.896044
3999.187197,-9178.553681,-222.061783,919.314598
3999.187527,-9474.636058,-444.123565,-766.095498
3999.187857,-10214.842000,-666.185348,-995.924147
3999.188187,-10140.821405,-370.102971,-76.609550
3999.188517,-9326.594869,-296.082377,383.047749
3999.188846,-9178.553681,0.000000,536.266849
3999.189176,-9622.677246,370.102971,1225.752797
3999.189506,-10510.924376,518.144159,919.314598
3999.189836,-10362.883188,296.082377,-306.438199
3999.190166,-9474.636058,0.000000,-459.657299
3999.190495,-9326.594869,-666.185348,306.438199
3999.190825,-9844.739029,-444.123565,1838.629195
3999.191155,-10066.800811,0.000000,1915.238745
3999.191485,-9400.615463,0.000000,76.609550
3999.191815,-9326.594869,0.000000,-2374.896044
3999.192144,-9696.697840,0.000000,-1608.800546
3999.192474,-10584.944971,592.164754,612.876398
3999.192804,-10436.903782,518.144159,2451.505594
3999.193134,-9474.636058,74.020594,1838.629195
3999.193464,-8808.450710,-444.123565,153.219100
3999.193794,-9548.656652,-444.123565,-536.266849
3999.194123,-10288.862594,-370.102971,-766.095498
3999.194453,-9622.677246,-296.082377,0.000000
3999.194783,-8734.430116,-518.144159,76.609550
3999.195113,-8512.368333,0.000000,689.485948
3999.195443,-9844.739029,666.185348,919.314598
3999.195772,-10362.883188,1036.288319,689.485948
3999.196102,-10436.903782,962.267725,-306.438199
3999.196432,-9770.718434,0.000000,-842.705048
3999.196762,-9696.697840,-370.102971,459.657299
3999.197092,-10288.862594,444.123565,1378.971896
3999.197421,-9770.718434,296.082377,1302.362347
3999.197751,-9030.512492,148.041188,-1072.533697
3999.198081,-8734.430116,296.082377,-2374.896044
3999.198411,-9844.739029,518.144159,-1225.752797
3999.198741,-10807.006753,1036.288319,1302.362347
3999.199071,-10881.027347,888.247130,2298.286494
3999.199400,-9844.739029,518.144159,1072.533697
3999.199730,-9252.574275,-296.082377,-536.266849
3999.200060,-9696.697840,-222.061783,-1378.971896
3999.200390,-10140.821405,0.000000,-612.876398
3999.200720,-9696.697840,74.020594,0.000000
3999.201049,-8808.450710,0.000000,229.828649
3999.201379,-8882.471304,444.123565,0.000000
3999.201709,-10436.903782,888.247130,766.095498
3999.202039,-10584.944971,592.164754,459.657299
3999.202369,-9992.780217,0.000000,-689.485948
3999.202698,-9252.574275,0.000000,-153.219100
3999.203028,-9400.615463,-592.164754,1072.533697
3999.203358,-9696.697840,0.000000,1762.019645
3999.203688,-9474.636058,74.020594,153.219100
3999.204018,-8956.491898,74.020594,-2145.067394
3999.204348,-9252.574275,0.000000,-1915.238745
3999.204677,-10140.821405,222.061783,306.438199
3999.205007,-10436.903782,666.185348,1991.848295
3999.205337,-10288.862594,592.164754,2221.676944
3999.205667,-9252.574275,370.102971,229.828649
3999.205997,-9622.677246,-592.164754,-766.095498
3999.206326,-9918.759623,-666.185348,-766.095498
3999.206656,-9696.697840,-740.205942,153.219100
3999.206986,-9104.533087,0.000000,0.000000
3999.207316,-8734.430116,-296.082377,995.924147
3999.207646,-9844.739029,518.144159,1225.752797
3999.207975,-10955.047942,740.205942,995.924147
3999.208305,-11103.089130,888.247130,0.000000
3999.208635,-9844.739029,0.000000,-1072.533697
3999.208965,-9474.636058,-444.123565,153.219100
3999.209295,-9770.718434,-518.144159,2068.457845
3999.209625,-10140.821405,-74.020594,1532.190996
3999.209954,-9400.615463,0.000000,-995.924147
3999.210284,-9178.553681,-74.020594,-2451.505594
3999.210614,-9770.718434,0.000000,-2068.457845
3999.210944,-10732.986159,444.123565,919.314598
3999.211274,-10362.883188,592.164754,1455.581446
3999.211603,-9474.636058,74.020594,1302.362347
3999.211933,-9104.533087,-370.102971,0.000000
3999.212263,-9992.780217,-592.164754,-1378.971896
3999.212593,-10288.862594,0.000000,-919.314598
3999.212923,-9844.739029,-518.144159,0.000000
3999.213252,-8734.430116,-444.123565,536.266849
3999.213582,-9252.574275,-222.061783,995.924147
3999.213912,-10140.821405,518.144159,1225.752797
3999.214242,-10732.986159,444.123565,76.609550
3999.214572,-10214.842000,222.061783,-689.485948
3999.214902,-9400.615463,74.020594,-612.876398
3999.215231,-9622.677246,0.000000,1225.752797
3999.215561,-10362.883188,74.020594,1991.848295
3999.215891,-10066.800811,0.000000,1532.190996
3999.216221,-9030.512492,0.000000,-1455.581446
3999.216551,-8956.491898,-370.102971,-2681.334243
3999.216880,-10362.883188,814.226536,-842.705048
3999.217210,-10732.986159,740.205942,1762.019645
3999.217540,-10288.862594,518.144159,2451.505594
3999.217870,-9252.574275,222.061783,1302.362347
3999.218200,-9252.574275,0.000000,-153.219100
3999.218530,-10436.903782,-148.041188,-766.095498
3999.218859,-10658.965565,148.041188,-229.828649
3999.219189,-9992.780217,222.061783,229.828649
3999.219519,-9030.512492,0.000000,766.095498
3999.219849,-9770.718434,148.041188,766.095498
3999.220179,-10436.903782,888.247130,842.705048
3999.220508,-10288.862594,592.164754,-459.657299
3999.220838,-9400.615463,370.102971,-1532.190996
3999.221168,-9178.553681,370.102971,-842.705048
3999.221498,-9548.656652,148.041188,1072.533697
3999.221828,-10362.883188,296.082377,1991.848295
3999.222157,-9696.697840,74.020594,612.876398
3999.222487,-9030.512492,0.000000,-2374.896044
3999.222817,-9252.574275,0.000000,-2221.676944
3999.223147,-10288.862594,518.144159,-76.609550
3999.223477,-10362.883188,666.185348,2374.896044
3999.223807,-9844.739029,518.144159,2068.457845
3999.224136,-9178.553681,148.041188,689.485948
3999.224466,-9844.739029,0.000000,-689.485948
3999.224796,-10436.903782,-222.061783,-766.095498
3999.225126,-10510.924376,0.000000,-306.438199
3999.225456,-9178.553681,222.061783,229.828649
3999.225785,-8956.491898,-148.041188,459.657299
3999.226115,-9474.636058,148.041188,919.314598
3999.226445,-10436.903782,592.164754,459.657299
3999.226775,-10584.944971,74.020594,0.000000
3999.227105,-9770.718434,0.000000,-612.876398
3999.227434,-9770.718434,-296.082377,229.828649
3999.227764,-10140.821405,-592.164754,1915.238745
3999.228094,-10362.883188,-222.061783,2221.676944
3999.228424,-9622.677246,-148.041188,229.828649
3999.228754,-9252.574275,-296.082377,-2068.457845
3999.229084,-9474.636058,-370.102971,-1685.410096
3999.229413,-10214.842000,222.061783,536.266849
3999.229743,-10066.800811,296.082377,1455.581446
3999.230073,-9696.697840,0.000000,1762.019645
3999.230403,-9178.553681,-296.082377,459.657299
3999.230733,-9622.677246,-444.123565,-612.876398
3999.231062,-9992.780217,-222.061783,-612.876398
3999.231392,-10066.800811,-666.185348,0.000000
3999.231722,-9474.636058,-740.205942,536.266849
3999.232052,-9252.574275,-370.102971,1225.752797
3999.232382,-9918.759623,0.000000,1302.362347
3999.232711,-10288.862594,0.000000,919.314598
3999.233041,-9992.780217,148.041188,-536.266849
3999.233371,-8956.491898,-370.102971,-153.219100
3999.233701,-9178.553681,-370.102971,766.095498
3999.234031,-10140.821405,222.061783,1915.238745
3999.234361,-10214.842000,0.000000,1072.533697
3999.234690,-9548.656652,-222.061783,-1455.581446
3999.235020,-9400.615463,-222.061783,-2528.115143
3999.235350,-9548.656652,222.061783,-1608.800546
3999.235680,-9992.780217,74.020594,1149.143247
3999.236010,-9622.677246,222.061783,1838.629195
3999.236339,-8882.471304,-296.082377,1225.752797
3999.236669,-9178.553681,-222.061783,0.000000
3999.236999,-10066.800811,-74.020594,0.000000
3999.237329,-10584.944971,0.000000,0.000000
3999.237659,-9992.780217,0.000000,919.314598
3999.237988,-9252.574275,-222.061783,919.314598
3999.238318,-9696.697840,370.102971,1225.752797
3999.238648,-10288.862594,444.123565,536.266849
3999.238978,-10510.924376,740.205942,-459.657299
3999.239307,-9992.780217,740.205942,-1225.752797
3999.239637,-9622.677246,592.164754,-536.266849
3999.239967,-10288.862594,148.041188,995.924147
3999.240296,-10214.842000,0.000000,2068.457845
3999.240626,-9400.615463,0.000000,383.047749
3999.240956,-8882.471304,-222.061783,-1608.800546
3999.241286,-9400.615463,0.000000,-1838.629195
3999.241615,-10214.842000,222.061783,0.000000
3999.241945,-10362.883188,518.144159,2374.896044
3999.242275,-9548.656652,518.144159,2451.505594
3999.242605,-8734.430116,0.000000,689.485948
3999.242934,-9696.697840,148.041188,-383.047749
3999.243264,-10436.903782,0.000000,-766.095498
3999.243594,-10510.924376,74.020594,-459.657299
3999.243923,-9030.512492,0.000000,0.000000
3999.244253,-8586.388927,296.082377,76.609550
3999.244583,-9400.615463,740.205942,153.219100
3999.244913,-10510.924376,962.267725,153.219100
3999.245242,-10584.944971,1258.350101,-459.657299
3999.245572,-10066.800811,814.226536,-1225.752797
3999.245902,-10140.821405,740.205942,459.657299
3999.246231,-10658.965565,296.082377,1915.238745
3999.246561,-10584.944971,370.102971,1915.238745
3999.246891,-9474.636058,222.061783,-306.438199
3999.247221,-9178.553681,0.000000,-2604.724693
3999.247550,-9548.656652,222.061783,-1915.238745
3999.247880,-10140.821405,740.205942,536.266849
3999.248210,-9918.759623,740.205942,2145.067394
3999.248540,-9548.656652,444.123565,1225.752797
3999.248869,-8956.491898,0.000000,229.828649
3999.249199,-9918.759623,74.020594,-612.876398
3999.249529,-9992.780217,0.000000,0.000000
3999.249858,-9474.636058,-222.061783,0.000000
3999.250188,-9030.512492,-444.123565,383.047749
3999.250518,-8882.471304,-222.061783,919.314598
3999.250848,-10140.821405,444.123565,766.095498
3999.251177,-10584.944971,592.164754,306.438199
3999.251507,-10214.842000,518.144159,-689.485948
3999.251837,-9474.636058,148.041188,0.000000
3999.252167,-9992.780217,0.000000,1685.410096
3999.252496,-10214.842000,-74.020594,2604.724693
3999.252826,-9770.718434,-296.082377,919.314598
3999.253156,-9400.615463,-592.164754,-1685.410096
3999.253485,-9252.574275,-888.247130,-3064.381992
3999.253815,-10066.800811,-222.061783,-689.485948
3999.254145,-9992.780217,0.000000,1225.752797
3999.254475,-9474.636058,74.020594,2221.676944
3999.254804,-8882.471304,0.000000,1149.143247
3999.255134,-9548.656652,0.000000,536.266849
3999.255464,-10510.924376,-370.102971,-536.266849
3999.255793,-10732.986159,-444.123565,0.000000
3999.256123,-9918.759623,-666.185348,842.705048
3999.256453,-8956.491898,-740.205942,995.924147
3999.256783,-9400.615463,-518.144159,1149.143247
3999.257112,-9918.759623,-444.123565,919.314598
3999.257442,-10362.883188,0.000000,-306.438199
3999.257772,-9548.656652,0.000000,-842.705048
3999.258102,-9326.594869,-74.020594,76.609550
3999.258431,-10214.842000,0.000000,2451.505594
3999.258761,-10658.965565,-222.061783,2451.505594
3999.259091,-10214.842000,0.000000,766.095498
3999.259420,-9104.533087,-1110.308913,-1378.971896
3999.259750,-9178.553681,-592.164754,-2068.457845
3999.260080,-10066.800811,0.000000,-459.657299
3999.260410,-10214.842000,444.123565,1455.581446
3999.260739,-9622.677246,370.102971,1915.238745
3999.261069,-9252.574275,0.000000,766.095498
3999.261399,-9918.759623,0.000000,-153.219100
3999.261729,-10881.027347,-296.082377,-153.219100
3999.262058,-10436.903782,-222.061783,153.219100
3999.262388,-9326.594869,-814.226536,536.266849
3999.262718,-8216.285956,-296.082377,1149.143247
3999.263047,-9252.574275,-296.082377,1455.581446
3999.263377,-9918.759623,222.061783,766.095498
3999.263707,-10214.842000,592.164754,0.000000
3999.264037,-9622.677246,518.144159,-459.657299
3999.264366,-10140.821405,296.082377,612.876398
3999.264696,-10362.883188,0.000000,2298.286494
3999.265026,-9918.759623,74.020594,1762.019645
3999.265355,-8808.450710,0.000000,-1225.752797
3999.265685,-8364.327145,-370.102971,-3294.210641
3999.266015,-9178.553681,370.102971,-2987.772442
3999.266345,-9992.780217,518.144159,0.000000
3999.266674,-9992.780217,888.247130,1991.848295
3999.267004,-9474.636058,592.164754,1608.800546
3999.267334,-9474.636058,370.102971,459.657299
3999.267664,-10140.821405,0.000000,-76.609550
3999.267993,-10658.965565,0.000000,-383.047749
3999.268323,-10362.883188,148.041188,919.314598
3999.268653,-9474.636058,-74.020594,689.485948
3999.268982,-9178.553681,0.000000,1072.533697
3999.269312,-9918.759623,444.123565,1072.533697
3999.269642,-10436.903782,962.267725,-229.828649
3999.269972,-10066.800811,888.247130,-1149.143247
3999.270301,-9474.636058,666.185348,-995.924147
3999.270631,-10214.842000,518.144159,1149.143247
3999.270961,-10807.006753,518.144159,2374.896044
3999.271291,-10362.883188,222.061783,766.095498
3999.271620,-8956.491898,-370.102971,-2221.676944
3999.271950,-8660.409521,-444.123565,-3524.039291
3999.272280,-9474.636058,74.020594,-1455.581446
3999.272609,-9918.759623,666.185348,1302.362347
3999.272939,-10066.800811,296.082377,2528.115143
3999.273269,-9104.533087,296.082377,1838.629195
3999.273599,-9474.636058,74.020594,536.266849
3999.273928,-10732.986159,0.000000,-766.095498
3999.274258,-10584.944971,-814.226536,76.609550
3999.274588,-9548.656652,-592.164754,0.000000
3999.274917,-8808.450710,-666.185348,306.438199
3999.275247,-9030.512492,148.041188,459.657299
3999.275577,-9622.677246,740.205942,383.047749
3999.275907,-10436.903782,888.247130,-612.876398
3999.276236,-9696.697840,296.082377,-1302.362347
3999.276566,-9548.656652,74.020594,-153.219100
3999.276896,-10066.800811,74.020594,1762.019645
3999.277226,-10584.944971,222.061783,2145.067394
3999.277555,-9770.718434,0.000000,0.000000
3999.277885,-9030.512492,-444.123565,-2528.115143
3999.278215,-9474.636058,-518.144159,-2757.943793
3999.278544,-10214.842000,518.144159,0.000000
3999.278874,-10510.924376,814.226536,2221.676944
3999.279204,-9844.739029,592.164754,2068.457845
3999.279534,-9252.574275,74.020594,689.485948
3999.279863,-9918.759623,0.000000,-383.047749
3999.280193,-10807.006753,-370.102971,-383.047749
3999.280523,-9992.780217,-592.164754,-153.219100
3999.280853,-8956.491898,-740.205942,306.438199
3999.281182,-8216.285956,-962.267725,612.876398
3999.281512,-9548.656652,0.000000,842.705048
3999.281842,-10140.821405,370.102971,459.657299
3999.282171,-10214.842000,370.102971,-689.485948
3999.282501,-9992.780217,222.061783,306.438199
3999.282831,-10214.842000,-148.041188,1225.752797
3999.283161,-10362.883188,-296.082377,3140.991542
3999.283490,-10140.821405,-148.041188,2374.896044
3999.283820,-9104.533087,-370.102971,306.438199
3999.284150,-8882.471304,-592.164754,-2451.505594
3999.284479,-9474.636058,-222.061783,-2451.505594
3999.284809,-9918.759623,296.082377,612.876398
3999.285139,-9844.739029,592.164754,2145.067394
3999.285469,-9770.718434,592.164754,1608.800546
3999.285798,-9474.636058,-74.020594,383.047749
3999.286128,-9992.780217,-592.164754,-229.828649
3999.286458,-10510.924376,-592.164754,-383.047749
3999.286788,-9992.780217,-888.247130,383.047749
3999.287117,-8512.368333,-1184.329507,766.095498
3999.287447,-8808.450710,-296.082377,1072.533697
3999.287777,-9770.718434,222.061783,1225.752797
3999.288106,-10732.986159,740.205942,919.314598
3999.288436,-10658.965565,962.267725,-995.924147
3999.288766,-10066.800811,74.020594,-306.438199
3999.289096,-10510.924376,148.041188,1762.019645
3999.289425,-10658.965565,222.061783,2834.553343
3999.289755,-10066.800811,-148.041188,1225.752797
3999.290085,-8956.491898,-592.164754,-1762.019645
3999.290415,-8734.430116,-666.185348,-3064.381992
3999.290744,-9400.615463,0.000000,-1532.190996
3999.291074,-10658.965565,444.123565,1072.533697
3999.291404,-10066.800811,666.185348,2298.286494
3999.291733,-9252.574275,370.102971,1608.800546
3999.292063,-9622.677246,0.000000,0.000000
3999.292393,-10658.965565,74.020594,-306.438199
3999.292723,-10584.944971,-296.082377,-306.438199
3999.293052,-9474.636058,-370.102971,-612.876398
3999.293382,-8660.409521,-518.144159,229.828649
3999.293712,-9326.594869,296.082377,995.924147
3999.294041,-9992.780217,592.164754,459.657299
3999.294371,-10214.842000,888.247130,-689.485948
3999.294701,-9770.718434,518.144159,-1302.362347
3999.295031,-9770.718434,296.082377,-76.609550
3999.295360,-10362.883188,296.082377,1991.848295
3999.295690,-10362.883188,148.041188,2298.286494
3999.296020,-9474.636058,-148.041188,0.000000
3999.296350,-9104.533087,-148.041188,-1915.238745
3999.296679,-9104.533087,-444.123565,-1991.848295
3999.297009,-10140.821405,518.144159,153.219100
3999.297339,-10288.862594,740.205942,2757.943793
3999.297668,-10066.800811,888.247130,2757.943793
3999.297998,-9252.574275,222.061783,1378.971896
3999.298328,-9474.636058,222.061783,-689.485948
3999.298658,-10584.944971,222.061783,-1072.533697
3999.298987,-9844.739029,0.000000,-689.485948
3999.299317,-8882.471304,-222.061783,-229.828649
3999.299647,-8512.368333,296.082377,0.000000
3999.299977,-9474.636058,666.185348,306.438199
3999.300306,-10658.965565,1110.308913,-229.828649
3999.300636,-10436.903782,962.267725,-536.266849
3999.300966,-9326.594869,0.000000,-536.266849
3999.301295,-9696.697840,-222.061783,1455.581446
3999.301625,-10436.903782,-222.061783,2911.162892
3999.301955,-10288.862594,-222.061783,2145.067394
3999.302285,-8956.491898,-592.164754,-1225.752797
3999.302614,-8512.368333,-666.185348,-2681.334243
3999.302944,-9474.636058,0.000000,-1838.629195
3999.303274,-10214.842000,740.205942,995.924147
3999.303603,-9844.739029,740.205942,2298.286494
3999.303933,-9474.636058,592.164754,1532.190996
3999.304263,-9326.594869,74.020594,-306.438199
3999.304593,-10658.965565,-296.082377,-1072.533697
3999.304922,-10584.944971,-370.102971,-766.095498
3999.305252,-9400.615463,-666.185348,0.000000
3999.305582,-8512.368333,-740.205942,306.438199
3999.305912,-9178.553681,-296.082377,612.876398
3999.306241,-10140.821405,296.082377,995.924147
3999.306571,-10510.924376,740.205942,459.657299
3999.306901,-10066.800811,444.123565,-766.095498
3999.307230,-9918.759623,0.000000,383.047749
3999.307560,-10214.842000,0.000000,1991.848295
3999.307890,-10066.800811,0.000000,2451.505594
3999.308220,-9918.759623,-444.123565,1225.752797
3999.308549,-8882.471304,-370.102971,-2298.286494
3999.308879,-9030.512492,-370.102971,-3140.991542
3999.309209,-9918.759623,296.082377,-919.314598
3999.309539,-10510.924376,592.164754,1532.190996
3999.309868,-10288.862594,592.164754,2374.896044
3999.310198,-9178.553681,222.061783,919.314598
3999.310528,-9548.656652,0.000000,-383.047749
3999.310857,-10732.986159,0.000000,-459.657299
3999.311187,-10955.047942,-296.082377,0.000000
3999.311517,-9696.697840,-222.061783,229.828649
3999.311847,-8882.471304,-222.061783,536.266849
3999.312176,-9548.656652,222.061783,1072.533697
3999.312506,-10140.821405,518.144159,919.314598
3999.312836,-10362.883188,592.164754,76.609550
3999.313165,-9474.636058,222.061783,-612.876398
3999.313495,-9622.677246,0.000000,612.876398
3999.313825,-10140.821405,0.000000,2221.676944
3999.314155,-10214.842000,-222.061783,1915.238745
3999.314484,-9252.574275,-666.185348,-306.438199
3999.314814,-8290.306550,-592.164754,-2451.505594
3999.315144,-8956.491898,-222.061783,-2221.676944
3999.315474,-9844.739029,444.123565,612.876398
3999.315803,-10214.842000,888.247130,2068.457845
3999.316133,-9918.759623,518.144159,2221.676944
3999.316463,-9770.718434,74.020594,536.266849
3999.316792,-9696.697840,-444.123565,-306.438199
3999.317122,-10140.821405,-370.102971,-383.047749
3999.317452,-9696.697840,-592.164754,0.000000
3999.317782,-9030.512492,-444.123565,0.000000
3999.318111,-8882.471304,-444.123565,919.314598
3999.318441,-9622.677246,518.144159,842.705048
3999.318771,-10584.944971,740.205942,0.000000
3999.319101,-10658.965565,888.247130,-459.657299
3999.319430,-9622.677246,370.102971,-383.047749
3999.319760,-9770.718434,74.020594,842.705048
3999.320090,-10658.965565,74.020594,2145.067394
3999.320419,-10214.842000,0.000000,995.924147
3999.320749,-9474.636058,-74.020594,-1302.362347
3999.321079,-8956.491898,-592.164754,-2987.772442
3999.321409,-9844.739029,0.000000,-1225.752797
3999.321738,-10436.903782,222.061783,1378.971896
3999.322068,-10362.883188,518.144159,2451.505594
3999.322398,-9474.636058,296.082377,2528.115143
3999.322727,-9622.677246,-296.082377,459.657299
3999.323057,-10214.842000,-370.102971,-459.657299
3999.323387,-10436.903782,-592.164754,0.000000
3999.323717,-9400.615463,-666.185348,153.219100
3999.324046,-8660.409521,-1036.288319,536.266849
3999.324376,-9104.533087,-370.102971,459.657299
3999.324706,-9622.677246,222.061783,612.876398
3999.325036,-9918.759623,518.144159,-383.047749
3999.325365,-9770.718434,518.144159,-1149.143247
3999.325695,-9474.636058,-148.041188,-306.438199
3999.326025,-9992.780217,-370.102971,1455.581446
3999.326354,-10288.862594,0.000000,2145.067394
3999.326684,-9992.780217,296.082377,689.485948
3999.327014,-9474.636058,0.000000,-1915.238745
3999.327344,-9104.533087,-148.041188,-2451.505594
3999.327673,-9844.739029,370.102971,-306.438199
3999.328003,-10510.924376,592.164754,2298.286494
3999.328333,-10066.800811,666.185348,1838.629195
3999.328663,-9400.615463,296.082377,766.095498
3999.328992,-9770.718434,0.000000,-76.609550
3999.329322,-10658.965565,0.000000,-842.705048
3999.329652,-10436.903782,0.000000,-689.485948
3999.329981,-9104.533087,-296.082377,0.000000
3999.330311,-8660.409521,-370.102971,536.266849
3999.330641,-9474.636058,296.082377,689.485948
3999.330971,-10362.883188,888.247130,229.828649
3999.331300,-10362.883188,962.267725,-306.438199
3999.331630,-9844.739029,222.061783,-995.924147
3999.331960,-9770.718434,0.000000,536.266849
3999.332289,-10214.842000,-296.082377,2681.334243
3999.332619,-10214.842000,-74.020594,1991.848295
3999.332949,-9474.636058,-148.041188,76.609550
3999.333279,-9104.533087,-148.041188,-2145.067394
3999.333608,-9696.697840,0.000000,-1608.800546
3999.333938,-9992.780217,444.123565,383.047749
3999.334268,-10066.800811,666.185348,1608.800546
3999.334598,-9474.636058,518.144159,1532.190996
3999.334927,-9252.574275,0.000000,229.828649
3999.335257,-10066.800811,74.020594,-536.266849
3999.335587,-10214.842000,-148.041188,-842.705048
3999.335916,-9622.677246,-74.020594,-229.828649
3999.336246,-9104.533087,-222.061783,306.438199
3999.336576,-9326.594869,-148.041188,919.314598
3999.336906,-9918.759623,444.123565,1455.581446
3999.337235,-10288.862594,518.144159,536.266849
3999.337565,-9844.739029,518.144159,0.000000
3999.337895,-9548.656652,148.041188,-306.438199
3999.338224,-9918.759623,0.000000,1072.533697
3999.338554,-10362.883188,74.020594,2221.676944
3999.338884,-9992.780217,0.000000,1302.362347
3999.339214,-9474.636058,0.000000,-1532.190996
3999.339543,-9178.553681,0.000000,-2681.334243
3999.339873,-9844.739029,74.020594,-1149.143247
3999.340203,-9992.780217,222.061783,1762.019645
3999.340533,-9844.739029,666.185348,2374.896044
3999.340862,-9400.615463,444.123565,1225.752797
3999.341192,-10066.800811,296.082377,0.000000
3999.341522,-10584.944971,0.000000,-612.876398
3999.341852,-10658.965565,-296.082377,-766.095498
3999.342181,-9770.718434,-518.144159,0.000000
3999.342511,-8882.471304,-148.041188,459.657299
3999.342841,-9178.553681,0.000000,1149.143247
3999.343170,-9992.780217,74.020594,689.485948
3999.343500,-10510.924376,296.082377,0.000000
3999.343830,-9844.739029,0.000000,-766.095498
3999.344160,-9548.656652,-222.061783,0.000000
3999.344489,-9992.780217,-296.082377,1762.019645
3999.344819,-10214.842000,-74.020594,2298.286494
3999.345149,-9696.697840,-592.164754,766.095498
3999.345479,-8734.430116,-518.144159,-1915.238745
3999.345808,-9326.594869,-444.123565,-2374.896044
3999.346138,-10362.883188,222.061783,0.000000
3999.346468,-10362.883188,74.020594,1685.410096
3999.346798,-9622.677246,296.082377,1915.238745
3999.347127,-8882.471304,-518.144159,766.095498
3999.347457,-9474.636058,-666.185348,-229.828649
3999.347787,-10066.800811,-740.205942,-766.095498
3999.348116,-9696.697840,-740.205942,-153.219100
3999.348446,-9030.512492,-666.185348,459.657299
3999.348776,-9030.512492,-592.164754,1149.143247
3999.349106,-9844.739029,74.020594,1302.362347
3999.349435,-10658.965565,74.020594,689.485948
3999.349765,-10584.944971,444.123565,-383.047749
3999.350095,-9622.677246,0.000000,-995.924147
3999.350425,-9696.697840,0.000000,383.047749
3999.350754,-10214.842000,-370.102971,1838.629195
3999.351084,-10288.862594,0.000000,1762.019645
3999.351414,-9474.636058,0.000000,-919.314598
3999.351743,-9030.512492,-296.082377,-2528.115143
3999.352073,-9548.656652,0.000000,-1991.848295
3999.352403,-10140.821405,518.144159,383.047749
3999.352733,-10362.883188,888.247130,2374.896044
3999.353062,-9326.594869,296.082377,1302.362347
3999.353392,-9326.594869,0.000000,229.828649
3999.353722,-9992.780217,0.000000,-459.657299
3999.354052,-10510.924376,0.000000,-229.828649
3999.354381,-9844.739029,-148.041188,76.609550
3999.354711,-9030.512492,-148.041188,919.314598
3999.355041,-9030.512492,0.000000,1608.800546
3999.355371,-9696.697840,222.061783,1149.143247
3999.355700,-10658.965565,814.226536,76.609550
3999.356030,-9992.780217,148.041188,-612.876398
3999.356360,-9400.615463,222.061783,0.000000
3999.356689,-9548.656652,0.000000,1225.752797
3999.357019,-10140.821405,0.000000,2068.457845
3999.357349,-10066.800811,222.061783,919.314598
3999.357679,-9252.574275,222.061783,-1532.190996
3999.358008,-9030.512492,0.000000,-2528.115143
3999.358338,-9622.677246,296.082377,-766.095498
3999.358668,-10510.924376,814.226536,1455.581446
3999.358998,-10288.862594,444.123565,2068.457845
3999.359327,-9326.594869,148.041188,1149.143247
3999.359657,-9474.636058,0.000000,-383.047749
3999.359987,-10288.862594,-444.123565,-306.438199
3999.360317,-10288.862594,-370.102971,-153.219100
3999.360646,-8956.491898,0.000000,153.219100
3999.360976,-8586.388927,0.000000,383.047749
3999.361306,-9622.677246,592.164754,612.876398
3999.361635,-10658.965565,962.267725,306.438199
3999.361965,-10807.006753,1036.288319,-689.485948
3999.362295,-9770.718434,370.102971,-1149.143247
3999.362625,-9992.780217,0.000000,-229.828649
3999.362954,-10510.924376,0.000000,1532.190996
3999.363284,-10066.800811,-222.061783,1762.019645
3999.363614,-9178.553681,-370.102971,0.000000
3999.363944,-8808.450710,-370.102971,-2145.067394
3999.364273,-9326.594869,0.000000,-2298.286494
3999.364603,-10214.842000,296.082377,153.219100
3999.364933,-10140.821405,592.164754,2681.334243
3999.365263,-9918.759623,592.164754,2221.676944
3999.365592,-9548.656652,222.061783,536.266849
3999.365922,-9770.718434,-296.082377,-459.657299
3999.366252,-10510.924376,0.000000,-383.047749
3999.366581,-9770.718434,-222.061783,-306.438199
3999.366911,-9030.512492,-222.061783,0.000000
3999.367241,-8808.450710,-370.102971,383.047749
3999.367571,-9474.636058,370.102971,766.095498
3999.367900,-10362.883188,740.205942,459.657299
3999.368230,-10436.903782,888.247130,-842.705048
3999.368560,-9844.739029,444.123565,-1149.143247
3999.368890,-9992.780217,148.041188,459.657299
3999.369219,-10140.821405,370.102971,1838.629195
3999.369549,-10066.800811,148.041188,1685.410096
3999.369879,-9178.553681,0.000000,-612.876398
3999.370209,-9030.512492,74.020594,-2604.724693
3999.370538,-9548.656652,222.061783,-1915.238745
3999.370868,-10288.862594,518.144159,995.924147
3999.371198,-10807.006753,888.247130,2528.115143
3999.371527,-9696.697840,296.082377,1762.019645
3999.371857,-9400.615463,-74.020594,612.876398
3999.372187,-9918.759623,-296.082377,-459.657299
3999.372517,-10214.842000,0.000000,-383.047749
3999.372846,-9770.718434,-222.061783,0.000000
3999.373176,-9030.512492,-148.041188,612.876398
3999.373506,-9030.512492,0.000000,1225.752797
3999.373836,-9918.759623,370.102971,1225.752797
3999.374165,-9844.739029,296.082377,76.609550
3999.374495,-9548.656652,222.061783,-1072.533697
3999.374825,-9178.553681,148.041188,-1149.143247
3999.375155,-9696.697840,-74.020594,919.314598
3999.375484,-9918.759623,74.020594,2451.505594
3999.375814,-9770.718434,0.000000,1072.533697
3999.376144,-9474.636058,-444.123565,-1149.143247
3999.376473,-9104.533087,-740.205942,-2298.286494
3999.376803,-10214.842000,0.000000,-689.485948
3999.377133,-10584.944971,370.102971,1685.410096
3999.377463,-10362.883188,518.144159,2221.676944
3999.377792,-9104.533087,222.061783,1302.362347
3999.378122,-9622.677246,0.000000,0.000000
3999.378452,-10436.903782,0.000000,-459.657299
3999.378782,-10436.903782,-518.144159,-459.657299
3999.379111,-9474.636058,-740.205942,306.438199
3999.379441,-8512.368333,-740.205942,306.438199
3999.379771,-9030.512492,0.000000,995.924147
3999.380101,-10066.800811,370.102971,995.924147
3999.380430,-9770.718434,370.102971,383.047749
3999.380760,-9918.759623,74.020594,-919.314598
3999.381090,-9992.780217,-74.020594,0.000000
3999.381419,-10436.903782,0.000000,2068.457845
3999.381749,-10214.842000,0.000000,2451.505594
3999.382079,-9696.697840,0.000000,306.438199
3999.382409,-8882.471304,-148.041188,-1532.190996
3999.382738,-9252.574275,-222.061783,-1685.410096
3999.383068,-9844.739029,148.041188,76.609550
3999.383398,-10584.944971,888.247130,1991.848295
3999.383728,-9992.780217,518.144159,1685.410096
3999.384057,-9770.718434,222.061783,383.047749
3999.384387,-9844.739029,0.000000,-612.876398
3999.384717,-10140.821405,0.000000,0.000000
3999.385047,-9992.780217,-148.041188,76.609550
3999.385376,-8882.471304,-592.164754,306.438199
3999.385706,-8734.430116,0.000000,766.095498
3999.386036,-9696.697840,370.102971,995.924147
3999.386365,-10436.903782,296.082377,612.876398
3999.386695,-10214.842000,148.041188,-842.705048
3999.387025,-9400.615463,0.000000,-995.924147
3999.387355,-9474.636058,0.000000,689.485948
3999.387684,-9770.718434,0.000000,1838.629195
3999.388014,-10066.800811,74.020594,1302.362347
3999.388344,-9474.636058,0.000000,-536.266849
3999.388674,-9252.574275,0.000000,-2221.676944
3999.389003,-9992.780217,518.144159,-1915.238745
3999.389333,-10510.924376,444.123565,842.705048
3999.389663,-10066.800811,666.185348,2068.457845
3999.389992,-9326.594869,296.082377,1378.971896
3999.390322,-9622.677246,444.123565,306.438199
3999.390652,-10066.800811,-148.041188,0.000000
3999.390982,-10510.924376,148.041188,-153.219100
3999.391311,-9696.697840,0.000000,-76.609550
3999.391641,-9178.553681,-148.041188,0.000000
3999.391971,-9252.574275,0.000000,536.266849
3999.392301,-10288.862594,740.205942,76.609550
3999.392630,-10288.862594,518.144159,-383.047749
3999.392960,-9770.718434,370.102971,-1149.143247
3999.393290,-9104.533087,0.000000,-995.924147
3999.393620,-9474.636058,-222.061783,995.924147
3999.393949,-10140.821405,0.000000,2145.067394
3999.394279,-9770.718434,0.000000,842.705048
3999.394609,-9104.533087,-148.041188,-1685.410096
3999.394938,-9326.594869,-296.082377,-1685.410096
3999.395268,-10214.842000,296.082377,-229.828649
3999.395598,-10584.944971,370.102971,1762.019645
3999.395928,-10214.842000,444.123565,2068.457845
3999.396257,-9474.636058,370.102971,995.924147
3999.396587,-9474.636058,74.020594,-229.828649
3999.396917,-10288.862594,0.000000,-766.095498
3999.397247,-10288.862594,-222.061783,-612.876398
3999.397576,-9474.636058,0.000000,-459.657299
3999.397906,-8512.368333,-518.144159,0.000000
3999.398236,-9696.697840,74.020594,612.876398
3999.398566,-10436.903782,370.102971,536.266849
3999.398895,-10436.903782,592.164754,-459.657299
3999.399225,-9548.656652,148.041188,-459.657299
3999.399555,-9400.615463,0.000000,383.047749
3999.399884,-10066.800811,0.000000,2528.115143
3999.400214,-9992.780217,518.144159,2221.676944
3999.400544,-9696.697840,-444.123565,383.047749
3999.400874,-9178.553681,-222.061783,-1991.848295
3999.401203,-9622.677246,0.000000,-1608.800546
3999.401533,-10066.800811,370.102971,0.000000
3999.401863,-10362.883188,814.226536,1915.238745
3999.402193,-9474.636058,370.102971,1532.190996
3999.402522,-9252.574275,148.041188,153.219100
3999.402852,-9696.697840,74.020594,-459.657299
3999.403182,-10436.903782,370.102971,-1072.533697
3999.403512,-10214.842000,74.020594,229.828649
3999.403841,-9252.574275,0.000000,459.657299
3999.404171,-9326.594869,148.041188,612.876398
3999.404501,-9918.759623,518.144159,1302.362347
3999.404830,-10732.986159,740.205942,153.219100
3999.405160,-10510.924376,444.123565,-842.705048
3999.405490,-9548.656652,0.000000,-766.095498
3999.405820,-9918.759623,148.041188,995.924147
3999.406149,-10288.862594,-222.061783,2604.724693
3999.406479,-9696.697840,-444.123565,1378.971896
3999.406809,-9104.533087,-592.164754,-842.705048
3999.407139,-8956.491898,-370.102971,-1915.238745
3999.407468,-9474.636058,-148.041188,-1302.362347
3999.407798,-10214.842000,74.020594,842.705048
3999.408128,-9918.759623,592.164754,2145.067394
3999.408458,-9030.512492,222.061783,995.924147
3999.408787,-9104.533087,74.020594,0.000000
3999.409117,-10436.903782,-74.020594,-459.657299
3999.409447,-10807.006753,0.000000,0.000000
3999.409776,-9918.759623,-222.061783,306.438199
3999.410106,-8808.450710,-666.185348,612.876398
3999.410436,-9104.533087,-444.123565,919.314598
3999.410766,-9622.677246,148.041188,459.657299
3999.411095,-9992.780217,370.102971,-459.657299
3999.411425,-9770.718434,222.061783,-1378.971896
3999.411755,-9178.553681,0.000000,0.000000
3999.412085,-10436.903782,74.020594,2068.457845
3999.412414,-10658.965565,0.000000,2834.553343
3999.412744,-10140.821405,0.000000,995.924147
3999.413074,-9400.615463,-370.102971,-1455.581446
3999.413404,-9030.512492,-592.164754,-2451.505594
3999.413733,-9622.677246,0.000000,-459.657299
3999.414063,-10140.821405,296.082377,1685.410096
3999.414393,-9770.718434,592.164754,2681.334243
3999.414722,-9326.594869,222.061783,766.095498
3999.415052,-9992.780217,148.041188,229.828649
3999.415382,-11029.068536,0.000000,-383.047749
3999.415712,-10658.965565,0.000000,-76.609550
3999.416041,-9178.553681,-296.082377,153.219100
3999.416371,-8808.450710,-222.061783,229.828649
3999.416701,-9622.677246,222.061783,536.266849
3999.417031,-10066.800811,296.082377,-76.609550
3999.417360,-10658.965565,1036.288319,-995.924147
3999.417690,-9770.718434,296.082377,-995.924147
3999.418020,-10066.800811,0.000000,919.314598
3999.418350,-10362.883188,0.000000,2681.334243
3999.418679,-10510.924376,0.000000,2451.505594
3999.419009,-9770.718434,-296.082377,536.266849
3999.419339,-9178.553681,-888.247130,-1762.019645
3999.419668,-9622.677246,-592.164754,-1302.362347
3999.419998,-9918.759623,0.000000,766.095498
3999.420328,-9918.759623,370.102971,2374.896044
3999.420658,-9844.739029,518.144159,2221.676944
3999.420987,-9252.574275,148.041188,536.266849
3999.421317,-9992.780217,74.020594,-612.876398
3999.421647,-10288.862594,0.000000,-766.095498
3999.421977,-10066.800811,0.000000,-536.266849
3999.422306,-9252.574275,-518.144159,-612.876398
3999.422636,-9178.553681,-222.061783,229.828649
3999.422966,-9696.697840,-148.041188,459.657299
3999.423296,-9992.780217,222.061783,0.000000
3999.423625,-9548.656652,518.144159,-1149.143247
3999.423955,-9326.594869,74.020594,-689.485948
3999.424285,-10066.800811,296.082377,1455.581446
3999.424614,-10732.986159,74.020594,2911.162892
3999.424944,-10140.821405,148.041188,1762.019645
3999.425274,-9326.594869,0.000000,-689.485948
3999.425604,-8808.450710,-518.144159,-2681.334243
3999.425933,-10066.800811,74.020594,-1608.800546
3999.426263,-10140.821405,444.123565,306.438199
3999.426593,-9992.780217,814.226536,1685.410096
3999.426923,-9474.636058,592.164754,1225.752797
3999.427252,-9548.656652,296.082377,383.047749
3999.427582,-10658.965565,444.123565,-153.219100
3999.427912,-10807.006753,222.061783,-383.047749
3999.428242,-10140.821405,0.000000,-153.219100
3999.428571,-9326.594869,-222.061783,383.047749
3999.428901,-9474.636058,0.000000,689.485948
3999.429231,-9918.759623,296.082377,842.705048
3999.429560,-10510.924376,962.267725,0.000000
3999.429890,-9770.718434,222.061783,-766.095498
3999.430220,-9474.636058,0.000000,153.219100
3999.430550,-10066.800811,0.000000,1838.629195
3999.430879,-10362.883188,0.000000,2681.334243
3999.431209,-9252.574275,-296.082377,612.876398
3999.431539,-8734.430116,-592.164754,-1838.629195
3999.431869,-8956.491898,-518.144159,-2451.505594
3999.432198,-9918.759623,148.041188,-766.095498
3999.432528,-10140.821405,592.164754,1532.190996
3999.432858,-9992.780217,592.164754,2451.505594
3999.433187,-9326.594869,222.061783,1225.752797
3999.433517,-9844.739029,296.082377,0.000000
3999.433847,-10732.986159,74.020594,-229.828649
3999.434177,-10436.903782,-370.102971,-306.438199
3999.434506,-9474.636058,-444.123565,-459.657299
3999.434836,-8956.491898,-444.123565,0.000000
3999.435166,-9474.636058,0.000000,536.266849
3999.435496,-9918.759623,444.123565,229.828649
3999.435825,-10436.903782,888.247130,-536.266849
3999.436155,-9696.697840,74.020594,-842.705048
3999.436485,-9918.759623,0.000000,383.047749
3999.436815,-10658.965565,0.000000,2374.896044
3999.437144,-10436.903782,444.123565,2298.286494
3999.437474,-9548.656652,-518.144159,0.000000
3999.437804,-8586.388927,-518.144159,-2451.505594
3999.438133,-9400.615463,-148.041188,-2221.676944
3999.438463,-10288.862594,222.061783,0.000000
3999.438793,-10584.944971,888.247130,1838.629195
3999.439123,-9844.739029,518.144159,2068.457845
3999.439453,-9474.636058,148.041188,1302.362347
3999.439782,-10214.842000,0.000000,153.219100
3999.440112,-10881.027347,0.000000,-306.438199
3999.440442,-10214.842000,-518.144159,-383.047749
3999.440772,-9178.553681,-814.226536,76.609550
3999.441102,-9104.533087,-518.144159,842.705048
3999.441431,-9474.636058,518.144159,842.705048
3999.441761,-10436.903782,370.102971,689.485948
3999.442091,-9770.718434,0.000000,-459.657299
3999.442421,-9474.636058,0.000000,-306.438199
3999.442751,-9918.759623,-74.020594,1455.581446
3999.443080,-10658.965565,-222.061783,2834.553343
3999.443410,-10214.842000,-370.102971,2221.676944
3999.443740,-8808.450710,-518.144159,-919.314598
3999.444070,-8808.450710,-518.144159,-2604.724693
3999.444400,-9548.656652,0.000000,-1225.752797
3999.444729,-10140.821405,370.102971,766.095498
3999.445059,-9844.739029,518.144159,1915.238745
3999.445389,-9474.636058,370.102971,1378.971896
3999.445719,-9622.677246,74.020594,842.705048
3999.446049,-10214.842000,-148.041188,-383.047749
3999.446378,-9992.780217,-518.144159,-536.266849
3999.446708,-9178.553681,-518.144159,-76.609550
3999.447038,-9030.512492,-370.102971,306.438199
3999.447368,-9696.697840,0.000000,919.314598
3999.447698,-10362.883188,518.144159,995.924147
3999.448027,-10510.924376,1110.308913,-689.485948
3999.448357,-10066.800811,814.226536,-919.314598
3999.448687,-9770.718434,296.082377,0.000000
3999.449017,-10214.842000,148.041188,1991.848295
3999.449347,-10436.903782,370.102971,2528.115143
3999.449676,-9548.656652,148.041188,536.266849
3999.450006,-8956.491898,0.000000,-2451.505594
3999.450336,-9178.553681,-148.041188,-2834.553343
3999.450666,-10436.903782,444.123565,-383.047749
3999.450996,-10732.986159,814.226536,2145.067394
3999.451325,-10288.862594,740.205942,2681.334243
3999.451655,-9326.594869,148.041188,1149.143247
3999.451985,-9918.759623,-148.041188,0.000000
3999.452315,-10362.883188,-296.082377,-536.266849
3999.452645,-9844.739029,-518.144159,76.609550
3999.452974,-8734.430116,-518.144159,-153.219100
3999.453304,-8660.409521,-74.020594,229.828649
3999.453634,-9474.636058,296.082377,919.314598
3999.453964,-10140.821405,148.041188,536.266849
3999.454294,-10066.800811,888.247130,-459.657299
3999.454623,-9474.636058,0.000000,-689.485948
3999.454953,-9844.739029,0.000000,153.219100
3999.455283,-10140.821405,0.000000,2145.067394
3999.455613,-9622.677246,-296.082377,2145.067394
3999.455943,-9400.615463,0.000000,-536.266849
3999.456272,-9178.553681,0.000000,-2757.943793
3999.456602,-9844.739029,0.000000,-1838.629195
3999.456932,-10066.800811,444.123565,536.266849
3999.457262,-10214.842000,1036.288319,1762.019645
3999.457592,-9474.636058,518.144159,1455.581446
3999.457921,-9696.697840,222.061783,383.047749
3999.458251,-9844.739029,-296.082377,-689.485948
3999.458581,-10140.821405,-296.082377,-76.609550
3999.458911,-9844.739029,-518.144159,0.000000
3999.459241,-9030.512492,-666.185348,0.000000
3999.459570,-9030.512492,-296.082377,536.266849
3999.459900,-10066.800811,740.205942,1302.362347
3999.460230,-10510.924376,666.185348,383.047749
3999.460560,-10658.965565,666.185348,-842.705048
3999.460890,-9696.697840,0.000000,-306.438199
3999.461219,-9918.759623,74.020594,1302.362347
3999.461549,-10362.883188,0.000000,2681.334243
3999.461879,-10066.800811,-296.082377,919.314598
3999.462209,-9030.512492,-444.123565,-1838.629195
3999.462539,-8882.471304,-444.123565,-2681.334243
3999.462868,-9992.780217,222.061783,-919.314598
3999.463198,-10955.047942,592.164754,1378.971896
3999.463528,-10362.883188,888.247130,2681.334243
3999.463858,-9474.636058,74.020594,1762.019645
3999.464187,-9474.636058,-222.061783,383.047749
3999.464517,-10584.944971,-370.102971,153.219100
3999.464847,-10436.903782,-518.144159,229.828649
3999.465177,-9252.574275,-444.123565,383.047749
3999.465507,-8512.368333,-370.102971,-459.657299
3999.465836,-9030.512492,74.020594,612.876398
3999.466166,-9992.780217,592.164754,842.705048
3999.466496,-10881.027347,814.226536,0.000000
3999.466826,-10288.862594,1110.308913,-842.705048
3999.467156,-9548.656652,-74.020594,0.000000
3999.467485,-10214.842000,0.000000,1378.971896
3999.467815,-9992.780217,-222.061783,1991.848295
3999.468145,-9622.677246,-518.144159,76.609550
3999.468475,-8438.347739,-962.267725,-2298.286494
3999.468805,-9030.512492,-592.164754,-2451.505594
3999.469134,-9992.780217,222.061783,0.000000
3999.469464,-10140.821405,444.123565,2374.896044
3999.469794,-9696.697840,592.164754,2604.724693
3999.470124,-9548.656652,74.020594,1685.410096
3999.470454,-10362.883188,0.000000,76.609550
3999.470783,-10807.006753,-370.102971,-689.485948
3999.471113,-9918.759623,-444.123565,-766.095498
3999.471443,-8142.265362,-296.082377,-383.047749
3999.471773,-8734.430116,74.020594,0.000000
3999.472103,-9696.697840,814.226536,229.828649
3999.472432,-10658.965565,1036.288319,0.000000
3999.472762,-9992.780217,888.247130,-1072.533697
3999.473092,-8882.471304,296.082377,-1072.533697
3999.473422,-9622.677246,74.020594,306.438199
3999.473752,-10140.821405,-148.041188,2374.896044
3999.474081,-9918.759623,-296.082377,2145.067394
3999.474411,-9252.574275,0.000000,0.000000
3999.474741,-9178.553681,0.000000,-2528.115143
3999.475071,-9844.739029,222.061783,-1455.581446
3999.475401,-10140.821405,592.164754,919.314598
3999.475730,-10066.800811,1332.370696,2834.553343
3999.476060,-9770.718434,740.205942,2068.457845
3999.476390,-9474.636058,296.082377,536.266849
3999.476720,-10288.862594,74.020594,-842.705048
3999.477050,-10584.944971,0.000000,-612.876398
3999.477379,-9548.656652,-222.061783,-306.438199
3999.477709,-8956.491898,-444.123565,-229.828649
3999.478039,-9030.512492,148.041188,306.438199
3999.478369,-9622.677246,444.123565,766.095498
3999.478699,-10362.883188,962.267725,0.000000
3999.479028,-10214.842000,592.164754,-459.657299
3999.479358,-9400.615463,222.061783,-153.219100
3999.479688,-10288.862594,0.000000,1685.410096
3999.480018,-10510.924376,148.041188,2604.724693
3999.480348,-9992.780217,-222.061783,1225.752797
3999.480677,-9178.553681,-518.144159,-1838.629195
3999.481007,-8512.368333,-518.144159,-2834.553343
3999.481337,-9474.636058,296.082377,-1762.019645
3999.481667,-9918.759623,666.185348,1072.533697
3999.481997,-9992.780217,888.247130,2221.676944
3999.482326,-9548.656652,222.061783,1532.190996
3999.482656,-10066.800811,148.041188,0.000000
3999.482986,-10658.965565,-370.102971,-919.314598
3999.483316,-10066.800811,-592.164754,-612.876398
3999.483646,-9178.553681,-740.205942,306.438199
3999.483975,-8882.471304,-444.123565,459.657299
3999.484305,-9474.636058,222.061783,536.266849
3999.484635,-10362.883188,740.205942,842.705048
3999.484965,-10584.944971,740.205942,76.609550
3999.485295,-10066.800811,148.041188,-919.314598
3999.485624,-9770.718434,74.020594,-229.828649
3999.485954,-10140.821405,-370.102971,1838.629195
3999.486284,-10214.842000,-370.102971,1915.238745
3999.486614,-9474.636058,-592.164754,153.219100
3999.486944,-8882.471304,-814.226536,-2298.286494
3999.487273,-9252.574275,-74.020594,-2528.115143
3999.487603,-9992.780217,444.123565,229.828649
3999.487933,-10436.903782,444.123565,2298.286494
3999.488263,-10214.842000,592.164754,2528.115143
3999.488593,-9474.636058,74.020594,1302.362347
3999.488922,-9770.718434,-74.020594,-536.266849
3999.489252,-10140.821405,-444.123565,-842.705048
3999.489582,-9992.780217,-444.123565,-459.657299
3999.489912,-8734.430116,-444.123565,-536.266849
3999.490242,-9252.574275,0.000000,306.438199
3999.490571,-9548.656652,222.061783,919.314598
3999.490901,-10066.800811,592.164754,0.000000
3999.491231,-9844.739029,592.164754,-459.657299
3999.491561,-9548.656652,148.041188,-459.657299
3999.491891,-10362.883188,0.000000,612.876398
3999.492220,-10214.842000,0.000000,1991.848295
3999.492550,-9844.739029,-148.041188,1225.752797
3999.492880,-8882.471304,-74.020594,-612.876398
3999.493210,-8660.409521,-592.164754,-2298.286494
3999.493540,-9548.656652,0.000000,-1532.190996
3999.493869,-10140.821405,370.102971,459.657299
3999.494199,-10140.821405,814.226536,2374.896044
3999.494529,-9696.697840,370.102971,2068.457845
3999.494859,-9474.636058,148.041188,919.314598
3999.495189,-9992.780217,-296.082377,0.000000
3999.495518,-9918.759623,-370.102971,-1072.533697
3999.495848,-9696.697840,0.000000,0.000000
3999.496178,-9104.533087,0.000000,76.609550
3999.496508,-9178.553681,0.000000,612.876398
3999.496838,-10066.800811,518.144159,612.876398
3999.497167,-10510.924376,740.205942,153.219100
3999.497497,-9844.739029,296.082377,-689.485948
3999.497827,-9252.574275,0.000000,-536.266849
3999.498157,-9548.656652,0.000000,1225.752797
3999.498487,-9548.656652,0.000000,1991.848295
3999.498816,-9992.780217,148.041188,459.657299
3999.499146,-9252.574275,0.000000,-1915.238745
3999.499476,-9400.615463,148.041188,-2145.067394
3999.499806,-10140.821405,592.164754,76.609550
3999.500136,-10807.006753,740.205942,1838.629195
3999.500465,-9844.739029,814.226536,1762.019645
3999.500795,-9252.574275,740.205942,1149.143247
3999.501125,-9622.677246,222.061783,153.219100
3999.501455,-10214.842000,0.000000,-766.095498
3999.501785,-10584.944971,74.020594,-229.828649
3999.502114,-9474.636058,-370.102971,0.000000
3999.502444,-9252.574275,-74.020594,536.266849
3999.502774,-9474.636058,74.020594,1378.971896
3999.503104,-10362.883188,444.123565,842.705048
3999.503434,-10658.965565,592.164754,0.000000
3999.503763,-9770.718434,0.000000,-306.438199
3999.504093,-9696.697840,-222.061783,383.047749
3999.504423,-10140.821405,-370.102971,2374.896044
3999.504753,-9918.759623,-222.061783,2451.505594
3999.505083,-9178.553681,-518.144159,383.047749
3999.505412,-8956.491898,-222.061783,-2451.505594
3999.505742,-9252.574275,0.000000,-1915.238745
3999.506072,-10066.800811,148.041188,306.438199
3999.506402,-10214.842000,666.185348,1685.410096
3999.506732,-9622.677246,444.123565,1378.971896
3999.507061,-9178.553681,0.000000,0.000000
3999.507391,-9844.739029,-74.020594,-919.314598
3999.507721,-10214.842000,-370.102971,-612.876398
3999.508051,-9770.718434,-444.123565,-383.047749
3999.508381,-8586.388927,-296.082377,153.219100
3999.508710,-8808.450710,0.000000,612.876398
3999.509040,-9696.697840,296.082377,1225.752797
3999.509370,-10881.027347,666.185348,306.438199
3999.509700,-10288.862594,666.185348,-1532.190996
3999.510030,-9918.759623,592.164754,-1685.410096
3999.510359,-10214.842000,148.041188,-153.219100
3999.510689,-10658.965565,148.041188,1455.581446
3999.511019,-10066.800811,0.000000,995.924147
3999.511349,-8882.471304,-222.061783,-1378.971896
3999.511679,-8438.347739,-592.164754,-2757.943793
3999.512008,-9474.636058,0.000000,-1225.752797
3999.512338,-10584.944971,148.041188,1685.410096
3999.512668,-10214.842000,0.000000,2834.553343
3999.512998,-9622.677246,222.061783,1838.629195
3999.513328,-9622.677246,-370.102971,383.047749
3999.513657,-10214.842000,-74.020594,0.000000
3999.513987,-10881.027347,0.000000,0.000000
3999.514317,-9770.718434,74.020594,536.266849
3999.514647,-9030.512492,-74.020594,689.485948
3999.514977,-9400.615463,148.041188,1225.752797
3999.515306,-10362.883188,370.102971,1149.143247
3999.515636,-10362.883188,518.144159,76.609550
3999.515966,-9326.594869,0.000000,-1149.143247
3999.516296,-8956.491898,-518.144159,-306.438199
3999.516626,-9474.636058,-370.102971,1455.581446
3999.516955,-9844.739029,-222.061783,2528.115143
3999.517285,-9622.677246,0.000000,612.876398
3999.517615,-9030.512492,0.000000,-1455.581446
3999.517945,-9104.533087,-296.082377,-2298.286494
3999.518275,-9992.780217,222.061783,-153.219100
3999.518604,-10066.800811,1110.308913,2145.067394
3999.518934,-9696.697840,370.102971,2451.505594
3999.519264,-9030.512492,296.082377,766.095498
3999.519594,-9400.615463,0.000000,-689.485948
3999.519924,-10288.862594,0.000000,-1149.143247
3999.520253,-10362.883188,0.000000,-689.485948
3999.520583,-9326.594869,0.000000,-229.828649
3999.520913,-9030.512492,0.000000,153.219100
3999.521243,-9474.636058,814.226536,842.705048
3999.521573,-10288.862594,1184.329507,229.828649
3999.521902,-10732.986159,1036.288319,-689.485948
3999.522232,-10066.800811,666.185348,-1149.143247
3999.522562,-10362.883188,370.102971,229.828649
3999.522892,-10658.965565,148.041188,2911.162892
3999.523222,-10140.821405,0.000000,2374.896044
3999.523551,-9474.636058,-370.102971,76.609550
3999.523881,-8660.409521,-444.123565,-2528.115143
3999.524211,-9474.636058,0.000000,-1762.019645
3999.524541,-10140.821405,0.000000,612.876398
3999.524871,-10436.903782,444.123565,2451.505594
3999.525200,-9770.718434,518.144159,2374.896044
3999.525530,-9326.594869,-74.020594,995.924147
3999.525860,-10140.821405,-370.102971,-689.485948
3999.526190,-10510.924376,-296.082377,-842.705048
3999.526520,-9622.677246,-592.164754,-153.219100
3999.526849,-8512.368333,-814.226536,153.219100
3999.527179,-8734.430116,-148.041188,1685.410096
3999.527509,-9770.718434,518.144159,1838.629195
3999.527839,-10214.842000,814.226536,76.609550
3999.528169,-10140.821405,296.082377,-1149.143247
3999.528498,-8956.491898,-148.041188,-1302.362347
3999.528828,-9770.718434,74.020594,536.266849
3999.529158,-10066.800811,74.020594,2681.334243
3999.529488,-9992.780217,-74.020594,1762.019645
3999.529818,-8808.450710,0.000000,-1225.752797
3999.530147,-8956.491898,-444.123565,-2451.505594
3999.530477,-10066.800811,148.041188,-1378.971896
3999.530807,-10807.006753,740.205942,1149.143247
3999.531137,-10584.944971,370.102971,2451.505594
3999.531467,-9474.636058,148.041188,995.924147
3999.531796,-9622.677246,-222.061783,-229.828649
3999.532126,-10214.842000,-296.082377,-766.095498
3999.532456,-10658.965565,0.000000,-689.485948
3999.532786,-9696.697840,74.020594,153.219100
3999.533116,-9178.553681,74.020594,919.314598
3999.533445,-9844.739029,370.102971,1455.581446
3999.533775,-10584.944971,592.164754,1149.143247
3999.534105,-10881.027347,666.185348,0.000000
3999.534435,-9844.739029,0.000000,-1302.362347
3999.534765,-9474.636058,-444.123565,-766.095498
3999.535094,-9770.718434,-592.164754,1838.629195
3999.535424,-10140.821405,-222.061783,2911.162892
3999.535754,-9474.636058,-222.061783,1072.533697
3999.536084,-8956.491898,-666.185348,-1225.752797
3999.536414,-9178.553681,-444.123565,-2145.067394
3999.536743,-10510.924376,0.000000,0.000000
3999.537073,-10140.821405,0.000000,2451.505594
3999.537403,-9548.656652,0.000000,2528.115143
3999.537733,-8512.368333,-222.061783,1149.143247
3999.538063,-9252.574275,-444.123565,-383.047749
3999.538392,-9992.780217,-296.082377,-842.705048
3999.538722,-10066.800811,-592.164754,-383.047749
3999.539052,-9400.615463,-222.061783,0.000000
3999.539382,-9030.512492,-222.061783,612.876398
3999.539712,-9770.718434,0.000000,1072.533697
3999.540041,-10066.800811,222.061783,306.438199
3999.540371,-10140.821405,148.041188,-1225.752797
3999.540701,-9104.533087,-74.020594,-1532.190996
3999.541031,-9696.697840,-222.061783,0.000000
3999.541361,-10362.883188,0.000000,1762.019645
3999.541690,-10066.800811,0.000000,2145.067394
3999.542020,-9474.636058,-74.020594,229.828649
3999.542350,-9104.533087,-740.205942,-2221.676944
3999.542680,-9622.677246,-370.102971,-1455.581446
3999.543010,-10436.903782,74.020594,919.314598
3999.543340,-9992.780217,74.020594,2451.505594
3999.543670,-9474.636058,148.041188,1838.629195
3999.543999,-9178.553681,0.000000,-76.609550
3999.544329,-9548.656652,0.000000,-1072.533697
3999.544659,-10807.006753,74.020594,-1072.533697
3999.544989,-10436.903782,222.061783,-153.219100
3999.545319,-9104.533087,0.000000,153.219100
3999.545649,-9030.512492,0.000000,459.657299
3999.545979,-9918.759623,592.164754,919.314598
3999.546308,-10732.986159,296.082377,306.438199
3999.546638,-9844.739029,222.061783,-612.876398
3999.546968,-8882.471304,0.000000,-766.095498
3999.547298,-9918.759623,0.000000,1455.581446
3999.547628,-10510.924376,222.061783,2911.162892
3999.547958,-10140.821405,148.041188,1378.971896
3999.548288,-9104.533087,148.041188,-1378.971896
3999.548617,-9030.512492,296.082377,-2528.115143
3999.548947,-9992.780217,518.144159,-995.924147
3999.549277,-10288.862594,666.185348,1225.752797
3999.549607,-9622.677246,592.164754,1838.629195
3999.549937,-8808.450710,592.164754,995.924147
3999.550267,-9770.718434,296.082377,-612.876398
3999.550597,-10436.903782,0.000000,-1072.533697
3999.550926,-10436.903782,0.000000,0.000000
3999.551256,-9400.615463,0.000000,919.314598
3999.551586,-8586.388927,0.000000,612.876398
3999.551916,-9252.574275,222.061783,995.924147
3999.552246,-10140.821405,592.164754,689.485948
3999.552576,-9844.739029,962.267725,-153.219100
3999.552906,-9918.759623,592.164754,-1838.629195
3999.553235,-9918.759623,518.144159,0.000000
3999.553565,-10214.842000,370.102971,1685.410096
3999.553895,-10288.862594,222.061783,2221.676944
3999.554225,-9696.697840,222.061783,306.438199
3999.554555,-8660.409521,-370.102971,-2451.505594
3999.554885,-9178.553681,-74.020594,-2221.676944
3999.555215,-9696.697840,370.102971,306.438199
3999.555544,-10510.924376,666.185348,2298.286494
3999.555874,-9992.780217,740.205942,2374.896044
3999.556204,-9178.553681,74.020594,383.047749
3999.556534,-9992.780217,74.020594,-459.657299
3999.556864,-10436.903782,-148.041188,-536.266849
3999.557194,-9844.739029,-518.144159,306.438199
3999.557524,-8882.471304,-518.144159,306.438199
3999.557853,-8512.368333,-296.082377,689.485948
3999.558183,-9622.677246,74.020594,919.314598
3999.558513,-10584.944971,592.164754,153.219100
3999.558843,-9770.718434,296.082377,-1378.971896
3999.559173,-9400.615463,0.000000,-1378.971896
3999.559503,-9918.759623,0.000000,689.485948
3999.559833,-10362.883188,148.041188,2987.772442
3999.560162,-10362.883188,-296.082377,2604.724693
3999.560492,-9178.553681,-592.164754,-766.095498
3999.560822,-9400.615463,-370.102971,-2911.162892
3999.561152,-9918.759623,-296.082377,-1685.410096
3999.561482,-10288.862594,0.000000,1685.410096
3999.561812,-10436.903782,518.144159,2681.334243
3999.562142,-9474.636058,0.000000,2221.676944
3999.562471,-9400.615463,-296.082377,766.095498
3999.562801,-10436.903782,-296.082377,-536.266849
3999.563131,-10807.006753,-222.061783,-536.266849
3999.563461,-9918.759623,-370.102971,-306.438199
3999.563791,-8956.491898,-592.164754,0.000000
3999.564121,-9400.615463,-148.041188,995.924147
3999.564451,-10140.821405,148.041188,1072.533697
3999.564780,-10362.883188,222.061783,76.609550
3999.565110,-9474.636058,0.000000,-1225.752797
3999.565440,-9252.574275,-74.020594,-689.485948
3999.565770,-9844.739029,0.000000,2068.457845
3999.566100,-10658.965565,0.000000,2987.772442
3999.566430,-9992.780217,-296.082377,1532.190996
3999.566760,-9474.636058,-592.164754,-1378.971896
3999.567089,-9104.533087,-1628.453072,-2221.676944
3999.567419,-10066.800811,-518.144159,-842.705048
3999.567749,-9918.759623,0.000000,1838.629195
3999.568079,-9474.636058,148.041188,2451.505594
3999.568409,-8586.388927,222.061783,1762.019645
3999.568739,-8956.491898,-444.123565,153.219100
3999.569069,-10510.924376,-74.020594,-459.657299
3999.569398,-10658.965565,0.000000,-459.657299
3999.569728,-9918.759623,-370.102971,-383.047749
3999.570058,-8734.430116,-518.144159,612.876398
3999.570388,-9252.574275,222.061783,1149.143247
3999.570718,-9770.718434,592.164754,536.266849
3999.571048,-9918.759623,814.226536,-1149.143247
3999.571378,-9400.615463,0.000000,-1762.019645
3999.571707,-9474.636058,296.082377,-306.438199
3999.572037,-10658.965565,296.082377,2681.334243
3999.572367,-10732.986159,296.082377,3064.381992
3999.572697,-9918.759623,0.000000,383.047749
3999.573027,-8660.409521,-370.102971,-2757.943793
3999.573357,-9474.636058,-148.041188,-2528.115143
3999.573687,-10214.842000,740.205942,76.609550
3999.574016,-10362.883188,592.164754,2451.505594
3999.574346,-9548.656652,592.164754,2145.067394
3999.574676,-8956.491898,370.102971,1072.533697
3999.575006,-9992.780217,370.102971,-229.828649
3999.575336,-10732.986159,148.041188,-766.095498
3999.575666,-10436.903782,0.000000,0.000000
3999.575996,-9326.594869,0.000000,153.219100
3999.576325,-8956.491898,0.000000,1149.143247
3999.576655,-9548.656652,444.123565,1455.581446
3999.576985,-10214.842000,518.144159,306.438199
3999.577315,-10066.800811,592.164754,-1302.362347
3999.577645,-9474.636058,222.061783,-1225.752797
3999.577975,-9918.759623,296.082377,1302.362347
3999.578305,-10362.883188,148.041188,2987.772442
3999.578634,-10584.944971,296.082377,1991.848295
3999.578964,-9030.512492,0.000000,-1072.533697
3999.579294,-8660.409521,-296.082377,-3217.601092
3999.579624,-9696.697840,0.000000,-2374.896044
3999.579954,-10732.986159,814.226536,689.485948
3999.580284,-10288.862594,444.123565,2451.505594
3999.580614,-9252.574275,296.082377,1838.629195
3999.580943,-9326.594869,0.000000,383.047749
3999.581273,-10362.883188,0.000000,306.438199
3999.581603,-10955.047942,0.000000,-306.438199
3999.581933,-9770.718434,-370.102971,0.000000
3999.582263,-9030.512492,-444.123565,153.219100
3999.582593,-9474.636058,0.000000,1149.143247
3999.582923,-10066.800811,222.061783,842.705048
3999.583252,-10732.986159,666.185348,-153.219100
3999.583582,-9622.677246,296.082377,-1685.410096
3999.583912,-9252.574275,0.000000,-612.876398
3999.584242,-9474.636058,-296.082377,1608.800546
3999.584572,-10066.800811,0.000000,2834.553343
3999.584902,-9696.697840,-444.123565,1072.533697
3999.585232,-9030.512492,-592.164754,-1838.629195
3999.585561,-9326.594869,-962.267725,-2221.676944
3999.585891,-10288.862594,0.000000,-229.828649
3999.586221,-10658.965565,148.041188,1685.410096
3999.586551,-10066.800811,370.102971,2451.505594
3999.586881,-9178.553681,-296.082377,1378.971896
3999.587211,-9548.656652,-370.102971,383.047749
3999.587541,-10510.924376,-370.102971,0.000000
3999.587870,-10584.944971,-296.082377,153.219100
3999.588200,-9400.615463,-592.164754,76.609550
3999.588530,-8734.430116,-296.082377,459.657299
3999.588860,-9178.553681,0.000000,919.314598
3999.589190,-9992.780217,74.020594,306.438199
3999.589520,-10288.862594,518.144159,-383.047749
3999.589850,-9474.636058,0.000000,-383.047749
3999.590179,-9548.656652,0.000000,536.266849
3999.590509,-10214.842000,0.000000,2528.115143
3999.590839,-10362.883188,0.000000,2298.286494
3999.591169,-9252.574275,-518.144159,0.000000
3999.591499,-9178.553681,-74.020594,-2911.162892
3999.591829,-9252.574275,-296.082377,-2374.896044
3999.592158,-10362.883188,222.061783,306.438199
3999.592488,-10288.862594,666.185348,2451.505594
3999.592818,-9622.677246,592.164754,1838.629195
3999.593148,-9178.553681,0.000000,383.047749
3999.593478,-10140.821405,0.000000,-536.266849
3999.593808,-10658.965565,0.000000,-459.657299
3999.594138,-10066.800811,0.000000,-229.828649
3999.594467,-9104.533087,-444.123565,306.438199
3999.594797,-9178.553681,0.000000,842.705048
3999.595127,-9992.780217,518.144159,766.095498
3999.595457,-10658.965565,888.247130,-536.266849
3999.595787,-10140.821405,666.185348,-1608.800546
3999.596117,-9400.615463,0.000000,-1149.143247
3999.596447,-9548.656652,-370.102971,1225.752797
3999.596776,-10140.821405,74.020594,2681.334243
3999.597106,-9918.759623,148.041188,1455.581446
3999.597436,-9326.594869,0.000000,-1455.581446
3999.597766,-9252.574275,-296.082377,-2911.162892
3999.598096,-10066.800811,148.041188,-1302.362347
3999.598426,-10955.047942,814.226536,1532.190996
3999.598756,-10214.842000,518.144159,3064.381992
3999.599085,-9326.594869,74.020594,1838.629195
3999.599415,-9400.615463,-296.082377,-229.828649
3999.599745,-9548.656652,0.000000,-1072.533697
3999.600075,-10807.006753,-222.061783,-612.876398
3999.600405,-9622.677246,-148.041188,229.828649
3999.600735,-8586.388927,-666.185348,76.609550
3999.601065,-9104.533087,0.000000,766.095498
3999.601394,-9844.739029,666.185348,459.657299
3999.601724,-10732.986159,814.226536,-306.438199
3999.602054,-9918.759623,592.164754,-995.924147
3999.602384,-9400.615463,0.000000,0.000000
3999.602714,-9844.739029,0.000000,2528.115143
3999.603044,-10436.903782,148.041188,2834.553343
3999.603374,-10066.800811,0.000000,536.266849
3999.603703,-8808.450710,-592.164754,-2451.505594
3999.604033,-8808.450710,-370.102971,-2987.772442
3999.604363,-10140.821405,74.020594,-536.266849
3999.604693,-10288.862594,666.185348,2145.067394
3999.605023,-9696.697840,740.205942,2757.943793
3999.605353,-9252.574275,296.082377,766.095498
3999.605683,-9844.739029,-74.020594,0.000000
3999.606012,-10732.986159,0.000000,-383.047749
3999.606342,-10362.883188,0.000000,-306.438199
3999.606672,-9030.512492,0.000000,-153.219100
3999.607002,-8734.430116,-296.082377,306.438199
3999.607332,-9696.697840,370.102971,766.095498
3999.607662,-10584.944971,592.164754,306.438199
3999.607992,-10436.903782,740.205942,-919.314598
3999.608321,-9474.636058,296.082377,-1302.362347
3999.608651,-9770.718434,0.000000,536.266849
3999.608981,-10362.883188,0.000000,2604.724693
3999.609311,-10436.903782,148.041188,2221.676944
3999.609641,-9474.636058,-740.205942,-383.047749
3999.609971,-9178.553681,-370.102971,-2298.286494
3999.610301,-9622.677246,74.020594,-1378.971896
3999.610630,-10510.924376,592.164754,919.314598
3999.610960,-10436.903782,666.185348,2528.115143
3999.611290,-9548.656652,0.000000,1915.238745
3999.611620,-9252.574275,-222.061783,306.438199
3999.611950,-10066.800811,-222.061783,-459.657299
3999.612280,-10288.862594,-518.144159,-306.438199
3999.612610,-9918.759623,-296.082377,0.000000
3999.612939,-8808.450710,-444.123565,306.438199
3999.613269,-8882.471304,-222.061783,689.485948
3999.613599,-9918.759623,518.144159,919.314598
3999.613929,-10510.924376,518.144159,-229.828649
3999.614259,-10436.903782,518.144159,-1302.362347
3999.614589,-9474.636058,0.000000,-919.314598
3999.614919,-10140.821405,-74.020594,995.924147
3999.615248,-10362.883188,-296.082377,2451.505594
3999.615578,-9474.636058,-518.144159,536.266849
3999.615908,-8734.430116,-740.205942,-2068.457845
3999.616238,-8882.471304,-888.247130,-2987.772442
3999.616568,-9696.697840,0.000000,-1072.533697
3999.616898,-9770.718434,296.082377,1455.581446
3999.617228,-9770.718434,518.144159,2221.676944
3999.617557,-9030.512492,74.020594,1225.752797
3999.617887,-9622.677246,-296.082377,0.000000
3999.618217,-10436.903782,0.000000,-459.657299
3999.618547,-10881.027347,-296.082377,76.609550
3999.618877,-9474.636058,-666.185348,76.609550
3999.619207,-9104.533087,-592.164754,229.828649
3999.619537,-9030.512492,0.000000,612.876398
3999.619866,-10140.821405,296.082377,536.266849
3999.620196,-10436.903782,666.185348,-229.828649
3999.620526,-9474.636058,222.061783,-536.266849
3999.620856,-9770.718434,0.000000,153.219100
3999.621186,-10362.883188,0.000000,2451.505594
3999.621516,-10362.883188,0.000000,2451.505594
3999.621846,-9992.780217,-74.020594,229.828649
3999.622175,-8660.409521,-888.247130,-2298.286494
3999.622505,-8734.430116,-962.267725,-2451.505594
3999.622835,-10140.821405,222.061783,229.828649
3999.623165,-10510.924376,444.123565,2604.724693
3999.623495,-9844.739029,740.205942,2374.896044
3999.623825,-9326.594869,444.123565,536.266849
3999.624155,-10288.862594,0.000000,-459.657299
3999.624484,-11029.068536,74.020594,-612.876398
3999.624814,-10732.986159,-370.102971,76.609550
3999.625144,-8956.491898,-666.185348,-229.828649
3999.625474,-8364.327145,-148.041188,383.047749
3999.625804,-9474.636058,740.205942,842.705048
3999.626134,-10732.986159,1184.329507,153.219100
3999.626464,-10584.944971,888.247130,-995.924147
3999.626793,-9474.636058,592.164754,-1532.190996
3999.627123,-9770.718434,296.082377,1072.533697
3999.627453,-10658.965565,222.061783,2681.334243
3999.627783,-10066.800811,0.000000,1532.190996
3999.628113,-9030.512492,148.041188,-1378.971896
3999.628443,-8660.409521,0.000000,-2987.772442
3999.628773,-9548.656652,444.123565,-1991.848295
3999.629102,-10510.924376,814.226536,995.924147
3999.629432,-10510.924376,1258.350101,2145.067394
3999.629762,-9474.636058,888.247130,1685.410096
3999.630092,-9474.636058,148.041188,-306.438199
3999.630422,-10140.821405,0.000000,-1225.752797
3999.630752,-9918.759623,-148.041188,-842.705048
3999.631082,-9178.553681,-222.061783,-536.266849
3999.631411,-8438.347739,-296.082377,153.219100
3999.631741,-9030.512492,296.082377,689.485948
3999.632071,-9918.759623,888.247130,766.095498
3999.632401,-10436.903782,1110.308913,0.000000
3999.632731,-10066.800811,666.185348,-1072.533697
3999.633061,-9622.677246,148.041188,-1149.143247
3999.633391,-10288.862594,0.000000,1685.410096
3999.633720,-10140.821405,0.000000,2451.505594
3999.634050,-9918.759623,-370.102971,766.095498
3999.634380,-8660.409521,-888.247130,-1991.848295
3999.634710,-8438.347739,-814.226536,-2834.553343
3999.635040,-9622.677246,0.000000,-459.657299
3999.635370,-10510.924376,148.041188,2068.457845
3999.635700,-9770.718434,592.164754,2911.162892
3999.636029,-9400.615463,0.000000,1532.190996
3999.636359,-9770.718434,-296.082377,-306.438199
3999.636689,-11325.150913,-592.164754,-536.266849
3999.637019,-10510.924376,-740.205942,-306.438199
3999.637349,-8882.471304,-1110.308913,229.828649
3999.637679,-8586.388927,-666.185348,612.876398
3999.638009,-9474.636058,0.000000,1149.143247
3999.638338,-10436.903782,222.061783,459.657299
3999.638668,-10658.965565,592.164754,-612.876398
3999.638998,-10140.821405,0.000000,-842.705048
3999.639328,-9918.759623,-370.102971,153.219100
3999.639658,-10140.821405,-444.123565,2145.067394
3999.639988,-9992.780217,-518.144159,1991.848295
3999.640317,-9474.636058,-888.247130,-536.266849
3999.640647,-8660.409521,-1110.308913,-2451.505594
3999.640977,-9474.636058,-814.226536,-2145.067394
3999.641307,-10140.821405,74.020594,995.924147
3999.641636,-10362.883188,222.061783,3294.210641
3999.641966,-10362.883188,296.082377,2604.724693
3999.642296,-9400.615463,-518.144159,1532.190996
3999.642625,-9696.697840,-518.144159,-612.876398
3999.642955,-10658.965565,-296.082377,-919.314598
3999.643285,-10214.842000,-518.144159,0.000000
3999.643615,-8882.471304,-1110.308913,153.219100
3999.643944,-8660.409521,-74.020594,229.828649
3999.644274,-9622.677246,370.102971,689.485948
3999.644604,-10732.986159,666.185348,0.000000
3999.644933,-10140.821405,296.082377,-842.705048
3999.645263,-9474.636058,74.020594,-229.828649
3999.645593,-9696.697840,0.000000,1149.143247
3999.645923,-10288.862594,-148.041188,2757.943793
3999.646252,-9992.780217,0.000000,1838.629195
3999.646582,-8882.471304,-370.102971,-1455.581446
3999.646912,-8882.471304,-518.144159,-2681.334243
3999.647242,-9770.718434,296.082377,-842.705048
3999.647571,-10584.944971,888.247130,1762.019645
3999.647901,-10362.883188,666.185348,2681.334243
3999.648231,-9104.533087,444.123565,1685.410096
3999.648560,-9104.533087,370.102971,-612.876398
3999.648890,-10288.862594,222.061783,-1838.629195
3999.649220,-10362.883188,222.061783,-1149.143247
3999.649550,-9400.615463,0.000000,-459.657299
3999.649879,-8586.388927,0.000000,-229.828649
3999.650209,-9252.574275,296.082377,459.657299
3999.650539,-10066.800811,888.247130,383.047749
3999.650868,-10214.842000,592.164754,0.000000
3999.651198,-9622.677246,444.123565,-842.705048
3999.651528,-9400.615463,222.061783,0.000000
3999.651858,-10066.800811,296.082377,1991.848295
3999.652187,-10881.027347,666.185348,2911.162892
3999.652517,-9844.739029,74.020594,612.876398
3999.652847,-8956.491898,0.000000,-2298.286494
3999.653176,-9252.574275,0.000000,-2834.553343
3999.653506,-9992.780217,370.102971,536.266849
3999.653836,-10584.944971,888.247130,1991.848295
3999.654166,-9918.759623,814.226536,1838.629195
3999.654495,-8808.450710,370.102971,306.438199
3999.654825,-9770.718434,222.061783,-1072.533697
3999.655155,-10807.006753,0.000000,-1225.752797
3999.655485,-10436.903782,0.000000,-306.438199
3999.655814,-9548.656652,0.000000,383.047749
3999.656144,-8882.471304,-222.061783,919.314598
3999.656474,-10362.883188,666.185348,1762.019645
3999.656803,-10955.047942,814.226536,766.095498
3999.657133,-10955.047942,592.164754,-229.828649
3999.657463,-9918.759623,296.082377,-766.095498
3999.657793,-9548.656652,0.000000,1608.800546
3999.658122,-9992.780217,0.000000,2528.115143
3999.658452,-9770.718434,-148.041188,2145.067394
3999.658782,-9326.594869,-222.061783,-383.047749
3999.659111,-8512.368333,-592.164754,-2757.943793
3999.659441,-9400.615463,-370.102971,-2451.505594
3999.659771,-10140.821405,148.041188,612.876398
3999.660101,-10436.903782,370.102971,2757.943793
3999.660430,-9474.636058,0.000000,2374.896044
3999.660760,-9326.594869,-296.082377,153.219100
3999.661090,-9918.759623,-222.061783,-536.266849
3999.661419,-10807.006753,-222.061783,-383.047749
3999.661749,-10510.924376,-222.061783,612.876398
3999.662079,-9104.533087,-592.164754,1455.581446
3999.662409,-8808.450710,-370.102971,766.095498
3999.662738,-9622.677246,148.041188,995.924147
3999.663068,-10214.842000,148.041188,-306.438199
3999.663398,-10214.842000,296.082377,-1532.190996
3999.663728,-9326.594869,0.000000,-1225.752797
3999.664057,-9918.759623,-148.041188,536.266849
3999.664387,-10140.821405,-148.041188,2298.286494
3999.664717,-10362.883188,74.020594,1149.143247
3999.665046,-9696.697840,-444.123565,-1225.752797
3999.665376,-9326.594869,-518.144159,-2528.115143
3999.665706,-10140.821405,0.000000,-612.876398
3999.666036,-10436.903782,74.020594,2451.505594
3999.666365,-10066.800811,74.020594,3524.039291
3999.666695,-9252.574275,-74.020594,1455.581446
3999.667025,-9252.574275,-592.164754,-766.095498
3999.667354,-9844.739029,-518.144159,-1072.533697
3999.667684,-10510.924376,-666.185348,-383.047749
3999.668014,-9474.636058,-148.041188,153.219100
3999.668344,-8734.430116,0.000000,766.095498
3999.668673,-9252.574275,370.102971,1072.533697
3999.669003,-10658.965565,592.164754,612.876398
3999.669333,-10955.047942,740.205942,-766.095498
3999.669662,-9844.739029,370.102971,-1225.752797
3999.669992,-9178.553681,0.000000,-383.047749
3999.670322,-9696.697840,74.020594,2068.457845
3999.670652,-10362.883188,0.000000,2451.505594
3999.670981,-9548.656652,74.020594,536.266849
3999.671311,-9400.615463,74.020594,-2374.896044
3999.671641,-9474.636058,-148.041188,-2298.286494
3999.671970,-10288.862594,0.000000,-229.828649
3999.672300,-10140.821405,592.164754,2834.553343
3999.672630,-9622.677246,370.102971,2757.943793
3999.672960,-9252.574275,0.000000,995.924147
3999.673289,-9548.656652,-370.102971,-766.095498
3999.673619,-10436.903782,-148.041188,-1455.581446
3999.673949,-10140.821405,0.000000,-612.876398
3999.674279,-9326.594869,0.000000,306.438199
3999.674608,-8660.409521,-444.123565,919.314598
3999.674938,-9474.636058,148.041188,1378.971896
3999.675268,-10436.903782,518.144159,383.047749
3999.675597,-10288.862594,444.123565,-1072.533697
3999.675927,-9474.636058,0.000000,-1378.971896
3999.676257,-9622.677246,-370.102971,0.000000
3999.676587,-10288.862594,0.000000,1915.238745
3999.676916,-10288.862594,148.041188,1915.238745
3999.677246,-9400.615463,-222.061783,-689.485948
3999.677576,-8956.491898,0.000000,-2528.115143
3999.677905,-9474.636058,-148.041188,-2145.067394
3999.678235,-10214.842000,148.041188,919.314598
3999.678565,-10288.862594,222.061783,3064.381992
3999.678895,-9474.636058,148.041188,2145.067394
3999.679224,-8956.491898,-444.123565,383.047749
3999.679554,-9992.780217,-148.041188,-1149.143247
3999.679884,-10658.965565,-148.041188,-1149.143247
3999.680213,-10214.842000,0.000000,153.219100
3999.680543,-8734.430116,-444.123565,1149.143247
3999.680873,-9030.512492,-296.082377,1225.752797
3999.681203,-10214.842000,518.144159,1455.581446
3999.681532,-10732.986159,296.082377,0.000000
3999.681862,-9918.759623,518.144159,-766.095498
3999.682192,-9030.512492,-444.123565,-842.705048
3999.682522,-9474.636058,-222.061783,1225.752797
3999.682851,-10362.883188,0.000000,2987.772442
3999.683181,-10658.965565,74.020594,1532.190996
3999.683511,-9252.574275,0.000000,-1685.410096
3999.683840,-9400.615463,-148.041188,-2604.724693
3999.684170,-9844.739029,148.041188,-1225.752797
3999.684500,-10510.924376,444.123565,1762.019645
3999.684830,-10066.800811,592.164754,3217.601092
3999.685159,-9104.533087,148.041188,1225.752797
3999.685489,-9474.636058,-296.082377,-459.657299
3999.685819,-10362.883188,0.000000,-1302.362347
3999.686148,-10658.965565,370.102971,76.609550
3999.686478,-9622.677246,0.000000,383.047749
3999.686808,-8882.471304,-222.061783,919.314598
3999.687138,-9178.553681,74.020594,1685.410096
3999.687467,-9844.739029,444.123565,1072.533697
3999.687797,-10584.944971,518.144159,-536.266849
3999.688127,-9844.739029,296.082377,-1378.971896
3999.688456,-9474.636058,-222.061783,-459.657299
3999.688786,-10066.800811,0.000000,2221.676944
3999.689116,-10807.006753,518.144159,2374.896044
3999.689446,-9770.718434,222.061783,0.000000
3999.689775,-8586.388927,-222.061783,-2604.724693
3999.690105,-9252.574275,0.000000,-3140.991542
3999.690435,-9918.759623,962.267725,0.000000
3999.690765,-10510.924376,666.185348,2221.676944
3999.691094,-9844.739029,296.082377,2528.115143
3999.691424,-9400.615463,0.000000,766.095498
3999.691754,-9696.697840,-444.123565,0.000000
3999.692083,-10658.965565,-222.061783,-689.485948
3999.692413,-10362.883188,-444.123565,0.000000
3999.692743,-9104.533087,-444.123565,1378.971896
3999.693073,-8734.430116,-518.144159,1838.629195
3999.693402,-9696.697840,148.041188,1685.410096
3999.693732,-10362.883188,592.164754,229.828649
3999.694062,-10140.821405,666.185348,-1302.362347
3999.694391,-9400.615463,148.041188,-1685.410096
3999.694721,-9770.718434,0.000000,306.438199
3999.695051,-10436.903782,0.000000,2068.457845
3999.695381,-10214.842000,0.000000,1378.971896
3999.695710,-9252.574275,-518.144159,-1302.362347
3999.696040,-8586.388927,-888.247130,-2451.505594
3999.696370,-9548.656652,-74.020594,-1838.629195
3999.696699,-10436.903782,370.102971,1532.190996
3999.697029,-10362.883188,444.123565,2757.943793
3999.697359,-9696.697840,222.061783,1915.238745
3999.697689,-9104.533087,-222.061783,229.828649
3999.698018,-10140.821405,0.000000,-995.924147
3999.698348,-10510.924376,0.000000,-612.876398
3999.698678,-9918.759623,0.000000,306.438199
3999.699008,-9178.553681,-296.082377,536.266849
3999.699337,-8808.450710,148.041188,1149.143247
3999.699667,-9992.780217,222.061783,842.705048
3999.699997,-10436.903782,592.164754,-919.314598
3999.700326,-10066.800811,74.020594,-1072.533697
3999.700656,-9474.636058,0.000000,-612.876398
3999.700986,-10066.800811,148.041188,1762.019645
3999.701316,-10658.965565,74.020594,2987.772442
3999.701645,-10436.903782,0.000000,1225.752797
3999.701975,-9104.533087,0.000000,-1608.800546
3999.702305,-9104.533087,-370.102971,-2604.724693
3999.702634,-10066.800811,74.020594,-612.876398
3999.702964,-10510.924376,518.144159,2145.067394
3999.703294,-9918.759623,740.205942,2374.896044
3999.703624,-9104.533087,296.082377,1225.752797
3999.703953,-9252.574275,0.000000,-536.266849
3999.704283,-10214.842000,74.020594,-919.314598
3999.704613,-10140.821405,-666.185348,-383.047749
3999.704942,-9104.533087,-296.082377,306.438199
3999.705272,-8734.430116,0.000000,995.924147
3999.705602,-9474.636058,0.000000,1302.362347
3999.705932,-10288.862594,74.020594,612.876398
3999.706261,-10510.924376,814.226536,-689.485948
3999.706591,-9770.718434,444.123565,-1225.752797
3999.706921,-9622.677246,0.000000,306.438199
3999.707250,-10510.924376,148.041188,2451.505594
3999.707580,-10066.800811,0.000000,2681.334243
3999.707910,-9400.615463,148.041188,-383.047749
3999.708240,-8734.430116,0.000000,-3064.381992
3999.708569,-9178.553681,0.000000,-2987.772442
3999.708899,-10214.842000,518.144159,0.000000
3999.709229,-10436.903782,814.226536,2145.067394
3999.709559,-9696.697840,666.185348,1762.019645
3999.709888,-9252.574275,148.041188,229.828649
3999.710218,-9622.677246,-666.185348,-612.876398
3999.710548,-10881.027347,-148.041188,-536.266849
3999.710877,-10436.903782,-370.102971,76.609550
3999.711207,-8956.491898,-740.205942,919.314598
3999.711537,-8512.368333,-296.082377,1685.410096
3999.711867,-9770.718434,444.123565,1685.410096
3999.712196,-10955.047942,814.226536,229.828649
3999.712526,-10510.924376,666.185348,-1225.752797
3999.712856,-9844.739029,0.000000,-995.924147
3999.713185,-9622.677246,-296.082377,1225.752797
3999.713515,-10732.986159,0.000000,2757.943793
3999.713845,-9992.780217,-444.123565,1915.238745
3999.714175,-9178.553681,-518.144159,-1149.143247
3999.714504,-8290.306550,-888.247130,-2374.896044
3999.714834,-9400.615463,-370.102971,-1685.410096
3999.715164,-10436.903782,518.144159,1225.752797
3999.715493,-10584.944971,518.144159,2911.162892
3999.715823,-9474.636058,222.061783,1685.410096
3999.716153,-9474.636058,-148.041188,-76.609550
3999.716483,-10436.903782,-148.041188,-842.705048
3999.716812,-10584.944971,-222.061783,-459.657299
3999.717142,-9844.739029,-592.164754,153.219100
3999.717472,-8660.409521,-740.205942,919.314598
3999.717802,-9030.512492,-296.082377,1149.143247
3999.718131,-9770.718434,74.020594,842.705048
3999.718461,-10510.924376,444.123565,-383.047749
3999.718791,-9844.739029,0.000000,-1149.143247
3999.719120,-9474.636058,-148.041188,0.000000
3999.719450,-10140.821405,0.000000,2374.896044
3999.719780,-10362.883188,74.020594,3370.820191
3999.720110,-10214.842000,74.020594,842.705048
3999.720439,-8808.450710,-296.082377,-2145.067394
3999.720769,-9252.574275,-592.164754,-3064.381992
3999.721099,-10362.883188,370.102971,-612.876398
3999.721428,-10955.047942,518.144159,1991.848295
3999.721758,-9770.718434,518.144159,2604.724693
3999.722088,-8808.450710,74.020594,766.095498
3999.722418,-9326.594869,0.000000,-842.705048
3999.722747,-10362.883188,-222.061783,-1072.533697
3999.723077,-10066.800811,-296.082377,0.000000
3999.723407,-9030.512492,-370.102971,306.438199
3999.723736,-8734.430116,-222.061783,842.705048
3999.724066,-9252.574275,74.020594,1532.190996
3999.724396,-10066.800811,296.082377,612.876398
3999.724726,-10510.924376,592.164754,-995.924147
3999.725055,-9770.718434,444.123565,-1532.190996
3999.725385,-9696.697840,74.020594,229.828649
3999.725715,-9992.780217,222.061783,2451.505594
3999.726045,-10066.800811,296.082377,1991.848295
3999.726374,-9252.574275,0.000000,-689.485948
3999.726704,-8660.409521,-444.123565,-3294.210641
3999.727034,-9474.636058,74.020594,-2911.162892
3999.727363,-10214.842000,518.144159,153.219100
3999.727693,-10436.903782,592.164754,2911.162892
3999.728023,-9696.697840,666.185348,2528.115143
3999.728353,-9326.594869,0.000000,536.266849
3999.728682,-9918.759623,0.000000,-612.876398
3999.729012,-10436.903782,-518.144159,-459.657299
3999.729342,-10362.883188,-444.123565,153.219100
3999.729671,-8882.471304,-518.144159,383.047749
3999.730001,-8586.388927,0.000000,919.314598
3999.730331,-9400.615463,296.082377,1149.143247
3999.730661,-10732.986159,592.164754,-229.828649
3999.730990,-9992.780217,666.185348,-1532.190996
3999.731320,-9326.594869,148.041188,-1149.143247
3999.731650,-9918.759623,0.000000,919.314598
3999.731979,-10658.965565,148.041188,2987.772442
3999.732309,-10362.883188,0.000000,1685.410096
3999.732639,-9030.512492,-518.144159,-1532.190996
3999.732969,-8586.388927,-518.144159,-3294.210641
3999.733298,-9474.636058,0.000000,-1302.362347
3999.733628,-10436.903782,444.123565,1532.190996
3999.733958,-10362.883188,592.164754,2834.553343
3999.734288,-9400.615463,592.164754,1762.019645
3999.734617,-9696.697840,222.061783,-153.219100
3999.734947,-10732.986159,-296.082377,-766.095498
3999.735277,-10436.903782,-888.247130,0.000000
3999.735606,-9474.636058,-740.205942,536.266849
3999.735936,-8142.265362,-666.185348,383.047749
3999.736266,-8734.430116,-592.164754,919.314598
3999.736596,-10066.800811,296.082377,459.657299
3999.736925,-10732.986159,666.185348,0.000000
3999.737255,-10214.842000,370.102971,-919.314598
3999.737585,-9992.780217,0.000000,0.000000
3999.737914,-10140.821405,0.000000,2221.676944
3999.738244,-10436.903782,-148.041188,2681.334243
