#time,accel_x,accel_y,accel_z
3828.603599,-10066.800811,74.020594,0.000000
3828.603929,-9696.697840,0.000000,536.266849
3828.604259,-9696.697840,74.020594,383.047749
3828.604589,-9696.697840,0.000000,229.828649
3828.604919,-9918.759623,296.082377,0.000000
3828.605249,-9844.739029,0.000000,383.047749
3828.605579,-9844.739029,74.020594,0.000000
3828.605909,-10066.800811,148.041188,383.047749
3828.606240,-9918.759623,518.144159,153.219100
3828.606570,-9548.656652,0.000000,306.438199
3828.606900,-9696.697840,0.000000,306.438199
3828.607230,-9770.718434,222.061783,76.609550
3828.607560,-10066.800811,0.000000,842.705048
3828.607890,-10362.883188,222.061783,766.095498
3828.608220,-10214.842000,0.000000,229.828649
3828.608550,-9622.677246,148.041188,-306.438199
3828.608880,-9992.780217,0.000000,-229.828649
3828.609210,-9474.636058,296.082377,-919.314598
3828.609540,-10288.862594,-74.020594,-229.828649
3828.609870,-9992.780217,0.000000,-76.609550
3828.610200,-9548.656652,-592.164754,0.000000
3828.610530,-9770.718434,-296.082377,-1072.533697
3828.610860,-9622.677246,-888.247130,-306.438199
3828.611190,-9474.636058,-518.144159,-766.095498
3828.611520,-9474.636058,-518.144159,-842.705048
3828.611851,-9548.656652,-444.123565,-842.705048
3828.612181,-9992.780217,-666.185348,-229.828649
3828.612511,-10066.800811,-222.061783,383.047749
3828.612841,-10288.862594,-444.123565,0.000000
3828.613171,-9770.718434,-444.123565,-383.047749
3828.613501,-9178.553681,-370.102971,-1532.190996
3828.613831,-9844.739029,-592.164754,-1991.848295
3828.614161,-9326.594869,-1036.288319,-2374.896044
3828.614491,-9178.553681,-1332.370696,-1762.019645
3828.614821,-9104.533087,-1036.288319,-383.047749
3828.615151,-8956.491898,-1480.411884,-229.828649
3828.615481,-9622.677246,-962.267725,-306.438199
3828.615811,-9770.718434,-1258.350101,-536.266849
3828.616141,-10066.800811,-740.205942,-1072.533697
3828.616471,-9844.739029,-518.144159,-995.924147
3828.616801,-10288.862594,-592.164754,-1378.971896
3828.617132,-10362.883188,-888.247130,-1225.752797
3828.617462,-10510.924376,-296.082377,-1762.019645
3828.617792,-10214.842000,-962.267725,-2451.505594
3828.618122,-10288.862594,-1480.411884,-2911.162892
3828.618452,-9992.780217,-1406.391290,-2528.115143
3828.618782,-10066.800811,-1702.473667,-2451.505594
3828.619112,-9252.574275,-1332.370696,-1991.848295
3828.619442,-8290.306550,-1924.535449,-2068.457845
3828.619772,-8882.471304,-1628.453072,-1149.143247
3828.620102,-9474.636058,-1332.370696,-383.047749
3828.620432,-10436.903782,-814.226536,0.000000
3828.620762,-11103.089130,-888.247130,76.609550
3828.621092,-11843.295072,-1110.308913,-229.828649
3828.621422,-12287.418637,-1258.350101,-1455.581446
3828.621752,-11917.315666,-2072.576638,-2987.772442
3828.622082,-10584.944971,-2738.761985,-4519.963438
3828.622412,-8660.409521,-3552.988522,-5286.058936
3828.622743,-7105.977043,-3627.009116,-3830.477490
3828.623073,-7179.997637,-2960.823768,-1685.410096
3828.623403,-8438.347739,-1628.453072,-612.876398
3828.623733,-9474.636058,-1406.391290,-1608.800546
3828.624063,-10362.883188,-1480.411884,-3677.258390
3828.624393,-10955.047942,-2146.597232,-4903.011187
3828.624723,-11917.315666,-3034.844362,-3753.867940
3828.625053,-11103.089130,-4441.235652,-2604.724693
3828.625383,-9178.553681,-5403.503377,-1991.848295
3828.625713,-7402.059420,-5477.523971,-2145.067394
3828.626043,-7179.997637,-4885.359217,-2681.334243
3828.626373,-8438.347739,-3775.050304,-2911.162892
3828.626703,-9400.615463,-2738.761985,-2221.676944
3828.627033,-10214.842000,-1702.473667,-1455.581446
3828.627363,-10807.006753,-1480.411884,-1838.629195
3828.627693,-11029.068536,-2146.597232,-2987.772442
3828.628024,-10955.047942,-3404.947333,-4366.744339
3828.628354,-10066.800811,-4663.297435,-4826.401637
3828.628684,-9178.553681,-5551.544565,-3983.696590
3828.629014,-8660.409521,-5699.585753,-2221.676944
3828.629344,-8068.244768,-5329.482782,76.609550
3828.629674,-8068.244768,-4367.215058,919.314598
3828.630004,-8734.430116,-3330.926739,995.924147
3828.630334,-11251.130318,-2220.617826,76.609550
3828.630664,-12435.459826,-1702.473667,-2068.457845
3828.630994,-11769.274478,-2368.659014,-3294.210641
3828.631324,-10436.903782,-3404.947333,-3064.381992
3828.631654,-9400.615463,-4367.215058,-2374.896044
3828.631984,-9104.533087,-4737.318029,-995.924147
3828.632314,-7772.162391,-3775.050304,-1225.752797
3828.632644,-7179.997637,-3923.091493,-1991.848295
3828.632974,-9474.636058,-3108.864956,-1532.190996
3828.633304,-10288.862594,-2294.638420,612.876398
3828.633635,-10881.027347,-1258.350101,842.705048
3828.633965,-12805.562797,-1702.473667,536.266849
3828.634295,-11843.295072,-1258.350101,-612.876398
3828.634625,-10362.883188,-1776.494261,-1532.190996
3828.634955,-9400.615463,-3182.885551,-2451.505594
3828.635285,-10288.862594,-2368.659014,-919.314598
3828.635615,-10955.047942,-2368.659014,-1915.238745
3828.635945,-9548.656652,-1924.535449,-3064.381992
3828.636275,-9178.553681,-2294.638420,-2681.334243
3828.636605,-9548.656652,-1628.453072,-689.485948
3828.636935,-10140.821405,-1480.411884,612.876398
3828.637265,-10140.821405,-1332.370696,-229.828649
3828.637595,-8364.327145,-888.247130,-2604.724693
3828.637925,-8808.450710,-1258.350101,-4213.525239
3828.638255,-9844.739029,-1110.308913,-2451.505594
3828.638585,-10362.883188,-814.226536,0.000000
3828.638916,-10510.924376,-666.185348,536.266849
3828.639246,-10140.821405,-370.102971,-1991.848295
3828.639576,-10362.883188,-444.123565,-4519.963438
3828.639906,-10288.862594,-814.226536,-4826.401637
3828.640236,-9844.739029,-1110.308913,-3677.258390
3828.640566,-10066.800811,-518.144159,-1685.410096
3828.640896,-9252.574275,-592.164754,-2451.505594
3828.641226,-7402.059420,-814.226536,-3753.867940
3828.641556,-6439.791695,-1480.411884,-4290.134789
3828.641886,-7105.977043,-740.205942,-3524.039291
3828.642216,-9992.780217,-592.164754,-1072.533697
3828.642546,-11621.233289,0.000000,229.828649
3828.642876,-10510.924376,74.020594,-459.657299
3828.643206,-10288.862594,-592.164754,-1225.752797
3828.643536,-10436.903782,-814.226536,-2528.115143
3828.643866,-11917.315666,-1554.432478,-3064.381992
3828.644196,-11769.274478,-1480.411884,-3983.696590
3828.644527,-9400.615463,-1480.411884,-1991.848295
3828.644857,-6957.935855,-1628.453072,-1302.362347
3828.645187,-7031.956449,-1258.350101,-919.314598
3828.645517,-9104.533087,-962.267725,-2298.286494
3828.645847,-10362.883188,-370.102971,-2604.724693
3828.646177,-9992.780217,-740.205942,-3294.210641
3828.646507,-9696.697840,-1332.370696,-766.095498
3828.646837,-10362.883188,-1924.535449,229.828649
3828.647167,-12509.480420,-1924.535449,612.876398
3828.647497,-11917.315666,-2516.700203,-1302.362347
3828.647827,-9770.718434,-3256.906145,-1838.629195
3828.648157,-8808.450710,-2886.803174,-1378.971896
3828.648487,-10362.883188,-2812.782580,-383.047749
3828.648817,-9696.697840,-2072.576638,-153.219100
3828.649147,-8808.450710,-2072.576638,-612.876398
3828.649477,-8734.430116,-1850.514855,-2911.162892
3828.649808,-10362.883188,-1702.473667,-3217.601092
3828.650138,-10807.006753,-2886.803174,-3294.210641
3828.650468,-9918.759623,-3478.967927,-2451.505594
3828.650798,-9622.677246,-3330.926739,-1915.238745
3828.651128,-10140.821405,-3923.091493,-1072.533697
3828.651458,-10658.965565,-4293.194464,-766.095498
3828.651788,-10066.800811,-3849.070898,-1225.752797
3828.652118,-9474.636058,-4145.153275,-1762.019645
3828.652448,-9474.636058,-3997.112087,-2451.505594
3828.652778,-9548.656652,-3997.112087,-2145.067394
3828.653108,-9400.615463,-3701.029710,-2221.676944
3828.653438,-9178.553681,-3034.844362,-3140.991542
3828.653768,-8364.327145,-3552.988522,-4979.620737
3828.654098,-8512.368333,-3182.885551,-4903.011187
3828.654428,-9844.739029,-3330.926739,-3064.381992
3828.654758,-11769.274478,-3552.988522,-1991.848295
3828.655088,-10658.965565,-3478.967927,-1762.019645
3828.655419,-9252.574275,-3923.091493,-2757.943793
3828.655749,-8882.471304,-3775.050304,-2757.943793
3828.656079,-9696.697840,-3256.906145,-995.924147
3828.656409,-11177.109724,-2664.741391,0.000000
3828.656739,-10436.903782,-2368.659014,-1378.971896
3828.657069,-8808.450710,-2368.659014,-3830.477490
3828.657399,-8512.368333,-2368.659014,-4136.915689
3828.657729,-10066.800811,-1924.535449,-2987.772442
3828.658059,-10362.883188,-2220.617826,-1532.190996
3828.658389,-9770.718434,-1924.535449,-1455.581446
3828.658720,-9474.636058,-1924.535449,-2451.505594
3828.659050,-9326.594869,-2812.782580,-2987.772442
3828.659380,-9178.553681,-3404.947333,-1455.581446
3828.659710,-10066.800811,-2664.741391,0.000000
3828.660040,-9992.780217,-1628.453072,306.438199
3828.660370,-9326.594869,-1924.535449,0.000000
3828.660700,-9030.512492,-1850.514855,-1608.800546
3828.661031,-9104.533087,-1702.473667,-1225.752797
3828.661361,-10288.862594,-444.123565,-689.485948
3828.661691,-11251.130318,-592.164754,-766.095498
3828.662021,-10288.862594,-1480.411884,-2221.676944
3828.662351,-9474.636058,-1480.411884,-2604.724693
3828.662681,-10066.800811,-1332.370696,-2374.896044
3828.663011,-10807.006753,-2220.617826,-3217.601092
3828.663342,-8512.368333,-2590.720797,-2757.943793
3828.663672,-7846.182985,-2220.617826,-2145.067394
3828.664002,-8290.306550,-1924.535449,-689.485948
3828.664332,-9474.636058,-1924.535449,-153.219100
3828.664662,-9548.656652,-1406.391290,-1302.362347
3828.664992,-9178.553681,-1406.391290,-995.924147
3828.665323,-10362.883188,-888.247130,-383.047749
3828.665653,-11251.130318,-1036.288319,-459.657299
3828.665983,-9326.594869,-518.144159,-1302.362347
3828.666313,-9548.656652,-1184.329507,-2987.772442
3828.666643,-9474.636058,-1184.329507,-4290.134789
3828.666973,-10362.883188,-888.247130,-3447.429741
3828.667303,-10066.800811,-592.164754,-2987.772442
3828.667634,-8660.409521,-962.267725,-1302.362347
3828.667964,-8956.491898,-1036.288319,306.438199
3828.668294,-10140.821405,-370.102971,-536.266849
3828.668624,-10066.800811,-222.061783,-1455.581446
3828.668954,-9252.574275,0.000000,-1685.410096
3828.669284,-10510.924376,814.226536,-1302.362347
3828.669614,-11843.295072,592.164754,229.828649
3828.669945,-11547.212695,0.000000,-76.609550
3828.670275,-10362.883188,-148.041188,-536.266849
3828.670605,-11547.212695,-444.123565,-842.705048
3828.670935,-11251.130318,-370.102971,-2451.505594
3828.671265,-10288.862594,-1332.370696,-3524.039291
3828.671595,-8364.327145,-1406.391290,-2451.505594
3828.671926,-7550.100608,-518.144159,-153.219100
3828.672256,-9030.512492,-888.247130,1532.190996
3828.672586,-9400.615463,-444.123565,1072.533697
3828.672916,-9400.615463,-666.185348,76.609550
3828.673246,-9918.759623,-592.164754,-306.438199
3828.673576,-10881.027347,0.000000,0.000000
3828.673906,-11547.212695,-1036.288319,153.219100
3828.674237,-10066.800811,-1776.494261,0.000000
3828.674567,-8142.265362,-1776.494261,0.000000
3828.674897,-7846.182985,-2738.761985,0.000000
3828.675227,-7846.182985,-2368.659014,0.000000
3828.675557,-8438.347739,-1702.473667,689.485948
3828.675887,-8734.430116,-740.205942,995.924147
3828.676217,-7846.182985,74.020594,766.095498
3828.676548,-9548.656652,222.061783,76.609550
3828.676878,-9474.636058,518.144159,-383.047749
3828.677208,-11399.171507,1332.370696,612.876398
3828.677538,-12065.356855,666.185348,-383.047749
3828.677868,-11029.068536,-296.082377,-1302.362347
3828.678198,-10807.006753,-222.061783,-1302.362347
3828.678529,-9030.512492,-740.205942,-1685.410096
3828.678859,-9548.656652,-962.267725,-76.609550
3828.679189,-10066.800811,-370.102971,612.876398
3828.679519,-9178.553681,-518.144159,0.000000
3828.679849,-9548.656652,-296.082377,229.828649
3828.680179,-8512.368333,518.144159,-306.438199
3828.680509,-10214.842000,0.000000,1685.410096
3828.680840,-11621.233289,1036.288319,2145.067394
3828.681170,-12583.501014,74.020594,612.876398
3828.681500,-11991.336260,-592.164754,383.047749
3828.681830,-9474.636058,-1332.370696,-689.485948
3828.682160,-8808.450710,-1924.535449,383.047749
3828.682490,-9326.594869,-962.267725,1455.581446
3828.682821,-8290.306550,-666.185348,1685.410096
3828.683151,-8216.285956,0.000000,1608.800546
3828.683481,-8956.491898,370.102971,383.047749
3828.683811,-10140.821405,814.226536,-459.657299
3828.684141,-11769.274478,740.205942,842.705048
3828.684471,-10732.986159,814.226536,76.609550
3828.684801,-9992.780217,74.020594,0.000000
3828.685132,-10066.800811,0.000000,-459.657299
3828.685462,-9400.615463,-1184.329507,-766.095498
3828.685792,-9696.697840,-370.102971,-153.219100
3828.686122,-9104.533087,-666.185348,76.609550
3828.686452,-8882.471304,-296.082377,-842.705048
3828.686782,-8882.471304,-518.144159,-383.047749
3828.687112,-9030.512492,444.123565,229.828649
3828.687443,-9992.780217,222.061783,536.266849
3828.687773,-10140.821405,-222.061783,76.609550
3828.688103,-9622.677246,222.061783,-612.876398
3828.688433,-9844.739029,-222.061783,-459.657299
3828.688763,-9030.512492,296.082377,0.000000
3828.689093,-9548.656652,-518.144159,919.314598
3828.689424,-10510.924376,-370.102971,2068.457845
3828.689754,-10214.842000,-222.061783,2145.067394
3828.690084,-10955.047942,-74.020594,1838.629195
3828.690414,-9178.553681,296.082377,842.705048
3828.690744,-8882.471304,592.164754,689.485948
3828.691074,-9178.553681,1110.308913,842.705048
3828.691404,-10214.842000,1110.308913,995.924147
3828.691735,-10881.027347,1776.494261,229.828649
3828.692065,-10510.924376,2220.617826,-612.876398
3828.692395,-10288.862594,1628.453072,-1838.629195
3828.692725,-10066.800811,1406.391290,-1608.800546
3828.693055,-10214.842000,2294.638420,-995.924147
3828.693385,-9622.677246,1924.535449,-612.876398
3828.693715,-9474.636058,1998.556043,76.609550
3828.694046,-9400.615463,1258.350101,612.876398
3828.694376,-9844.739029,1776.494261,1455.581446
3828.694706,-10955.047942,1184.329507,919.314598
3828.695036,-11473.192101,1332.370696,76.609550
3828.695366,-10140.821405,592.164754,153.219100
3828.695696,-9178.553681,148.041188,229.828649
3828.696027,-8882.471304,0.000000,1225.752797
3828.696357,-9844.739029,-74.020594,842.705048
3828.696687,-9770.718434,0.000000,689.485948
3828.697017,-8586.388927,-296.082377,153.219100
3828.697347,-7550.100608,-592.164754,0.000000
3828.697677,-8068.244768,-222.061783,459.657299
3828.698007,-9548.656652,296.082377,1991.848295
3828.698338,-10584.944971,740.205942,2604.724693
3828.698668,-10436.903782,0.000000,1378.971896
3828.698998,-9622.677246,444.123565,306.438199
3828.699328,-10066.800811,-592.164754,383.047749
3828.699658,-10732.986159,222.061783,995.924147
3828.699988,-9474.636058,666.185348,689.485948
3828.700318,-9474.636058,222.061783,536.266849
3828.700649,-9252.574275,740.205942,-153.219100
3828.700979,-10881.027347,962.267725,-766.095498
3828.701309,-11769.274478,962.267725,-1915.238745
3828.701639,-10066.800811,296.082377,-2757.943793
3828.701969,-9844.739029,-518.144159,-1608.800546
3828.702299,-8956.491898,-74.020594,459.657299
3828.702630,-9030.512492,-370.102971,919.314598
3828.702960,-9474.636058,-296.082377,153.219100
3828.703290,-10584.944971,-74.020594,-766.095498
3828.703620,-11325.150913,-444.123565,-766.095498
3828.703950,-10584.944971,-592.164754,0.000000
3828.704280,-10510.924376,-1110.308913,153.219100
3828.704610,-8882.471304,-1628.453072,919.314598
3828.704941,-8512.368333,-1924.535449,689.485948
3828.705271,-8364.327145,-1480.411884,383.047749
3828.705601,-8956.491898,-1332.370696,76.609550
3828.705931,-9770.718434,-1332.370696,-766.095498
3828.706261,-9104.533087,-592.164754,-229.828649
3828.706591,-9548.656652,-518.144159,459.657299
3828.706922,-10510.924376,-666.185348,1608.800546
3828.707252,-10436.903782,-444.123565,1685.410096
3828.707582,-9770.718434,-1184.329507,459.657299
3828.707912,-8734.430116,-592.164754,-766.095498
3828.708242,-9474.636058,0.000000,-612.876398
3828.708572,-10288.862594,0.000000,1378.971896
3828.708902,-10288.862594,296.082377,1608.800546
3828.709233,-9400.615463,222.061783,0.000000
3828.709563,-9622.677246,74.020594,-1455.581446
3828.709893,-10288.862594,0.000000,-612.876398
3828.710223,-10436.903782,148.041188,1685.410096
3828.710553,-10584.944971,0.000000,919.314598
3828.710883,-9622.677246,148.041188,153.219100
3828.711213,-9622.677246,-296.082377,-383.047749
3828.711544,-10214.842000,-962.267725,76.609550
3828.711874,-9400.615463,-814.226536,689.485948
3828.712204,-9400.615463,-666.185348,1685.410096
3828.712534,-9622.677246,-740.205942,1838.629195
3828.712864,-9030.512492,-740.205942,2068.457845
3828.713194,-8956.491898,-740.205942,2451.505594
3828.713525,-8734.430116,370.102971,2451.505594
3828.713855,-10510.924376,592.164754,1762.019645
3828.714185,-10658.965565,222.061783,459.657299
3828.714515,-10066.800811,1184.329507,0.000000
3828.714845,-10807.006753,962.267725,-995.924147
3828.715175,-10584.944971,370.102971,-1149.143247
3828.715505,-9474.636058,222.061783,0.000000
3828.715836,-8882.471304,888.247130,919.314598
3828.716166,-9770.718434,962.267725,0.000000
3828.716496,-9622.677246,1110.308913,-612.876398
3828.716826,-9252.574275,888.247130,-1072.533697
3828.717156,-10140.821405,1702.473667,-1915.238745
3828.717486,-11103.089130,1184.329507,-995.924147
3828.717816,-10436.903782,518.144159,0.000000
3828.718147,-9400.615463,592.164754,153.219100
3828.718477,-9252.574275,814.226536,0.000000
3828.718807,-9992.780217,962.267725,-995.924147
3828.719137,-11029.068536,-222.061783,-2068.457845
3828.719467,-9918.759623,148.041188,-536.266849
3828.719797,-9400.615463,518.144159,536.266849
3828.720128,-9770.718434,592.164754,689.485948
3828.720458,-9252.574275,0.000000,536.266849
3828.720788,-8512.368333,222.061783,536.266849
3828.721118,-9622.677246,444.123565,76.609550
3828.721448,-10658.965565,814.226536,383.047749
3828.721778,-10362.883188,296.082377,766.095498
3828.722108,-9474.636058,444.123565,1378.971896
3828.722439,-9326.594869,74.020594,1608.800546
3828.722769,-10436.903782,74.020594,1225.752797
3828.723099,-9844.739029,222.061783,536.266849
3828.723429,-9992.780217,0.000000,0.000000
3828.723759,-9104.533087,444.123565,612.876398
3828.724089,-10214.842000,1110.308913,383.047749
3828.724420,-9992.780217,1480.411884,383.047749
3828.724750,-8882.471304,1258.350101,-919.314598
3828.725080,-9770.718434,1036.288319,-1685.410096
3828.725410,-10140.821405,444.123565,-1762.019645
3828.725740,-10066.800811,0.000000,-995.924147
3828.726070,-9918.759623,-296.082377,919.314598
3828.726400,-9474.636058,-592.164754,1915.238745
3828.726731,-9696.697840,-444.123565,1838.629195
3828.727061,-10140.821405,-740.205942,306.438199
3828.727391,-9844.739029,-1110.308913,-689.485948
3828.727721,-9030.512492,-370.102971,0.000000
3828.728051,-10066.800811,-296.082377,995.924147
3828.728381,-9992.780217,-592.164754,1532.190996
3828.728711,-9400.615463,-444.123565,1455.581446
3828.729042,-9548.656652,74.020594,1302.362347
3828.729372,-9770.718434,148.041188,153.219100
3828.729702,-10436.903782,-444.123565,0.000000
3828.730032,-10436.903782,-740.205942,459.657299
3828.730362,-10658.965565,518.144159,1302.362347
3828.730692,-10510.924376,0.000000,383.047749
3828.731023,-9844.739029,-222.061783,-842.705048
3828.731353,-9918.759623,-666.185348,-536.266849
3828.731683,-9844.739029,148.041188,1685.410096
3828.732013,-10881.027347,-888.247130,1838.629195
3828.732343,-8586.388927,-888.247130,689.485948
3828.732673,-7179.997637,0.000000,383.047749
3828.733003,-10288.862594,592.164754,153.219100
3828.733334,-10881.027347,74.020594,383.047749
3828.733664,-11325.150913,222.061783,-229.828649
3828.733994,-9696.697840,-296.082377,-612.876398
3828.734324,-8512.368333,-740.205942,-842.705048
3828.734654,-9844.739029,-740.205942,153.219100
3828.734984,-9474.636058,-370.102971,229.828649
3828.735314,-10658.965565,-370.102971,-689.485948
3828.735645,-10658.965565,-148.041188,-1149.143247
3828.735975,-10066.800811,-888.247130,-1072.533697
3828.736305,-9548.656652,-1406.391290,0.000000
3828.736635,-7920.203579,-1110.308913,1072.533697
3828.736965,-8956.491898,-962.267725,1762.019645
3828.737295,-8956.491898,-74.020594,383.047749
3828.737626,-9400.615463,-518.144159,0.000000
3828.737956,-9844.739029,-74.020594,306.438199
3828.738286,-11399.171507,814.226536,766.095498
3828.738616,-11695.253884,592.164754,995.924147
3828.738946,-10510.924376,518.144159,153.219100
3828.739276,-10066.800811,-296.082377,-689.485948
3828.739606,-9474.636058,-222.061783,-153.219100
3828.739937,-10436.903782,0.000000,-76.609550
3828.740267,-9918.759623,592.164754,-766.095498
3828.740597,-7772.162391,148.041188,-1685.410096
3828.740927,-8586.388927,814.226536,-1455.581446
3828.741257,-10214.842000,1110.308913,0.000000
3828.741587,-11547.212695,666.185348,-306.438199
3828.741917,-10510.924376,1480.411884,-1608.800546
3828.742248,-9400.615463,0.000000,-1225.752797
3828.742578,-11029.068536,222.061783,0.000000
3828.742908,-10140.821405,444.123565,153.219100
3828.743238,-10584.944971,-222.061783,612.876398
3828.743568,-8882.471304,-518.144159,-459.657299
3828.743898,-7920.203579,-814.226536,-153.219100
3828.744229,-8808.450710,-740.205942,612.876398
3828.744559,-8734.430116,222.061783,1072.533697
3828.744889,-9252.574275,-962.267725,919.314598
3828.745219,-9474.636058,370.102971,536.266849
3828.745549,-8438.347739,-444.123565,153.219100
3828.745879,-9770.718434,74.020594,153.219100
3828.746209,-9992.780217,0.000000,1072.533697
3828.746540,-10584.944971,-296.082377,1455.581446
3828.746870,-9770.718434,0.000000,995.924147
3828.747200,-9252.574275,0.000000,-76.609550
3828.747530,-9918.759623,0.000000,919.314598
3828.747860,-10066.800811,518.144159,1915.238745
3828.748190,-10214.842000,814.226536,459.657299
3828.748521,-9030.512492,1702.473667,-1225.752797
3828.748851,-9918.759623,1628.453072,-1225.752797
3828.749181,-11103.089130,1480.411884,-536.266849
3828.749511,-10732.986159,888.247130,-459.657299
3828.749841,-10584.944971,518.144159,-383.047749
3828.750171,-9696.697840,-296.082377,-459.657299
3828.750501,-9844.739029,-296.082377,919.314598
3828.750832,-9770.718434,0.000000,1455.581446
3828.751162,-10807.006753,-296.082377,1302.362347
3828.751492,-9400.615463,-222.061783,383.047749
3828.751822,-9252.574275,0.000000,306.438199
3828.752152,-8660.409521,148.041188,459.657299
3828.752482,-9622.677246,0.000000,1608.800546
3828.752812,-10658.965565,222.061783,2068.457845
3828.753143,-9844.739029,-148.041188,1378.971896
3828.753473,-9622.677246,0.000000,766.095498
3828.753803,-8808.450710,222.061783,306.438199
3828.754133,-10807.006753,148.041188,536.266849
3828.754463,-11251.130318,740.205942,536.266849
3828.754793,-9474.636058,370.102971,536.266849
3828.755124,-9844.739029,296.082377,-766.095498
3828.755454,-9474.636058,74.020594,-459.657299
3828.755784,-9400.615463,444.123565,842.705048
3828.756114,-9400.615463,296.082377,1072.533697
3828.756444,-8512.368333,814.226536,0.000000
3828.756774,-9104.533087,148.041188,-689.485948
3828.757104,-9178.553681,1036.288319,-995.924147
3828.757434,-10584.944971,740.205942,459.657299
3828.757764,-11621.233289,296.082377,1608.800546
3828.758094,-10658.965565,0.000000,76.609550
3828.758424,-9696.697840,-592.164754,-919.314598
3828.758754,-8364.327145,-518.144159,-842.705048
3828.759084,-8808.450710,-592.164754,0.000000
3828.759414,-9992.780217,-370.102971,1225.752797
3828.759744,-9622.677246,444.123565,1608.800546
3828.760074,-9326.594869,370.102971,842.705048
3828.760404,-9918.759623,962.267725,76.609550
3828.760734,-11695.253884,296.082377,612.876398
3828.761064,-11695.253884,74.020594,-383.047749
3828.761394,-9030.512492,0.000000,-919.314598
3828.761724,-8512.368333,0.000000,-306.438199
3828.762054,-8808.450710,0.000000,842.705048
3828.762384,-9844.739029,74.020594,842.705048
3828.762714,-9844.739029,370.102971,306.438199
3828.763044,-9252.574275,0.000000,153.219100
3828.763374,-9844.739029,518.144159,919.314598
3828.763704,-10658.965565,740.205942,1991.848295
3828.764034,-10436.903782,666.185348,1838.629195
3828.764364,-9178.553681,148.041188,459.657299
3828.764694,-8882.471304,444.123565,-1149.143247
3828.765024,-10362.883188,962.267725,-1378.971896
3828.765354,-10436.903782,518.144159,-689.485948
3828.765684,-9770.718434,222.061783,-459.657299
3828.766014,-9178.553681,296.082377,459.657299
3828.766344,-9030.512492,-370.102971,612.876398
3828.766674,-10362.883188,148.041188,-229.828649
3828.767004,-10140.821405,74.020594,-459.657299
3828.767334,-9474.636058,0.000000,0.000000
3828.767664,-9474.636058,222.061783,229.828649
3828.767994,-10510.924376,296.082377,306.438199
3828.768324,-9918.759623,74.020594,76.609550
3828.768654,-10362.883188,222.061783,0.000000
3828.768984,-10214.842000,-814.226536,-229.828649
3828.769314,-9548.656652,-1036.288319,0.000000
3828.769644,-8290.306550,-1184.329507,459.657299
3828.769974,-8734.430116,-740.205942,1149.143247
3828.770304,-10214.842000,-666.185348,1532.190996
3828.770634,-9326.594869,-444.123565,1378.971896
3828.770964,-9770.718434,-518.144159,153.219100
3828.771294,-9548.656652,-222.061783,76.609550
3828.771624,-9992.780217,444.123565,1608.800546
3828.771954,-10584.944971,-296.082377,1532.190996
3828.772284,-10214.842000,74.020594,383.047749
3828.772614,-9918.759623,0.000000,-383.047749
3828.772944,-10510.924376,222.061783,-536.266849
3828.773274,-9918.759623,148.041188,-1685.410096
3828.773604,-9474.636058,74.020594,-995.924147
3828.773934,-8586.388927,740.205942,-842.705048
3828.774264,-9844.739029,148.041188,-689.485948
3828.774594,-10436.903782,592.164754,-1685.410096
3828.774924,-8808.450710,-444.123565,-2374.896044
3828.775254,-9992.780217,-666.185348,-689.485948
3828.775584,-9770.718434,370.102971,229.828649
3828.775914,-9548.656652,-1036.288319,1455.581446
3828.776244,-8808.450710,-592.164754,1532.190996
3828.776574,-9104.533087,-1480.411884,1225.752797
3828.776904,-10732.986159,222.061783,1685.410096
3828.777234,-11547.212695,-740.205942,1685.410096
3828.777564,-9992.780217,-592.164754,1225.752797
3828.777894,-8438.347739,-592.164754,536.266849
3828.778224,-8882.471304,-370.102971,-766.095498
3828.778554,-9326.594869,-74.020594,0.000000
3828.778884,-9400.615463,-222.061783,153.219100
3828.779214,-8956.491898,0.000000,0.000000
3828.779544,-9548.656652,444.123565,459.657299
3828.779874,-10955.047942,740.205942,306.438199
3828.780204,-11177.109724,296.082377,536.266849
3828.780534,-10658.965565,0.000000,612.876398
3828.780864,-9770.718434,222.061783,766.095498
3828.781194,-9400.615463,814.226536,0.000000
3828.781524,-9474.636058,222.061783,-1149.143247
3828.781854,-9326.594869,962.267725,-1455.581446
3828.782184,-10658.965565,370.102971,-612.876398
3828.782514,-10955.047942,518.144159,-536.266849
3828.782844,-9770.718434,0.000000,-766.095498
3828.783174,-9104.533087,-296.082377,-459.657299
3828.783504,-8364.327145,0.000000,-153.219100
3828.783834,-9474.636058,-444.123565,383.047749
3828.784164,-9474.636058,222.061783,229.828649
3828.784494,-9548.656652,0.000000,76.609550
3828.784824,-10066.800811,-296.082377,919.314598
3828.785154,-10140.821405,0.000000,2145.067394
3828.785484,-10955.047942,0.000000,1378.971896
3828.785814,-9622.677246,74.020594,0.000000
3828.786144,-8956.491898,-370.102971,-689.485948
3828.786474,-8660.409521,0.000000,766.095498
3828.786804,-9030.512492,0.000000,1685.410096
3828.787134,-9178.553681,740.205942,1302.362347
3828.787464,-9474.636058,962.267725,689.485948
3828.787794,-9104.533087,518.144159,-306.438199
3828.788124,-9548.656652,962.267725,0.000000
3828.788454,-11251.130318,518.144159,0.000000
3828.788784,-11843.295072,1258.350101,536.266849
3828.789114,-10214.842000,1406.391290,-306.438199
3828.789444,-9474.636058,518.144159,-1378.971896
3828.789774,-9622.677246,1110.308913,-1149.143247
3828.790104,-11547.212695,814.226536,-459.657299
3828.790434,-10658.965565,814.226536,76.609550
3828.790764,-9474.636058,222.061783,-306.438199
3828.791094,-8290.306550,222.061783,76.609550
3828.791424,-9770.718434,296.082377,1149.143247
3828.791754,-11029.068536,222.061783,1149.143247
3828.792084,-9918.759623,148.041188,229.828649
3828.792414,-8808.450710,74.020594,-1149.143247
3828.792745,-9178.553681,-518.144159,-536.266849
3828.793075,-10066.800811,-740.205942,1455.581446
3828.793405,-10288.862594,-296.082377,2681.334243
3828.793735,-9918.759623,74.020594,2221.676944
3828.794065,-9918.759623,-222.061783,229.828649
3828.794395,-9104.533087,-1258.350101,612.876398
3828.794725,-9030.512492,-592.164754,2451.505594
3828.795055,-9548.656652,0.000000,2604.724693
3828.795385,-9696.697840,592.164754,842.705048
3828.795715,-8956.491898,0.000000,229.828649
3828.796045,-8808.450710,962.267725,0.000000
3828.796375,-10807.006753,1258.350101,229.828649
3828.796705,-11917.315666,1776.494261,-229.828649
3828.797035,-10658.965565,592.164754,-1378.971896
3828.797365,-9326.594869,0.000000,-1455.581446
3828.797695,-9104.533087,370.102971,-919.314598
3828.798025,-10881.027347,-222.061783,0.000000
3828.798355,-10436.903782,444.123565,-76.609550
3828.798685,-8512.368333,-370.102971,-1072.533697
3828.799015,-8068.244768,-740.205942,-1455.581446
3828.799345,-9548.656652,-444.123565,0.000000
3828.799675,-11103.089130,0.000000,306.438199
3828.800005,-10066.800811,-814.226536,1149.143247
3828.800335,-8290.306550,-888.247130,536.266849
3828.800665,-9622.677246,-888.247130,536.266849
3828.800995,-11399.171507,0.000000,536.266849
3828.801325,-11991.336260,-370.102971,919.314598
3828.801655,-10066.800811,-666.185348,-536.266849
3828.801985,-8438.347739,-1036.288319,-1455.581446
3828.802315,-8364.327145,-1184.329507,-612.876398
3828.802645,-8068.244768,-740.205942,995.924147
3828.802975,-9548.656652,148.041188,1762.019645
3828.803305,-9844.739029,296.082377,383.047749
3828.803635,-9548.656652,-814.226536,-842.705048
3828.803965,-9030.512492,-222.061783,-459.657299
3828.804295,-10288.862594,-74.020594,842.705048
3828.804625,-10732.986159,-148.041188,1302.362347
3828.804955,-9622.677246,0.000000,766.095498
3828.805285,-9178.553681,222.061783,-383.047749
3828.805615,-9622.677246,666.185348,-1072.533697
3828.805945,-11325.150913,296.082377,0.000000
3828.806275,-11843.295072,370.102971,689.485948
3828.806605,-10140.821405,370.102971,0.000000
3828.806935,-7920.203579,74.020594,-153.219100
3828.807265,-7698.141797,0.000000,383.047749
3828.807595,-9548.656652,666.185348,689.485948
3828.807925,-10658.965565,740.205942,-229.828649
3828.808255,-9918.759623,666.185348,-1072.533697
3828.808585,-9548.656652,74.020594,76.609550
3828.808915,-9844.739029,740.205942,2451.505594
3828.809245,-10955.047942,74.020594,2911.162892
3828.809575,-9770.718434,-444.123565,1991.848295
3828.809905,-8216.285956,1036.288319,1532.190996
3828.810235,-9770.718434,0.000000,919.314598
3828.810565,-10584.944971,740.205942,995.924147
3828.810895,-10658.965565,666.185348,1915.238745
3828.811225,-10214.842000,1258.350101,842.705048
3828.811555,-8586.388927,1036.288319,-229.828649
3828.811885,-8660.409521,1628.453072,-306.438199
3828.812215,-9622.677246,1332.370696,-383.047749
3828.812545,-10510.924376,1184.329507,-229.828649
3828.812875,-10214.842000,1628.453072,76.609550
3828.813205,-9622.677246,666.185348,689.485948
3828.813535,-10362.883188,1184.329507,459.657299
3828.813865,-11029.068536,962.267725,0.000000
3828.814195,-10732.986159,518.144159,229.828649
3828.814525,-9844.739029,1036.288319,-1225.752797
3828.814855,-8734.430116,592.164754,-1532.190996
3828.815185,-9030.512492,888.247130,-153.219100
3828.815515,-9696.697840,814.226536,-612.876398
3828.815845,-10066.800811,518.144159,-1378.971896
3828.816175,-9030.512492,296.082377,-1762.019645
3828.816505,-8734.430116,-222.061783,0.000000
3828.816835,-9918.759623,74.020594,2145.067394
3828.817165,-11325.150913,-296.082377,1915.238745
3828.817495,-10807.006753,-592.164754,1225.752797
3828.817825,-8734.430116,-1110.308913,536.266849
3828.818155,-8364.327145,-296.082377,153.219100
3828.818485,-9474.636058,222.061783,1149.143247
3828.818815,-10510.924376,-666.185348,459.657299
3828.819145,-10140.821405,-592.164754,383.047749
3828.819475,-8290.306550,-666.185348,-306.438199
3828.819805,-9400.615463,-592.164754,919.314598
3828.820135,-10214.842000,-666.185348,306.438199
3828.820465,-10214.842000,-1036.288319,-383.047749
3828.820795,-9252.574275,222.061783,-612.876398
3828.821125,-9696.697840,-740.205942,-766.095498
3828.821455,-10066.800811,0.000000,-76.609550
3828.821785,-10510.924376,-888.247130,76.609550
3828.822115,-11103.089130,-148.041188,-536.266849
3828.822445,-10140.821405,-518.144159,-1685.410096
3828.822775,-9918.759623,-1184.329507,-2374.896044
3828.823105,-8734.430116,-1110.308913,-2451.505594
3828.823435,-8660.409521,-1998.556043,-1608.800546
3828.823765,-9474.636058,-666.185348,153.219100
3828.824095,-9770.718434,-1332.370696,306.438199
3828.824425,-10436.903782,-1776.494261,1225.752797
3828.824755,-8512.368333,-1184.329507,536.266849
3828.825085,-8808.450710,-2220.617826,153.219100
3828.825415,-10066.800811,-1554.432478,842.705048
3828.825745,-10214.842000,-1554.432478,1838.629195
3828.826075,-9992.780217,-1480.411884,2374.896044
3828.826405,-8956.491898,-740.205942,995.924147
3828.826735,-10288.862594,-518.144159,-612.876398
3828.827065,-10955.047942,-592.164754,-1378.971896
3828.827395,-10288.862594,-370.102971,-153.219100
3828.827725,-8956.491898,0.000000,1378.971896
3828.828055,-7254.018232,666.185348,612.876398
3828.828385,-8882.471304,888.247130,0.000000
3828.828715,-11399.171507,1628.453072,0.000000
3828.829045,-12213.398043,518.144159,76.609550
3828.829375,-11547.212695,1110.308913,919.314598
3828.829705,-9918.759623,74.020594,612.876398
3828.830035,-9770.718434,148.041188,1455.581446
3828.830365,-9474.636058,666.185348,1532.190996
3828.830695,-9696.697840,518.144159,229.828649
3828.831025,-9696.697840,1110.308913,-612.876398
3828.831355,-10214.842000,888.247130,-842.705048
3828.831685,-11177.109724,1628.453072,459.657299
3828.832015,-10510.924376,1036.288319,1378.971896
3828.832345,-9252.574275,518.144159,1072.533697
3828.832675,-8734.430116,1110.308913,995.924147
3828.833005,-9474.636058,592.164754,-459.657299
3828.833335,-9252.574275,1036.288319,-536.266849
3828.833665,-8808.450710,1480.411884,1149.143247
3828.833995,-9622.677246,1184.329507,2528.115143
3828.834325,-10288.862594,1924.535449,3677.258390
3828.834655,-10732.986159,1036.288319,2068.457845
3828.834985,-10510.924376,1184.329507,-306.438199
3828.835315,-9770.718434,1036.288319,-536.266849
3828.835645,-9474.636058,1480.411884,0.000000
3828.835975,-9252.574275,1850.514855,0.000000
3828.836305,-9252.574275,1184.329507,-1072.533697
3828.836635,-9474.636058,1480.411884,-1838.629195
3828.836965,-9622.677246,814.226536,-1378.971896
3828.837295,-9696.697840,1184.329507,-1608.800546
3828.837625,-8290.306550,518.144159,-1225.752797
3828.837955,-8216.285956,814.226536,-919.314598
3828.838285,-9326.594869,1406.391290,536.266849
3828.838615,-11251.130318,666.185348,0.000000
3828.838945,-11103.089130,592.164754,-76.609550
3828.839275,-10214.842000,444.123565,76.609550
3828.839605,-10436.903782,0.000000,842.705048
3828.839935,-10066.800811,370.102971,306.438199
3828.840265,-9104.533087,-370.102971,-306.438199
3828.840595,-8808.450710,148.041188,76.609550
3828.840925,-9326.594869,222.061783,-459.657299
3828.841255,-10658.965565,370.102971,0.000000
3828.841585,-10362.883188,444.123565,229.828649
3828.841915,-9992.780217,-148.041188,76.609550
3828.842245,-8882.471304,222.061783,383.047749
3828.842575,-9622.677246,-1184.329507,0.000000
3828.842905,-9696.697840,-814.226536,1302.362347
3828.843235,-10881.027347,-370.102971,2604.724693
3828.843565,-11917.315666,370.102971,2604.724693
3828.843895,-11473.192101,-296.082377,1532.190996
3828.844225,-10214.842000,-1184.329507,153.219100
3828.844555,-9770.718434,-1110.308913,-689.485948
3828.844885,-9400.615463,-1036.288319,383.047749
3828.845215,-8956.491898,-1258.350101,842.705048
3828.845545,-8512.368333,-444.123565,306.438199
3828.845875,-8882.471304,-740.205942,-766.095498
3828.846205,-9844.739029,-666.185348,-1225.752797
3828.846535,-11029.068536,-962.267725,-1378.971896
3828.846865,-10881.027347,-1850.514855,-459.657299
3828.847195,-10066.800811,-2072.576638,919.314598
3828.847525,-9178.553681,-3404.947333,1378.971896
3828.847855,-8142.265362,-2812.782580,2145.067394
3828.848185,-8660.409521,-2146.597232,1302.362347
3828.848515,-9030.512492,-1702.473667,536.266849
3828.848845,-8956.491898,-1554.432478,-306.438199
3828.849175,-8808.450710,-1332.370696,-536.266849
3828.849505,-9030.512492,-592.164754,-306.438199
3828.849835,-9918.759623,-1628.453072,0.000000
3828.850165,-9548.656652,-1110.308913,76.609550
3828.850495,-9622.677246,-1332.370696,-229.828649
3828.850825,-10140.821405,-814.226536,-766.095498
3828.851155,-9918.759623,222.061783,-766.095498
3828.851485,-10584.944971,-518.144159,-919.314598
3828.851815,-9770.718434,592.164754,229.828649
3828.852145,-10288.862594,444.123565,-306.438199
3828.852475,-10955.047942,814.226536,-919.314598
3828.852805,-10214.842000,592.164754,-1762.019645
3828.853135,-9918.759623,-74.020594,-766.095498
3828.853465,-7994.224174,666.185348,-229.828649
3828.853795,-9696.697840,296.082377,-306.438199
3828.854125,-10436.903782,1332.370696,-153.219100
3828.854455,-10362.883188,444.123565,-842.705048
3828.854785,-10288.862594,296.082377,-306.438199
3828.855115,-9770.718434,444.123565,1072.533697
3828.855445,-11473.192101,592.164754,2374.896044
3828.855775,-10807.006753,592.164754,2681.334243
3828.856105,-8808.450710,-148.041188,1072.533697
3828.856435,-7550.100608,370.102971,306.438199
3828.856765,-8438.347739,962.267725,995.924147
3828.857095,-9918.759623,1258.350101,1991.848295
3828.857425,-9770.718434,2442.679609,1915.238745
3828.857755,-9252.574275,1924.535449,842.705048
3828.858085,-9548.656652,1924.535449,0.000000
3828.858415,-10955.047942,1036.288319,-153.219100
3828.858745,-10807.006753,1628.453072,766.095498
3828.859075,-10214.842000,1702.473667,995.924147
3828.859405,-9178.553681,1110.308913,1072.533697
3828.859734,-8882.471304,2072.576638,1762.019645
3828.860064,-9178.553681,1480.411884,1149.143247
3828.860394,-9696.697840,1998.556043,383.047749
3828.860724,-9992.780217,2220.617826,-766.095498
3828.861053,-11029.068536,1702.473667,-612.876398
3828.861383,-11177.109724,2664.741391,306.438199
3828.861713,-11029.068536,1406.391290,766.095498
3828.862043,-10066.800811,1924.535449,0.000000
3828.862373,-9178.553681,962.267725,-1762.019645
3828.862702,-9178.553681,962.267725,-1149.143247
3828.863032,-9326.594869,1110.308913,0.000000
3828.863362,-10140.821405,1036.288319,1149.143247
3828.863692,-9844.739029,1110.308913,689.485948
3828.864021,-9918.759623,370.102971,-153.219100
3828.864351,-9622.677246,518.144159,0.000000
3828.864681,-9474.636058,0.000000,689.485948
3828.865011,-9474.636058,0.000000,766.095498
3828.865340,-8734.430116,0.000000,383.047749
3828.865670,-9844.739029,0.000000,153.219100
3828.866000,-10066.800811,-222.061783,459.657299
3828.866330,-10510.924376,-592.164754,919.314598
3828.866659,-9474.636058,-1036.288319,153.219100
3828.866989,-9030.512492,0.000000,0.000000
3828.867319,-10066.800811,-1110.308913,536.266849
3828.867649,-9400.615463,74.020594,1838.629195
3828.867978,-10362.883188,-666.185348,1302.362347
3828.868308,-10288.862594,0.000000,0.000000
3828.868638,-10214.842000,-370.102971,-1915.238745
3828.868968,-10436.903782,-1036.288319,-1455.581446
3828.869297,-9326.594869,-740.205942,-306.438199
3828.869627,-10732.986159,-1406.391290,612.876398
3828.869957,-9992.780217,-1776.494261,842.705048
3828.870287,-9474.636058,-2590.720797,-612.876398
3828.870617,-8882.471304,-1924.535449,0.000000
3828.870946,-9252.574275,-1406.391290,995.924147
3828.871276,-11029.068536,-2294.638420,1532.190996
3828.871606,-10510.924376,-2220.617826,1149.143247
3828.871936,-9474.636058,-2294.638420,919.314598
3828.872265,-9326.594869,-3108.864956,0.000000
3828.872595,-8808.450710,-3182.885551,995.924147
3828.872925,-8586.388927,-2516.700203,919.314598
3828.873255,-8290.306550,-1924.535449,919.314598
3828.873584,-9992.780217,-1776.494261,-1225.752797
3828.873914,-10584.944971,-1628.453072,-766.095498
3828.874244,-10955.047942,-1628.453072,-383.047749
3828.874574,-10140.821405,-1776.494261,-383.047749
3828.874903,-8734.430116,-1406.391290,229.828649
3828.875233,-9252.574275,-1554.432478,383.047749
3828.875563,-8956.491898,-296.082377,842.705048
3828.875893,-9918.759623,-370.102971,-383.047749
3828.876222,-10732.986159,296.082377,-1838.629195
3828.876552,-10658.965565,370.102971,-2068.457845
3828.876882,-10955.047942,444.123565,-995.924147
3828.877212,-10066.800811,0.000000,383.047749
3828.877541,-9992.780217,0.000000,-536.266849
3828.877871,-10214.842000,0.000000,-612.876398
3828.878201,-9696.697840,148.041188,-2221.676944
3828.878531,-9474.636058,-74.020594,-1915.238745
3828.878860,-8808.450710,148.041188,229.828649
3828.879190,-9696.697840,148.041188,1532.190996
3828.879520,-9548.656652,518.144159,1225.752797
3828.879850,-9104.533087,0.000000,-229.828649
3828.880180,-9178.553681,0.000000,0.000000
3828.880509,-9326.594869,1184.329507,995.924147
3828.880839,-11325.150913,1184.329507,1072.533697
3828.881169,-9918.759623,1480.411884,1149.143247
3828.881499,-8216.285956,666.185348,306.438199
3828.881828,-8290.306550,1702.473667,919.314598
3828.882158,-9992.780217,1258.350101,689.485948
3828.882488,-10955.047942,740.205942,1225.752797
3828.882818,-9918.759623,1480.411884,1225.752797
3828.883147,-9030.512492,1554.432478,229.828649
3828.883477,-9104.533087,2220.617826,0.000000
3828.883807,-10214.842000,1850.514855,612.876398
3828.884137,-11177.109724,2072.576638,76.609550
3828.884466,-9326.594869,2516.700203,-1302.362347
3828.884796,-8512.368333,1406.391290,-1608.800546
3828.885126,-9030.512492,2442.679609,0.000000
3828.885456,-10510.924376,1924.535449,1532.190996
3828.885785,-11399.171507,1924.535449,1532.190996
3828.886115,-10881.027347,1850.514855,459.657299
3828.886445,-10140.821405,888.247130,-612.876398
3828.886775,-9474.636058,1258.350101,0.000000
3828.887104,-9548.656652,74.020594,1225.752797
3828.887434,-9400.615463,444.123565,1685.410096
3828.887764,-7920.203579,518.144159,1302.362347
3828.888094,-8734.430116,592.164754,1225.752797
3828.888423,-9252.574275,666.185348,1838.629195
3828.888753,-9918.759623,296.082377,1225.752797
3828.889083,-10584.944971,1184.329507,1225.752797
3828.889413,-9918.759623,148.041188,1149.143247
3828.889743,-10288.862594,370.102971,1532.190996
3828.890072,-9770.718434,518.144159,1838.629195
3828.890402,-9326.594869,592.164754,1685.410096
3828.890732,-10362.883188,1924.535449,766.095498
3828.891062,-11029.068536,1036.288319,0.000000
3828.891391,-11769.274478,1406.391290,229.828649
3828.891721,-10140.821405,1184.329507,-306.438199
3828.892051,-10140.821405,814.226536,-995.924147
3828.892381,-9474.636058,222.061783,-1378.971896
3828.892710,-9178.553681,-444.123565,-1302.362347
3828.893040,-8660.409521,814.226536,842.705048
3828.893370,-10066.800811,-814.226536,612.876398
3828.893700,-10807.006753,-518.144159,153.219100
3828.894029,-10140.821405,-148.041188,536.266849
3828.894359,-11325.150913,-1110.308913,153.219100
3828.894689,-9696.697840,-1258.350101,1685.410096
3828.895019,-9844.739029,-1628.453072,1915.238745
3828.895348,-8956.491898,-1480.411884,1608.800546
3828.895678,-7402.059420,-1702.473667,612.876398
3828.896008,-9474.636058,-962.267725,995.924147
3828.896338,-10658.965565,-296.082377,153.219100
3828.896667,-12657.521608,-888.247130,229.828649
3828.896997,-9918.759623,-962.267725,-612.876398
3828.897327,-8216.285956,-1332.370696,-1149.143247
3828.897657,-8364.327145,-814.226536,-919.314598
3828.897986,-8956.491898,-962.267725,-689.485948
3828.898316,-8364.327145,-1850.514855,-1378.971896
3828.898646,-8364.327145,-666.185348,-306.438199
3828.898976,-11325.150913,-592.164754,0.000000
3828.899306,-12065.356855,-1110.308913,995.924147
3828.899635,-9770.718434,-814.226536,153.219100
3828.899965,-8882.471304,-2146.597232,-536.266849
3828.900295,-9178.553681,-592.164754,-612.876398
3828.900625,-9474.636058,-1258.350101,-536.266849
3828.900954,-9770.718434,-592.164754,-459.657299
3828.901284,-9844.739029,-148.041188,-1302.362347
3828.901614,-10436.903782,-814.226536,-1302.362347
3828.901944,-10510.924376,-666.185348,-1149.143247
3828.902273,-9918.759623,-1406.391290,-1378.971896
3828.902603,-8068.244768,-296.082377,-383.047749
3828.902933,-9474.636058,-1036.288319,-153.219100
3828.903263,-9696.697840,-740.205942,76.609550
3828.903592,-9696.697840,-74.020594,76.609550
3828.903922,-10510.924376,222.061783,0.000000
3828.904252,-11325.150913,518.144159,383.047749
3828.904582,-11547.212695,-814.226536,-229.828649
3828.904911,-9770.718434,0.000000,0.000000
3828.905241,-8882.471304,-888.247130,-306.438199
3828.905571,-8068.244768,-740.205942,76.609550
3828.905901,-8142.265362,-740.205942,229.828649
3828.906230,-8956.491898,0.000000,536.266849
3828.906560,-9400.615463,666.185348,1378.971896
3828.906890,-10955.047942,74.020594,1532.190996
3828.907220,-10362.883188,74.020594,1225.752797
3828.907549,-9844.739029,0.000000,612.876398
3828.907879,-9992.780217,0.000000,0.000000
3828.908209,-9474.636058,518.144159,383.047749
3828.908539,-10288.862594,592.164754,842.705048
3828.908869,-9474.636058,518.144159,1225.752797
3828.909198,-9400.615463,740.205942,383.047749
3828.909528,-9918.759623,1332.370696,0.000000
3828.909858,-9992.780217,814.226536,-459.657299
3828.910188,-10658.965565,518.144159,536.266849
3828.910517,-9918.759623,1110.308913,0.000000
3828.910847,-9104.533087,740.205942,153.219100
3828.911177,-9030.512492,74.020594,689.485948
3828.911507,-9696.697840,592.164754,1915.238745
3828.911836,-11103.089130,0.000000,2374.896044
3828.912166,-10362.883188,592.164754,2068.457845
3828.912496,-9918.759623,370.102971,1455.581446
3828.912826,-9918.759623,1036.288319,1838.629195
3828.913155,-9474.636058,814.226536,2068.457845
3828.913485,-9992.780217,1480.411884,1302.362347
3828.913815,-9400.615463,1924.535449,306.438199
3828.914145,-10066.800811,1850.514855,-1072.533697
3828.914474,-10658.965565,2442.679609,-1225.752797
3828.914804,-10584.944971,1924.535449,0.000000
3828.915134,-10214.842000,1924.535449,229.828649
3828.915464,-9696.697840,1702.473667,306.438199
3828.915793,-9770.718434,1924.535449,-1225.752797
3828.916123,-9844.739029,1258.350101,229.828649
3828.916453,-10214.842000,888.247130,995.924147
3828.916783,-10510.924376,740.205942,689.485948
3828.917113,-9992.780217,666.185348,229.828649
3828.917442,-10362.883188,666.185348,306.438199
3828.917772,-10436.903782,148.041188,-153.219100
3828.918102,-10066.800811,0.000000,0.000000
3828.918432,-9252.574275,74.020594,153.219100
3828.918761,-8216.285956,148.041188,-766.095498
3828.919091,-8068.244768,-370.102971,-612.876398
3828.919421,-8512.368333,370.102971,383.047749
3828.919751,-10140.821405,-148.041188,919.314598
3828.920080,-10955.047942,0.000000,76.609550
3828.920410,-9918.759623,-1110.308913,-153.219100
3828.920740,-8734.430116,-1850.514855,229.828649
3828.921070,-8216.285956,-962.267725,1072.533697
3828.921399,-9178.553681,-888.247130,995.924147
3828.921729,-9400.615463,-592.164754,459.657299
3828.922059,-9474.636058,-518.144159,-459.657299
3828.922389,-10140.821405,0.000000,-229.828649
3828.922718,-10436.903782,0.000000,-383.047749
3828.923048,-10140.821405,0.000000,-459.657299
3828.923378,-9252.574275,-592.164754,76.609550
3828.923708,-9326.594869,-1036.288319,-1838.629195
3828.924037,-10362.883188,-740.205942,-1915.238745
3828.924367,-9622.677246,-1258.350101,-2221.676944
3828.924697,-8586.388927,-1406.391290,-766.095498
3828.925027,-8734.430116,-666.185348,0.000000
3828.925356,-9770.718434,-518.144159,0.000000
3828.925686,-10658.965565,-740.205942,-842.705048
3828.926016,-10140.821405,-1702.473667,-153.219100
3828.926346,-9918.759623,-1850.514855,612.876398
3828.926676,-10214.842000,-1332.370696,995.924147
3828.927005,-9992.780217,-1924.535449,1762.019645
3828.927335,-9474.636058,-962.267725,1302.362347
3828.927665,-9474.636058,-962.267725,536.266849
3828.927995,-10288.862594,-814.226536,-229.828649
3828.928324,-10807.006753,-814.226536,-459.657299
3828.928654,-9622.677246,-740.205942,459.657299
3828.928984,-9548.656652,370.102971,1378.971896
3828.929314,-10214.842000,-666.185348,536.266849
3828.929643,-9992.780217,222.061783,0.000000
3828.929973,-10140.821405,-666.185348,-229.828649
3828.930303,-10510.924376,-222.061783,153.219100
3828.930633,-10658.965565,-444.123565,1685.410096
3828.930962,-10807.006753,0.000000,2757.943793
3828.931292,-9400.615463,222.061783,1838.629195
3828.931622,-9622.677246,-296.082377,-153.219100
3828.931952,-9474.636058,222.061783,-1455.581446
3828.932281,-9326.594869,-222.061783,-1685.410096
3828.932611,-9992.780217,518.144159,153.219100
3828.932941,-8660.409521,74.020594,1685.410096
3828.933271,-9992.780217,0.000000,1225.752797
3828.933600,-10214.842000,740.205942,76.609550
3828.933930,-10214.842000,-444.123565,-1149.143247
3828.934260,-10214.842000,222.061783,-153.219100
3828.934590,-8586.388927,-296.082377,612.876398
3828.934919,-8364.327145,0.000000,2221.676944
3828.935249,-7476.080014,592.164754,2757.943793
3828.935579,-9178.553681,1110.308913,1762.019645
3828.935909,-10288.862594,1332.370696,842.705048
3828.936239,-11251.130318,814.226536,-919.314598
3828.936568,-10066.800811,666.185348,-612.876398
3828.936898,-8882.471304,592.164754,1455.581446
3828.937228,-9400.615463,1110.308913,2451.505594
3828.937558,-8216.285956,1036.288319,1991.848295
3828.937887,-8290.306550,962.267725,0.000000
3828.938217,-9992.780217,2146.597232,-1608.800546
3828.938547,-10362.883188,1924.535449,-995.924147
3828.938877,-11103.089130,2590.720797,842.705048
3828.939206,-11177.109724,2960.823768,1685.410096
3828.939536,-10955.047942,1998.556043,536.266849
3828.939866,-9326.594869,1850.514855,-229.828649
3828.940196,-9622.677246,1406.391290,-2528.115143
3828.940525,-10732.986159,592.164754,-1915.238745
3828.940855,-10436.903782,888.247130,0.000000
3828.941185,-9696.697840,370.102971,1072.533697
3828.941515,-8734.430116,1110.308913,383.047749
3828.941844,-8734.430116,0.000000,-1455.581446
3828.942174,-10362.883188,518.144159,-919.314598
3828.942504,-11103.089130,222.061783,229.828649
3828.942834,-10955.047942,370.102971,536.266849
3828.943163,-9844.739029,148.041188,1532.190996
3828.943493,-9770.718434,0.000000,2374.896044
3828.943823,-9770.718434,148.041188,2145.067394
3828.944153,-9326.594869,-370.102971,229.828649
3828.944482,-9992.780217,-222.061783,-1302.362347
3828.944812,-9770.718434,0.000000,-1455.581446
3828.945142,-9770.718434,-222.061783,-689.485948
3828.945472,-9104.533087,-518.144159,153.219100
3828.945802,-9326.594869,0.000000,0.000000
3828.946131,-9770.718434,-518.144159,153.219100
3828.946461,-9474.636058,-148.041188,-1225.752797
3828.946791,-9474.636058,-740.205942,-1302.362347
3828.947121,-8808.450710,-74.020594,383.047749
3828.947450,-10436.903782,-444.123565,1225.752797
3828.947780,-10362.883188,74.020594,766.095498
3828.948110,-9548.656652,-1258.350101,-919.314598
3828.948440,-10066.800811,-370.102971,-1302.362347
3828.948769,-10066.800811,-370.102971,0.000000
3828.949099,-10140.821405,-888.247130,-842.705048
3828.949429,-9400.615463,-962.267725,-919.314598
3828.949759,-9104.533087,-1702.473667,-383.047749
3828.950088,-9474.636058,-1702.473667,306.438199
3828.950418,-9178.553681,-1628.453072,995.924147
3828.950748,-9474.636058,-1998.556043,1149.143247
3828.951078,-8660.409521,-1332.370696,1685.410096
3828.951407,-9178.553681,-1184.329507,1225.752797
3828.951737,-10066.800811,-1332.370696,1915.238745
3828.952067,-10658.965565,-1036.288319,2374.896044
3828.952397,-10510.924376,-814.226536,2451.505594
3828.952726,-10362.883188,-814.226536,1302.362347
3828.953056,-10510.924376,-814.226536,536.266849
3828.953386,-8882.471304,-148.041188,1072.533697
3828.953716,-9696.697840,0.000000,842.705048
3828.954045,-10140.821405,296.082377,153.219100
3828.954375,-10140.821405,592.164754,0.000000
3828.954705,-10436.903782,1184.329507,-383.047749
3828.955035,-9474.636058,1184.329507,0.000000
3828.955365,-10214.842000,1036.288319,0.000000
3828.955694,-10807.006753,222.061783,-536.266849
3828.956024,-10584.944971,222.061783,-612.876398
3828.956354,-9696.697840,-148.041188,-306.438199
3828.956684,-9696.697840,518.144159,-306.438199
3828.957013,-9770.718434,-222.061783,536.266849
3828.957343,-9844.739029,0.000000,459.657299
3828.957673,-9326.594869,-148.041188,-995.924147
3828.958003,-8660.409521,-444.123565,-459.657299
3828.958333,-8586.388927,-222.061783,383.047749
3828.958662,-8882.471304,-296.082377,2298.286494
3828.958992,-9696.697840,1110.308913,2451.505594
3828.959322,-10436.903782,888.247130,842.705048
3828.959652,-10214.842000,962.267725,-1532.190996
3828.959982,-9918.759623,370.102971,-689.485948
3828.960312,-10584.944971,888.247130,766.095498
3828.960642,-10436.903782,1110.308913,1762.019645
3828.960972,-9844.739029,518.144159,689.485948
3828.961302,-8882.471304,888.247130,-383.047749
3828.961631,-9326.594869,962.267725,-1225.752797
3828.961961,-10584.944971,1036.288319,-842.705048
3828.962291,-10066.800811,1480.411884,-995.924147
3828.962621,-9400.615463,888.247130,-383.047749
3828.962951,-9696.697840,2294.638420,0.000000
3828.963281,-10510.924376,1184.329507,-383.047749
3828.963611,-11695.253884,1628.453072,-842.705048
3828.963941,-10955.047942,1480.411884,-2145.067394
3828.964270,-10436.903782,74.020594,-1838.629195
3828.964600,-9326.594869,666.185348,-459.657299
3828.964930,-9178.553681,-222.061783,995.924147
3828.965260,-9400.615463,444.123565,1149.143247
3828.965590,-9104.533087,0.000000,0.000000
3828.965920,-9548.656652,-370.102971,-995.924147
3828.966250,-9326.594869,74.020594,-612.876398
3828.966580,-10214.842000,0.000000,1072.533697
3828.966910,-10140.821405,0.000000,2374.896044
3828.967239,-9474.636058,-814.226536,1378.971896
3828.967569,-9104.533087,-444.123565,306.438199
3828.967899,-9252.574275,-592.164754,0.000000
3828.968229,-11325.150913,-222.061783,995.924147
3828.968559,-11029.068536,-222.061783,1378.971896
3828.968889,-8808.450710,-814.226536,842.705048
3828.969219,-7624.121203,-740.205942,459.657299
3828.969549,-8660.409521,0.000000,1225.752797
3828.969878,-10362.883188,740.205942,1072.533697
3828.970208,-10510.924376,962.267725,-459.657299
3828.970538,-9030.512492,-296.082377,-2374.896044
3828.970868,-9178.553681,148.041188,-612.876398
3828.971198,-10807.006753,0.000000,1455.581446
3828.971528,-11843.295072,-74.020594,2298.286494
3828.971858,-9844.739029,0.000000,612.876398
3828.972188,-8660.409521,-814.226536,-2068.457845
3828.972517,-10214.842000,-74.020594,-1991.848295
3828.972847,-11251.130318,74.020594,229.828649
3828.973177,-11029.068536,444.123565,1072.533697
3828.973507,-9548.656652,148.041188,-76.609550
3828.973837,-8586.388927,-740.205942,-1302.362347
3828.974167,-9104.533087,-444.123565,-536.266849
3828.974497,-10288.862594,-1184.329507,-229.828649
3828.974827,-10658.965565,-1258.350101,995.924147
3828.975157,-9030.512492,-1480.411884,1378.971896
3828.975486,-7920.203579,-1924.535449,2068.457845
3828.975816,-7328.038826,-1406.391290,2757.943793
3828.976146,-10066.800811,-962.267725,3140.991542
3828.976476,-11843.295072,-592.164754,2374.896044
3828.976806,-11103.089130,-962.267725,612.876398
3828.977136,-8512.368333,-1036.288319,306.438199
3828.977466,-8586.388927,0.000000,1302.362347
3828.977796,-10436.903782,296.082377,2451.505594
3828.978125,-11103.089130,1184.329507,919.314598
3828.978455,-9844.739029,518.144159,-2604.724693
3828.978785,-8660.409521,592.164754,-3370.820191
3828.979115,-9474.636058,592.164754,-1225.752797
3828.979445,-11177.109724,740.205942,995.924147
3828.979775,-10732.986159,1110.308913,1532.190996
3828.980105,-9696.697840,296.082377,306.438199
3828.980435,-8290.306550,518.144159,-842.705048
3828.980765,-9918.759623,0.000000,-383.047749
3828.981094,-11473.192101,444.123565,383.047749
3828.981424,-10658.965565,0.000000,766.095498
3828.981754,-9252.574275,-296.082377,153.219100
3828.982084,-8438.347739,518.144159,536.266849
3828.982414,-9770.718434,-296.082377,0.000000
3828.982744,-10436.903782,-296.082377,-612.876398
3828.983074,-8956.491898,-222.061783,-766.095498
3828.983404,-7772.162391,-444.123565,-459.657299
3828.983733,-7624.121203,518.144159,1378.971896
3828.984063,-9696.697840,222.061783,2298.286494
3828.984393,-10807.006753,962.267725,1915.238745
3828.984723,-9992.780217,444.123565,-459.657299
3828.985053,-9844.739029,444.123565,-612.876398
3828.985383,-9326.594869,1258.350101,383.047749
3828.985713,-10288.862594,1332.370696,1685.410096
3828.986043,-10140.821405,2294.638420,1149.143247
3828.986372,-9844.739029,1480.411884,-919.314598
3828.986702,-9770.718434,1406.391290,-2145.067394
3828.987032,-10510.924376,1702.473667,-1302.362347
3828.987362,-10732.986159,1480.411884,-842.705048
3828.987692,-9696.697840,1628.453072,-842.705048
3828.988022,-7920.203579,296.082377,-2145.067394
3828.988352,-7772.162391,1702.473667,-459.657299
3828.988682,-11029.068536,1998.556043,995.924147
3828.989012,-13545.768739,1332.370696,1149.143247
3828.989341,-12139.377449,296.082377,-612.876398
3828.989671,-10362.883188,518.144159,153.219100
3828.990001,-10288.862594,370.102971,0.000000
3828.990331,-9252.574275,-592.164754,689.485948
3828.990661,-8068.244768,-592.164754,1762.019645
3828.990991,-7624.121203,-888.247130,1762.019645
3828.991321,-7846.182985,-962.267725,1225.752797
3828.991651,-9622.677246,370.102971,1455.581446
3828.991980,-10881.027347,0.000000,1838.629195
3828.992310,-11177.109724,444.123565,612.876398
3828.992640,-9474.636058,0.000000,-995.924147
3828.992970,-8512.368333,-814.226536,-1072.533697
3828.993300,-9770.718434,0.000000,536.266849
3828.993630,-9696.697840,-370.102971,1455.581446
3828.993960,-9474.636058,0.000000,919.314598
3828.994290,-9622.677246,0.000000,-459.657299
3828.994620,-9770.718434,-592.164754,-1072.533697
3828.994949,-9844.739029,148.041188,-995.924147
3828.995279,-9770.718434,-222.061783,-1608.800546
3828.995609,-9178.553681,74.020594,-766.095498
3828.995939,-8882.471304,-888.247130,-919.314598
3828.996269,-9030.512492,-444.123565,153.219100
3828.996599,-8956.491898,-1036.288319,536.266849
3828.996929,-10436.903782,-444.123565,536.266849
3828.997259,-10955.047942,-1184.329507,-612.876398
3828.997588,-10214.842000,-1776.494261,-229.828649
3828.997918,-10214.842000,-1480.411884,1072.533697
3828.998248,-10510.924376,-2294.638420,1915.238745
3828.998578,-9548.656652,-2442.679609,1455.581446
3828.998908,-9178.553681,-1406.391290,1225.752797
3828.999238,-9104.533087,-2146.597232,842.705048
3828.999568,-8216.285956,-740.205942,766.095498
3828.999898,-8438.347739,-1258.350101,0.000000
3829.000227,-9844.739029,-518.144159,1149.143247
3829.000557,-11103.089130,-444.123565,995.924147
3829.000887,-11621.233289,-740.205942,1685.410096
3829.001217,-10140.821405,-740.205942,1072.533697
3829.001547,-10436.903782,-1184.329507,1149.143247
3829.001877,-11029.068536,148.041188,1149.143247
3829.002207,-10881.027347,-74.020594,766.095498
3829.002537,-10214.842000,0.000000,0.000000
3829.002867,-8438.347739,222.061783,-229.828649
3829.003196,-9474.636058,74.020594,-1302.362347
3829.003526,-10584.944971,888.247130,-1149.143247
3829.003856,-9400.615463,-222.061783,-1608.800546
3829.004186,-7550.100608,222.061783,-766.095498
3829.004516,-8142.265362,0.000000,-76.609550
3829.004846,-10807.006753,814.226536,76.609550
3829.005176,-11843.295072,444.123565,306.438199
3829.005506,-11325.150913,74.020594,-229.828649
3829.005835,-9252.574275,-370.102971,306.438199
3829.006165,-10288.862594,-740.205942,612.876398
3829.006495,-9696.697840,-518.144159,689.485948
3829.006825,-8438.347739,0.000000,919.314598
3829.007155,-7846.182985,0.000000,-383.047749
3829.007485,-7994.224174,962.267725,-612.876398
3829.007815,-9548.656652,814.226536,-1378.971896
3829.008145,-9178.553681,888.247130,-1532.190996
3829.008475,-9844.739029,1406.391290,-919.314598
3829.008804,-10510.924376,592.164754,459.657299
3829.009134,-9400.615463,1184.329507,1225.752797
3829.009464,-9844.739029,444.123565,766.095498
3829.009794,-10066.800811,962.267725,76.609550
3829.010124,-9844.739029,1332.370696,153.219100
3829.010454,-10066.800811,1184.329507,229.828649
3829.010784,-9622.677246,2072.576638,-306.438199
3829.011114,-9992.780217,1406.391290,-689.485948
3829.011443,-9844.739029,1628.453072,-229.828649
3829.011773,-9696.697840,1258.350101,-306.438199
3829.012103,-9474.636058,740.205942,0.000000
3829.012433,-9622.677246,1554.432478,-153.219100
3829.012763,-10881.027347,1036.288319,-919.314598
3829.013093,-10288.862594,962.267725,-766.095498
3829.013423,-9770.718434,370.102971,-689.485948
3829.013753,-10288.862594,222.061783,1608.800546
3829.014082,-10288.862594,148.041188,2834.553343
3829.014412,-9696.697840,222.061783,2604.724693
3829.014742,-8808.450710,74.020594,1149.143247
3829.015072,-9400.615463,-296.082377,-459.657299
3829.015402,-9622.677246,444.123565,1532.190996
3829.015732,-10362.883188,148.041188,1608.800546
3829.016062,-9696.697840,-592.164754,1378.971896
3829.016392,-8734.430116,370.102971,1149.143247
3829.016722,-9252.574275,-592.164754,766.095498
3829.017051,-10732.986159,370.102971,842.705048
3829.017381,-10584.944971,0.000000,-919.314598
3829.017711,-10288.862594,-222.061783,-536.266849
3829.018041,-9770.718434,74.020594,0.000000
3829.018371,-9474.636058,-296.082377,536.266849
3829.018701,-9178.553681,370.102971,1532.190996
3829.019031,-9770.718434,-370.102971,0.000000
3829.019361,-9252.574275,74.020594,-1302.362347
3829.019690,-9474.636058,-74.020594,-1225.752797
3829.020020,-10732.986159,740.205942,76.609550
3829.020350,-11103.089130,222.061783,1149.143247
3829.020680,-11325.150913,74.020594,0.000000
3829.021010,-10732.986159,0.000000,-612.876398
3829.021340,-11251.130318,-1184.329507,-2145.067394
3829.021670,-9252.574275,-1332.370696,-995.924147
3829.022000,-8660.409521,-1850.514855,689.485948
3829.022330,-9400.615463,-1184.329507,1532.190996
3829.022659,-8364.327145,-962.267725,2068.457845
3829.022989,-8216.285956,-2146.597232,536.266849
3829.023319,-7994.224174,-1554.432478,766.095498
3829.023649,-10732.986159,-888.247130,1225.752797
3829.023979,-10881.027347,-1628.453072,1149.143247
3829.024309,-9252.574275,-370.102971,1225.752797
3829.024639,-10140.821405,-1184.329507,995.924147
3829.024969,-10436.903782,-592.164754,1915.238745
3829.025298,-11029.068536,-370.102971,-153.219100
3829.025628,-9918.759623,-740.205942,-1991.848295
3829.025958,-8142.265362,0.000000,-2221.676944
3829.026288,-8586.388927,-296.082377,-76.609550
3829.026618,-9252.574275,444.123565,1915.238745
3829.026948,-10881.027347,518.144159,766.095498
3829.027278,-10066.800811,148.041188,-766.095498
3829.027608,-9474.636058,0.000000,-1838.629195
3829.027937,-10362.883188,0.000000,-536.266849
3829.028267,-10362.883188,0.000000,689.485948
3829.028597,-10066.800811,-740.205942,1762.019645
3829.028927,-9252.574275,-814.226536,1072.533697
3829.029257,-8586.388927,-1036.288319,0.000000
3829.029587,-9326.594869,-814.226536,-612.876398
3829.029917,-9622.677246,74.020594,-229.828649
3829.030247,-8660.409521,-740.205942,0.000000
3829.030577,-8364.327145,518.144159,995.924147
3829.030906,-9178.553681,222.061783,1225.752797
3829.031236,-11029.068536,148.041188,1762.019645
3829.031566,-11177.109724,1184.329507,536.266849
3829.031896,-9844.739029,-592.164754,-995.924147
3829.032226,-9548.656652,1554.432478,-612.876398
3829.032556,-10140.821405,592.164754,-153.219100
3829.032886,-10140.821405,962.267725,1302.362347
3829.033216,-10066.800811,1702.473667,1608.800546
3829.033545,-10732.986159,1406.391290,-459.657299
3829.033875,-9104.533087,592.164754,-2298.286494
3829.034205,-8808.450710,296.082377,-1838.629195
3829.034535,-8734.430116,1406.391290,842.705048
3829.034865,-9992.780217,1110.308913,1685.410096
3829.035195,-10214.842000,1554.432478,536.266849
3829.035525,-9918.759623,666.185348,-1072.533697
3829.035855,-11251.130318,962.267725,-842.705048
3829.036185,-10881.027347,888.247130,612.876398
3829.036514,-11251.130318,-74.020594,383.047749
3829.036844,-9474.636058,444.123565,1608.800546
3829.037174,-9474.636058,296.082377,689.485948
3829.037504,-9992.780217,148.041188,-153.219100
3829.037834,-9770.718434,518.144159,-1378.971896
3829.038164,-9400.615463,-518.144159,-2068.457845
3829.038494,-8512.368333,148.041188,-383.047749
3829.038824,-9326.594869,-592.164754,1072.533697
3829.039153,-9696.697840,-666.185348,2451.505594
3829.039483,-9400.615463,0.000000,1915.238745
3829.039813,-10066.800811,-814.226536,0.000000
3829.040143,-9326.594869,444.123565,-842.705048
3829.040473,-10658.965565,-148.041188,-153.219100
3829.040803,-11251.130318,222.061783,1915.238745
3829.041133,-10807.006753,148.041188,1991.848295
3829.041463,-10436.903782,222.061783,689.485948
3829.041792,-8956.491898,-74.020594,-1149.143247
3829.042122,-8364.327145,0.000000,-2451.505594
3829.042452,-8956.491898,444.123565,-1149.143247
3829.042782,-9400.615463,148.041188,306.438199
3829.043112,-9474.636058,0.000000,842.705048
3829.043442,-9770.718434,0.000000,995.924147
3829.043772,-10436.903782,-74.020594,1455.581446
3829.044102,-9770.718434,-148.041188,919.314598
3829.044432,-9696.697840,-1332.370696,536.266849
3829.044761,-9992.780217,-518.144159,1225.752797
3829.045091,-10288.862594,74.020594,1838.629195
3829.045421,-10658.965565,-74.020594,1685.410096
3829.045751,-9844.739029,444.123565,153.219100
3829.046081,-9622.677246,-740.205942,-1608.800546
3829.046411,-8956.491898,-296.082377,-1225.752797
3829.046741,-8438.347739,-148.041188,0.000000
3829.047071,-8586.388927,-592.164754,1225.752797
3829.047400,-9104.533087,74.020594,1378.971896
3829.047730,-9918.759623,74.020594,995.924147
3829.048060,-9696.697840,1110.308913,612.876398
3829.048390,-10658.965565,-74.020594,229.828649
3829.048720,-11103.089130,444.123565,1302.362347
3829.049050,-11843.295072,-444.123565,2068.457845
3829.049380,-11991.336260,0.000000,1991.848295
3829.049710,-9918.759623,370.102971,1149.143247
3829.050039,-9918.759623,0.000000,-612.876398
3829.050369,-9548.656652,222.061783,-1455.581446
3829.050699,-9474.636058,0.000000,-1455.581446
3829.051029,-8438.347739,148.041188,-306.438199
3829.051359,-8808.450710,370.102971,306.438199
3829.051689,-9992.780217,0.000000,383.047749
3829.052019,-10066.800811,444.123565,306.438199
3829.052349,-10510.924376,0.000000,-919.314598
3829.052679,-10658.965565,-74.020594,-842.705048
3829.053008,-11103.089130,-222.061783,689.485948
3829.053338,-10140.821405,-962.267725,1532.190996
3829.053668,-8512.368333,0.000000,1915.238745
3829.053998,-9696.697840,-518.144159,383.047749
3829.054328,-9622.677246,-592.164754,0.000000
3829.054658,-8364.327145,-740.205942,-459.657299
3829.054988,-8586.388927,-148.041188,-306.438199
3829.055318,-9030.512492,222.061783,995.924147
3829.055647,-9770.718434,518.144159,689.485948
3829.055977,-9400.615463,222.061783,-612.876398
3829.056307,-9548.656652,296.082377,-2145.067394
3829.056637,-10140.821405,148.041188,-1455.581446
3829.056967,-10658.965565,0.000000,0.000000
3829.057297,-9992.780217,0.000000,1149.143247
3829.057627,-9474.636058,666.185348,1455.581446
3829.057957,-8660.409521,-222.061783,306.438199
3829.058287,-9030.512492,370.102971,-766.095498
3829.058616,-9770.718434,518.144159,-2221.676944
3829.058946,-10362.883188,592.164754,-1225.752797
3829.059276,-10140.821405,592.164754,229.828649
3829.059606,-10362.883188,0.000000,919.314598
3829.059936,-9770.718434,740.205942,536.266849
3829.060266,-10436.903782,0.000000,-536.266849
3829.060595,-10436.903782,-814.226536,-1455.581446
3829.060925,-9696.697840,-222.061783,0.000000
3829.061255,-9400.615463,-1184.329507,1532.190996
3829.061585,-9030.512492,-148.041188,2987.772442
3829.061915,-9844.739029,-518.144159,2987.772442
3829.062244,-9770.718434,370.102971,2451.505594
3829.062574,-10214.842000,0.000000,689.485948
3829.062904,-10214.842000,148.041188,-536.266849
3829.063234,-9474.636058,296.082377,-459.657299
3829.063563,-10510.924376,666.185348,1532.190996
3829.063893,-10807.006753,666.185348,1225.752797
3829.064223,-10362.883188,222.061783,536.266849
3829.064553,-10214.842000,0.000000,-306.438199
3829.064882,-9104.533087,0.000000,-612.876398
3829.065212,-9400.615463,-814.226536,459.657299
3829.065542,-9178.553681,0.000000,1685.410096
3829.065872,-8956.491898,-148.041188,1685.410096
3829.066201,-8808.450710,222.061783,1838.629195
3829.066531,-9770.718434,518.144159,-306.438199
3829.066861,-11251.130318,-74.020594,-1378.971896
3829.067191,-10140.821405,0.000000,-459.657299
3829.067520,-10066.800811,148.041188,76.609550
3829.067850,-9474.636058,74.020594,919.314598
3829.068180,-9474.636058,74.020594,689.485948
3829.068510,-9400.615463,-370.102971,0.000000
3829.068840,-9474.636058,74.020594,-383.047749
3829.069169,-10140.821405,-296.082377,-612.876398
3829.069499,-9770.718434,0.000000,919.314598
3829.069829,-9696.697840,-740.205942,1532.190996
3829.070159,-9474.636058,296.082377,2221.676944
3829.070488,-9474.636058,592.164754,842.705048
3829.070818,-10510.924376,222.061783,-689.485948
3829.071148,-9918.759623,370.102971,-766.095498
3829.071478,-9696.697840,370.102971,-842.705048
3829.071807,-10436.903782,1184.329507,-76.609550
3829.072137,-11399.171507,444.123565,612.876398
3829.072467,-9844.739029,74.020594,612.876398
3829.072797,-8364.327145,74.020594,153.219100
3829.073126,-9104.533087,148.041188,-689.485948
3829.073456,-9104.533087,222.061783,842.705048
3829.073786,-9104.533087,444.123565,459.657299
3829.074116,-9178.553681,518.144159,919.314598
3829.074445,-10584.944971,0.000000,229.828649
3829.074775,-11917.315666,-370.102971,383.047749
3829.075105,-10510.924376,74.020594,229.828649
3829.075435,-9104.533087,-1036.288319,-612.876398
3829.075765,-8660.409521,-666.185348,-842.705048
3829.076094,-8808.450710,-888.247130,0.000000
3829.076424,-8660.409521,74.020594,536.266849
3829.076754,-8512.368333,222.061783,229.828649
3829.077084,-9548.656652,-74.020594,76.609550
3829.077413,-10140.821405,444.123565,689.485948
3829.077743,-10510.924376,0.000000,612.876398
3829.078073,-10066.800811,-222.061783,536.266849
3829.078403,-10584.944971,0.000000,766.095498
3829.078732,-10732.986159,-222.061783,306.438199
3829.079062,-9400.615463,222.061783,0.000000
3829.079392,-9474.636058,-148.041188,-689.485948
3829.079722,-9474.636058,444.123565,459.657299
3829.080051,-9548.656652,444.123565,612.876398
3829.080381,-9548.656652,370.102971,-153.219100
3829.080711,-9548.656652,1332.370696,76.609550
3829.081041,-9992.780217,0.000000,-919.314598
3829.081371,-10436.903782,592.164754,-459.657299
3829.081700,-9696.697840,74.020594,-153.219100
3829.082030,-10066.800811,592.164754,459.657299
3829.082360,-9474.636058,666.185348,919.314598
3829.082690,-10436.903782,-444.123565,0.000000
3829.083019,-10066.800811,296.082377,0.000000
3829.083349,-9844.739029,-814.226536,76.609550
3829.083679,-10214.842000,-222.061783,1762.019645
3829.084009,-9992.780217,74.020594,2451.505594
3829.084338,-10288.862594,0.000000,1072.533697
3829.084668,-9326.594869,444.123565,-842.705048
3829.084998,-9548.656652,-370.102971,-1838.629195
3829.085328,-10288.862594,148.041188,-306.438199
3829.085657,-10436.903782,-296.082377,383.047749
3829.085987,-10140.821405,0.000000,766.095498
3829.086317,-9030.512492,740.205942,842.705048
3829.086647,-9400.615463,-814.226536,0.000000
3829.086976,-10584.944971,148.041188,536.266849
3829.087306,-11177.109724,-814.226536,-459.657299
3829.087636,-10288.862594,-444.123565,1455.581446
3829.087966,-8660.409521,-888.247130,2221.676944
3829.088296,-9030.512492,-592.164754,1838.629195
3829.088625,-8512.368333,-592.164754,1302.362347
3829.088955,-9326.594869,-962.267725,0.000000
3829.089285,-9992.780217,0.000000,536.266849
3829.089615,-10362.883188,0.000000,842.705048
3829.089944,-10140.821405,444.123565,1455.581446
3829.090274,-9030.512492,148.041188,689.485948
3829.090604,-10140.821405,-444.123565,-689.485948
3829.090934,-9770.718434,74.020594,-919.314598
3829.091263,-10362.883188,-518.144159,-1302.362347
3829.091593,-9326.594869,-296.082377,-383.047749
3829.091923,-8882.471304,-148.041188,153.219100
3829.092253,-8734.430116,74.020594,153.219100
3829.092582,-9622.677246,592.164754,0.000000
3829.092912,-10807.006753,148.041188,-1225.752797
3829.093242,-10362.883188,370.102971,-612.876398
3829.093572,-11251.130318,222.061783,842.705048
3829.093901,-10881.027347,-222.061783,919.314598
3829.094231,-9696.697840,-296.082377,842.705048
3829.094561,-9770.718434,-740.205942,383.047749
3829.094891,-8290.306550,148.041188,153.219100
3829.095221,-9474.636058,74.020594,-612.876398
3829.095550,-9622.677246,0.000000,-536.266849
3829.095880,-8290.306550,666.185348,76.609550
3829.096210,-9400.615463,518.144159,1455.581446
3829.096540,-9696.697840,1406.391290,766.095498
3829.096869,-11621.233289,592.164754,-612.876398
3829.097199,-12435.459826,592.164754,-842.705048
3829.097529,-10066.800811,222.061783,0.000000
3829.097859,-9918.759623,-222.061783,536.266849
3829.098188,-9252.574275,1036.288319,1915.238745
3829.098518,-9252.574275,222.061783,229.828649
3829.098848,-9104.533087,1036.288319,-1225.752797
3829.099178,-9400.615463,0.000000,-1608.800546
3829.099507,-10955.047942,296.082377,229.828649
3829.099837,-11103.089130,814.226536,1762.019645
3829.100167,-10214.842000,-518.144159,766.095498
3829.100497,-8956.491898,-592.164754,459.657299
3829.100827,-7920.203579,-1258.350101,-229.828649
3829.101156,-8808.450710,-148.041188,1378.971896
3829.101486,-10510.924376,296.082377,1685.410096
3829.101816,-10288.862594,222.061783,229.828649
3829.102146,-8364.327145,222.061783,0.000000
3829.102475,-9474.636058,-148.041188,229.828649
3829.102805,-10288.862594,444.123565,1302.362347
3829.103135,-10955.047942,-74.020594,995.924147
3829.103465,-10066.800811,370.102971,0.000000
3829.103794,-7476.080014,222.061783,-842.705048
3829.104124,-8660.409521,148.041188,229.828649
3829.104454,-9622.677246,1110.308913,1685.410096
3829.104784,-10955.047942,888.247130,1915.238745
3829.105113,-10807.006753,962.267725,1455.581446
3829.105443,-10362.883188,962.267725,689.485948
3829.105773,-10807.006753,74.020594,76.609550
3829.106103,-10288.862594,888.247130,76.609550
3829.106432,-9992.780217,-74.020594,-1455.581446
3829.106762,-9474.636058,296.082377,-1225.752797
3829.107092,-8808.450710,74.020594,-919.314598
3829.107422,-9400.615463,-296.082377,-383.047749
3829.107752,-9474.636058,592.164754,229.828649
3829.108081,-10066.800811,148.041188,383.047749
3829.108411,-10066.800811,296.082377,229.828649
3829.108741,-9622.677246,-370.102971,0.000000
3829.109071,-10140.821405,0.000000,995.924147
3829.109400,-10807.006753,148.041188,2374.896044
3829.109730,-10955.047942,-148.041188,1302.362347
3829.110060,-9548.656652,74.020594,995.924147
3829.110390,-9918.759623,-74.020594,689.485948
3829.110719,-9400.615463,296.082377,1685.410096
3829.111049,-9622.677246,0.000000,1302.362347
3829.111379,-9178.553681,74.020594,919.314598
3829.111709,-9252.574275,592.164754,612.876398
3829.112038,-9992.780217,296.082377,0.000000
3829.112368,-10214.842000,370.102971,1225.752797
3829.112698,-11325.150913,0.000000,76.609550
3829.113028,-10066.800811,666.185348,-919.314598
3829.113358,-9696.697840,444.123565,-689.485948
3829.113687,-9844.739029,0.000000,0.000000
3829.114017,-9104.533087,518.144159,1532.190996
3829.114347,-10436.903782,148.041188,1225.752797
3829.114677,-10584.944971,0.000000,689.485948
3829.115006,-9992.780217,-296.082377,-842.705048
3829.115336,-9326.594869,-518.144159,-1225.752797
3829.115666,-10214.842000,-296.082377,-689.485948
3829.115996,-10584.944971,-1036.288319,-536.266849
3829.116325,-8216.285956,-1554.432478,-1072.533697
3829.116655,-7179.997637,-1554.432478,-842.705048
3829.116985,-8068.244768,-518.144159,612.876398
3829.117315,-9992.780217,-370.102971,1915.238745
3829.117644,-10955.047942,0.000000,1455.581446
3829.117974,-9474.636058,-296.082377,612.876398
3829.118304,-9252.574275,-592.164754,0.000000
3829.118634,-10140.821405,-666.185348,766.095498
3829.118963,-10807.006753,-962.267725,689.485948
3829.119293,-10066.800811,-962.267725,0.000000
3829.119623,-8142.265362,444.123565,-842.705048
3829.119953,-8660.409521,-222.061783,-1685.410096
3829.120283,-9326.594869,592.164754,-1072.533697
3829.120612,-10584.944971,888.247130,306.438199
3829.120942,-11251.130318,814.226536,0.000000
3829.121272,-10807.006753,592.164754,-1455.581446
3829.121602,-9696.697840,74.020594,-1149.143247
3829.121931,-10140.821405,444.123565,153.219100
3829.122261,-10510.924376,74.020594,-459.657299
3829.122591,-9474.636058,74.020594,-306.438199
3829.122921,-8438.347739,814.226536,-612.876398
3829.123250,-10140.821405,666.185348,0.000000
3829.123580,-11547.212695,518.144159,1455.581446
3829.123910,-11621.233289,-296.082377,1225.752797
3829.124240,-10214.842000,-666.185348,1378.971896
3829.124569,-8142.265362,-888.247130,1378.971896
3829.124899,-8142.265362,-740.205942,1072.533697
3829.125229,-8882.471304,-296.082377,1225.752797
3829.125559,-9474.636058,-518.144159,1378.971896
3829.125888,-9474.636058,518.144159,1608.800546
3829.126218,-9992.780217,444.123565,842.705048
3829.126548,-10362.883188,0.000000,306.438199
3829.126878,-9696.697840,-370.102971,1455.581446
3829.127208,-9548.656652,-814.226536,2451.505594
3829.127537,-9400.615463,-222.061783,1991.848295
3829.127867,-9622.677246,-444.123565,1302.362347
3829.128197,-8512.368333,370.102971,1302.362347
3829.128527,-8216.285956,222.061783,995.924147
3829.128856,-10214.842000,1184.329507,995.924147
3829.129186,-11473.192101,1480.411884,1685.410096
3829.129516,-11251.130318,740.205942,919.314598
3829.129846,-9548.656652,1332.370696,383.047749
3829.130175,-10214.842000,888.247130,-536.266849
3829.130505,-11251.130318,740.205942,-919.314598
3829.130835,-10214.842000,592.164754,-1455.581446
3829.131165,-9992.780217,592.164754,-1838.629195
3829.131494,-8808.450710,592.164754,-2068.457845
3829.131824,-9252.574275,296.082377,-306.438199
3829.132154,-9918.759623,592.164754,459.657299
3829.132484,-10066.800811,740.205942,-153.219100
3829.132814,-10732.986159,-148.041188,-1378.971896
3829.133143,-8882.471304,-74.020594,-766.095498
3829.133473,-9178.553681,-740.205942,1455.581446
3829.133803,-9844.739029,-444.123565,2374.896044
3829.134133,-9770.718434,-666.185348,1991.848295
3829.134462,-8512.368333,-444.123565,689.485948
3829.134792,-8438.347739,74.020594,306.438199
3829.135122,-10732.986159,148.041188,689.485948
3829.135452,-11621.233289,1258.350101,1455.581446
3829.135781,-10362.883188,296.082377,-459.657299
3829.136111,-7994.224174,518.144159,-2298.286494
3829.136441,-8808.450710,518.144159,-1685.410096
3829.136771,-11251.130318,0.000000,-766.095498
3829.137100,-10510.924376,888.247130,-842.705048
3829.137430,-8660.409521,-740.205942,-1378.971896
3829.137760,-8364.327145,666.185348,-536.266849
3829.138090,-10288.862594,370.102971,536.266849
3829.138419,-11547.212695,0.000000,1302.362347
3829.138749,-9992.780217,148.041188,689.485948
3829.139079,-9178.553681,-888.247130,-229.828649
3829.139409,-9178.553681,74.020594,766.095498
3829.139739,-10436.903782,-1184.329507,1072.533697
3829.140068,-11547.212695,-370.102971,1378.971896
3829.140398,-9770.718434,-518.144159,-459.657299
3829.140728,-9104.533087,-1036.288319,-2681.334243
3829.141058,-7402.059420,-1110.308913,-2221.676944
3829.141387,-8660.409521,-1332.370696,0.000000
3829.141717,-9400.615463,0.000000,3140.991542
3829.142047,-9400.615463,-74.020594,1991.848295
3829.142377,-9104.533087,370.102971,-536.266849
3829.142706,-9400.615463,0.000000,-1378.971896
3829.143036,-11029.068536,0.000000,-76.609550
3829.143366,-11621.233289,74.020594,2374.896044
3829.143696,-10881.027347,-740.205942,2451.505594
3829.144025,-9178.553681,-444.123565,919.314598
3829.144355,-9030.512492,-370.102971,-459.657299
3829.144685,-9252.574275,-296.082377,-919.314598
3829.145015,-9696.697840,444.123565,-995.924147
3829.145345,-9400.615463,370.102971,-689.485948
3829.145674,-9178.553681,814.226536,766.095498
3829.146004,-10881.027347,814.226536,2068.457845
3829.146334,-11399.171507,-74.020594,1149.143247
3829.146664,-10436.903782,-444.123565,153.219100
3829.146993,-10066.800811,-666.185348,-536.266849
3829.147323,-8882.471304,-74.020594,536.266849
3829.147653,-9474.636058,-222.061783,1838.629195
3829.147983,-10288.862594,444.123565,2221.676944
3829.148312,-10732.986159,518.144159,689.485948
3829.148642,-10436.903782,74.020594,-842.705048
3829.148972,-9992.780217,518.144159,-1378.971896
3829.149302,-10288.862594,-518.144159,-689.485948
3829.149631,-8660.409521,-518.144159,1225.752797
3829.149961,-7698.141797,-370.102971,1225.752797
3829.150291,-8216.285956,296.082377,229.828649
3829.150621,-9030.512492,666.185348,76.609550
3829.150950,-10881.027347,888.247130,0.000000
3829.151280,-11547.212695,740.205942,919.314598
3829.151610,-11473.192101,222.061783,689.485948
3829.151940,-10288.862594,0.000000,1915.238745
3829.152270,-9252.574275,74.020594,1838.629195
3829.152599,-9548.656652,0.000000,459.657299
3829.152929,-9252.574275,1110.308913,-766.095498
3829.153259,-9104.533087,814.226536,-1608.800546
3829.153589,-9474.636058,1184.329507,-1149.143247
3829.153918,-9844.739029,888.247130,-306.438199
3829.154248,-10881.027347,1036.288319,229.828649
3829.154578,-10362.883188,740.205942,-306.438199
3829.154908,-9474.636058,-148.041188,-1762.019645
3829.155237,-9474.636058,814.226536,-1532.190996
3829.155567,-10214.842000,0.000000,229.828649
3829.155897,-10066.800811,-222.061783,1685.410096
3829.156227,-9770.718434,0.000000,1608.800546
3829.156556,-9622.677246,0.000000,1455.581446
3829.156886,-9252.574275,0.000000,536.266849
3829.157216,-9696.697840,-222.061783,-842.705048
3829.157546,-9548.656652,0.000000,76.609550
3829.157875,-9400.615463,148.041188,536.266849
3829.158205,-9992.780217,592.164754,229.828649
3829.158535,-9474.636058,0.000000,76.609550
3829.158865,-9918.759623,-518.144159,-229.828649
3829.159195,-8882.471304,0.000000,153.219100
3829.159524,-9622.677246,-370.102971,689.485948
3829.159854,-10584.944971,0.000000,1225.752797
3829.160184,-10732.986159,222.061783,1762.019645
3829.160514,-9474.636058,0.000000,919.314598
3829.160843,-10140.821405,222.061783,306.438199
3829.161173,-9992.780217,0.000000,766.095498
3829.161503,-10066.800811,0.000000,1532.190996
3829.161833,-9326.594869,296.082377,0.000000
3829.162162,-9252.574275,-518.144159,-766.095498
3829.162492,-9844.739029,518.144159,0.000000
3829.162822,-10214.842000,74.020594,383.047749
3829.163152,-10140.821405,518.144159,383.047749
3829.163482,-9770.718434,0.000000,-229.828649
3829.163812,-10288.862594,0.000000,-306.438199
3829.164142,-9992.780217,0.000000,0.000000
3829.164471,-10214.842000,-296.082377,0.000000
3829.164801,-9696.697840,-296.082377,306.438199
3829.165131,-9844.739029,-962.267725,0.000000
3829.165461,-9474.636058,-1110.308913,0.000000
3829.165791,-7772.162391,-1110.308913,689.485948
3829.166121,-8364.327145,-1332.370696,1302.362347
3829.166451,-9178.553681,0.000000,1762.019645
3829.166781,-9548.656652,-518.144159,919.314598
3829.167110,-10140.821405,222.061783,459.657299
3829.167440,-9474.636058,0.000000,0.000000
3829.167770,-11695.253884,0.000000,1225.752797
3829.168100,-11325.150913,740.205942,689.485948
3829.168430,-10066.800811,0.000000,-995.924147
3829.168760,-9030.512492,592.164754,-919.314598
3829.169090,-9770.718434,0.000000,-612.876398
3829.169419,-9770.718434,74.020594,0.000000
3829.169749,-8216.285956,1184.329507,-536.266849
3829.170079,-8290.306550,1332.370696,-1378.971896
3829.170409,-9548.656652,2072.576638,-689.485948
3829.170739,-11251.130318,592.164754,-229.828649
3829.171069,-11399.171507,222.061783,153.219100
3829.171399,-10140.821405,148.041188,919.314598
3829.171728,-11621.233289,-296.082377,1225.752797
3829.172058,-10436.903782,0.000000,1455.581446
3829.172388,-8808.450710,-444.123565,842.705048
3829.172718,-7920.203579,222.061783,1455.581446
3829.173048,-8660.409521,444.123565,1838.629195
3829.173378,-9178.553681,444.123565,1915.238745
3829.173708,-9548.656652,1036.288319,3217.601092
3829.174038,-10066.800811,518.144159,2681.334243
3829.174367,-9622.677246,740.205942,1991.848295
3829.174697,-9992.780217,0.000000,-153.219100
3829.175027,-9400.615463,296.082377,-153.219100
3829.175357,-9474.636058,888.247130,995.924147
3829.175687,-9104.533087,1332.370696,2298.286494
3829.176017,-8956.491898,1554.432478,2911.162892
3829.176347,-9918.759623,2072.576638,2145.067394
3829.176676,-10288.862594,2220.617826,1532.190996
3829.177006,-11843.295072,2220.617826,1455.581446
3829.177336,-10510.924376,1776.494261,1455.581446
3829.177666,-9548.656652,1776.494261,2451.505594
3829.177996,-8882.471304,1406.391290,2528.115143
3829.178326,-9178.553681,1702.473667,1838.629195
3829.178656,-9104.533087,1776.494261,2145.067394
3829.178985,-9918.759623,2146.597232,2987.772442
3829.179315,-11325.150913,2368.659014,2834.553343
3829.179645,-9918.759623,1850.514855,1991.848295
3829.179975,-9178.553681,1924.535449,2757.943793
3829.180305,-10510.924376,1998.556043,2681.334243
3829.180635,-10214.842000,1998.556043,2757.943793
3829.180965,-10732.986159,1332.370696,2374.896044
3829.181295,-9030.512492,1406.391290,689.485948
3829.181624,-7698.141797,592.164754,2451.505594
3829.181954,-9844.739029,2368.659014,3370.820191
3829.182284,-9474.636058,2664.741391,2528.115143
3829.182614,-9474.636058,2294.638420,1838.629195
3829.182944,-9400.615463,3701.029710,383.047749
3829.183274,-9770.718434,3775.050304,76.609550
3829.183604,-12139.377449,3627.009116,1915.238745
3829.183933,-11473.192101,3552.988522,3753.867940
3829.184263,-9918.759623,2072.576638,4673.182538
3829.184593,-8956.491898,2368.659014,3064.381992
3829.184923,-8586.388927,2368.659014,1608.800546
3829.185253,-8734.430116,1036.288319,2451.505594
3829.185583,-9252.574275,3330.926739,2451.505594
3829.185913,-9992.780217,3552.988522,2374.896044
3829.186242,-9548.656652,3627.009116,2221.676944
3829.186572,-9548.656652,4663.297435,919.314598
3829.186902,-9548.656652,3552.988522,1685.410096
3829.187232,-10658.965565,3478.967927,2757.943793
3829.187562,-11325.150913,4219.173869,3064.381992
3829.187892,-9622.677246,2442.679609,3677.258390
3829.188222,-9400.615463,2368.659014,4213.525239
3829.188552,-11251.130318,2738.761985,4290.134789
3829.188881,-10584.944971,1776.494261,4136.915689
3829.189211,-9844.739029,2220.617826,2374.896044
3829.189541,-8808.450710,2664.741391,766.095498
3829.189871,-9178.553681,2368.659014,1378.971896
3829.190201,-9400.615463,3404.947333,1532.190996
3829.190531,-9252.574275,2590.720797,2145.067394
3829.190861,-9474.636058,2220.617826,2528.115143
3829.191190,-9252.574275,2072.576638,3217.601092
3829.191520,-9992.780217,1332.370696,3753.867940
3829.191850,-9918.759623,1110.308913,3753.867940
3829.192180,-9474.636058,1480.411884,2451.505594
3829.192510,-8882.471304,2146.597232,3217.601092
3829.192840,-10436.903782,2294.638420,2834.553343
3829.193170,-10732.986159,2812.782580,1991.848295
3829.193499,-9548.656652,2368.659014,1762.019645
3829.193829,-10362.883188,3478.967927,1378.971896
3829.194159,-10288.862594,2072.576638,1532.190996
3829.194489,-9474.636058,1776.494261,1378.971896
3829.194819,-9178.553681,1036.288319,1532.190996
3829.195149,-8734.430116,1258.350101,2451.505594
3829.195479,-8734.430116,888.247130,3064.381992
3829.195809,-8290.306550,518.144159,1762.019645
3829.196138,-9178.553681,1554.432478,1455.581446
3829.196468,-10288.862594,1776.494261,1915.238745
3829.196798,-11177.109724,1776.494261,1608.800546
3829.197128,-10732.986159,1924.535449,2987.772442
3829.197458,-9622.677246,1998.556043,2681.334243
3829.197788,-8956.491898,1776.494261,2834.553343
3829.198118,-9326.594869,2220.617826,2604.724693
3829.198447,-9770.718434,2294.638420,3447.429741
3829.198777,-10584.944971,2886.803174,2451.505594
3829.199107,-11547.212695,2960.823768,2911.162892
3829.199437,-11991.336260,2442.679609,1455.581446
3829.199767,-10955.047942,2368.659014,1838.629195
3829.200097,-10362.883188,2442.679609,1762.019645
3829.200427,-10807.006753,1850.514855,689.485948
3829.200757,-8882.471304,1110.308913,842.705048
3829.201086,-7846.182985,740.205942,2681.334243
3829.201416,-7846.182985,740.205942,3983.696590
3829.201746,-8586.388927,1554.432478,5056.230287
3829.202076,-10732.986159,1776.494261,5209.449386
3829.202406,-9992.780217,1184.329507,3294.210641
3829.202736,-10066.800811,1776.494261,2451.505594
3829.203066,-10436.903782,2220.617826,2451.505594
3829.203395,-11917.315666,1776.494261,2451.505594
3829.203725,-10214.842000,2516.700203,2451.505594
3829.204055,-7846.182985,1776.494261,459.657299
3829.204385,-8438.347739,2442.679609,76.609550
3829.204715,-9030.512492,2590.720797,536.266849
3829.205045,-9548.656652,1850.514855,229.828649
3829.205375,-7624.121203,1702.473667,459.657299
3829.205704,-8068.244768,1480.411884,1762.019645
3829.206034,-8734.430116,2146.597232,3064.381992
3829.206364,-9844.739029,1332.370696,3830.477490
3829.206694,-10362.883188,2516.700203,2451.505594
3829.207024,-9252.574275,2294.638420,1915.238745
3829.207354,-9844.739029,2664.741391,1685.410096
3829.207684,-10214.842000,3404.947333,2911.162892
3829.208014,-10362.883188,3182.885551,3524.039291
3829.208343,-11473.192101,3997.112087,3217.601092
3829.208673,-9844.739029,3552.988522,919.314598
3829.209003,-9548.656652,2590.720797,229.828649
3829.209333,-10584.944971,3108.864956,306.438199
3829.209663,-10510.924376,3108.864956,1685.410096
3829.209993,-9918.759623,2812.782580,2757.943793
3829.210323,-9104.533087,3552.988522,1838.629195
3829.210652,-8512.368333,2886.803174,1149.143247
3829.210982,-11103.089130,2960.823768,3064.381992
3829.211312,-11991.336260,3182.885551,3447.429741
3829.211642,-10214.842000,2590.720797,4596.572988
3829.211972,-10140.821405,2812.782580,5669.106685
3829.212302,-9918.759623,2738.761985,4366.744339
3829.212632,-10584.944971,1554.432478,3830.477490
3829.212961,-10140.821405,2738.761985,1762.019645
3829.213291,-9104.533087,1554.432478,0.000000
3829.213621,-8882.471304,1554.432478,1532.190996
3829.213951,-8660.409521,2886.803174,3064.381992
3829.214281,-9400.615463,2072.576638,3064.381992
3829.214611,-8216.285956,2146.597232,1149.143247
3829.214941,-8364.327145,2294.638420,-1072.533697
3829.215271,-9252.574275,1258.350101,153.219100
3829.215600,-9400.615463,1480.411884,2911.162892
3829.215930,-8882.471304,1702.473667,4826.401637
3829.216260,-8512.368333,1036.288319,6665.030833
3829.216590,-9918.759623,2368.659014,5592.497135
3829.216920,-11251.130318,2368.659014,2604.724693
3829.217250,-11399.171507,2072.576638,766.095498
3829.217580,-11325.150913,2368.659014,-229.828649
3829.217909,-9770.718434,2072.576638,1072.533697
3829.218239,-9104.533087,1776.494261,2298.286494
3829.218569,-9474.636058,1776.494261,1685.410096
3829.218899,-8956.491898,1036.288319,1302.362347
3829.219229,-8216.285956,1110.308913,459.657299
3829.219559,-8660.409521,1702.473667,153.219100
3829.219889,-10140.821405,1554.432478,2221.676944
3829.220218,-10807.006753,2812.782580,3064.381992
3829.220548,-11473.192101,1924.535449,3447.429741
3829.220878,-11029.068536,2146.597232,2987.772442
3829.221208,-11547.212695,2146.597232,1685.410096
3829.221538,-11473.192101,1924.535449,1608.800546
3829.221868,-10510.924376,1998.556043,2911.162892
3829.222198,-9252.574275,1554.432478,2834.553343
3829.222528,-7624.121203,1776.494261,2451.505594
3829.222857,-8216.285956,1850.514855,1838.629195
3829.223187,-9474.636058,2072.576638,1685.410096
3829.223517,-10214.842000,2886.803174,1532.190996
3829.223847,-10658.965565,2738.761985,689.485948
3829.224177,-10584.944971,1628.453072,-306.438199
3829.224507,-10510.924376,1480.411884,153.219100
3829.224837,-9918.759623,814.226536,1455.581446
3829.225166,-8660.409521,0.000000,2757.943793
3829.225496,-7105.977043,962.267725,3370.820191
3829.225826,-6957.935855,814.226536,4213.525239
3829.226156,-8438.347739,1332.370696,3370.820191
3829.226486,-9474.636058,2738.761985,3447.429741
3829.226816,-10510.924376,2812.782580,2374.896044
3829.227146,-11251.130318,3182.885551,2681.334243
3829.227476,-11843.295072,2738.761985,2757.943793
3829.227805,-11621.233289,2368.659014,2681.334243
3829.228135,-10214.842000,2368.659014,1915.238745
3829.228465,-9474.636058,2072.576638,842.705048
3829.228795,-9252.574275,1924.535449,995.924147
3829.229125,-9104.533087,2664.741391,2911.162892
3829.229455,-8660.409521,2368.659014,4213.525239
3829.229785,-8956.491898,2516.700203,4213.525239
3829.230114,-9030.512492,2886.803174,2681.334243
3829.230444,-10436.903782,1776.494261,1149.143247
3829.230774,-10881.027347,1702.473667,1532.190996
3829.231104,-10955.047942,1628.453072,2451.505594
3829.231434,-10288.862594,1628.453072,3370.820191
3829.231764,-9252.574275,1480.411884,3217.601092
3829.232094,-9030.512492,2146.597232,2068.457845
3829.232423,-8808.450710,2294.638420,1915.238745
3829.232753,-9548.656652,2516.700203,1838.629195
3829.233083,-9844.739029,2590.720797,1915.238745
3829.233413,-10362.883188,2442.679609,1532.190996
3829.233743,-10584.944971,2294.638420,1991.848295
3829.234073,-10362.883188,1776.494261,1302.362347
3829.234403,-9622.677246,2146.597232,76.609550
3829.234733,-8734.430116,1184.329507,-612.876398
3829.235062,-9622.677246,1332.370696,0.000000
3829.235392,-9548.656652,962.267725,2374.896044
3829.235722,-10214.842000,1332.370696,3447.429741
3829.236052,-9474.636058,592.164754,3140.991542
3829.236382,-9474.636058,518.144159,2068.457845
3829.236712,-9548.656652,74.020594,1455.581446
3829.237042,-9622.677246,74.020594,1991.848295
3829.237371,-9548.656652,666.185348,2298.286494
3829.237701,-9622.677246,518.144159,2068.457845
3829.238031,-10214.842000,962.267725,1149.143247
3829.238361,-9770.718434,888.247130,842.705048
3829.238691,-10214.842000,1184.329507,842.705048
3829.239021,-10140.821405,1036.288319,995.924147
3829.239351,-9770.718434,1110.308913,1455.581446
3829.239680,-9474.636058,814.226536,1915.238745
3829.240010,-9548.656652,740.205942,1915.238745
3829.240340,-9474.636058,296.082377,1915.238745
3829.240670,-9622.677246,0.000000,1838.629195
3829.241000,-9326.594869,222.061783,1378.971896
3829.241330,-8660.409521,222.061783,2451.505594
3829.241660,-8882.471304,814.226536,2757.943793
3829.241990,-9326.594869,1036.288319,3677.258390
3829.242319,-9400.615463,1480.411884,4366.744339
3829.242649,-9844.739029,2072.576638,3830.477490
3829.242979,-10658.965565,2886.803174,2681.334243
3829.243309,-11251.130318,2516.700203,1991.848295
3829.243639,-11177.109724,2590.720797,1685.410096
3829.243969,-10584.944971,2368.659014,1762.019645
3829.244299,-9252.574275,2664.741391,2451.505594
3829.244628,-9104.533087,2146.597232,2834.553343
3829.244958,-8808.450710,2516.700203,3677.258390
3829.245288,-8660.409521,3330.926739,4443.353888
3829.245618,-9326.594869,3775.050304,4903.011187
3829.245948,-10510.924376,4219.173869,3830.477490
3829.246278,-11769.274478,4441.235652,3600.648841
3829.246608,-11917.315666,3775.050304,3217.601092
3829.246937,-11251.130318,3552.988522,3830.477490
3829.247267,-10658.965565,3108.864956,3983.696590
3829.247597,-9548.656652,3256.906145,3753.867940
3829.247927,-8586.388927,3478.967927,2757.943793
3829.248257,-8290.306550,3330.926739,2221.676944
3829.248587,-8068.244768,3849.070898,2374.896044
3829.248917,-9178.553681,4663.297435,3217.601092
3829.249247,-9474.636058,4811.338623,4060.306139
3829.249576,-9548.656652,4663.297435,3983.696590
3829.249906,-10214.842000,4959.379811,3907.087040
3829.250236,-11029.068536,4663.297435,3370.820191
3829.250566,-11621.233289,4737.318029,2987.772442
3829.250896,-11325.150913,4071.132681,1762.019645
3829.251226,-9400.615463,4219.173869,1685.410096
3829.251556,-8586.388927,3997.112087,2451.505594
3829.251885,-8956.491898,3701.029710,3064.381992
3829.252215,-9252.574275,3923.091493,2451.505594
3829.252545,-8512.368333,3330.926739,1455.581446
3829.252875,-7846.182985,3404.947333,1302.362347
3829.253205,-7846.182985,4071.132681,1915.238745
3829.253535,-9474.636058,4367.215058,2987.772442
3829.253865,-10362.883188,4737.318029,2298.286494
3829.254195,-10881.027347,4737.318029,995.924147
3829.254524,-11029.068536,4441.235652,-306.438199
3829.254854,-11251.130318,4367.215058,-612.876398
3829.255184,-12139.377449,3404.947333,689.485948
3829.255514,-10214.842000,2812.782580,3217.601092
3829.255844,-8586.388927,2220.617826,2374.896044
3829.256174,-7920.203579,2738.761985,1915.238745
3829.256504,-8364.327145,2294.638420,1685.410096
3829.256833,-9400.615463,2516.700203,1378.971896
3829.257163,-9326.594869,2812.782580,2221.676944
3829.257493,-10584.944971,2738.761985,2681.334243
3829.257823,-11473.192101,2590.720797,2911.162892
3829.258153,-11325.150913,2738.761985,2681.334243
3829.258483,-11547.212695,2072.576638,1915.238745
3829.258813,-11029.068536,1406.391290,612.876398
3829.259142,-10362.883188,1258.350101,919.314598
3829.259472,-9104.533087,962.267725,2374.896044
3829.259802,-8808.450710,1258.350101,3370.820191
3829.260132,-8586.388927,1332.370696,3447.429741
3829.260462,-8956.491898,1184.329507,2374.896044
3829.260792,-9400.615463,1184.329507,995.924147
3829.261122,-9474.636058,888.247130,1302.362347
3829.261452,-10584.944971,962.267725,3447.429741
3829.261781,-10955.047942,740.205942,4673.182538
3829.262111,-10436.903782,0.000000,3447.429741
3829.262441,-10066.800811,-444.123565,2451.505594
3829.262771,-9844.739029,0.000000,2451.505594
3829.263101,-10066.800811,-296.082377,2604.724693
3829.263431,-9474.636058,-74.020594,2298.286494
3829.263761,-8438.347739,0.000000,1838.629195
3829.264091,-8512.368333,-296.082377,1838.629195
3829.264421,-9474.636058,222.061783,1455.581446
3829.264751,-9992.780217,-444.123565,995.924147
3829.265080,-10807.006753,-370.102971,536.266849
3829.265410,-9844.739029,-444.123565,0.000000
3829.265740,-9400.615463,-1036.288319,766.095498
3829.266070,-9400.615463,-888.247130,2987.772442
3829.266400,-9400.615463,-518.144159,3447.429741
3829.266730,-9474.636058,-222.061783,4060.306139
3829.267060,-9400.615463,0.000000,2604.724693
3829.267390,-9474.636058,814.226536,2834.553343
3829.267720,-9548.656652,888.247130,3447.429741
3829.268049,-10955.047942,2220.617826,3294.210641
3829.268379,-11103.089130,1924.535449,2068.457845
3829.268709,-10362.883188,1554.432478,842.705048
3829.269039,-9992.780217,2072.576638,229.828649
3829.269369,-9992.780217,1332.370696,1532.190996
3829.269699,-10066.800811,2146.597232,2528.115143
3829.270029,-8956.491898,1480.411884,2451.505594
3829.270359,-8364.327145,1480.411884,2834.553343
3829.270689,-9178.553681,2220.617826,3064.381992
3829.271019,-10140.821405,2294.638420,2757.943793
3829.271348,-9474.636058,2368.659014,3983.696590
3829.271678,-9548.656652,2516.700203,3753.867940
3829.272008,-9178.553681,3108.864956,3983.696590
3829.272338,-9992.780217,3182.885551,4443.353888
3829.272668,-10288.862594,4219.173869,4443.353888
3829.272998,-10807.006753,3923.091493,3907.087040
3829.273328,-11473.192101,4293.194464,3064.381992
3829.273658,-10510.924376,3701.029710,2298.286494
3829.273988,-9918.759623,3330.926739,2681.334243
3829.274318,-8956.491898,3997.112087,3217.601092
3829.274647,-8364.327145,3701.029710,2451.505594
3829.274977,-8216.285956,4219.173869,2221.676944
3829.275307,-8734.430116,5033.400406,1838.629195
3829.275637,-9918.759623,4811.338623,1915.238745
3829.275967,-9918.759623,4885.359217,2604.724693
3829.276297,-11103.089130,4737.318029,2604.724693
3829.276627,-11621.233289,4071.132681,3217.601092
3829.276957,-11473.192101,3923.091493,2298.286494
3829.277287,-11177.109724,3256.906145,2451.505594
3829.277617,-10362.883188,2960.823768,1532.190996
3829.277946,-8438.347739,2738.761985,306.438199
3829.278276,-7254.018232,2442.679609,306.438199
3829.278606,-7994.224174,2960.823768,1302.362347
3829.278936,-8808.450710,3108.864956,1532.190996
3829.279266,-8734.430116,3034.844362,1302.362347
3829.279596,-9178.553681,2738.761985,842.705048
3829.279926,-9548.656652,2590.720797,1532.190996
3829.280256,-9030.512492,2590.720797,2374.896044
3829.280586,-9178.553681,3108.864956,3217.601092
3829.280915,-10732.986159,3849.070898,3294.210641
3829.281245,-10584.944971,3701.029710,2451.505594
3829.281575,-11399.171507,4145.153275,1149.143247
3829.281905,-11325.150913,3552.988522,0.000000
3829.282235,-10214.842000,3404.947333,383.047749
3829.282565,-9474.636058,2960.823768,919.314598
3829.282895,-8142.265362,1924.535449,766.095498
3829.283225,-6883.915261,1776.494261,1685.410096
3829.283555,-7624.121203,1998.556043,2068.457845
3829.283885,-9030.512492,1924.535449,1762.019645
3829.284214,-10658.965565,1702.473667,3600.648841
3829.284544,-10584.944971,2294.638420,4366.744339
3829.284874,-11029.068536,2072.576638,5592.497135
3829.285204,-12435.459826,2664.741391,6052.154434
3829.285534,-13249.686362,1924.535449,3677.258390
3829.285864,-11547.212695,2294.638420,1608.800546
3829.286194,-9844.739029,1110.308913,153.219100
3829.286524,-10955.047942,1554.432478,153.219100
3829.286854,-10066.800811,814.226536,536.266849
3829.287184,-7698.141797,-296.082377,1378.971896
3829.287513,-6883.915261,-148.041188,1915.238745
3829.287843,-9178.553681,-148.041188,2681.334243
3829.288173,-10140.821405,-518.144159,2451.505594
3829.288503,-9622.677246,-1110.308913,919.314598
3829.288833,-8142.265362,-666.185348,1838.629195
3829.289163,-9622.677246,-814.226536,3677.258390
3829.289493,-11029.068536,-592.164754,4749.792088
3829.289823,-10732.986159,-444.123565,5975.544884
3829.290153,-10140.821405,0.000000,3753.867940
3829.290483,-9252.574275,148.041188,2374.896044
3829.290812,-9474.636058,-296.082377,1455.581446
3829.291142,-9474.636058,370.102971,1072.533697
3829.291472,-7772.162391,148.041188,1225.752797
3829.291802,-8068.244768,0.000000,766.095498
3829.292132,-8734.430116,888.247130,76.609550
3829.292462,-9622.677246,888.247130,842.705048
3829.292792,-10584.944971,666.185348,1302.362347
3829.293122,-10732.986159,1554.432478,1225.752797
3829.293452,-11029.068536,888.247130,1455.581446
3829.293781,-10288.862594,592.164754,1838.629195
3829.294111,-10658.965565,0.000000,2145.067394
3829.294441,-10288.862594,-814.226536,1991.848295
3829.294771,-10436.903782,0.000000,1225.752797
3829.295101,-9844.739029,222.061783,-153.219100
3829.295431,-9770.718434,222.061783,-2221.676944
3829.295761,-10362.883188,1184.329507,-3753.867940
3829.296091,-9918.759623,1036.288319,-3830.477490
3829.296421,-10140.821405,1480.411884,-4060.306139
3829.296751,-9474.636058,888.247130,-3600.648841
3829.297080,-8882.471304,370.102971,-2604.724693
3829.297410,-9252.574275,370.102971,-766.095498
3829.297740,-10140.821405,-666.185348,306.438199
3829.298070,-8364.327145,-1258.350101,459.657299
3829.298400,-7846.182985,-1776.494261,1608.800546
3829.298730,-7994.224174,-592.164754,3830.477490
3829.299060,-9548.656652,222.061783,5362.668486
3829.299390,-10214.842000,518.144159,2757.943793
3829.299720,-8734.430116,2146.597232,383.047749
3829.300050,-9326.594869,1480.411884,-306.438199
3829.300379,-10436.903782,1850.514855,766.095498
3829.300709,-11029.068536,1480.411884,2221.676944
3829.301039,-10807.006753,1480.411884,1608.800546
3829.301369,-8882.471304,962.267725,842.705048
3829.301699,-8512.368333,1924.535449,-689.485948
3829.302029,-10214.842000,2590.720797,-2451.505594
3829.302359,-11177.109724,3627.009116,-3524.039291
3829.302689,-12213.398043,4441.235652,-3753.867940
3829.303019,-11177.109724,3478.967927,-3370.820191
3829.303349,-10732.986159,1628.453072,-1915.238745
3829.303678,-10732.986159,1480.411884,1225.752797
3829.304008,-10436.903782,-814.226536,2911.162892
3829.304338,-10066.800811,-592.164754,2528.115143
3829.304668,-9252.574275,-666.185348,536.266849
3829.304998,-9178.553681,-1332.370696,-919.314598
3829.305328,-8512.368333,-962.267725,-536.266849
3829.305658,-7698.141797,-1258.350101,1072.533697
3829.305988,-7105.977043,-444.123565,1378.971896
3829.306318,-8290.306550,-888.247130,2298.286494
3829.306647,-8882.471304,-370.102971,1915.238745
3829.306977,-9992.780217,-592.164754,2221.676944
3829.307307,-10436.903782,-74.020594,1455.581446
3829.307637,-10436.903782,-888.247130,153.219100
3829.307967,-8882.471304,-666.185348,689.485948
3829.308297,-8364.327145,-518.144159,2681.334243
3829.308627,-9104.533087,-296.082377,3294.210641
3829.308957,-10214.842000,222.061783,2145.067394
3829.309287,-10807.006753,962.267725,-766.095498
3829.309617,-10066.800811,1110.308913,-1991.848295
3829.309946,-9918.759623,2664.741391,-536.266849
3829.310276,-12287.418637,2738.761985,0.000000
3829.310606,-12583.501014,2442.679609,-1072.533697
3829.310936,-11177.109724,1406.391290,-2451.505594
3829.311266,-10066.800811,-740.205942,-2834.553343
3829.311596,-10066.800811,-1776.494261,-995.924147
3829.311926,-11325.150913,-1776.494261,1378.971896
3829.312256,-10510.924376,-1702.473667,1685.410096
3829.312586,-7179.997637,-2886.803174,76.609550
3829.312916,-6143.709319,-2368.659014,0.000000
3829.313245,-8364.327145,-1998.556043,919.314598
3829.313575,-9770.718434,-2220.617826,2298.286494
3829.313905,-8586.388927,-2368.659014,3753.867940
3829.314235,-7846.182985,-2294.638420,3294.210641
3829.314565,-10214.842000,-1480.411884,3064.381992
3829.314895,-11621.233289,-1036.288319,2757.943793
3829.315225,-11843.295072,-814.226536,383.047749
3829.315555,-10584.944971,-74.020594,-459.657299
3829.315885,-9622.677246,-444.123565,-1455.581446
3829.316215,-9844.739029,0.000000,-612.876398
3829.316544,-9844.739029,888.247130,536.266849
3829.316874,-8808.450710,518.144159,-842.705048
3829.317204,-7476.080014,962.267725,-2298.286494
3829.317534,-9548.656652,1258.350101,-3830.477490
3829.317864,-11399.171507,2516.700203,-2757.943793
3829.318194,-12139.377449,1702.473667,-1762.019645
3829.318524,-11695.253884,740.205942,-766.095498
3829.318854,-11399.171507,444.123565,-842.705048
3829.319184,-11103.089130,-592.164754,-1532.190996
3829.319513,-10436.903782,-592.164754,-842.705048
3829.319843,-9992.780217,-518.144159,0.000000
3829.320173,-8142.265362,-1184.329507,0.000000
3829.320503,-7254.018232,-1036.288319,-1072.533697
3829.320833,-7105.977043,-1924.535449,-1225.752797
3829.321163,-7846.182985,-1480.411884,383.047749
3829.321493,-8660.409521,-1776.494261,459.657299
3829.321823,-7476.080014,-1554.432478,1225.752797
3829.322153,-7698.141797,-1480.411884,1991.848295
3829.322483,-9548.656652,0.000000,3524.039291
3829.322812,-10807.006753,370.102971,3217.601092
3829.323142,-12065.356855,666.185348,1455.581446
3829.323472,-10881.027347,222.061783,612.876398
3829.323802,-10436.903782,296.082377,2374.896044
3829.324132,-10584.944971,666.185348,2987.772442
3829.324462,-10066.800811,1332.370696,2068.457845
3829.324792,-8438.347739,1480.411884,-306.438199
3829.325122,-7994.224174,2368.659014,-2374.896044
3829.325452,-10732.986159,2960.823768,-2604.724693
3829.325782,-13027.624579,3552.988522,-1915.238745
3829.326111,-11843.295072,2442.679609,-2068.457845
3829.326441,-10658.965565,1332.370696,-2068.457845
3829.326771,-11325.150913,296.082377,-919.314598
3829.327101,-11029.068536,-1628.453072,0.000000
3829.327431,-10140.821405,-1184.329507,1149.143247
3829.327761,-9030.512492,-1110.308913,1762.019645
3829.328091,-8660.409521,-518.144159,1225.752797
3829.328421,-8068.244768,-1554.432478,-306.438199
3829.328751,-6735.874072,-1850.514855,-536.266849
3829.329081,-7624.121203,-1332.370696,919.314598
3829.329410,-9770.718434,-1258.350101,2374.896044
3829.329740,-11103.089130,-814.226536,2604.724693
3829.330070,-9474.636058,-1702.473667,1455.581446
3829.330400,-7698.141797,-1036.288319,229.828649
3829.330730,-8512.368333,0.000000,919.314598
3829.331060,-10510.924376,0.000000,-383.047749
3829.331390,-9918.759623,0.000000,0.000000
3829.331720,-9104.533087,518.144159,1532.190996
3829.332050,-10066.800811,1110.308913,3600.648841
3829.332379,-12065.356855,1924.535449,2451.505594
3829.332709,-11103.089130,1110.308913,-1532.190996
3829.333039,-8438.347739,1924.535449,-2987.772442
3829.333369,-8290.306550,2368.659014,-1225.752797
3829.333699,-11399.171507,3108.864956,229.828649
3829.334029,-13175.665768,3256.906145,-76.609550
3829.334359,-12139.377449,2146.597232,-2221.676944
3829.334689,-11399.171507,1554.432478,-3217.601092
3829.335019,-11177.109724,296.082377,-2987.772442
3829.335349,-10881.027347,0.000000,-1685.410096
3829.335678,-9918.759623,-1406.391290,-612.876398
3829.336008,-6883.915261,-814.226536,0.000000
3829.336338,-6587.832884,-1776.494261,-306.438199
3829.336668,-7476.080014,-1998.556043,-1378.971896
3829.336998,-7994.224174,-2738.761985,-306.438199
3829.337328,-8142.265362,-2368.659014,1149.143247
3829.337658,-8142.265362,-1628.453072,3524.039291
3829.337988,-10362.883188,-962.267725,4979.620737
3829.338318,-10066.800811,-740.205942,4060.306139
3829.338648,-9474.636058,-592.164754,2068.457845
3829.338977,-10658.965565,0.000000,0.000000
3829.339307,-10732.986159,444.123565,-842.705048
3829.339637,-10584.944971,0.000000,-383.047749
3829.339967,-9992.780217,-666.185348,1378.971896
3829.340297,-8290.306550,592.164754,2068.457845
3829.340627,-8586.388927,814.226536,0.000000
3829.340957,-9400.615463,1110.308913,-2834.553343
3829.341287,-8660.409521,1924.535449,-3524.039291
3829.341617,-10362.883188,2590.720797,-1685.410096
3829.341947,-12213.398043,3256.906145,0.000000
3829.342276,-13545.768739,1850.514855,-153.219100
3829.342606,-13249.686362,1110.308913,229.828649
3829.342936,-11473.192101,-740.205942,-306.438199
3829.343266,-10214.842000,-1332.370696,-1149.143247
3829.343596,-9252.574275,-2146.597232,-689.485948
3829.343926,-8364.327145,-2072.576638,-153.219100
3829.344256,-7328.038826,-1702.473667,919.314598
3829.344586,-8216.285956,-1924.535449,1225.752797
3829.344916,-8068.244768,-1184.329507,459.657299
3829.345245,-8068.244768,-1406.391290,-153.219100
3829.345575,-8808.450710,-666.185348,-383.047749
3829.345905,-9844.739029,-1184.329507,536.266849
3829.346235,-10066.800811,-740.205942,1762.019645
3829.346565,-10362.883188,-1628.453072,2681.334243
3829.346895,-9918.759623,-1110.308913,1915.238745
3829.347225,-9844.739029,-888.247130,2298.286494
3829.347555,-10732.986159,296.082377,1991.848295
3829.347885,-9548.656652,222.061783,1762.019645
3829.348215,-9474.636058,1036.288319,1532.190996
3829.348544,-10214.842000,1776.494261,536.266849
3829.348874,-10288.862594,2072.576638,-766.095498
3829.349204,-10436.903782,2738.761985,-2681.334243
3829.349534,-11029.068536,2664.741391,-2451.505594
3829.349864,-11325.150913,2664.741391,-1225.752797
3829.350194,-11917.315666,1776.494261,-842.705048
3829.350524,-10955.047942,1628.453072,-2528.115143
3829.350854,-9918.759623,0.000000,-1072.533697
3829.351184,-10288.862594,148.041188,766.095498
3829.351514,-10436.903782,-592.164754,1762.019645
3829.351843,-9178.553681,-592.164754,2221.676944
3829.352173,-8882.471304,-370.102971,1685.410096
3829.352503,-9474.636058,-1036.288319,2068.457845
3829.352833,-9918.759623,-740.205942,2145.067394
3829.353163,-8364.327145,-1554.432478,306.438199
3829.353493,-6439.791695,-666.185348,612.876398
3829.353823,-7476.080014,0.000000,1991.848295
3829.354153,-9622.677246,-370.102971,3140.991542
3829.354483,-10362.883188,148.041188,3753.867940
3829.354813,-10807.006753,888.247130,2528.115143
3829.355142,-10658.965565,370.102971,229.828649
3829.355472,-9992.780217,1110.308913,0.000000
3829.355802,-9326.594869,666.185348,306.438199
3829.356132,-9178.553681,2368.659014,1455.581446
3829.356462,-9844.739029,2442.679609,229.828649
3829.356792,-9918.759623,2368.659014,-1915.238745
3829.357122,-9178.553681,2368.659014,-3294.210641
3829.357452,-9770.718434,3330.926739,-2987.772442
3829.357782,-11547.212695,2960.823768,-2221.676944
3829.358111,-11991.336260,2368.659014,-1532.190996
3829.358441,-10955.047942,1036.288319,-2145.067394
3829.358771,-9548.656652,-296.082377,-2451.505594
3829.359101,-10066.800811,148.041188,-1378.971896
3829.359431,-10510.924376,296.082377,459.657299
3829.359761,-11399.171507,0.000000,-153.219100
3829.360091,-9400.615463,0.000000,-919.314598
3829.360421,-9474.636058,-1184.329507,-919.314598
3829.360750,-9992.780217,-1924.535449,0.000000
3829.361080,-8586.388927,-2664.741391,919.314598
3829.361410,-7105.977043,-2886.803174,1838.629195
3829.361740,-6069.688724,-1776.494261,1838.629195
3829.362070,-8142.265362,-1258.350101,2681.334243
3829.362399,-10140.821405,-444.123565,2528.115143
3829.362729,-10436.903782,148.041188,1455.581446
3829.363059,-10732.986159,-74.020594,306.438199
3829.363389,-11695.253884,592.164754,153.219100
3829.363719,-10955.047942,-1480.411884,2451.505594
3829.364048,-10066.800811,-1036.288319,4366.744339
3829.364378,-10436.903782,-444.123565,2911.162892
3829.364708,-9400.615463,222.061783,-76.609550
3829.365038,-8586.388927,740.205942,-3830.477490
3829.365367,-8216.285956,1480.411884,-3600.648841
3829.365697,-10510.924376,2590.720797,-2145.067394
3829.366027,-12139.377449,1998.556043,-1685.410096
3829.366357,-12213.398043,740.205942,-1762.019645
3829.366687,-10584.944971,-592.164754,-1762.019645
3829.367016,-10214.842000,-1110.308913,-612.876398
3829.367346,-11177.109724,-2368.659014,0.000000
3829.367676,-10288.862594,-3182.885551,229.828649
3829.368006,-7550.100608,-3034.844362,689.485948
3829.368336,-5921.647536,-3775.050304,1532.190996
3829.368665,-7179.997637,-2886.803174,3064.381992
3829.368995,-9030.512492,-2664.741391,2834.553343
3829.369325,-8142.265362,-1702.473667,1762.019645
3829.369655,-7328.038826,-592.164754,0.000000
3829.369985,-9770.718434,0.000000,76.609550
3829.370314,-11251.130318,666.185348,2221.676944
3829.370644,-11177.109724,518.144159,2681.334243
3829.370974,-9474.636058,296.082377,536.266849
3829.371304,-9622.677246,666.185348,-536.266849
3829.371633,-11399.171507,888.247130,153.219100
3829.371963,-11843.295072,814.226536,1378.971896
3829.372293,-10510.924376,1406.391290,1149.143247
3829.372623,-8438.347739,2146.597232,153.219100
3829.372953,-9696.697840,2590.720797,0.000000
3829.373282,-11103.089130,3108.864956,-459.657299
3829.373612,-11177.109724,2516.700203,-383.047749
3829.373942,-11695.253884,1850.514855,-1149.143247
3829.374272,-11103.089130,148.041188,-2221.676944
3829.374602,-10732.986159,0.000000,-153.219100
3829.374931,-10214.842000,-370.102971,1762.019645
3829.375261,-10881.027347,-74.020594,2374.896044
3829.375591,-10584.944971,-888.247130,-229.828649
3829.375921,-6883.915261,-2442.679609,-3677.258390
3829.376251,-4293.194464,-2368.659014,-3217.601092
3829.376580,-6143.709319,-2072.576638,766.095498
3829.376910,-9252.574275,-1258.350101,4749.792088
3829.377240,-9474.636058,-962.267725,4903.011187
3829.377570,-8068.244768,74.020594,2068.457845
3829.377899,-8290.306550,0.000000,-1532.190996
3829.378229,-10362.883188,592.164754,-766.095498
3829.378559,-11177.109724,1036.288319,229.828649
3829.378889,-9474.636058,1406.391290,-306.438199
3829.379219,-8956.491898,1480.411884,689.485948
3829.379548,-11621.233289,1110.308913,1838.629195
3829.379878,-11621.233289,2072.576638,1302.362347
3829.380208,-9622.677246,3034.844362,-1378.971896
3829.380538,-8734.430116,3182.885551,-4519.963438
3829.380868,-9770.718434,4293.194464,-3830.477490
3829.381197,-10732.986159,3627.009116,-1378.971896
3829.381527,-11843.295072,3849.070898,383.047749
3829.381857,-12287.418637,1998.556043,-459.657299
3829.382187,-12139.377449,444.123565,-1838.629195
3829.382517,-9696.697840,-592.164754,-1915.238745
3829.382846,-9474.636058,-962.267725,0.000000
3829.383176,-10955.047942,-148.041188,2451.505594
3829.383506,-10807.006753,-888.247130,3294.210641
3829.383836,-8142.265362,-1258.350101,1685.410096
3829.384165,-6513.812290,-1036.288319,229.828649
3829.384495,-9178.553681,-962.267725,306.438199
3829.384825,-10658.965565,-1332.370696,1149.143247
3829.385155,-8586.388927,-2294.638420,2374.896044
3829.385485,-7698.141797,-1776.494261,3140.991542
3829.385814,-8216.285956,-1702.473667,2987.772442
3829.386144,-10362.883188,-1258.350101,3370.820191
3829.386474,-10214.842000,-518.144159,1991.848295
3829.386804,-9474.636058,-740.205942,383.047749
3829.387134,-10362.883188,0.000000,2374.896044
3829.387463,-11843.295072,222.061783,4213.525239
3829.387793,-11399.171507,370.102971,3830.477490
3829.388123,-9992.780217,222.061783,0.000000
3829.388453,-7920.203579,370.102971,-3140.991542
3829.388783,-8882.471304,2442.679609,-2757.943793
3829.389112,-10436.903782,1924.535449,-1532.190996
3829.389442,-11177.109724,2590.720797,-612.876398
3829.389772,-10955.047942,1702.473667,-1072.533697
3829.390102,-11177.109724,148.041188,-2451.505594
3829.390431,-11103.089130,-148.041188,-2834.553343
3829.390761,-11399.171507,-1998.556043,-1532.190996
3829.391091,-11399.171507,-1554.432478,689.485948
3829.391421,-9992.780217,-1628.453072,1455.581446
3829.391751,-7846.182985,-2812.782580,0.000000
3829.392080,-5181.441594,-3256.906145,-1455.581446
3829.392410,-6069.688724,-2294.638420,-766.095498
3829.392740,-8734.430116,-1628.453072,536.266849
3829.393070,-10584.944971,-1480.411884,766.095498
3829.393400,-9252.574275,-1406.391290,1455.581446
3829.393729,-8882.471304,-740.205942,2068.457845
3829.394059,-10584.944971,-370.102971,842.705048
3829.394389,-11547.212695,-444.123565,229.828649
3829.394719,-10955.047942,-370.102971,-1608.800546
3829.395049,-8512.368333,-222.061783,0.000000
3829.395378,-8512.368333,296.082377,2221.676944
3829.395708,-10732.986159,962.267725,2757.943793
3829.396038,-11473.192101,1480.411884,306.438199
3829.396368,-9548.656652,1258.350101,-2911.162892
3829.396697,-8660.409521,1850.514855,-3294.210641
3829.397027,-10288.862594,2442.679609,-1149.143247
3829.397357,-11695.253884,2738.761985,459.657299
3829.397687,-10807.006753,1924.535449,-229.828649
3829.398017,-10881.027347,518.144159,-1838.629195
3829.398346,-11251.130318,444.123565,-1685.410096
3829.398676,-11547.212695,-962.267725,-689.485948
3829.399006,-11029.068536,-1702.473667,1072.533697
3829.399336,-9030.512492,-1924.535449,1685.410096
3829.399666,-7254.018232,-2960.823768,766.095498
3829.399995,-5329.482782,-2368.659014,76.609550
3829.400325,-5995.668130,-2664.741391,153.219100
3829.400655,-7402.059420,-1110.308913,1225.752797
3829.400985,-9918.759623,-740.205942,1455.581446
3829.401315,-10732.986159,592.164754,1762.019645
3829.401644,-9844.739029,-74.020594,689.485948
3829.401974,-10066.800811,0.000000,766.095498
3829.402304,-10140.821405,-222.061783,1302.362347
3829.402634,-10881.027347,-888.247130,1072.533697
3829.402963,-9400.615463,0.000000,2298.286494
3829.403293,-9992.780217,814.226536,3064.381992
3829.403623,-10288.862594,1924.535449,2451.505594
3829.403953,-9992.780217,1998.556043,-1225.752797
3829.404283,-9992.780217,3108.864956,-4213.525239
3829.404612,-9770.718434,3182.885551,-3064.381992
3829.404942,-11473.192101,4219.173869,-842.705048
3829.405272,-10955.047942,2886.803174,995.924147
3829.405602,-11325.150913,2368.659014,-536.266849
3829.405932,-11029.068536,592.164754,-2528.115143
3829.406261,-10658.965565,-296.082377,-2757.943793
3829.406591,-10288.862594,-1406.391290,-766.095498
3829.406921,-9252.574275,-2368.659014,2757.943793
3829.407251,-8808.450710,-1332.370696,3907.087040
3829.407581,-8290.306550,-814.226536,2987.772442
3829.407910,-8216.285956,-1332.370696,383.047749
3829.408240,-7698.141797,-1406.391290,-383.047749
3829.408570,-8808.450710,-888.247130,1225.752797
3829.408900,-9992.780217,-592.164754,2451.505594
3829.409229,-10584.944971,-296.082377,2911.162892
3829.409559,-9770.718434,-148.041188,1915.238745
3829.409889,-9030.512492,-370.102971,1072.533697
3829.410219,-9844.739029,0.000000,76.609550
3829.410549,-9696.697840,-444.123565,-689.485948
3829.410878,-9770.718434,-296.082377,459.657299
3829.411208,-8364.327145,0.000000,3447.429741
3829.411538,-8882.471304,1184.329507,4749.792088
3829.411868,-9844.739029,1480.411884,1685.410096
3829.412198,-11103.089130,1554.432478,-1915.238745
3829.412527,-10955.047942,1702.473667,-3217.601092
3829.412857,-10732.986159,2368.659014,-766.095498
3829.413187,-11917.315666,3034.844362,2374.896044
3829.413517,-12435.459826,2294.638420,306.438199
3829.413847,-11251.130318,1702.473667,-2145.067394
3829.414176,-10288.862594,296.082377,-4060.306139
3829.414506,-9400.615463,-444.123565,-3447.429741
3829.414836,-9474.636058,-74.020594,-1302.362347
3829.415166,-10436.903782,-962.267725,919.314598
3829.415495,-8956.491898,0.000000,1149.143247
3829.415825,-7550.100608,-1184.329507,-919.314598
3829.416155,-7402.059420,-2146.597232,-2451.505594
3829.416485,-7920.203579,-2072.576638,-842.705048
3829.416815,-9326.594869,-1406.391290,1532.190996
