#time,accel_x,accel_y,accel_z
3943.277798,-9104.533087,-2220.617826,2374.896044
3943.278128,-10066.800811,-1554.432478,3064.381992
3943.278458,-10732.986159,-444.123565,3370.820191
3943.278788,-11177.109724,0.000000,3370.820191
3943.279118,-11547.212695,444.123565,1915.238745
3943.279448,-10732.986159,222.061783,1915.238745
3943.279778,-10214.842000,222.061783,1838.629195
3943.280108,-9030.512492,148.041188,1608.800546
3943.280438,-8586.388927,-666.185348,1532.190996
3943.280768,-8586.388927,-148.041188,995.924147
3943.281098,-9400.615463,0.000000,0.000000
3943.281428,-9770.718434,0.000000,-536.266849
3943.281758,-9918.759623,444.123565,-76.609550
3943.282088,-10288.862594,666.185348,536.266849
3943.282417,-10807.006753,666.185348,1455.581446
3943.282747,-10955.047942,444.123565,1915.238745
3943.283077,-10362.883188,444.123565,2451.505594
3943.283407,-9844.739029,370.102971,1532.190996
3943.283737,-9992.780217,888.247130,1455.581446
3943.284067,-9770.718434,592.164754,1762.019645
3943.284397,-9474.636058,1036.288319,1762.019645
3943.284727,-9178.553681,814.226536,1915.238745
3943.285057,-9770.718434,814.226536,1532.190996
3943.285387,-10362.883188,740.205942,536.266849
3943.285717,-9770.718434,222.061783,-536.266849
3943.286047,-9622.677246,518.144159,-459.657299
3943.286377,-9178.553681,444.123565,-383.047749
3943.286707,-9030.512492,0.000000,689.485948
3943.287037,-9918.759623,518.144159,3064.381992
3943.287367,-11103.089130,888.247130,4519.963438
3943.287696,-11029.068536,296.082377,2528.115143
3943.288026,-10066.800811,444.123565,919.314598
3943.288356,-9252.574275,74.020594,0.000000
3943.288686,-9548.656652,148.041188,76.609550
3943.289016,-10214.842000,0.000000,76.609550
3943.289346,-8956.491898,-888.247130,-766.095498
3943.289676,-10214.842000,-1480.411884,-1072.533697
3943.290006,-8364.327145,-1480.411884,-459.657299
3943.290336,-9622.677246,-1406.391290,919.314598
3943.290666,-11251.130318,-1110.308913,1225.752797
3943.290996,-10214.842000,-666.185348,766.095498
3943.291326,-9918.759623,-888.247130,1302.362347
3943.291656,-10214.842000,-74.020594,2451.505594
3943.291986,-10955.047942,-222.061783,2068.457845
3943.292316,-11473.192101,-1110.308913,536.266849
3943.292645,-10140.821405,-1406.391290,-1532.190996
3943.292975,-9844.739029,-1924.535449,-766.095498
3943.293305,-9252.574275,-1702.473667,0.000000
3943.293635,-8586.388927,-1850.514855,306.438199
3943.293965,-8586.388927,-2146.597232,0.000000
3943.294295,-8364.327145,-2146.597232,0.000000
3943.294625,-9548.656652,-2294.638420,612.876398
3943.294955,-11103.089130,-2368.659014,1532.190996
3943.295285,-10732.986159,-2738.761985,2221.676944
3943.295615,-10214.842000,-2664.741391,2068.457845
3943.295945,-9770.718434,-3034.844362,2068.457845
3943.296275,-10658.965565,-2516.700203,1455.581446
3943.296605,-10362.883188,-2516.700203,1378.971896
3943.296935,-9326.594869,-1924.535449,459.657299
3943.297265,-9326.594869,-1628.453072,-842.705048
3943.297595,-9178.553681,-1628.453072,-306.438199
3943.297924,-9474.636058,-1998.556043,459.657299
3943.298254,-9696.697840,-2220.617826,919.314598
3943.298584,-9178.553681,-2886.803174,383.047749
3943.298914,-9104.533087,-3034.844362,459.657299
3943.299244,-9326.594869,-2812.782580,995.924147
3943.299574,-9030.512492,-2590.720797,1302.362347
3943.299904,-9696.697840,-1702.473667,1532.190996
3943.300234,-9844.739029,-962.267725,766.095498
3943.300564,-9992.780217,-148.041188,0.000000
3943.300894,-10214.842000,74.020594,-612.876398
3943.301224,-10362.883188,370.102971,-612.876398
3943.301554,-10362.883188,444.123565,0.000000
3943.301883,-9696.697840,-444.123565,-995.924147
3943.302213,-8956.491898,-962.267725,-459.657299
3943.302543,-9178.553681,-1406.391290,0.000000
3943.302873,-9474.636058,-666.185348,229.828649
3943.303203,-9770.718434,-370.102971,995.924147
3943.303533,-9770.718434,592.164754,766.095498
3943.303863,-10066.800811,1184.329507,229.828649
3943.304192,-10732.986159,1998.556043,919.314598
3943.304522,-11843.295072,2664.741391,1532.190996
3943.304852,-11695.253884,2442.679609,459.657299
3943.305182,-10955.047942,2368.659014,-536.266849
3943.305512,-10436.903782,1702.473667,-612.876398
3943.305842,-10288.862594,740.205942,0.000000
3943.306172,-9400.615463,888.247130,459.657299
3943.306501,-8364.327145,296.082377,306.438199
3943.306831,-8364.327145,444.123565,306.438199
3943.307161,-8586.388927,1110.308913,766.095498
3943.307491,-9548.656652,2072.576638,995.924147
3943.307821,-9696.697840,2368.659014,153.219100
3943.308151,-10066.800811,2664.741391,-689.485948
3943.308481,-10584.944971,2960.823768,-383.047749
3943.308811,-11103.089130,3478.967927,-536.266849
3943.309140,-10584.944971,2664.741391,-383.047749
3943.309470,-10362.883188,2516.700203,-995.924147
3943.309800,-9622.677246,2072.576638,-1608.800546
3943.310130,-8660.409521,888.247130,-1455.581446
3943.310460,-7994.224174,814.226536,-689.485948
3943.310790,-7698.141797,740.205942,-459.657299
3943.311120,-7846.182985,592.164754,-919.314598
3943.311449,-8512.368333,1554.432478,-1608.800546
3943.311779,-9326.594869,1998.556043,-689.485948
3943.312109,-10436.903782,2590.720797,-76.609550
3943.312439,-11991.336260,3330.926739,536.266849
3943.312769,-12287.418637,3182.885551,0.000000
3943.313099,-10881.027347,2664.741391,-689.485948
3943.313429,-10658.965565,1850.514855,-612.876398
3943.313758,-10288.862594,962.267725,76.609550
3943.314088,-9326.594869,222.061783,689.485948
3943.314418,-7994.224174,-296.082377,0.000000
3943.314748,-7550.100608,-740.205942,-306.438199
3943.315078,-8068.244768,-370.102971,-689.485948
3943.315408,-9252.574275,-148.041188,-536.266849
3943.315738,-9918.759623,592.164754,-459.657299
3943.316067,-10510.924376,444.123565,0.000000
3943.316397,-11325.150913,888.247130,536.266849
3943.316727,-11843.295072,666.185348,1378.971896
3943.317057,-11991.336260,296.082377,995.924147
3943.317387,-10881.027347,-740.205942,842.705048
3943.317717,-9696.697840,-1850.514855,536.266849
3943.318047,-8808.450710,-2442.679609,1302.362347
3943.318376,-8734.430116,-2960.823768,2068.457845
3943.318706,-7846.182985,-2886.803174,1685.410096
3943.319036,-8438.347739,-2442.679609,229.828649
3943.319366,-8882.471304,-1924.535449,0.000000
3943.319696,-9844.739029,-1110.308913,-306.438199
3943.320026,-11029.068536,148.041188,1302.362347
3943.320356,-11917.315666,74.020594,1225.752797
3943.320685,-11325.150913,-666.185348,536.266849
3943.321015,-10732.986159,-962.267725,536.266849
3943.321345,-9622.677246,-2072.576638,766.095498
3943.321675,-9770.718434,-2960.823768,1072.533697
3943.322005,-8882.471304,-3552.988522,1378.971896
3943.322335,-7994.224174,-3849.070898,1915.238745
3943.322665,-7920.203579,-3034.844362,2221.676944
3943.322994,-9104.533087,-2220.617826,2221.676944
3943.323324,-10066.800811,-1184.329507,1378.971896
3943.323654,-10732.986159,0.000000,0.000000
3943.323984,-11251.130318,814.226536,-919.314598
3943.324314,-11917.315666,1036.288319,-689.485948
3943.324644,-11843.295072,740.205942,0.000000
3943.324974,-10658.965565,0.000000,0.000000
3943.325304,-9474.636058,-814.226536,-689.485948
3943.325633,-8956.491898,-1258.350101,-766.095498
3943.325963,-8586.388927,-2072.576638,306.438199
3943.326293,-8364.327145,-2072.576638,1455.581446
3943.326623,-7698.141797,-1776.494261,1685.410096
3943.326953,-8216.285956,-740.205942,1149.143247
3943.327283,-9178.553681,0.000000,766.095498
3943.327613,-10955.047942,1258.350101,919.314598
3943.327942,-11917.315666,2072.576638,919.314598
3943.328272,-12435.459826,2368.659014,459.657299
3943.328602,-11399.171507,1998.556043,0.000000
3943.328932,-10214.842000,1258.350101,-919.314598
3943.329262,-9326.594869,592.164754,-919.314598
3943.329592,-8808.450710,0.000000,-766.095498
3943.329922,-7772.162391,-296.082377,-459.657299
3943.330251,-7105.977043,-888.247130,-689.485948
3943.330581,-7254.018232,-370.102971,-612.876398
3943.330911,-7772.162391,148.041188,-153.219100
3943.331241,-8882.471304,962.267725,-383.047749
3943.331571,-9992.780217,1776.494261,-842.705048
3943.331901,-11325.150913,2516.700203,0.000000
3943.332231,-11917.315666,2590.720797,766.095498
3943.332560,-12213.398043,2664.741391,1455.581446
3943.332890,-10881.027347,1924.535449,383.047749
3943.333220,-9844.739029,814.226536,-459.657299
3943.333550,-9178.553681,518.144159,-1149.143247
3943.333880,-8142.265362,0.000000,-842.705048
3943.334210,-7105.977043,-888.247130,-766.095498
3943.334540,-7476.080014,222.061783,-995.924147
3943.334869,-7772.162391,962.267725,-1608.800546
3943.335199,-9252.574275,1480.411884,-1149.143247
3943.335529,-10584.944971,2294.638420,-1608.800546
3943.335859,-11843.295072,2812.782580,153.219100
3943.336189,-13175.665768,3182.885551,1532.190996
3943.336519,-12361.439231,2442.679609,1455.581446
3943.336849,-11029.068536,1110.308913,689.485948
3943.337178,-9622.677246,444.123565,0.000000
3943.337508,-9400.615463,-592.164754,0.000000
3943.337838,-8660.409521,-1332.370696,306.438199
3943.338168,-7328.038826,-1406.391290,612.876398
3943.338498,-7105.977043,-1110.308913,689.485948
3943.338828,-8216.285956,-148.041188,306.438199
3943.339158,-9770.718434,814.226536,-536.266849
3943.339487,-11251.130318,2220.617826,-459.657299
3943.339817,-12213.398043,2516.700203,-919.314598
3943.340147,-12139.377449,1924.535449,229.828649
3943.340477,-11621.233289,1036.288319,1532.190996
3943.340807,-10658.965565,74.020594,1149.143247
3943.341137,-9252.574275,-1480.411884,-76.609550
3943.341467,-8734.430116,-1924.535449,0.000000
3943.341797,-8364.327145,-2590.720797,689.485948
3943.342126,-7179.997637,-2220.617826,842.705048
3943.342456,-7031.956449,-1924.535449,842.705048
3943.342786,-8512.368333,-1036.288319,842.705048
3943.343116,-10066.800811,-148.041188,842.705048
3943.343446,-11177.109724,814.226536,919.314598
3943.343776,-12435.459826,1480.411884,1149.143247
3943.344106,-12731.542202,888.247130,76.609550
3943.344435,-11695.253884,370.102971,153.219100
3943.344765,-9992.780217,-592.164754,76.609550
3943.345095,-9400.615463,-1776.494261,0.000000
3943.345425,-8438.347739,-1850.514855,-536.266849
3943.345755,-8068.244768,-2442.679609,612.876398
3943.346085,-7328.038826,-2442.679609,383.047749
3943.346415,-7846.182985,-1776.494261,459.657299
3943.346744,-9770.718434,-666.185348,229.828649
3943.347074,-10436.903782,0.000000,0.000000
3943.347404,-10881.027347,444.123565,0.000000
3943.347734,-11695.253884,1110.308913,0.000000
3943.348064,-11991.336260,740.205942,919.314598
3943.348394,-11177.109724,-222.061783,1149.143247
3943.348724,-10140.821405,-444.123565,383.047749
3943.349053,-9178.553681,-2072.576638,-153.219100
3943.349383,-8438.347739,-2294.638420,0.000000
3943.349713,-8216.285956,-2294.638420,383.047749
3943.350043,-7920.203579,-2072.576638,1378.971896
3943.350373,-8216.285956,-1480.411884,919.314598
3943.350703,-8882.471304,-370.102971,0.000000
3943.351033,-10066.800811,518.144159,-459.657299
3943.351362,-11621.233289,1406.391290,-536.266849
3943.351692,-12657.521608,1776.494261,536.266849
3943.352022,-12435.459826,1480.411884,1608.800546
3943.352352,-10881.027347,592.164754,995.924147
3943.352682,-9474.636058,-74.020594,76.609550
3943.353012,-8956.491898,-1406.391290,-459.657299
3943.353342,-8364.327145,-1850.514855,0.000000
3943.353671,-7698.141797,-2220.617826,459.657299
3943.354001,-6957.935855,-1850.514855,1225.752797
3943.354331,-7994.224174,-666.185348,1302.362347
3943.354661,-9252.574275,222.061783,1072.533697
3943.354991,-10955.047942,1406.391290,-229.828649
3943.355321,-11621.233289,1998.556043,-1225.752797
3943.355651,-11991.336260,2294.638420,-919.314598
3943.355980,-11843.295072,2368.659014,153.219100
3943.356310,-10881.027347,1628.453072,536.266849
3943.356640,-9770.718434,962.267725,-306.438199
3943.356970,-9178.553681,0.000000,-1072.533697
3943.357300,-8364.327145,-814.226536,-1302.362347
3943.357630,-7698.141797,-1406.391290,-459.657299
3943.357960,-7328.038826,-666.185348,229.828649
3943.358290,-7624.121203,148.041188,459.657299
3943.358619,-9178.553681,1110.308913,536.266849
3943.358949,-10732.986159,1850.514855,153.219100
3943.359279,-12139.377449,2442.679609,153.219100
3943.359609,-12213.398043,2664.741391,995.924147
3943.359939,-12435.459826,2442.679609,995.924147
3943.360269,-11177.109724,1776.494261,689.485948
3943.360599,-10066.800811,962.267725,153.219100
3943.360928,-9030.512492,148.041188,-1225.752797
3943.361258,-8734.430116,-370.102971,-1378.971896
3943.361588,-7624.121203,-962.267725,-1225.752797
3943.361918,-7328.038826,-740.205942,-842.705048
3943.362248,-7698.141797,0.000000,153.219100
3943.362578,-9622.677246,814.226536,0.000000
3943.362908,-10288.862594,1480.411884,-536.266849
3943.363237,-10807.006753,1776.494261,-766.095498
3943.363567,-11695.253884,1924.535449,153.219100
3943.363897,-11991.336260,1850.514855,1225.752797
3943.364227,-11251.130318,740.205942,1991.848295
3943.364557,-9992.780217,0.000000,1149.143247
3943.364887,-9030.512492,-444.123565,76.609550
3943.365217,-8438.347739,-1258.350101,-995.924147
3943.365546,-8290.306550,-1480.411884,0.000000
3943.365876,-7698.141797,-1258.350101,766.095498
3943.366206,-7994.224174,-518.144159,153.219100
3943.366536,-9400.615463,296.082377,-383.047749
3943.366866,-10140.821405,1036.288319,-919.314598
3943.367196,-11547.212695,1628.453072,0.000000
3943.367526,-12509.480420,1776.494261,383.047749
3943.367855,-12139.377449,1258.350101,689.485948
3943.368185,-10140.821405,222.061783,689.485948
3943.368515,-9326.594869,-1258.350101,536.266849
3943.368845,-8438.347739,-2146.597232,306.438199
3943.369175,-8216.285956,-2516.700203,306.438199
3943.369505,-7550.100608,-2812.782580,1072.533697
3943.369835,-7402.059420,-2442.679609,1762.019645
3943.370164,-8586.388927,-1258.350101,1762.019645
3943.370494,-10362.883188,-148.041188,1302.362347
3943.370824,-11251.130318,666.185348,0.000000
3943.371154,-11991.336260,1406.391290,-842.705048
3943.371484,-12361.439231,1332.370696,-766.095498
3943.371814,-11991.336260,814.226536,229.828649
3943.372144,-10362.883188,-74.020594,536.266849
3943.372473,-9178.553681,-1924.535449,0.000000
3943.372803,-8734.430116,-2220.617826,-536.266849
3943.373133,-8290.306550,-2886.803174,0.000000
3943.373463,-7772.162391,-3108.864956,536.266849
3943.373793,-7772.162391,-2146.597232,1149.143247
3943.374123,-8808.450710,-1332.370696,2145.067394
3943.374453,-10066.800811,0.000000,1991.848295
3943.374783,-11843.295072,962.267725,1532.190996
3943.375112,-12509.480420,1702.473667,919.314598
3943.375442,-13101.645173,1628.453072,459.657299
3943.375772,-11991.336260,1036.288319,306.438199
3943.376102,-10140.821405,74.020594,0.000000
3943.376432,-8660.409521,-814.226536,-229.828649
3943.376762,-8068.244768,-1184.329507,-229.828649
3943.377092,-8068.244768,-1924.535449,-536.266849
3943.377421,-7476.080014,-1776.494261,-229.828649
3943.377751,-7920.203579,-962.267725,0.000000
3943.378081,-9104.533087,296.082377,459.657299
3943.378411,-10362.883188,1036.288319,919.314598
3943.378741,-10881.027347,1406.391290,383.047749
3943.379071,-11843.295072,1850.514855,153.219100
3943.379401,-11917.315666,1776.494261,766.095498
3943.379730,-11843.295072,1480.411884,689.485948
3943.380060,-10214.842000,888.247130,536.266849
3943.380390,-8882.471304,-222.061783,0.000000
3943.380720,-8364.327145,-814.226536,-383.047749
3943.381050,-7920.203579,-1036.288319,0.000000
3943.381380,-7254.018232,-1110.308913,-306.438199
3943.381710,-7550.100608,-444.123565,-536.266849
3943.382039,-8512.368333,888.247130,-612.876398
3943.382369,-9992.780217,1924.535449,-1378.971896
3943.382699,-11325.150913,2368.659014,-842.705048
3943.383029,-12139.377449,2664.741391,76.609550
3943.383359,-12953.603985,2664.741391,689.485948
3943.383689,-11843.295072,2294.638420,229.828649
3943.384019,-9992.780217,1110.308913,459.657299
3943.384348,-8882.471304,-148.041188,-229.828649
3943.384678,-8142.265362,-962.267725,-229.828649
3943.385008,-7846.182985,-1406.391290,306.438199
3943.385338,-7328.038826,-1332.370696,306.438199
3943.385668,-7254.018232,-518.144159,689.485948
3943.385998,-9178.553681,592.164754,919.314598
3943.386328,-10807.006753,1480.411884,0.000000
3943.386657,-11769.274478,2442.679609,-995.924147
3943.386987,-12213.398043,2664.741391,-612.876398
3943.387317,-12805.562797,2294.638420,383.047749
3943.387647,-11621.233289,1776.494261,766.095498
3943.387977,-9696.697840,814.226536,-383.047749
3943.388307,-8882.471304,-444.123565,0.000000
3943.388637,-8290.306550,-1628.453072,-536.266849
3943.388966,-7920.203579,-2146.597232,-766.095498
3943.389296,-7105.977043,-1998.556043,-229.828649
3943.389626,-7105.977043,-1258.350101,842.705048
3943.389956,-8882.471304,-222.061783,1149.143247
3943.390286,-10510.924376,740.205942,1225.752797
3943.390616,-11325.150913,1628.453072,766.095498
3943.390946,-13027.624579,2220.617826,689.485948
3943.391276,-13323.706956,1924.535449,536.266849
3943.391605,-11695.253884,1110.308913,0.000000
3943.391935,-9918.759623,-148.041188,-459.657299
3943.392265,-8586.388927,-888.247130,-842.705048
3943.392595,-8364.327145,-1702.473667,-383.047749
3943.392925,-7920.203579,-1998.556043,0.000000
3943.393255,-7402.059420,-1924.535449,-766.095498
3943.393585,-7846.182985,-962.267725,0.000000
3943.393914,-9622.677246,-74.020594,306.438199
3943.394244,-10732.986159,666.185348,766.095498
3943.394574,-11399.171507,888.247130,842.705048
3943.394904,-12065.356855,1406.391290,1149.143247
3943.395234,-12657.521608,1258.350101,1225.752797
3943.395564,-11325.150913,444.123565,1532.190996
3943.395894,-10066.800811,-444.123565,536.266849
3943.396223,-9104.533087,-1110.308913,0.000000
3943.396553,-7994.224174,-1628.453072,-229.828649
3943.396883,-7994.224174,-2146.597232,536.266849
3943.397213,-7624.121203,-1702.473667,995.924147
3943.397543,-8068.244768,-888.247130,153.219100
3943.397873,-9252.574275,518.144159,0.000000
3943.398203,-10510.924376,1036.288319,0.000000
3943.398532,-11695.253884,1702.473667,383.047749
3943.398862,-12583.501014,1850.514855,1225.752797
3943.399192,-12287.418637,1480.411884,1302.362347
3943.399522,-10510.924376,444.123565,536.266849
3943.399852,-9400.615463,-444.123565,0.000000
3943.400182,-8660.409521,-1406.391290,-536.266849
3943.400512,-8068.244768,-2072.576638,153.219100
3943.400842,-7328.038826,-2072.576638,1072.533697
3943.401172,-7031.956449,-2146.597232,1302.362347
3943.401502,-7994.224174,-814.226536,1149.143247
3943.401832,-9918.759623,518.144159,383.047749
3943.402162,-11029.068536,1480.411884,-766.095498
3943.402492,-11621.233289,1628.453072,-612.876398
3943.402822,-12287.418637,1998.556043,-306.438199
3943.403152,-12139.377449,1850.514855,459.657299
3943.403482,-10362.883188,1258.350101,459.657299
3943.403812,-9252.574275,0.000000,-459.657299
3943.404141,-8808.450710,-1110.308913,-1302.362347
3943.404471,-8142.265362,-1924.535449,-842.705048
3943.404801,-7402.059420,-2368.659014,0.000000
3943.405131,-7105.977043,-1702.473667,459.657299
3943.405461,-7994.224174,-666.185348,536.266849
3943.405791,-9400.615463,148.041188,689.485948
3943.406121,-10807.006753,1036.288319,536.266849
3943.406451,-11843.295072,2072.576638,0.000000
3943.406781,-13175.665768,2516.700203,1149.143247
3943.407111,-13027.624579,2146.597232,842.705048
3943.407441,-10807.006753,1036.288319,153.219100
3943.407771,-9622.677246,814.226536,-689.485948
3943.408101,-8956.491898,-518.144159,-1532.190996
3943.408431,-8438.347739,-888.247130,-1072.533697
3943.408761,-7402.059420,-1406.391290,-689.485948
3943.409091,-7179.997637,-1184.329507,-612.876398
3943.409421,-8068.244768,-148.041188,0.000000
3943.409751,-9992.780217,592.164754,306.438199
3943.410081,-10881.027347,1184.329507,383.047749
3943.410411,-11843.295072,1554.432478,306.438199
3943.410741,-12361.439231,1924.535449,1225.752797
3943.411071,-11843.295072,1258.350101,1685.410096
3943.411401,-11029.068536,814.226536,1378.971896
3943.411731,-9548.656652,-222.061783,0.000000
3943.412061,-8734.430116,-740.205942,-689.485948
3943.412391,-8216.285956,-1628.453072,-536.266849
3943.412721,-7550.100608,-1554.432478,0.000000
3943.413051,-7328.038826,-962.267725,0.000000
3943.413381,-8438.347739,0.000000,-153.219100
3943.413711,-9770.718434,814.226536,-536.266849
3943.414041,-10658.965565,1628.453072,-766.095498
3943.414371,-12139.377449,2368.659014,76.609550
3943.414701,-12657.521608,2072.576638,995.924147
3943.415031,-12139.377449,1628.453072,1072.533697
3943.415360,-9992.780217,740.205942,536.266849
3943.415690,-9178.553681,-370.102971,-229.828649
3943.416020,-9030.512492,-1332.370696,-689.485948
3943.416350,-7994.224174,-1406.391290,536.266849
3943.416680,-7105.977043,-1998.556043,842.705048
3943.417010,-7105.977043,-1554.432478,1225.752797
3943.417340,-8438.347739,-592.164754,1225.752797
3943.417670,-10362.883188,370.102971,536.266849
3943.418000,-11029.068536,1036.288319,-306.438199
3943.418330,-11991.336260,1924.535449,-383.047749
3943.418660,-12287.418637,1924.535449,153.219100
3943.418990,-11769.274478,1554.432478,459.657299
3943.419320,-10066.800811,518.144159,383.047749
3943.419650,-9400.615463,-518.144159,-689.485948
3943.419980,-8734.430116,-1258.350101,-995.924147
3943.420310,-7772.162391,-2146.597232,-306.438199
3943.420640,-7254.018232,-1702.473667,536.266849
3943.420970,-7550.100608,-1628.453072,612.876398
3943.421300,-8586.388927,-888.247130,612.876398
3943.421630,-9918.759623,0.000000,689.485948
3943.421960,-11251.130318,1110.308913,995.924147
3943.422290,-12361.439231,1332.370696,919.314598
3943.422620,-12953.603985,1480.411884,1149.143247
3943.422950,-11917.315666,888.247130,306.438199
3943.423280,-10214.842000,74.020594,0.000000
3943.423610,-9178.553681,-962.267725,-766.095498
3943.423940,-8660.409521,-1628.453072,-842.705048
3943.424270,-8068.244768,-1998.556043,-229.828649
3943.424600,-7179.997637,-1924.535449,-153.219100
3943.424930,-7254.018232,-1110.308913,153.219100
3943.425260,-9252.574275,-222.061783,153.219100
3943.425590,-11029.068536,814.226536,229.828649
3943.425920,-11325.150913,1036.288319,0.000000
3943.426250,-11843.295072,1628.453072,0.000000
3943.426579,-12065.356855,1406.391290,766.095498
3943.426909,-11547.212695,888.247130,1378.971896
3943.427239,-10066.800811,0.000000,459.657299
3943.427569,-9104.533087,-1036.288319,-76.609550
3943.427899,-8586.388927,-1332.370696,-383.047749
3943.428229,-8142.265362,-1776.494261,612.876398
3943.428559,-8068.244768,-1258.350101,842.705048
3943.428889,-8142.265362,-1036.288319,459.657299
3943.429219,-8734.430116,0.000000,229.828649
3943.429549,-10436.903782,1184.329507,0.000000
3943.429879,-11325.150913,1332.370696,-612.876398
3943.430209,-12139.377449,1850.514855,153.219100
3943.430539,-11843.295072,2294.638420,766.095498
3943.430869,-11029.068536,1258.350101,919.314598
3943.431199,-9770.718434,296.082377,0.000000
3943.431529,-8882.471304,-740.205942,-153.219100
3943.431859,-8512.368333,-962.267725,-229.828649
3943.432189,-8068.244768,-1702.473667,459.657299
3943.432519,-7328.038826,-1776.494261,842.705048
3943.432849,-7624.121203,-1110.308913,1608.800546
3943.433179,-9474.636058,296.082377,1532.190996
3943.433509,-11029.068536,1184.329507,76.609550
3943.433839,-11621.233289,1776.494261,-383.047749
3943.434169,-12065.356855,2294.638420,-459.657299
3943.434499,-11991.336260,2072.576638,383.047749
3943.434829,-11399.171507,1554.432478,1149.143247
3943.435159,-9918.759623,444.123565,0.000000
3943.435489,-8660.409521,-518.144159,-689.485948
3943.435819,-8142.265362,-1480.411884,-1378.971896
3943.436149,-7624.121203,-1628.453072,-612.876398
3943.436479,-7550.100608,-1776.494261,459.657299
3943.436809,-8142.265362,-888.247130,689.485948
3943.437139,-9030.512492,74.020594,842.705048
3943.437469,-10510.924376,814.226536,459.657299
3943.437798,-11917.315666,1776.494261,1072.533697
3943.438128,-12731.542202,1998.556043,1072.533697
3943.438458,-12805.562797,1776.494261,995.924147
3943.438788,-11399.171507,1184.329507,229.828649
3943.439118,-9844.739029,74.020594,-383.047749
3943.439448,-9400.615463,-296.082377,-919.314598
3943.439778,-8364.327145,-1184.329507,-919.314598
3943.440108,-7698.141797,-1924.535449,-1149.143247
3943.440438,-7105.977043,-1628.453072,-459.657299
3943.440768,-7920.203579,-592.164754,383.047749
3943.441098,-9548.656652,0.000000,842.705048
3943.441428,-10881.027347,518.144159,536.266849
3943.441758,-11695.253884,1184.329507,229.828649
3943.442088,-12361.439231,1480.411884,919.314598
3943.442418,-12139.377449,1332.370696,1608.800546
3943.442748,-11177.109724,740.205942,1608.800546
3943.443078,-9918.759623,-370.102971,612.876398
3943.443408,-9252.574275,-962.267725,-306.438199
3943.443738,-8142.265362,-1628.453072,-459.657299
3943.444068,-7994.224174,-1850.514855,536.266849
3943.444398,-7772.162391,-1480.411884,1072.533697
3943.444728,-8216.285956,-518.144159,536.266849
3943.445058,-9326.594869,222.061783,0.000000
3943.445388,-10436.903782,962.267725,-612.876398
3943.445718,-11547.212695,1776.494261,-229.828649
3943.446048,-12139.377449,1776.494261,919.314598
3943.446378,-11843.295072,1184.329507,1149.143247
3943.446708,-10658.965565,518.144159,919.314598
3943.447038,-9326.594869,-296.082377,306.438199
3943.447368,-8882.471304,-1258.350101,0.000000
3943.447698,-8216.285956,-1776.494261,0.000000
3943.448028,-7476.080014,-2368.659014,1072.533697
3943.448358,-7254.018232,-1628.453072,1762.019645
3943.448688,-8438.347739,-740.205942,2068.457845
3943.449017,-9844.739029,0.000000,1455.581446
3943.449347,-10955.047942,1036.288319,-76.609550
3943.449677,-11769.274478,1776.494261,-842.705048
3943.450007,-12287.418637,2072.576638,-459.657299
3943.450337,-12139.377449,1628.453072,383.047749
3943.450667,-10955.047942,1184.329507,766.095498
3943.450997,-9326.594869,-296.082377,0.000000
3943.451327,-8290.306550,-1110.308913,-766.095498
3943.451657,-7920.203579,-1924.535449,-766.095498
3943.451987,-8068.244768,-1776.494261,0.000000
3943.452317,-7624.121203,-1628.453072,1149.143247
3943.452647,-7920.203579,-1110.308913,1225.752797
3943.452977,-9400.615463,0.000000,1149.143247
3943.453307,-10881.027347,888.247130,689.485948
3943.453637,-12139.377449,1850.514855,995.924147
3943.453967,-13323.706956,1998.556043,766.095498
3943.454297,-12509.480420,1480.411884,536.266849
3943.454627,-10140.821405,740.205942,0.000000
3943.454957,-9030.512492,-444.123565,-766.095498
3943.455287,-8660.409521,-1406.391290,-689.485948
3943.455617,-8290.306550,-1332.370696,-689.485948
3943.455947,-7476.080014,-1924.535449,0.000000
3943.456277,-7328.038826,-1406.391290,76.609550
3943.456607,-8438.347739,-370.102971,306.438199
3943.456937,-10214.842000,518.144159,766.095498
3943.457267,-11029.068536,1184.329507,153.219100
3943.457597,-11769.274478,1628.453072,229.828649
3943.457927,-12213.398043,1702.473667,536.266849
3943.458257,-11843.295072,1258.350101,1455.581446
3943.458587,-10807.006753,666.185348,766.095498
3943.458917,-9474.636058,-444.123565,0.000000
3943.459247,-8660.409521,-962.267725,-612.876398
3943.459577,-7698.141797,-1480.411884,-612.876398
3943.459907,-7624.121203,-1554.432478,0.000000
3943.460237,-7476.080014,-888.247130,0.000000
3943.460566,-8808.450710,148.041188,229.828649
3943.460896,-9844.739029,1184.329507,-459.657299
3943.461226,-11029.068536,1554.432478,-459.657299
3943.461556,-11843.295072,2294.638420,0.000000
3943.461886,-13027.624579,2368.659014,766.095498
3943.462216,-11769.274478,1480.411884,995.924147
3943.462546,-10436.903782,444.123565,766.095498
3943.462876,-9104.533087,-666.185348,0.000000
3943.463206,-8438.347739,-962.267725,-536.266849
3943.463536,-7994.224174,-1702.473667,0.000000
3943.463866,-7254.018232,-1628.453072,842.705048
3943.464196,-7698.141797,-1036.288319,1149.143247
3943.464526,-9030.512492,0.000000,1532.190996
3943.464856,-10658.965565,962.267725,536.266849
3943.465186,-11547.212695,1554.432478,-536.266849
3943.465516,-11843.295072,2220.617826,-842.705048
3943.465846,-12065.356855,2072.576638,76.609550
3943.466176,-11473.192101,1554.432478,995.924147
3943.466506,-10214.842000,666.185348,383.047749
3943.466836,-9326.594869,-222.061783,-229.828649
3943.467166,-8438.347739,-1184.329507,-766.095498
3943.467496,-7846.182985,-1998.556043,-459.657299
3943.467826,-7698.141797,-1850.514855,0.000000
3943.468156,-7624.121203,-1406.391290,536.266849
3943.468486,-8364.327145,-518.144159,919.314598
3943.468816,-9622.677246,74.020594,1149.143247
3943.469146,-11325.150913,1110.308913,842.705048
3943.469476,-12435.459826,1776.494261,766.095498
3943.469806,-12805.562797,1554.432478,766.095498
3943.470136,-11547.212695,814.226536,229.828649
3943.470466,-9918.759623,222.061783,-229.828649
3943.470796,-8956.491898,-666.185348,-1072.533697
3943.471126,-8290.306550,-1628.453072,-766.095498
3943.471456,-7772.162391,-1776.494261,-689.485948
3943.471785,-7179.997637,-2146.597232,-689.485948
3943.472115,-7476.080014,-1406.391290,306.438199
3943.472445,-8956.491898,-222.061783,536.266849
3943.472775,-10658.965565,666.185348,153.219100
3943.473105,-11695.253884,888.247130,0.000000
3943.473435,-12139.377449,1258.350101,306.438199
3943.473765,-12139.377449,1258.350101,919.314598
3943.474095,-11399.171507,518.144159,1762.019645
3943.474425,-10214.842000,0.000000,1225.752797
3943.474755,-8956.491898,-1406.391290,153.219100
3943.475085,-8364.327145,-1554.432478,-459.657299
3943.475415,-7846.182985,-2146.597232,-229.828649
3943.475745,-7772.162391,-1702.473667,459.657299
3943.476075,-7772.162391,-1184.329507,306.438199
3943.476405,-8956.491898,0.000000,153.219100
3943.476735,-10362.883188,888.247130,0.000000
3943.477065,-11325.150913,1480.411884,-536.266849
3943.477395,-12731.542202,2516.700203,536.266849
3943.477725,-12583.501014,1480.411884,995.924147
3943.478055,-11251.130318,666.185348,766.095498
3943.478385,-9474.636058,0.000000,306.438199
3943.478715,-8586.388927,-1110.308913,0.000000
3943.479045,-8216.285956,-1628.453072,0.000000
3943.479375,-7402.059420,-1998.556043,306.438199
3943.479705,-7550.100608,-1776.494261,766.095498
3943.480035,-8068.244768,-962.267725,1838.629195
3943.480365,-9622.677246,0.000000,1302.362347
3943.480695,-11177.109724,1406.391290,459.657299
3943.481025,-11621.233289,1702.473667,-612.876398
3943.481355,-12065.356855,1998.556043,-919.314598
3943.481685,-11917.315666,1998.556043,153.219100
3943.482015,-11103.089130,1184.329507,919.314598
3943.482345,-9548.656652,296.082377,153.219100
3943.482675,-8882.471304,-740.205942,-76.609550
3943.483004,-7846.182985,-1406.391290,-766.095498
3943.483334,-7698.141797,-1776.494261,-306.438199
3943.483664,-7476.080014,-1554.432478,383.047749
3943.483994,-7698.141797,-1184.329507,383.047749
3943.484324,-8512.368333,0.000000,459.657299
3943.484654,-9992.780217,814.226536,612.876398
3943.484984,-11769.274478,1776.494261,459.657299
3943.485314,-12509.480420,1924.535449,919.314598
3943.485644,-12731.542202,1776.494261,766.095498
3943.485974,-10955.047942,1110.308913,153.219100
3943.486304,-9474.636058,296.082377,-536.266849
3943.486634,-8808.450710,-1036.288319,-459.657299
3943.486964,-8290.306550,-1184.329507,-153.219100
3943.487294,-7254.018232,-1628.453072,-229.828649
3943.487624,-7624.121203,-1184.329507,-229.828649
3943.487954,-8068.244768,-592.164754,76.609550
3943.488284,-9770.718434,222.061783,383.047749
3943.488614,-10436.903782,1036.288319,306.438199
3943.488944,-11695.253884,1628.453072,459.657299
3943.489274,-12139.377449,1776.494261,1072.533697
3943.489604,-12065.356855,1480.411884,1455.581446
3943.489934,-11103.089130,740.205942,995.924147
3943.490264,-9696.697840,-444.123565,459.657299
3943.490594,-9030.512492,-1036.288319,-153.219100
3943.490924,-8512.368333,-1702.473667,153.219100
3943.491254,-7772.162391,-1702.473667,229.828649
3943.491584,-7328.038826,-1332.370696,919.314598
3943.491914,-8364.327145,-296.082377,306.438199
3943.492244,-9622.677246,666.185348,-229.828649
3943.492574,-10584.944971,740.205942,-612.876398
3943.492904,-11621.233289,1850.514855,153.219100
3943.493234,-12435.459826,1998.556043,995.924147
3943.493564,-11991.336260,1036.288319,1378.971896
3943.493894,-10436.903782,370.102971,536.266849
3943.494223,-9252.574275,-370.102971,-76.609550
3943.494553,-8882.471304,-1406.391290,0.000000
3943.494883,-8142.265362,-1850.514855,306.438199
3943.495213,-7624.121203,-1998.556043,612.876398
3943.495543,-7254.018232,-1628.453072,1532.190996
3943.495873,-8586.388927,-740.205942,1838.629195
3943.496203,-10066.800811,148.041188,1302.362347
3943.496533,-11325.150913,1184.329507,229.828649
3943.496863,-11843.295072,1776.494261,-612.876398
3943.497193,-11843.295072,1998.556043,-689.485948
3943.497523,-11843.295072,1628.453072,612.876398
3943.497853,-10955.047942,1110.308913,766.095498
3943.498183,-9548.656652,74.020594,-306.438199
3943.498513,-8660.409521,-592.164754,-842.705048
3943.498843,-8216.285956,-1628.453072,-612.876398
3943.499173,-7772.162391,-1998.556043,0.000000
3943.499503,-7328.038826,-1628.453072,536.266849
3943.499833,-7920.203579,-962.267725,766.095498
3943.500163,-9400.615463,74.020594,1072.533697
3943.500493,-10658.965565,740.205942,536.266849
3943.500823,-12139.377449,1406.391290,995.924147
3943.501153,-13027.624579,1850.514855,1149.143247
3943.501483,-12065.356855,1776.494261,842.705048
3943.501813,-10658.965565,814.226536,229.828649
3943.502143,-9474.636058,0.000000,-612.876398
3943.502473,-8734.430116,-1184.329507,-612.876398
3943.502803,-8142.265362,-1036.288319,0.000000
3943.503133,-7402.059420,-1628.453072,-306.438199
3943.503462,-7328.038826,-1184.329507,0.000000
3943.503792,-8586.388927,-148.041188,76.609550
3943.504122,-10288.862594,444.123565,0.000000
3943.504452,-10955.047942,1184.329507,-306.438199
3943.504782,-11547.212695,1406.391290,0.000000
3943.505112,-11917.315666,1480.411884,919.314598
3943.505442,-11473.192101,962.267725,1225.752797
3943.505772,-10140.821405,370.102971,1149.143247
3943.506102,-9178.553681,-592.164754,0.000000
3943.506432,-8660.409521,-1258.350101,-229.828649
3943.506762,-8290.306550,-1480.411884,0.000000
3943.507091,-7328.038826,-1332.370696,76.609550
3943.507421,-7624.121203,-1184.329507,306.438199
3943.507751,-8660.409521,0.000000,0.000000
3943.508081,-9696.697840,518.144159,-459.657299
3943.508411,-10807.006753,1480.411884,-612.876398
3943.508741,-11843.295072,1998.556043,0.000000
3943.509071,-12583.501014,1850.514855,842.705048
3943.509401,-11843.295072,1258.350101,1302.362347
3943.509731,-9992.780217,74.020594,766.095498
3943.510061,-8956.491898,-518.144159,0.000000
3943.510391,-8438.347739,-1332.370696,-76.609550
3943.510720,-7994.224174,-1628.453072,459.657299
3943.511050,-7550.100608,-1924.535449,1225.752797
3943.511380,-7624.121203,-740.205942,1608.800546
3943.511710,-9474.636058,0.000000,1838.629195
3943.512040,-11103.089130,962.267725,536.266849
3943.512370,-11621.233289,1332.370696,-536.266849
3943.512700,-11769.274478,2368.659014,-459.657299
3943.513030,-12213.398043,1924.535449,0.000000
3943.513360,-11695.253884,1480.411884,536.266849
3943.513690,-9992.780217,518.144159,153.219100
3943.514020,-9030.512492,-444.123565,-459.657299
3943.514349,-8438.347739,-1406.391290,-1149.143247
3943.514679,-8142.265362,-1776.494261,-383.047749
3943.515009,-7698.141797,-1924.535449,76.609550
3943.515339,-7328.038826,-1702.473667,536.266849
3943.515669,-8216.285956,-222.061783,995.924147
3943.515999,-9548.656652,296.082377,766.095498
3943.516329,-11177.109724,888.247130,919.314598
3943.516659,-12213.398043,1628.453072,1225.752797
3943.516989,-12583.501014,1776.494261,536.266849
3943.517319,-11621.233289,1036.288319,459.657299
3943.517649,-9770.718434,518.144159,-459.657299
3943.517978,-9030.512492,-592.164754,-689.485948
3943.518308,-8512.368333,-962.267725,-1072.533697
3943.518638,-7994.224174,-1702.473667,-306.438199
3943.518968,-7179.997637,-1628.453072,-153.219100
3943.519298,-7476.080014,-1184.329507,-153.219100
3943.519628,-9178.553681,0.000000,153.219100
3943.519958,-10658.965565,888.247130,536.266849
3943.520288,-11177.109724,1036.288319,306.438199
3943.520618,-11769.274478,1406.391290,76.609550
3943.520948,-11917.315666,1406.391290,1455.581446
3943.521278,-11399.171507,1184.329507,612.876398
3943.521608,-10214.842000,222.061783,536.266849
3943.521937,-9104.533087,-888.247130,-229.828649
3943.522267,-8660.409521,-1628.453072,-383.047749
3943.522597,-7920.203579,-1554.432478,0.000000
3943.522927,-7402.059420,-1406.391290,0.000000
3943.523257,-8216.285956,-814.226536,0.000000
3943.523587,-9030.512492,0.000000,-306.438199
3943.523917,-10140.821405,888.247130,-766.095498
3943.524247,-11325.150913,1628.453072,-153.219100
3943.524577,-12435.459826,2072.576638,76.609550
3943.524907,-12287.418637,1628.453072,612.876398
3943.525237,-10955.047942,740.205942,612.876398
3943.525566,-9622.677246,0.000000,306.438199
3943.525896,-9252.574275,-962.267725,76.609550
3943.526226,-8512.368333,-1628.453072,612.876398
3943.526556,-7846.182985,-1850.514855,1072.533697
3943.526886,-7328.038826,-1850.514855,1838.629195
3943.527216,-8290.306550,-740.205942,1838.629195
3943.527546,-10140.821405,296.082377,1838.629195
3943.527876,-11547.212695,1332.370696,229.828649
3943.528206,-11843.295072,1628.453072,-995.924147
3943.528536,-11991.336260,2220.617826,-766.095498
3943.528866,-11917.315666,1776.494261,153.219100
3943.529195,-11103.089130,1332.370696,842.705048
3943.529525,-9622.677246,74.020594,0.000000
3943.529855,-8734.430116,-1184.329507,-383.047749
3943.530185,-8364.327145,-1628.453072,-1072.533697
3943.530515,-7994.224174,-1850.514855,0.000000
3943.530845,-7254.018232,-1998.556043,229.828649
3943.531175,-7105.977043,-1332.370696,842.705048
3943.531505,-8882.471304,0.000000,995.924147
3943.531835,-10362.883188,592.164754,689.485948
3943.532165,-11621.233289,1554.432478,766.095498
3943.532495,-12509.480420,2146.597232,383.047749
3943.532824,-12435.459826,1924.535449,383.047749
3943.533154,-11177.109724,1036.288319,0.000000
3943.533484,-9696.697840,296.082377,-612.876398
3943.533814,-8956.491898,-888.247130,-1149.143247
3943.534144,-8364.327145,-1110.308913,-689.485948
3943.534474,-7550.100608,-1406.391290,-689.485948
3943.534804,-7402.059420,-1258.350101,-459.657299
3943.535134,-7920.203579,-444.123565,0.000000
3943.535464,-9918.759623,740.205942,76.609550
3943.535794,-10955.047942,1406.391290,76.609550
3943.536124,-11547.212695,1332.370696,153.219100
3943.536453,-12139.377449,1702.473667,612.876398
3943.536783,-12065.356855,1628.453072,1225.752797
3943.537113,-11103.089130,666.185348,1302.362347
3943.537443,-9770.718434,0.000000,383.047749
3943.537773,-8956.491898,-1036.288319,-76.609550
3943.538103,-8512.368333,-1406.391290,-306.438199
3943.538433,-7698.141797,-1850.514855,76.609550
3943.538763,-7550.100608,-1258.350101,0.000000
3943.539093,-8142.265362,-296.082377,-229.828649
3943.539423,-9252.574275,518.144159,-306.438199
3943.539753,-10140.821405,888.247130,-766.095498
3943.540082,-11695.253884,1850.514855,0.000000
3943.540412,-12435.459826,1850.514855,459.657299
3943.540742,-12139.377449,1776.494261,842.705048
3943.541072,-10584.944971,740.205942,153.219100
3943.541402,-9474.636058,0.000000,229.828649
3943.541732,-8734.430116,-1110.308913,-229.828649
3943.542062,-8586.388927,-1480.411884,459.657299
3943.542392,-7550.100608,-1628.453072,919.314598
3943.542722,-7328.038826,-1406.391290,1225.752797
3943.543052,-8660.409521,-518.144159,1762.019645
3943.543382,-10214.842000,296.082377,1072.533697
3943.543712,-11325.150913,1406.391290,0.000000
3943.544041,-11621.233289,1776.494261,-919.314598
3943.544371,-12139.377449,1850.514855,-612.876398
3943.544701,-11843.295072,1702.473667,383.047749
3943.545031,-10510.924376,740.205942,383.047749
3943.545361,-9030.512492,-222.061783,383.047749
3943.545691,-9030.512492,-1184.329507,-229.828649
3943.546021,-8068.244768,-1998.556043,0.000000
3943.546351,-7846.182985,-2072.576638,459.657299
3943.546681,-7402.059420,-1924.535449,153.219100
3943.547011,-8142.265362,-740.205942,76.609550
3943.547341,-9474.636058,74.020594,919.314598
3943.547670,-11177.109724,1258.350101,612.876398
3943.548000,-11917.315666,1628.453072,1378.971896
3943.548330,-12879.583391,1702.473667,1149.143247
3943.548660,-12213.398043,1702.473667,689.485948
3943.548990,-10214.842000,0.000000,-229.828649
3943.549320,-9474.636058,-444.123565,-459.657299
3943.549650,-8882.471304,-1184.329507,76.609550
3943.549980,-7920.203579,-1406.391290,229.828649
3943.550310,-7402.059420,-1628.453072,229.828649
3943.550640,-7624.121203,-1184.329507,0.000000
3943.550970,-8660.409521,0.000000,536.266849
3943.551299,-10584.944971,592.164754,229.828649
3943.551629,-11251.130318,1332.370696,0.000000
3943.551959,-11695.253884,1480.411884,612.876398
3943.552289,-12139.377449,1702.473667,766.095498
3943.552619,-11621.233289,962.267725,842.705048
3943.552949,-10288.862594,74.020594,383.047749
3943.553279,-9326.594869,-666.185348,-153.219100
3943.553609,-8586.388927,-1332.370696,-383.047749
3943.553939,-8216.285956,-1258.350101,0.000000
3943.554269,-7624.121203,-1554.432478,459.657299
3943.554599,-7624.121203,-962.267725,383.047749
3943.554928,-8882.471304,0.000000,-229.828649
3943.555258,-10436.903782,1110.308913,-1225.752797
3943.555588,-11103.089130,1258.350101,-306.438199
3943.555918,-12065.356855,1776.494261,612.876398
3943.556248,-12583.501014,1924.535449,1225.752797
3943.556578,-11547.212695,1554.432478,612.876398
3943.556908,-9770.718434,74.020594,306.438199
3943.557238,-9030.512492,-1036.288319,-306.438199
3943.557568,-8808.450710,-1406.391290,229.828649
3943.557898,-8290.306550,-1628.453072,995.924147
3943.558228,-7476.080014,-1776.494261,1532.190996
3943.558557,-7846.182985,-962.267725,1532.190996
3943.558887,-9474.636058,0.000000,1225.752797
3943.559217,-10955.047942,814.226536,153.219100
3943.559547,-11621.233289,1480.411884,-459.657299
3943.559877,-12361.439231,1998.556043,-766.095498
3943.560207,-12065.356855,1776.494261,76.609550
3943.560537,-11251.130318,1184.329507,459.657299
3943.560867,-9770.718434,444.123565,0.000000
3943.561197,-8734.430116,-444.123565,-1302.362347
3943.561527,-8512.368333,-1406.391290,-995.924147
3943.561857,-7772.162391,-2220.617826,-306.438199
3943.562187,-7328.038826,-1850.514855,229.828649
3943.562516,-7624.121203,-1110.308913,689.485948
3943.562846,-8438.347739,-222.061783,383.047749
3943.563176,-9770.718434,518.144159,612.876398
3943.563506,-11325.150913,1554.432478,536.266849
3943.563836,-12287.418637,1924.535449,1072.533697
3943.564166,-12731.542202,1998.556043,1072.533697
3943.564496,-11769.274478,1332.370696,459.657299
3943.564826,-9918.759623,370.102971,-612.876398
3943.565156,-9178.553681,-296.082377,-842.705048
3943.565486,-8586.388927,-814.226536,-1072.533697
3943.565816,-8216.285956,-962.267725,-612.876398
3943.566145,-7698.141797,-1110.308913,-383.047749
3943.566475,-8142.265362,-148.041188,0.000000
3943.566805,-9548.656652,370.102971,-383.047749
3943.567135,-10807.006753,1184.329507,-76.609550
3943.567465,-11325.150913,1406.391290,-229.828649
3943.567795,-11991.336260,1850.514855,689.485948
3943.568125,-11991.336260,2072.576638,1378.971896
3943.568455,-11029.068536,1036.288319,1225.752797
3943.568785,-10214.842000,296.082377,766.095498
3943.569115,-9400.615463,-518.144159,-459.657299
3943.569445,-8660.409521,-1258.350101,-229.828649
3943.569774,-7624.121203,-1850.514855,0.000000
3943.570104,-7254.018232,-1184.329507,306.438199
3943.570434,-8068.244768,-592.164754,0.000000
3943.570764,-8956.491898,296.082377,-459.657299
3943.571094,-9918.759623,1184.329507,-459.657299
3943.571424,-11103.089130,1628.453072,-306.438199
3943.571754,-12361.439231,1924.535449,459.657299
3943.572084,-12065.356855,1850.514855,842.705048
3943.572414,-10807.006753,888.247130,842.705048
3943.572744,-9326.594869,-296.082377,153.219100
3943.573074,-8956.491898,-1184.329507,-306.438199
3943.573403,-8438.347739,-1924.535449,-306.438199
3943.573733,-7698.141797,-1998.556043,1149.143247
3943.574063,-7328.038826,-1702.473667,1762.019645
3943.574393,-8216.285956,-888.247130,1991.848295
3943.574723,-9770.718434,0.000000,1532.190996
3943.575053,-11251.130318,1036.288319,0.000000
3943.575383,-11843.295072,1776.494261,-536.266849
3943.575713,-12065.356855,1702.473667,-612.876398
3943.576043,-12065.356855,1258.350101,459.657299
3943.576373,-11029.068536,888.247130,536.266849
3943.576703,-9622.677246,148.041188,0.000000
3943.577032,-9178.553681,-1110.308913,-1149.143247
3943.577362,-8438.347739,-1850.514855,-842.705048
3943.577692,-7994.224174,-1998.556043,76.609550
3943.578022,-7624.121203,-1998.556043,1378.971896
3943.578352,-8364.327145,-1406.391290,1302.362347
3943.578682,-9400.615463,-296.082377,1302.362347
3943.579012,-10807.006753,814.226536,1149.143247
3943.579342,-12139.377449,1036.288319,766.095498
3943.579672,-12731.542202,1554.432478,1149.143247
3943.580002,-12287.418637,1110.308913,689.485948
3943.580332,-10658.965565,296.082377,306.438199
3943.580662,-9400.615463,-222.061783,-383.047749
3943.580991,-8660.409521,-1184.329507,-153.219100
3943.581321,-8364.327145,-1406.391290,-229.828649
3943.581651,-7624.121203,-1702.473667,-76.609550
3943.581981,-7698.141797,-1332.370696,0.000000
3943.582311,-8586.388927,-370.102971,766.095498
3943.582641,-9918.759623,518.144159,612.876398
3943.582971,-10732.986159,666.185348,-76.609550
3943.583301,-11325.150913,1110.308913,0.000000
3943.583631,-11917.315666,1702.473667,306.438199
3943.583961,-11473.192101,1036.288319,1072.533697
3943.584291,-10436.903782,740.205942,995.924147
3943.584620,-9252.574275,-592.164754,153.219100
3943.584950,-8586.388927,-888.247130,-306.438199
3943.585280,-8586.388927,-1184.329507,0.000000
3943.585610,-7994.224174,-1258.350101,0.000000
3943.585940,-7772.162391,-814.226536,536.266849
3943.586270,-8512.368333,74.020594,76.609550
3943.586600,-9622.677246,962.267725,0.000000
3943.586930,-10658.965565,1406.391290,-919.314598
3943.587260,-11843.295072,2294.638420,-689.485948
3943.587590,-12435.459826,1924.535449,229.828649
3943.587920,-11917.315666,1776.494261,689.485948
3943.588249,-10362.883188,740.205942,229.828649
3943.588579,-9400.615463,-74.020594,0.000000
3943.588909,-9104.533087,-888.247130,76.609550
3943.589239,-8364.327145,-1406.391290,842.705048
3943.589569,-7772.162391,-1850.514855,919.314598
3943.589899,-7402.059420,-1332.370696,1532.190996
3943.590229,-8882.471304,-222.061783,1838.629195
3943.590559,-10584.944971,666.185348,1302.362347
3943.590889,-11251.130318,1554.432478,153.219100
3943.591219,-11843.295072,1998.556043,-995.924147
3943.591549,-11991.336260,2146.597232,-383.047749
3943.591878,-11769.274478,1628.453072,383.047749
3943.592208,-10362.883188,814.226536,536.266849
3943.592538,-9104.533087,-222.061783,-306.438199
3943.592868,-8734.430116,-1184.329507,-536.266849
3943.593198,-7772.162391,-1628.453072,-612.876398
3943.593528,-7624.121203,-1850.514855,0.000000
3943.593858,-7328.038826,-1628.453072,536.266849
3943.594188,-7846.182985,-740.205942,536.266849
3943.594518,-9400.615463,0.000000,1225.752797
3943.594848,-10732.986159,962.267725,1225.752797
3943.595178,-12213.398043,2072.576638,1302.362347
3943.595507,-13101.645173,1998.556043,995.924147
3943.595837,-12435.459826,1406.391290,306.438199
3943.596167,-10362.883188,592.164754,0.000000
3943.596497,-9178.553681,-296.082377,-689.485948
3943.596827,-8882.471304,-740.205942,-153.219100
3943.597157,-8216.285956,-1332.370696,-306.438199
3943.597487,-7550.100608,-1480.411884,-612.876398
3943.597817,-7772.162391,-962.267725,0.000000
3943.598147,-9104.533087,0.000000,536.266849
3943.598477,-10436.903782,518.144159,229.828649
3943.598807,-11473.192101,1406.391290,0.000000
3943.599137,-12065.356855,1554.432478,0.000000
3943.599466,-12213.398043,1850.514855,1149.143247
3943.599796,-11769.274478,962.267725,1455.581446
3943.600126,-10362.883188,74.020594,1149.143247
3943.600456,-9770.718434,-592.164754,383.047749
3943.600786,-9030.512492,-1332.370696,0.000000
3943.601116,-8290.306550,-1628.453072,383.047749
3943.601446,-7624.121203,-1702.473667,536.266849
3943.601776,-7846.182985,-1184.329507,229.828649
3943.602106,-8734.430116,-222.061783,-306.438199
3943.602436,-9548.656652,296.082377,-766.095498
3943.602766,-10807.006753,1036.288319,-459.657299
3943.603095,-11991.336260,1702.473667,306.438199
3943.603425,-12731.542202,1480.411884,1225.752797
3943.603755,-11399.171507,1332.370696,766.095498
3943.604085,-9474.636058,-222.061783,229.828649
3943.604415,-8808.450710,-962.267725,0.000000
3943.604745,-8808.450710,-1628.453072,76.609550
3943.605075,-8364.327145,-1850.514855,1072.533697
3943.605405,-7105.977043,-1998.556043,919.314598
3943.605734,-7698.141797,-1036.288319,1302.362347
3943.606064,-8956.491898,-148.041188,1225.752797
3943.606394,-10881.027347,592.164754,459.657299
3943.606724,-11769.274478,1332.370696,-536.266849
3943.607054,-12139.377449,2072.576638,-842.705048
3943.607384,-11917.315666,1850.514855,0.000000
3943.607714,-11325.150913,1480.411884,229.828649
3943.608043,-10140.821405,370.102971,306.438199
3943.608373,-9252.574275,-518.144159,-612.876398
3943.608703,-8660.409521,-1184.329507,-536.266849
3943.609033,-8142.265362,-1776.494261,-306.438199
3943.609363,-8142.265362,-1776.494261,689.485948
3943.609693,-8068.244768,-1036.288319,383.047749
3943.610022,-8734.430116,-74.020594,919.314598
3943.610352,-9992.780217,888.247130,995.924147
3943.610682,-11399.171507,1406.391290,1072.533697
3943.611012,-12879.583391,1998.556043,1302.362347
3943.611342,-13175.665768,2072.576638,1302.362347
3943.611672,-11473.192101,1184.329507,383.047749
3943.612001,-10066.800811,296.082377,-153.219100
3943.612331,-9252.574275,-222.061783,-842.705048
3943.612661,-8734.430116,-1036.288319,-689.485948
3943.612991,-7772.162391,-1332.370696,-612.876398
3943.613321,-7179.997637,-1628.453072,-383.047749
3943.613651,-7624.121203,-296.082377,153.219100
3943.613981,-9252.574275,296.082377,229.828649
3943.614310,-10807.006753,1036.288319,-76.609550
3943.614640,-11177.109724,1406.391290,0.000000
3943.614970,-11917.315666,1776.494261,153.219100
3943.615300,-11843.295072,1776.494261,1149.143247
3943.615630,-11251.130318,1184.329507,919.314598
3943.615960,-9918.759623,518.144159,459.657299
3943.616289,-8956.491898,-592.164754,-842.705048
3943.616619,-8586.388927,-1036.288319,-1149.143247
3943.616949,-8068.244768,-1628.453072,-383.047749
3943.617279,-7476.080014,-1036.288319,0.000000
3943.617609,-7846.182985,-666.185348,153.219100
3943.617939,-9030.512492,740.205942,-306.438199
3943.618268,-10214.842000,1258.350101,-689.485948
3943.618598,-11547.212695,2220.617826,0.000000
3943.618928,-12583.501014,2072.576638,612.876398
3943.619258,-12805.562797,2072.576638,1302.362347
3943.619588,-11177.109724,1258.350101,766.095498
3943.619918,-9918.759623,222.061783,459.657299
3943.620248,-9178.553681,-740.205942,0.000000
3943.620577,-8734.430116,-1406.391290,0.000000
3943.620907,-7772.162391,-1628.453072,536.266849
3943.621237,-7328.038826,-1554.432478,842.705048
3943.621567,-8216.285956,-666.185348,1532.190996
3943.621897,-9622.677246,74.020594,766.095498
3943.622227,-11029.068536,1110.308913,612.876398
3943.622556,-11695.253884,1628.453072,-689.485948
3943.622886,-11843.295072,1406.391290,-459.657299
3943.623216,-11769.274478,1332.370696,383.047749
3943.623546,-10881.027347,1332.370696,995.924147
3943.623876,-9548.656652,-370.102971,536.266849
3943.624206,-8808.450710,-1036.288319,-153.219100
3943.624535,-8438.347739,-1628.453072,-612.876398
3943.624865,-7846.182985,-2220.617826,612.876398
3943.625195,-7402.059420,-2220.617826,766.095498
3943.625525,-7994.224174,-1332.370696,1072.533697
3943.625855,-9030.512492,-444.123565,919.314598
3943.626185,-10140.821405,222.061783,919.314598
3943.626515,-11843.295072,1258.350101,919.314598
3943.626844,-12731.542202,1332.370696,919.314598
3943.627174,-12287.418637,814.226536,459.657299
3943.627504,-10955.047942,296.082377,76.609550
3943.627834,-9178.553681,-370.102971,-459.657299
3943.628164,-9030.512492,-1110.308913,-612.876398
3943.628494,-8438.347739,-1628.453072,-153.219100
3943.628823,-7846.182985,-1924.535449,306.438199
3943.629153,-7846.182985,-1554.432478,536.266849
3943.629483,-8734.430116,-666.185348,383.047749
3943.629813,-10436.903782,148.041188,919.314598
3943.630143,-11177.109724,962.267725,229.828649
3943.630473,-11917.315666,1480.411884,229.828649
3943.630802,-12065.356855,1406.391290,536.266849
3943.631132,-11621.233289,1036.288319,842.705048
3943.631462,-10436.903782,370.102971,383.047749
3943.631792,-9548.656652,-518.144159,0.000000
3943.632122,-8586.388927,-1480.411884,-76.609550
3943.632452,-8290.306550,-1850.514855,0.000000
3943.632782,-7772.162391,-1702.473667,1072.533697
3943.633111,-7772.162391,-1184.329507,1072.533697
3943.633441,-8512.368333,-370.102971,612.876398
3943.633771,-9696.697840,592.164754,0.000000
3943.634101,-10584.944971,1332.370696,-229.828649
3943.634431,-11843.295072,2146.597232,383.047749
3943.634761,-12213.398043,1628.453072,766.095498
3943.635090,-11843.295072,1554.432478,383.047749
3943.635420,-9918.759623,444.123565,0.000000
3943.635750,-8882.471304,-148.041188,-306.438199
3943.636080,-8586.388927,-1184.329507,0.000000
3943.636410,-8290.306550,-1480.411884,153.219100
3943.636740,-7476.080014,-1776.494261,995.924147
3943.637069,-7402.059420,-1406.391290,1378.971896
3943.637399,-9030.512492,-296.082377,1685.410096
3943.637729,-10214.842000,814.226536,153.219100
3943.638059,-11251.130318,1628.453072,-76.609550
3943.638389,-11695.253884,1998.556043,-995.924147
3943.638719,-11843.295072,2220.617826,-612.876398
3943.639049,-11473.192101,2294.638420,76.609550
3943.639378,-10288.862594,888.247130,229.828649
3943.639708,-9326.594869,0.000000,-383.047749
3943.640038,-8364.327145,-1110.308913,-919.314598
3943.640368,-8290.306550,-1332.370696,-1225.752797
3943.640698,-7550.100608,-1554.432478,-459.657299
3943.641028,-7328.038826,-1406.391290,383.047749
3943.641357,-8438.347739,-148.041188,612.876398
3943.641687,-9622.677246,740.205942,919.314598
3943.642017,-10658.965565,1258.350101,0.000000
3943.642347,-12361.439231,1924.535449,1149.143247
3943.642677,-13027.624579,1776.494261,919.314598
3943.643007,-12065.356855,1332.370696,612.876398
3943.643336,-9918.759623,444.123565,0.000000
3943.643666,-9030.512492,-148.041188,-459.657299
3943.643996,-8438.347739,-1332.370696,0.000000
3943.644326,-8290.306550,-1258.350101,306.438199
3943.644656,-7550.100608,-1702.473667,-459.657299
3943.644986,-7624.121203,-888.247130,-383.047749
3943.645316,-9622.677246,148.041188,0.000000
3943.645645,-10288.862594,666.185348,0.000000
3943.645975,-11029.068536,1110.308913,0.000000
3943.646305,-11843.295072,1702.473667,383.047749
3943.646635,-12583.501014,2220.617826,842.705048
3943.646965,-11325.150913,888.247130,995.924147
3943.647295,-10362.883188,296.082377,842.705048
3943.647624,-9548.656652,-888.247130,153.219100
3943.647954,-8586.388927,-1110.308913,229.828649
3943.648284,-8290.306550,-1850.514855,383.047749
3943.648614,-7920.203579,-1480.411884,459.657299
3943.648944,-7846.182985,-1036.288319,0.000000
3943.649274,-8734.430116,74.020594,-459.657299
3943.649603,-9992.780217,888.247130,-612.876398
3943.649933,-11103.089130,1850.514855,-536.266849
3943.650263,-12139.377449,2294.638420,536.266849
3943.650593,-12509.480420,1702.473667,612.876398
3943.650923,-11473.192101,962.267725,536.266849
3943.651253,-10288.862594,296.082377,-306.438199
3943.651583,-9178.553681,-814.226536,-229.828649
3943.651912,-8808.450710,-1258.350101,689.485948
3943.652242,-7772.162391,-1776.494261,1762.019645
3943.652572,-7254.018232,-1702.473667,1608.800546
3943.652902,-7698.141797,-962.267725,1532.190996
3943.653232,-9474.636058,0.000000,1225.752797
3943.653562,-10955.047942,1258.350101,0.000000
3943.653891,-11251.130318,1406.391290,-689.485948
3943.654221,-11843.295072,1998.556043,-612.876398
3943.654551,-11843.295072,1776.494261,76.609550
3943.654881,-11177.109724,1110.308913,383.047749
3943.655211,-9918.759623,222.061783,-306.438199
3943.655541,-9030.512492,-888.247130,-689.485948
3943.655870,-8586.388927,-1554.432478,-459.657299
3943.656200,-7920.203579,-2220.617826,153.219100
3943.656530,-7624.121203,-1998.556043,1149.143247
3943.656860,-7550.100608,-1776.494261,766.095498
3943.657190,-8660.409521,-592.164754,766.095498
3943.657520,-9770.718434,74.020594,612.876398
3943.657850,-11473.192101,666.185348,995.924147
3943.658179,-12657.521608,1332.370696,1608.800546
3943.658509,-12731.542202,1406.391290,1455.581446
3943.658839,-11547.212695,740.205942,766.095498
3943.659169,-9844.739029,-370.102971,-229.828649
3943.659499,-9178.553681,-666.185348,-689.485948
3943.659829,-8734.430116,-1480.411884,0.000000
3943.660158,-7550.100608,-1776.494261,306.438199
3943.660488,-7328.038826,-1554.432478,0.000000
3943.660818,-7846.182985,-666.185348,76.609550
3943.661148,-9178.553681,0.000000,-612.876398
3943.661478,-10510.924376,666.185348,-995.924147
3943.661808,-11103.089130,1036.288319,-383.047749
3943.662137,-11695.253884,1480.411884,1072.533697
3943.662467,-11843.295072,1184.329507,1149.143247
3943.662797,-11103.089130,592.164754,1455.581446
3943.663127,-10214.842000,-296.082377,536.266849
3943.663457,-9326.594869,-1110.308913,153.219100
3943.663787,-8512.368333,-1702.473667,153.219100
3943.664117,-7994.224174,-1702.473667,612.876398
3943.664446,-7698.141797,-1480.411884,536.266849
3943.664776,-8142.265362,-518.144159,229.828649
3943.665106,-8660.409521,814.226536,-1072.533697
3943.665436,-10288.862594,962.267725,-1072.533697
3943.665766,-11547.212695,2072.576638,-306.438199
3943.666096,-12213.398043,1850.514855,383.047749
3943.666425,-11695.253884,1332.370696,842.705048
3943.666755,-10732.986159,592.164754,689.485948
3943.667085,-9622.677246,-222.061783,76.609550
3943.667415,-9178.553681,-1036.288319,306.438199
3943.667745,-8438.347739,-1332.370696,689.485948
3943.668075,-7550.100608,-1628.453072,1149.143247
3943.668404,-7328.038826,-1480.411884,1378.971896
3943.668734,-8364.327145,-296.082377,1455.581446
3943.669064,-10066.800811,740.205942,536.266849
3943.669394,-11103.089130,1554.432478,-1378.971896
3943.669724,-11547.212695,2294.638420,-1378.971896
3943.670054,-11769.274478,2146.597232,-919.314598
3943.670384,-11843.295072,1998.556043,153.219100
3943.670713,-11103.089130,1258.350101,689.485948
3943.671043,-9918.759623,370.102971,0.000000
3943.671373,-9178.553681,-666.185348,-766.095498
3943.671703,-8364.327145,-1554.432478,-536.266849
3943.672033,-7698.141797,-2072.576638,0.000000
3943.672363,-7476.080014,-1628.453072,612.876398
3943.672692,-7846.182985,-740.205942,612.876398
3943.673022,-9104.533087,370.102971,229.828649
3943.673352,-10214.842000,666.185348,153.219100
3943.673682,-11695.253884,1850.514855,383.047749
3943.674012,-12805.562797,1850.514855,1149.143247
3943.674342,-12435.459826,1776.494261,1072.533697
3943.674671,-10955.047942,888.247130,229.828649
3943.675001,-9770.718434,0.000000,-76.609550
3943.675331,-8808.450710,-1258.350101,-919.314598
3943.675661,-8290.306550,-1554.432478,0.000000
3943.675991,-7624.121203,-1776.494261,612.876398
3943.676321,-7179.997637,-1184.329507,842.705048
3943.676651,-8068.244768,-666.185348,153.219100
3943.676980,-9548.656652,444.123565,-612.876398
3943.677310,-10732.986159,962.267725,-842.705048
3943.677640,-11547.212695,1332.370696,-229.828649
3943.677970,-12287.418637,1776.494261,766.095498
3943.678300,-11621.233289,888.247130,1838.629195
3943.678630,-10510.924376,296.082377,1302.362347
3943.678959,-9548.656652,-740.205942,383.047749
3943.679289,-8882.471304,-1258.350101,0.000000
3943.679619,-8512.368333,-2220.617826,459.657299
3943.679949,-7920.203579,-1776.494261,689.485948
3943.680279,-7698.141797,-1406.391290,536.266849
3943.680609,-8364.327145,-296.082377,0.000000
3943.680938,-9696.697840,592.164754,-766.095498
3943.681268,-10955.047942,1406.391290,-842.705048
3943.681598,-12139.377449,1850.514855,-383.047749
3943.681928,-12657.521608,1702.473667,536.266849
3943.682258,-11843.295072,1332.370696,919.314598
3943.682588,-10362.883188,148.041188,536.266849
3943.682918,-9622.677246,-740.205942,229.828649
3943.683247,-9104.533087,-1406.391290,229.828649
3943.683577,-8438.347739,-2072.576638,766.095498
3943.683907,-7698.141797,-2072.576638,1225.752797
3943.684237,-7550.100608,-1184.329507,1762.019645
3943.684567,-9178.553681,-222.061783,1915.238745
3943.684897,-10288.862594,296.082377,919.314598
3943.685226,-11547.212695,1554.432478,-995.924147
3943.685556,-11547.212695,1702.473667,-1302.362347
3943.685886,-11843.295072,1998.556043,-612.876398
3943.686216,-11177.109724,1332.370696,383.047749
3943.686546,-9844.739029,444.123565,612.876398
3943.686876,-9030.512492,-518.144159,0.000000
3943.687205,-8512.368333,-1406.391290,-919.314598
3943.687535,-7920.203579,-1924.535449,-689.485948
3943.687865,-7920.203579,-1850.514855,229.828649
3943.688195,-7476.080014,-1258.350101,536.266849
3943.688525,-8290.306550,-148.041188,842.705048
3943.688855,-9400.615463,148.041188,612.876398
3943.689185,-10807.006753,1036.288319,612.876398
3943.689514,-11621.233289,1998.556043,689.485948
3943.689844,-12583.501014,1776.494261,689.485948
3943.690174,-11547.212695,1184.329507,612.876398
3943.690504,-10214.842000,296.082377,0.000000
3943.690834,-9104.533087,74.020594,0.000000
3943.691164,-8512.368333,-1110.308913,-306.438199
3943.691493,-7920.203579,-1406.391290,-536.266849
3943.691823,-7624.121203,-1406.391290,-306.438199
3943.692153,-8068.244768,-518.144159,-306.438199
3943.692483,-8956.491898,148.041188,-306.438199
3943.692813,-10362.883188,1110.308913,-689.485948
3943.693143,-11325.150913,1702.473667,-689.485948
3943.693472,-11843.295072,1850.514855,0.000000
3943.693802,-12139.377449,2072.576638,766.095498
3943.694132,-11473.192101,1036.288319,1149.143247
3943.694462,-10510.924376,296.082377,919.314598
3943.694792,-9548.656652,-740.205942,306.438199
3943.695122,-8734.430116,-1406.391290,0.000000
3943.695452,-8216.285956,-1702.473667,536.266849
3943.695781,-7550.100608,-1480.411884,459.657299
3943.696111,-7920.203579,-962.267725,76.609550
3943.696441,-8956.491898,222.061783,-536.266849
3943.696771,-10140.821405,1036.288319,-459.657299
3943.697101,-11325.150913,1628.453072,-229.828649
3943.697431,-12287.418637,1924.535449,153.219100
3943.697760,-12583.501014,1998.556043,766.095498
3943.698090,-11325.150913,1036.288319,383.047749
3943.698420,-9844.739029,-74.020594,229.828649
3943.698750,-8956.491898,-1258.350101,0.000000
3943.699080,-8438.347739,-1776.494261,0.000000
3943.699410,-8216.285956,-1702.473667,306.438199
3943.699739,-7476.080014,-1924.535449,1149.143247
3943.700069,-8068.244768,-888.247130,1532.190996
3943.700399,-9770.718434,0.000000,842.705048
3943.700729,-10732.986159,1406.391290,0.000000
3943.701059,-11547.212695,1480.411884,-383.047749
3943.701389,-11917.315666,1924.535449,-536.266849
3943.701719,-12213.398043,1850.514855,-76.609550
3943.702048,-10658.965565,740.205942,0.000000
3943.702378,-9474.636058,370.102971,-459.657299
3943.702708,-8956.491898,-1036.288319,0.000000
3943.703038,-8660.409521,-1554.432478,-383.047749
3943.703368,-7994.224174,-1776.494261,0.000000
3943.703696,-7105.977043,-1554.432478,459.657299
3943.704026,-7698.141797,-1332.370696,536.266849
3943.704356,-9178.553681,0.000000,612.876398
3943.704686,-10214.842000,444.123565,689.485948
3943.705016,-11177.109724,1776.494261,153.219100
3943.705345,-12583.501014,1924.535449,766.095498
3943.705675,-12879.583391,2072.576638,612.876398
3943.706005,-11251.130318,740.205942,0.000000
3943.706335,-9918.759623,0.000000,-383.047749
3943.706665,-8734.430116,-814.226536,0.000000
3943.706994,-8364.327145,-1110.308913,459.657299
3943.707324,-7920.203579,-1258.350101,536.266849
3943.707654,-7179.997637,-1184.329507,153.219100
3943.707984,-8068.244768,-222.061783,-383.047749
3943.708314,-9696.697840,222.061783,-766.095498
3943.708643,-10658.965565,1036.288319,-919.314598
3943.708973,-11251.130318,1628.453072,0.000000
3943.709303,-11251.130318,1776.494261,536.266849
3943.709633,-11695.253884,1184.329507,1532.190996
3943.709963,-10807.006753,592.164754,1072.533697
3943.710293,-9844.739029,-370.102971,459.657299
3943.710622,-9030.512492,-814.226536,-459.657299
3943.710952,-8586.388927,-1480.411884,612.876398
3943.711282,-7772.162391,-1702.473667,612.876398
3943.711612,-7698.141797,-1184.329507,766.095498
3943.711942,-8290.306550,-148.041188,0.000000
3943.712271,-9178.553681,444.123565,-919.314598
3943.712601,-10510.924376,1332.370696,-1225.752797
3943.712931,-11695.253884,1998.556043,-612.876398
3943.713261,-12213.398043,2072.576638,919.314598
3943.713591,-12361.439231,1924.535449,766.095498
3943.713920,-10510.924376,592.164754,306.438199
3943.714250,-9474.636058,-370.102971,-459.657299
3943.714580,-9030.512492,-1406.391290,-229.828649
3943.714910,-8364.327145,-1332.370696,153.219100
3943.715240,-7476.080014,-1924.535449,1302.362347
3943.715570,-7105.977043,-1554.432478,1608.800546
3943.715899,-8512.368333,-370.102971,1608.800546
3943.716229,-9992.780217,296.082377,919.314598
3943.716559,-11251.130318,1406.391290,-153.219100
3943.716889,-11843.295072,1850.514855,-536.266849
3943.717219,-12435.459826,2072.576638,-229.828649
3943.717548,-11917.315666,1480.411884,383.047749
3943.717878,-10214.842000,814.226536,306.438199
3943.718208,-9400.615463,-444.123565,-383.047749
3943.718538,-9178.553681,-1184.329507,-766.095498
3943.718868,-8290.306550,-1776.494261,-536.266849
3943.719197,-7698.141797,-1702.473667,0.000000
3943.719527,-7179.997637,-1702.473667,383.047749
3943.719857,-8142.265362,-814.226536,689.485948
3943.720187,-9252.574275,0.000000,612.876398
3943.720517,-10732.986159,518.144159,612.876398
3943.720846,-12139.377449,1776.494261,1455.581446
3943.721176,-12953.603985,1850.514855,1532.190996
3943.721506,-12361.439231,1406.391290,1072.533697
3943.721836,-10584.944971,666.185348,0.000000
3943.722166,-9400.615463,148.041188,-229.828649
3943.722496,-8808.450710,-1110.308913,-612.876398
3943.722825,-8068.244768,-1258.350101,0.000000
3943.723155,-7254.018232,-1702.473667,0.000000
3943.723485,-7105.977043,-740.205942,0.000000
3943.723815,-8808.450710,148.041188,-76.609550
3943.724145,-10288.862594,666.185348,-383.047749
3943.724474,-11029.068536,1258.350101,-689.485948
3943.724804,-11177.109724,1776.494261,76.609550
3943.725134,-11843.295072,1702.473667,766.095498
3943.725464,-11621.233289,1258.350101,1838.629195
3943.725794,-10658.965565,518.144159,919.314598
3943.726123,-9474.636058,-296.082377,383.047749
3943.726453,-8956.491898,-740.205942,76.609550
3943.726783,-8068.244768,-1850.514855,383.047749
3943.727113,-7550.100608,-1554.432478,536.266849
3943.727443,-7476.080014,-1036.288319,612.876398
3943.727773,-8216.285956,370.102971,0.000000
3943.728102,-9622.677246,1036.288319,-995.924147
3943.728432,-10955.047942,1628.453072,-766.095498
3943.728762,-12139.377449,2294.638420,-153.219100
3943.729092,-12139.377449,2072.576638,1149.143247
3943.729422,-11325.150913,1184.329507,1072.533697
3943.729751,-9992.780217,222.061783,306.438199
3943.730081,-9326.594869,-666.185348,0.000000
3943.730411,-8882.471304,-1332.370696,0.000000
3943.730741,-8068.244768,-1776.494261,1149.143247
3943.731071,-7550.100608,-1924.535449,1455.581446
3943.731400,-7698.141797,-1184.329507,1608.800546
3943.731730,-9178.553681,-296.082377,1378.971896
3943.732060,-10732.986159,296.082377,76.609550
3943.732390,-11399.171507,1406.391290,-536.266849
3943.732720,-12139.377449,2072.576638,-919.314598
3943.733050,-12139.377449,1850.514855,-306.438199
3943.733379,-11399.171507,1554.432478,153.219100
3943.733709,-9770.718434,370.102971,153.219100
3943.734039,-9030.512492,-592.164754,-306.438199
3943.734369,-8364.327145,-1406.391290,-1149.143247
3943.734699,-8290.306550,-1924.535449,-919.314598
3943.735028,-7476.080014,-1998.556043,229.828649
3943.735358,-8068.244768,-1480.411884,1072.533697
3943.735688,-8734.430116,-888.247130,919.314598
3943.736018,-9770.718434,0.000000,842.705048
3943.736348,-11177.109724,1110.308913,306.438199
3943.736677,-12583.501014,1998.556043,995.924147
3943.737007,-12879.583391,1776.494261,995.924147
3943.737337,-11621.233289,1184.329507,306.438199
3943.737667,-10140.821405,888.247130,-459.657299
3943.737997,-9252.574275,-518.144159,-766.095498
3943.738326,-8586.388927,-1184.329507,-383.047749
3943.738656,-7994.224174,-1406.391290,-383.047749
3943.738986,-7698.141797,-1776.494261,-842.705048
3943.739316,-7772.162391,-888.247130,-306.438199
3943.739646,-8882.471304,0.000000,0.000000
3943.739976,-10510.924376,814.226536,0.000000
3943.740305,-11029.068536,1110.308913,0.000000
3943.740635,-11843.295072,1554.432478,536.266849
3943.740965,-12287.418637,1702.473667,1608.800546
3943.741295,-11251.130318,888.247130,1608.800546
3943.741625,-10288.862594,296.082377,612.876398
3943.741954,-9400.615463,-296.082377,0.000000
3943.742284,-8734.430116,-1406.391290,76.609550
3943.742614,-7920.203579,-1628.453072,153.219100
3943.742944,-7698.141797,-1332.370696,459.657299
3943.743274,-7624.121203,-592.164754,-229.828649
3943.743603,-8808.450710,444.123565,-306.438199
3943.743933,-10066.800811,1184.329507,-612.876398
3943.744263,-11473.192101,2146.597232,-383.047749
3943.744593,-12139.377449,2294.638420,306.438199
3943.744923,-12509.480420,2072.576638,1149.143247
3943.745253,-11325.150913,1036.288319,842.705048
3943.745582,-9844.739029,74.020594,153.219100
3943.745912,-9178.553681,-888.247130,-383.047749
3943.746242,-8142.265362,-1406.391290,306.438199
3943.746572,-7846.182985,-1702.473667,459.657299
3943.746902,-7328.038826,-1776.494261,766.095498
3943.747231,-7772.162391,-814.226536,1149.143247
3943.747561,-9252.574275,296.082377,919.314598
3943.747891,-10807.006753,740.205942,306.438199
3943.748221,-11399.171507,1406.391290,-766.095498
3943.748551,-11843.295072,1924.535449,-383.047749
3943.748880,-11843.295072,1776.494261,459.657299
3943.749210,-11103.089130,1036.288319,689.485948
3943.749540,-9844.739029,74.020594,153.219100
3943.749870,-9104.533087,-888.247130,-842.705048
3943.750200,-8364.327145,-1628.453072,-459.657299
3943.750530,-7846.182985,-2072.576638,-383.047749
3943.750859,-7550.100608,-1850.514855,459.657299
3943.751189,-7772.162391,-1036.288319,536.266849
3943.751519,-8956.491898,-370.102971,842.705048
3943.751849,-9844.739029,296.082377,153.219100
3943.752179,-11769.274478,1554.432478,459.657299
3943.752508,-12657.521608,1554.432478,689.485948
3943.752838,-12805.562797,1702.473667,689.485948
3943.753168,-11251.130318,1036.288319,-459.657299
3943.753498,-9770.718434,0.000000,-536.266849
3943.753828,-8882.471304,-1036.288319,-229.828649
3943.754157,-8290.306550,-1406.391290,0.000000
3943.754487,-7846.182985,-1776.494261,76.609550
3943.754817,-7328.038826,-1480.411884,-153.219100
3943.755147,-8216.285956,-666.185348,-229.828649
3943.755477,-9696.697840,148.041188,0.000000
3943.755806,-11029.068536,962.267725,-153.219100
3943.756136,-11621.233289,1036.288319,-383.047749
3943.756466,-11991.336260,1628.453072,842.705048
3943.756796,-11843.295072,1406.391290,919.314598
3943.757126,-10955.047942,814.226536,689.485948
3943.757456,-9844.739029,74.020594,76.609550
3943.757785,-8956.491898,-1184.329507,-153.219100
3943.758115,-8660.409521,-1480.411884,383.047749
3943.758445,-7920.203579,-1702.473667,689.485948
3943.758775,-7846.182985,-1110.308913,459.657299
3943.759105,-8586.388927,-148.041188,0.000000
3943.759434,-9474.636058,814.226536,-842.705048
3943.759764,-10436.903782,1258.350101,-612.876398
3943.760094,-11695.253884,2072.576638,0.000000
3943.760424,-12213.398043,2220.617826,306.438199
3943.760754,-12065.356855,1924.535449,842.705048
3943.761083,-10658.965565,888.247130,612.876398
3943.761413,-9252.574275,-296.082377,0.000000
3943.761743,-8660.409521,-1406.391290,306.438199
3943.762073,-8216.285956,-1628.453072,536.266849
3943.762403,-7772.162391,-1628.453072,842.705048
3943.762733,-7254.018232,-1628.453072,1072.533697
3943.763062,-8586.388927,-592.164754,1302.362347
3943.763392,-9918.759623,296.082377,536.266849
3943.763722,-10510.924376,1406.391290,-229.828649
3943.764052,-11695.253884,1850.514855,-689.485948
3943.764382,-11843.295072,1850.514855,-459.657299
3943.764711,-11843.295072,1702.473667,536.266849
3943.765041,-10881.027347,1110.308913,612.876398
3943.765371,-9474.636058,-74.020594,-153.219100
3943.765701,-9030.512492,-1110.308913,-459.657299
3943.766031,-8216.285956,-1258.350101,-612.876398
3943.766360,-7920.203579,-2072.576638,229.828649
3943.766690,-7254.018232,-1702.473667,612.876398
3943.767020,-8216.285956,-666.185348,612.876398
3943.767350,-9030.512492,222.061783,229.828649
3943.767680,-10955.047942,962.267725,306.438199
3943.768009,-11991.336260,1850.514855,1378.971896
3943.768339,-12805.562797,1554.432478,1302.362347
3943.768669,-11991.336260,1702.473667,536.266849
3943.768999,-10436.903782,666.185348,-153.219100
3943.769329,-9622.677246,-296.082377,-459.657299
3943.769659,-8734.430116,-1332.370696,-459.657299
3943.769988,-8512.368333,-1406.391290,0.000000
3943.770318,-7550.100608,-1702.473667,-306.438199
3943.770648,-7476.080014,-1258.350101,0.000000
3943.770978,-8956.491898,-148.041188,76.609550
3943.771308,-10214.842000,444.123565,153.219100
3943.771637,-10955.047942,962.267725,153.219100
3943.771967,-11843.295072,1406.391290,0.000000
3943.772297,-11991.336260,1702.473667,612.876398
3943.772627,-11843.295072,1110.308913,1225.752797
3943.772957,-10584.944971,222.061783,1302.362347
3943.773286,-9474.636058,-666.185348,0.000000
3943.773616,-8808.450710,-1628.453072,0.000000
3943.773946,-8216.285956,-1702.473667,459.657299
3943.774276,-7920.203579,-1332.370696,612.876398
3943.774606,-7624.121203,-1184.329507,459.657299
3943.774936,-8660.409521,0.000000,229.828649
3943.775265,-9696.697840,740.205942,-306.438199
3943.775595,-11029.068536,1480.411884,-153.219100
3943.775925,-11917.315666,1924.535449,153.219100
3943.776255,-12583.501014,1776.494261,842.705048
3943.776585,-11251.130318,962.267725,612.876398
3943.776914,-10214.842000,0.000000,229.828649
3943.777244,-8956.491898,-666.185348,0.000000
3943.777574,-8364.327145,-1406.391290,0.000000
3943.777904,-8068.244768,-1776.494261,612.876398
3943.778234,-7179.997637,-2072.576638,842.705048
3943.778563,-7624.121203,-1036.288319,1455.581446
3943.778893,-8882.471304,74.020594,1685.410096
3943.779223,-10510.924376,1036.288319,536.266849
3943.779553,-11473.192101,1702.473667,-459.657299
3943.779883,-11843.295072,2368.659014,-995.924147
3943.780213,-11843.295072,1702.473667,383.047749
3943.780542,-11399.171507,1406.391290,459.657299
3943.780872,-9696.697840,370.102971,612.876398
3943.781202,-8734.430116,-666.185348,-536.266849
3943.781532,-8216.285956,-1036.288319,0.000000
3943.781862,-7920.203579,-1702.473667,-612.876398
3943.782191,-7550.100608,-1702.473667,0.000000
3943.782521,-7624.121203,-1406.391290,459.657299
3943.782851,-8512.368333,-370.102971,766.095498
3943.783181,-9844.739029,296.082377,1072.533697
3943.783511,-11695.253884,1258.350101,1072.533697
3943.783840,-12583.501014,1702.473667,1225.752797
3943.784170,-12509.480420,1628.453072,689.485948
3943.784500,-11843.295072,1406.391290,0.000000
3943.784830,-9918.759623,148.041188,0.000000
3943.785160,-8882.471304,-740.205942,-766.095498
3943.785489,-8438.347739,-1110.308913,0.000000
3943.785819,-7698.141797,-1110.308913,383.047749
3943.786149,-7550.100608,-1776.494261,-306.438199
3943.786479,-7920.203579,-740.205942,-766.095498
3943.786809,-9178.553681,74.020594,-383.047749
3943.787139,-10658.965565,962.267725,0.000000
3943.787468,-11325.150913,1702.473667,76.609550
3943.787798,-11769.274478,1554.432478,306.438199
3943.788128,-12065.356855,1776.494261,995.924147
3943.788458,-11621.233289,1036.288319,1149.143247
3943.788788,-10288.862594,148.041188,383.047749
3943.789117,-9178.553681,-740.205942,0.000000
3943.789447,-8290.306550,-1554.432478,0.000000
3943.789777,-8142.265362,-1480.411884,536.266849
3943.790107,-7476.080014,-814.226536,612.876398
3943.790437,-7994.224174,-592.164754,0.000000
3943.790766,-9104.533087,518.144159,-459.657299
3943.791096,-10658.965565,1554.432478,-383.047749
3943.791426,-11769.274478,1702.473667,0.000000
3943.791756,-12435.459826,2072.576638,383.047749
3943.792086,-12287.418637,1628.453072,612.876398
3943.792416,-11251.130318,740.205942,306.438199
3943.792745,-9622.677246,-148.041188,0.000000
3943.793075,-8586.388927,-1110.308913,-459.657299
3943.793405,-8216.285956,-1554.432478,76.609550
3943.793735,-7920.203579,-1924.535449,1225.752797
3943.794065,-7550.100608,-1850.514855,1302.362347
3943.794394,-7994.224174,-888.247130,1532.190996
3943.794724,-9548.656652,0.000000,1225.752797
3943.795054,-10807.006753,888.247130,153.219100
3943.795384,-11695.253884,1480.411884,-306.438199
3943.795714,-11769.274478,1850.514855,-153.219100
3943.796043,-11621.233289,1628.453072,383.047749
3943.796373,-10732.986159,1036.288319,689.485948
3943.796703,-9400.615463,-148.041188,0.000000
3943.797033,-8586.388927,-1036.288319,-1225.752797
3943.797363,-7920.203579,-1850.514855,-766.095498
3943.797693,-7476.080014,-2072.576638,0.000000
3943.798022,-7550.100608,-1702.473667,383.047749
3943.798352,-7772.162391,-962.267725,153.219100
3943.798682,-8586.388927,-222.061783,153.219100
3943.799012,-10362.883188,370.102971,842.705048
3943.799342,-11695.253884,1258.350101,1225.752797
3943.799671,-12435.459826,1480.411884,1225.752797
3943.800001,-12065.356855,1332.370696,306.438199
3943.800331,-10955.047942,814.226536,0.000000
3943.800661,-9770.718434,0.000000,-383.047749
3943.800991,-8956.491898,-962.267725,-306.438199
3943.801320,-8068.244768,-1406.391290,0.000000
3943.801650,-7846.182985,-1702.473667,0.000000
3943.801980,-7846.182985,-1184.329507,-153.219100
3943.802310,-8364.327145,-962.267725,0.000000
3943.802640,-9844.739029,74.020594,0.000000
3943.802969,-10732.986159,814.226536,-153.219100
3943.803299,-11621.233289,1480.411884,306.438199
3943.803629,-12065.356855,1406.391290,1149.143247
3943.803959,-12065.356855,1332.370696,1378.971896
3943.804289,-10732.986159,444.123565,842.705048
3943.804619,-10066.800811,-296.082377,0.000000
3943.804948,-9178.553681,-1332.370696,-459.657299
3943.805278,-8142.265362,-1850.514855,0.000000
3943.805608,-7328.038826,-1776.494261,995.924147
3943.805938,-7772.162391,-1332.370696,612.876398
3943.806268,-8438.347739,-148.041188,229.828649
3943.806597,-9326.594869,444.123565,76.609550
3943.806927,-11029.068536,1258.350101,-459.657299
3943.807257,-11843.295072,1924.535449,0.000000
3943.807587,-12509.480420,2294.638420,1072.533697
3943.807916,-11843.295072,1554.432478,689.485948
3943.808246,-10362.883188,740.205942,0.000000
3943.808576,-9252.574275,0.000000,-919.314598
3943.808906,-8660.409521,-1036.288319,-612.876398
3943.809235,-7994.224174,-1554.432478,0.000000
3943.809565,-7254.018232,-1776.494261,919.314598
3943.809895,-7254.018232,-888.247130,842.705048
3943.810225,-8882.471304,-370.102971,1838.629195
3943.810554,-10510.924376,814.226536,612.876398
3943.810884,-11399.171507,1480.411884,-153.219100
3943.811214,-11991.336260,1998.556043,-689.485948
3943.811544,-11991.336260,2294.638420,-153.219100
3943.811874,-11473.192101,1850.514855,689.485948
3943.812203,-10510.924376,1036.288319,229.828649
3943.812533,-9400.615463,0.000000,0.000000
3943.812863,-8364.327145,-666.185348,-919.314598
3943.813193,-7994.224174,-1184.329507,-612.876398
3943.813522,-7476.080014,-1480.411884,76.609550
3943.813852,-7624.121203,-1702.473667,842.705048
3943.814182,-7920.203579,-814.226536,1072.533697
3943.814512,-9474.636058,296.082377,919.314598
3943.814841,-11251.130318,888.247130,612.876398
3943.815171,-12361.439231,1998.556043,842.705048
3943.815501,-12361.439231,1850.514855,1302.362347
3943.815831,-11843.295072,1702.473667,612.876398
3943.816160,-10362.883188,740.205942,0.000000
3943.816490,-9326.594869,-296.082377,-766.095498
3943.816820,-8586.388927,-1184.329507,-383.047749
3943.817150,-7994.224174,-1850.514855,-229.828649
3943.817480,-7105.977043,-1850.514855,-306.438199
3943.817809,-7698.141797,-1258.350101,0.000000
3943.818139,-8882.471304,-370.102971,76.609550
3943.818469,-10066.800811,518.144159,383.047749
3943.818799,-11177.109724,814.226536,-153.219100
3943.819128,-11917.315666,1184.329507,612.876398
3943.819458,-12213.398043,1332.370696,1378.971896
3943.819788,-11473.192101,1184.329507,1685.410096
3943.820118,-10436.903782,222.061783,995.924147
3943.820447,-9548.656652,-962.267725,-229.828649
3943.820777,-8734.430116,-1554.432478,-536.266849
3943.821107,-8142.265362,-2072.576638,76.609550
3943.821437,-7772.162391,-1998.556043,536.266849
3943.821766,-8216.285956,-1184.329507,76.609550
3943.822096,-8660.409521,-74.020594,0.000000
3943.822426,-10140.821405,1110.308913,-766.095498
3943.822756,-11251.130318,1406.391290,0.000000
3943.823086,-12509.480420,1924.535449,459.657299
3943.823415,-12805.562797,1628.453072,612.876398
3943.823745,-11399.171507,1184.329507,766.095498
3943.824075,-9696.697840,0.000000,0.000000
3943.824405,-9178.553681,-962.267725,-612.876398
3943.824734,-8660.409521,-1554.432478,0.000000
3943.825064,-7846.182985,-1998.556043,306.438199
3943.825394,-7254.018232,-1776.494261,995.924147
3943.825724,-7846.182985,-962.267725,1455.581446
3943.826053,-9474.636058,148.041188,1532.190996
3943.826383,-10955.047942,814.226536,306.438199
3943.826713,-11769.274478,1628.453072,-306.438199
3943.827043,-11473.192101,1776.494261,-536.266849
3943.827372,-12065.356855,1702.473667,229.828649
3943.827702,-11103.089130,1332.370696,612.876398
3943.828032,-10140.821405,444.123565,229.828649
3943.828362,-8438.347739,-444.123565,-842.705048
3943.828692,-7920.203579,-1480.411884,-995.924147
3943.829021,-7476.080014,-1998.556043,-383.047749
3943.829351,-7402.059420,-1554.432478,459.657299
3943.829681,-7846.182985,-1184.329507,459.657299
3943.830011,-8808.450710,0.000000,842.705048
3943.830340,-9844.739029,518.144159,766.095498
3943.830670,-11621.233289,1332.370696,919.314598
3943.831000,-12139.377449,1924.535449,919.314598
3943.831330,-12731.542202,1702.473667,1072.533697
3943.831659,-11843.295072,1480.411884,306.438199
3943.831989,-9918.759623,444.123565,-383.047749
3943.832319,-9030.512492,-518.144159,-919.314598
3943.832649,-8068.244768,-888.247130,-459.657299
3943.832978,-7920.203579,-1702.473667,-383.047749
3943.833308,-7476.080014,-1554.432478,-229.828649
3943.833638,-7624.121203,-814.226536,0.000000
3943.833968,-8660.409521,0.000000,383.047749
3943.834298,-10881.027347,888.247130,0.000000
3943.834627,-11473.192101,1184.329507,0.000000
3943.834957,-12139.377449,1480.411884,919.314598
3943.835287,-12213.398043,1480.411884,1455.581446
3943.835617,-11695.253884,814.226536,1225.752797
3943.835946,-10066.800811,74.020594,536.266849
3943.836276,-9104.533087,-814.226536,-612.876398
3943.836606,-8364.327145,-1628.453072,-383.047749
3943.836936,-7920.203579,-1998.556043,153.219100
3943.837265,-7920.203579,-1480.411884,306.438199
3943.837595,-8068.244768,-1036.288319,76.609550
3943.837925,-9104.533087,222.061783,0.000000
3943.838255,-10066.800811,814.226536,-459.657299
3943.838584,-11769.274478,1924.535449,0.000000
3943.838914,-12509.480420,1702.473667,842.705048
3943.839244,-12139.377449,1702.473667,995.924147
3943.839574,-11103.089130,888.247130,459.657299
3943.839904,-9770.718434,74.020594,-229.828649
3943.840233,-8956.491898,-1036.288319,-153.219100
3943.840563,-8364.327145,-1702.473667,0.000000
3943.840893,-7624.121203,-1628.453072,612.876398
3943.841223,-7328.038826,-1480.411884,1225.752797
3943.841552,-8142.265362,-888.247130,1455.581446
3943.841882,-9696.697840,148.041188,919.314598
3943.842212,-10955.047942,1184.329507,0.000000
3943.842542,-11621.233289,2220.617826,-306.438199
3943.842871,-11695.253884,2072.576638,-76.609550
3943.843201,-11769.274478,1776.494261,536.266849
3943.843531,-10807.006753,1258.350101,536.266849
3943.843861,-9548.656652,0.000000,383.047749
3943.844190,-8586.388927,-592.164754,-766.095498
3943.844520,-8438.347739,-1480.411884,-689.485948
3943.844850,-7994.224174,-1480.411884,76.609550
3943.845180,-7476.080014,-1480.411884,536.266849
3943.845510,-7846.182985,-1110.308913,766.095498
3943.845839,-9252.574275,0.000000,766.095498
3943.846169,-10658.965565,888.247130,612.876398
3943.846499,-11991.336260,1702.473667,919.314598
3943.846829,-12583.501014,1702.473667,1225.752797
3943.847158,-12213.398043,1554.432478,842.705048
3943.847488,-11103.089130,962.267725,459.657299
3943.847818,-9474.636058,148.041188,-459.657299
3943.848148,-8438.347739,-1184.329507,0.000000
3943.848477,-8216.285956,-1406.391290,-306.438199
3943.848807,-7402.059420,-1850.514855,-229.828649
3943.849137,-7179.997637,-1480.411884,0.000000
3943.849467,-8438.347739,-518.144159,383.047749
3943.849796,-9992.780217,148.041188,459.657299
3943.850126,-10807.006753,814.226536,153.219100
3943.850456,-11695.253884,1258.350101,536.266849
3943.850786,-11991.336260,1628.453072,919.314598
3943.851116,-11769.274478,888.247130,1455.581446
3943.851445,-10881.027347,592.164754,995.924147
3943.851775,-9474.636058,-592.164754,0.000000
3943.852105,-8734.430116,-1332.370696,-383.047749
3943.852435,-8142.265362,-2072.576638,153.219100
3943.852764,-7772.162391,-2146.597232,536.266849
3943.853094,-7476.080014,-1480.411884,383.047749
3943.853424,-8142.265362,-592.164754,-306.438199
3943.853754,-9992.780217,444.123565,-383.047749
3943.854083,-11177.109724,1036.288319,-459.657299
3943.854413,-11991.336260,1702.473667,0.000000
3943.854743,-12509.480420,1850.514855,919.314598
3943.855073,-11843.295072,1480.411884,689.485948
3943.855402,-10510.924376,148.041188,229.828649
3943.855732,-9326.594869,-814.226536,0.000000
3943.856062,-8882.471304,-1332.370696,-153.219100
3943.856392,-8216.285956,-1702.473667,383.047749
3943.856722,-7698.141797,-1850.514855,1378.971896
3943.857051,-7402.059420,-1480.411884,1455.581446
3943.857381,-9178.553681,-518.144159,1762.019645
3943.857711,-10732.986159,592.164754,1225.752797
3943.858041,-11621.233289,1406.391290,229.828649
3943.858370,-11917.315666,2220.617826,0.000000
3943.858700,-11991.336260,2072.576638,229.828649
3943.859030,-11473.192101,1554.432478,536.266849
3943.859360,-10288.862594,888.247130,153.219100
3943.859689,-9030.512492,-296.082377,-306.438199
3943.860019,-8290.306550,-1184.329507,-766.095498
3943.860349,-7920.203579,-1628.453072,-383.047749
3943.860679,-7402.059420,-1628.453072,153.219100
3943.861008,-7698.141797,-1184.329507,459.657299
3943.861338,-8438.347739,-148.041188,536.266849
3943.861668,-9474.636058,222.061783,842.705048
3943.861998,-11177.109724,1184.329507,842.705048
3943.862328,-12065.356855,2220.617826,1685.410096
3943.862657,-12435.459826,2146.597232,1072.533697
3943.862987,-11769.274478,1628.453072,153.219100
3943.863317,-10510.924376,740.205942,-306.438199
3943.863647,-9474.636058,0.000000,-383.047749
3943.863976,-8734.430116,-962.267725,-612.876398
3943.864306,-8142.265362,-1258.350101,0.000000
3943.864636,-7402.059420,-1480.411884,-306.438199
3943.864966,-7476.080014,-666.185348,0.000000
3943.865295,-8956.491898,370.102971,0.000000
3943.865625,-10362.883188,1110.308913,0.000000
3943.865955,-11695.253884,1702.473667,153.219100
3943.866285,-12287.418637,2220.617826,459.657299
3943.866614,-12213.398043,2368.659014,995.924147
3943.866944,-11399.171507,1184.329507,1378.971896
3943.867274,-10584.944971,296.082377,536.266849
3943.867604,-9252.574275,-666.185348,-383.047749
3943.867934,-8364.327145,-1258.350101,-306.438199
3943.868263,-7994.224174,-1628.453072,459.657299
3943.868593,-7624.121203,-1628.453072,612.876398
3943.868923,-7846.182985,-1110.308913,306.438199
3943.869253,-8734.430116,0.000000,-306.438199
3943.869582,-10140.821405,814.226536,-689.485948
3943.869912,-11177.109724,1702.473667,-612.876398
3943.870242,-12139.377449,1924.535449,459.657299
3943.870572,-12435.459826,1702.473667,1149.143247
3943.870901,-11473.192101,962.267725,995.924147
3943.871231,-9918.759623,0.000000,306.438199
3943.871561,-9104.533087,-1110.308913,-229.828649
3943.871891,-8586.388927,-1776.494261,-383.047749
3943.872220,-8068.244768,-1776.494261,842.705048
3943.872550,-7179.997637,-2220.617826,1225.752797
3943.872880,-7698.141797,-1258.350101,1608.800546
3943.873210,-9400.615463,-370.102971,1302.362347
3943.873540,-11103.089130,962.267725,153.219100
3943.873869,-11473.192101,1406.391290,-306.438199
3943.874199,-12287.418637,1850.514855,-459.657299
3943.874529,-12287.418637,1628.453072,306.438199
3943.874859,-11177.109724,962.267725,383.047749
3943.875188,-9696.697840,74.020594,-229.828649
3943.875518,-8734.430116,-962.267725,-919.314598
3943.875848,-8364.327145,-1406.391290,-689.485948
3943.876178,-7846.182985,-2146.597232,-306.438199
3943.876507,-7328.038826,-1554.432478,536.266849
3943.876837,-7550.100608,-1332.370696,842.705048
3943.877167,-8956.491898,-370.102971,842.705048
3943.877497,-10140.821405,592.164754,612.876398
3943.877826,-11695.253884,1554.432478,1378.971896
3943.878156,-12583.501014,1554.432478,1072.533697
3943.878486,-12435.459826,1554.432478,612.876398
3943.878816,-11029.068536,888.247130,76.609550
3943.879146,-9474.636058,74.020594,-306.438199
3943.879475,-8808.450710,-888.247130,-459.657299
3943.879805,-8068.244768,-1332.370696,-306.438199
3943.880135,-7624.121203,-1702.473667,76.609550
3943.880465,-7254.018232,-1480.411884,0.000000
3943.880794,-8586.388927,0.000000,766.095498
3943.881124,-10066.800811,444.123565,536.266849
3943.881454,-11177.109724,1036.288319,383.047749
3943.881784,-11621.233289,1258.350101,536.266849
3943.882113,-12287.418637,1850.514855,1149.143247
3943.882443,-11917.315666,1554.432478,1149.143247
3943.882773,-11251.130318,740.205942,1072.533697
3943.883103,-9770.718434,148.041188,306.438199
3943.883432,-8882.471304,-740.205942,-306.438199
3943.883762,-8586.388927,-1110.308913,0.000000
3943.884092,-7994.224174,-1554.432478,536.266849
3943.884422,-7846.182985,-1110.308913,612.876398
3943.884752,-8438.347739,-444.123565,76.609550
3943.885081,-9400.615463,518.144159,-306.438199
3943.885411,-10658.965565,1184.329507,-536.266849
3943.885741,-11843.295072,1998.556043,229.828649
3943.886071,-12435.459826,2294.638420,1072.533697
3943.886400,-12583.501014,2590.720797,1378.971896
3943.886730,-10881.027347,1036.288319,0.000000
3943.887060,-9326.594869,0.000000,-459.657299
3943.887390,-8512.368333,-888.247130,-689.485948
3943.887719,-7846.182985,-1258.350101,0.000000
3943.888049,-7328.038826,-1628.453072,383.047749
3943.888379,-7402.059420,-1406.391290,1072.533697
3943.888709,-8586.388927,-444.123565,1149.143247
3943.889038,-10436.903782,666.185348,689.485948
3943.889368,-11621.233289,1258.350101,76.609550
3943.889698,-11991.336260,1998.556043,-306.438199
3943.890028,-12139.377449,1998.556043,-229.828649
3943.890358,-11991.336260,1776.494261,689.485948
3943.890687,-11029.068536,1628.453072,459.657299
3943.891017,-9622.677246,0.000000,-306.438199
3943.891347,-8808.450710,-962.267725,-612.876398
3943.891677,-8290.306550,-1480.411884,-459.657299
3943.892006,-7476.080014,-1850.514855,0.000000
3943.892336,-7402.059420,-1924.535449,153.219100
3943.892666,-8290.306550,-666.185348,689.485948
3943.892996,-9326.594869,0.000000,1149.143247
3943.893325,-11029.068536,518.144159,1072.533697
3943.893655,-11991.336260,1554.432478,995.924147
3943.893985,-12731.542202,1702.473667,1149.143247
3943.894315,-12065.356855,1480.411884,919.314598
3943.894644,-10584.944971,222.061783,459.657299
3943.894974,-9104.533087,-444.123565,-689.485948
3943.895304,-8586.388927,-1258.350101,-689.485948
3943.895634,-7772.162391,-2072.576638,-153.219100
3943.895964,-7550.100608,-1850.514855,-229.828649
3943.896293,-7105.977043,-1332.370696,153.219100
3943.896623,-8438.347739,-444.123565,536.266849
3943.896953,-10214.842000,222.061783,306.438199
3943.897283,-11621.233289,1480.411884,153.219100
3943.897612,-11917.315666,1480.411884,229.828649
3943.897942,-12435.459826,1628.453072,689.485948
3943.898272,-11843.295072,1184.329507,1455.581446
3943.898602,-10362.883188,148.041188,766.095498
3943.898931,-9030.512492,-592.164754,0.000000
3943.899261,-8734.430116,-1184.329507,0.000000
3943.899591,-8068.244768,-1998.556043,0.000000
3943.899921,-7846.182985,-1998.556043,919.314598
3943.900250,-7920.203579,-1480.411884,766.095498
3943.900580,-8586.388927,-444.123565,153.219100
3943.900910,-9992.780217,518.144159,536.266849
3943.901240,-11103.089130,1184.329507,0.000000
3943.901570,-12139.377449,1924.535449,306.438199
3943.901899,-12509.480420,1998.556043,995.924147
3943.902229,-11769.274478,1628.453072,1455.581446
3943.902559,-10362.883188,296.082377,153.219100
3943.902889,-9030.512492,-740.205942,-306.438199
3943.903218,-8882.471304,-1184.329507,-612.876398
3943.903548,-7920.203579,-1850.514855,76.609550
3943.903878,-7105.977043,-1776.494261,766.095498
3943.904208,-7179.997637,-1258.350101,1455.581446
3943.904537,-9030.512492,-222.061783,1685.410096
3943.904867,-10584.944971,740.205942,689.485948
3943.905197,-11325.150913,1110.308913,-153.219100
3943.905527,-11991.336260,2146.597232,-689.485948
3943.905857,-11991.336260,2294.638420,0.000000
3943.906187,-11399.171507,1702.473667,612.876398
3943.906516,-9992.780217,222.061783,229.828649
3943.906846,-9030.512492,-296.082377,-612.876398
3943.907176,-8216.285956,-1184.329507,-1072.533697
3943.907506,-7920.203579,-1850.514855,-689.485948
3943.907836,-7698.141797,-1554.432478,-76.609550
3943.908166,-7476.080014,-1332.370696,459.657299
3943.908495,-8364.327145,-148.041188,229.828649
3943.908825,-9770.718434,444.123565,459.657299
3943.909155,-11325.150913,1332.370696,612.876398
3943.909485,-12065.356855,1850.514855,766.095498
3943.909815,-12583.501014,1998.556043,919.314598
3943.910144,-11695.253884,1554.432478,536.266849
3943.910474,-9992.780217,296.082377,0.000000
3943.910804,-9104.533087,-592.164754,153.219100
3943.911134,-8364.327145,-1110.308913,-229.828649
3943.911464,-7624.121203,-1406.391290,-153.219100
3943.911794,-7254.018232,-1554.432478,0.000000
3943.912123,-7698.141797,-666.185348,0.000000
3943.912453,-9030.512492,0.000000,0.000000
3943.912783,-10658.965565,962.267725,-76.609550
3943.913113,-11399.171507,1258.350101,-76.609550
3943.913443,-11991.336260,1924.535449,153.219100
3943.913773,-11917.315666,1554.432478,842.705048
3943.914102,-11251.130318,1110.308913,995.924147
3943.914432,-10066.800811,222.061783,229.828649
3943.914762,-9030.512492,-592.164754,-76.609550
3943.915092,-8882.471304,-1332.370696,153.219100
3943.915422,-7920.203579,-1554.432478,153.219100
3943.915752,-7846.182985,-1480.411884,536.266849
3943.916081,-8216.285956,-814.226536,76.609550
3943.916411,-9104.533087,0.000000,153.219100
3943.916741,-9918.759623,1110.308913,-459.657299
3943.917071,-11547.212695,1850.514855,-153.219100
3943.917401,-12213.398043,1998.556043,459.657299
3943.917731,-12583.501014,1776.494261,1378.971896
3943.918060,-11029.068536,888.247130,842.705048
3943.918390,-9844.739029,0.000000,153.219100
3943.918720,-9030.512492,-592.164754,-76.609550
3943.919050,-8438.347739,-1554.432478,0.000000
3943.919380,-8142.265362,-1480.411884,766.095498
3943.919710,-7402.059420,-1924.535449,1455.581446
3943.920039,-8216.285956,-962.267725,1685.410096
3943.920369,-9548.656652,-74.020594,1302.362347
3943.920699,-10807.006753,962.267725,842.705048
3943.921029,-11769.274478,1554.432478,-612.876398
3943.921359,-11843.295072,1850.514855,-536.266849
3943.921689,-11991.336260,1480.411884,383.047749
3943.922018,-10881.027347,666.185348,766.095498
3943.922348,-9474.636058,-370.102971,153.219100
3943.922678,-8808.450710,-962.267725,-459.657299
3943.923008,-7920.203579,-1998.556043,-612.876398
3943.923338,-7772.162391,-2072.576638,-153.219100
3943.923667,-7994.224174,-2146.597232,306.438199
3943.923997,-7920.203579,-1332.370696,689.485948
3943.924327,-8882.471304,-518.144159,689.485948
3943.924657,-10140.821405,296.082377,306.438199
3943.924987,-11621.233289,1406.391290,919.314598
3943.925317,-12509.480420,1702.473667,995.924147
3943.925646,-12583.501014,1554.432478,689.485948
3943.925976,-11399.171507,592.164754,229.828649
3943.926306,-9844.739029,0.000000,0.000000
3943.926636,-9030.512492,-814.226536,-383.047749
3943.926966,-8438.347739,-1332.370696,0.000000
3943.927296,-7846.182985,-1628.453072,76.609550
3943.927625,-7105.977043,-1628.453072,0.000000
3943.927955,-8438.347739,-592.164754,76.609550
3943.928285,-9918.759623,444.123565,229.828649
3943.928615,-11325.150913,1110.308913,0.000000
3943.928945,-11769.274478,1480.411884,0.000000
3943.929275,-11695.253884,1850.514855,536.266849
3943.929604,-11843.295072,1332.370696,1455.581446
3943.929934,-11029.068536,592.164754,919.314598
3943.930264,-9770.718434,-296.082377,459.657299
3943.930594,-8956.491898,-1184.329507,153.219100
3943.930924,-8290.306550,-1776.494261,0.000000
3943.931254,-7846.182985,-1776.494261,459.657299
3943.931583,-7550.100608,-1406.391290,689.485948
3943.931913,-8512.368333,-370.102971,0.000000
3943.932243,-9104.533087,666.185348,-383.047749
3943.932573,-10732.986159,1258.350101,-383.047749
3943.932903,-11991.336260,2146.597232,0.000000
3943.933233,-12509.480420,1998.556043,842.705048
3943.933562,-11769.274478,1332.370696,612.876398
3943.933892,-10658.965565,444.123565,459.657299
3943.934222,-9400.615463,0.000000,-153.219100
3943.934552,-8586.388927,-1184.329507,-383.047749
3943.934882,-7772.162391,-1480.411884,229.828649
3943.935211,-7328.038826,-1850.514855,842.705048
3943.935541,-7550.100608,-1258.350101,1378.971896
3943.935871,-8660.409521,-370.102971,1762.019645
3943.936201,-10140.821405,666.185348,1225.752797
3943.936531,-11547.212695,1628.453072,-153.219100
3943.936861,-11917.315666,2072.576638,-766.095498
3943.937190,-12287.418637,2590.720797,-153.219100
3943.937520,-11769.274478,1924.535449,459.657299
3943.937850,-10658.965565,888.247130,76.609550
3943.938180,-9474.636058,74.020594,-306.438199
3943.938510,-8586.388927,-814.226536,-689.485948
3943.938840,-8068.244768,-1332.370696,-536.266849
3943.939169,-7328.038826,-1332.370696,153.219100
3943.939499,-7402.059420,-1406.391290,153.219100
3943.939829,-8216.285956,-518.144159,536.266849
3943.940159,-8956.491898,74.020594,459.657299
3943.940489,-10658.965565,1036.288319,612.876398
3943.940819,-12361.439231,1554.432478,919.314598
3943.941148,-12805.562797,1628.453072,1455.581446
3943.941478,-12065.356855,1332.370696,766.095498
3943.941808,-10584.944971,592.164754,76.609550
3943.942138,-9030.512492,-148.041188,-612.876398
3943.942468,-9030.512492,-962.267725,0.000000
3943.942798,-8142.265362,-1554.432478,0.000000
3943.943127,-7698.141797,-1776.494261,0.000000
3943.943457,-7624.121203,-1480.411884,0.000000
3943.943787,-8586.388927,-518.144159,0.000000
3943.944117,-9844.739029,148.041188,0.000000
3943.944447,-10955.047942,814.226536,-383.047749
3943.944777,-11843.295072,1628.453072,-76.609550
3943.945106,-12213.398043,1702.473667,536.266849
3943.945436,-11547.212695,740.205942,1455.581446
3943.945766,-10436.903782,0.000000,1532.190996
3943.946096,-9474.636058,-592.164754,229.828649
3943.946426,-8734.430116,-1332.370696,0.000000
3943.946755,-8290.306550,-1776.494261,76.609550
3943.947085,-8290.306550,-1702.473667,536.266849
3943.947415,-7920.203579,-1258.350101,383.047749
3943.947745,-8438.347739,-296.082377,0.000000
3943.948075,-9770.718434,666.185348,-536.266849
3943.948405,-11177.109724,1332.370696,-842.705048
3943.948734,-12583.501014,2072.576638,76.609550
3943.949064,-12287.418637,1998.556043,766.095498
3943.949394,-11695.253884,962.267725,689.485948
3943.949724,-10066.800811,148.041188,383.047749
3943.950054,-8956.491898,-1110.308913,0.000000
3943.950384,-8586.388927,-1628.453072,306.438199
3943.950713,-8142.265362,-1924.535449,536.266849
3943.951043,-7476.080014,-1850.514855,995.924147
3943.951373,-7624.121203,-962.267725,1685.410096
3943.951703,-9474.636058,0.000000,1838.629195
3943.952033,-10732.986159,814.226536,536.266849
3943.952363,-11399.171507,1480.411884,-153.219100
3943.952692,-11843.295072,1998.556043,-1225.752797
3943.953022,-11843.295072,2146.597232,-306.438199
3943.953352,-10955.047942,1110.308913,229.828649
3943.953682,-9918.759623,740.205942,0.000000
3943.954012,-8882.471304,-592.164754,-459.657299
3943.954342,-8512.368333,-1110.308913,-842.705048
3943.954671,-8142.265362,-1776.494261,0.000000
3943.955001,-7550.100608,-1554.432478,229.828649
3943.955331,-7698.141797,-1258.350101,536.266849
3943.955661,-8512.368333,0.000000,842.705048
3943.955991,-9696.697840,666.185348,459.657299
3943.956321,-11103.089130,1332.370696,459.657299
3943.956650,-12287.418637,1850.514855,536.266849
3943.956980,-12731.542202,1628.453072,306.438199
3943.957310,-11769.274478,1110.308913,153.219100
3943.957640,-10066.800811,444.123565,-306.438199
3943.957970,-8956.491898,-296.082377,-306.438199
3943.958299,-8290.306550,-1110.308913,0.000000
3943.958629,-7846.182985,-1258.350101,76.609550
3943.958959,-7698.141797,-1480.411884,766.095498
3943.959289,-8290.306550,-592.164754,0.000000
3943.959619,-9252.574275,0.000000,383.047749
3943.959949,-10658.965565,592.164754,0.000000
3943.960278,-11399.171507,1258.350101,0.000000
3943.960608,-11621.233289,1924.535449,76.609550
3943.960938,-11769.274478,1554.432478,842.705048
3943.961268,-11251.130318,962.267725,995.924147
3943.961598,-10066.800811,148.041188,612.876398
3943.961928,-9696.697840,-888.247130,76.609550
3943.962257,-8660.409521,-1776.494261,0.000000
3943.962587,-7846.182985,-1998.556043,459.657299
3943.962917,-7402.059420,-1776.494261,229.828649
3943.963247,-7846.182985,-962.267725,766.095498
3943.963577,-8956.491898,0.000000,0.000000
3943.963907,-10214.842000,888.247130,-383.047749
3943.964236,-11325.150913,1406.391290,0.000000
3943.964566,-12287.418637,2146.597232,766.095498
3943.964896,-12361.439231,1924.535449,229.828649
3943.965226,-11325.150913,1036.288319,76.609550
3943.965556,-9844.739029,0.000000,76.609550
3943.965886,-8808.450710,-1184.329507,0.000000
3943.966215,-8290.306550,-1776.494261,229.828649
3943.966545,-7846.182985,-1776.494261,1149.143247
3943.966875,-7254.018232,-1776.494261,1455.581446
3943.967205,-8364.327145,-592.164754,1378.971896
3943.967535,-10066.800811,296.082377,1302.362347
3943.967865,-11325.150913,1406.391290,76.609550
3943.968194,-11917.315666,1702.473667,-612.876398
3943.968524,-11917.315666,1776.494261,-766.095498
3943.968854,-11843.295072,1924.535449,229.828649
3943.969184,-10955.047942,962.267725,459.657299
3943.969514,-9622.677246,74.020594,0.000000
3943.969843,-8586.388927,-888.247130,-76.609550
3943.970173,-7846.182985,-1776.494261,-306.438199
3943.970503,-7772.162391,-1776.494261,76.609550
3943.970833,-7550.100608,-1554.432478,689.485948
3943.971163,-8290.306550,-592.164754,766.095498
3943.971493,-9252.574275,74.020594,995.924147
3943.971822,-10288.862594,740.205942,459.657299
3943.972152,-11473.192101,1406.391290,689.485948
3943.972482,-12435.459826,1702.473667,919.314598
3943.972812,-12287.418637,1480.411884,383.047749
3943.973142,-10807.006753,222.061783,76.609550
3943.973472,-9400.615463,-296.082377,-459.657299
3943.973801,-8956.491898,-1036.288319,-153.219100
3943.974131,-8438.347739,-1480.411884,76.609550
3943.974461,-7550.100608,-1480.411884,76.609550
3943.974791,-7476.080014,-1480.411884,0.000000
3943.975121,-8142.265362,-148.041188,0.000000
3943.975451,-10066.800811,814.226536,76.609550
3943.975780,-11029.068536,1036.288319,-153.219100
3943.976110,-11399.171507,1332.370696,-306.438199
3943.976440,-11843.295072,1480.411884,76.609550
3943.976770,-11843.295072,1332.370696,766.095498
3943.977100,-10732.986159,592.164754,995.924147
3943.977430,-9400.615463,-370.102971,919.314598
3943.977759,-9252.574275,-1036.288319,0.000000
3943.978089,-8364.327145,-1998.556043,383.047749
3943.978419,-8068.244768,-1628.453072,536.266849
3943.978749,-7920.203579,-1628.453072,919.314598
3943.979079,-8438.347739,-148.041188,-76.609550
3943.979409,-9548.656652,444.123565,-766.095498
3943.979738,-11029.068536,1184.329507,-459.657299
3943.980068,-11843.295072,1850.514855,-76.609550
3943.980398,-12509.480420,2072.576638,766.095498
3943.980728,-12065.356855,1702.473667,995.924147
3943.981058,-10807.006753,296.082377,306.438199
3943.981387,-9548.656652,-740.205942,0.000000
3943.981717,-8512.368333,-1406.391290,689.485948
3943.982047,-8068.244768,-1628.453072,459.657299
3943.982377,-7402.059420,-1924.535449,1149.143247
3943.982707,-7254.018232,-1554.432478,995.924147
3943.983037,-8734.430116,-518.144159,1302.362347
3943.983366,-10584.944971,814.226536,612.876398
3943.983696,-11399.171507,1258.350101,-229.828649
3943.984026,-11325.150913,1628.453072,-1072.533697
3943.984356,-11695.253884,2072.576638,-612.876398
3943.984686,-11843.295072,1406.391290,383.047749
3943.985016,-10881.027347,592.164754,689.485948
3943.985345,-9400.615463,-148.041188,76.609550
3943.985675,-8734.430116,-962.267725,-459.657299
3943.986005,-8290.306550,-1554.432478,-306.438199
3943.986335,-7624.121203,-1850.514855,0.000000
3943.986665,-7624.121203,-1036.288319,229.828649
3943.986995,-8142.265362,-222.061783,-76.609550
3943.987324,-9474.636058,740.205942,383.047749
3943.987654,-10881.027347,1406.391290,76.609550
3943.987984,-11991.336260,1998.556043,612.876398
3943.988314,-12509.480420,1850.514855,842.705048
3943.988644,-11917.315666,1480.411884,383.047749
3943.988974,-10584.944971,740.205942,229.828649
3943.989303,-9474.636058,-222.061783,0.000000
3943.989633,-8808.450710,-1036.288319,459.657299
3943.989963,-8142.265362,-1480.411884,766.095498
3943.990293,-7476.080014,-1554.432478,459.657299
3943.990623,-7920.203579,-740.205942,0.000000
3943.990953,-8882.471304,74.020594,-153.219100
3943.991282,-10362.883188,814.226536,-689.485948
3943.991612,-11103.089130,1406.391290,-689.485948
3943.991942,-11769.274478,1628.453072,-459.657299
3943.992272,-11843.295072,1850.514855,459.657299
3943.992602,-11399.171507,814.226536,1225.752797
3943.992931,-10584.944971,296.082377,1149.143247
3943.993261,-9400.615463,-1036.288319,612.876398
3943.993591,-8956.491898,-1332.370696,0.000000
3943.993921,-8290.306550,-2146.597232,612.876398
3943.994251,-7476.080014,-1924.535449,1225.752797
3943.994581,-7550.100608,-1258.350101,766.095498
3943.994910,-8512.368333,-444.123565,-306.438199
3943.995240,-9992.780217,666.185348,-689.485948
3943.995570,-11103.089130,1406.391290,-842.705048
3943.995900,-11843.295072,1850.514855,153.219100
3943.996230,-12361.439231,1776.494261,919.314598
3943.996560,-11695.253884,1184.329507,842.705048
3943.996889,-10066.800811,-296.082377,306.438199
3943.997219,-9030.512492,-1480.411884,153.219100
3943.997549,-8660.409521,-1554.432478,76.609550
3943.997879,-8216.285956,-2146.597232,766.095498
3943.998209,-7476.080014,-1924.535449,1072.533697
3943.998539,-7994.224174,-1258.350101,1762.019645
3943.998868,-9474.636058,0.000000,1072.533697
3943.999198,-11177.109724,592.164754,306.438199
3943.999528,-11769.274478,1258.350101,-689.485948
3943.999858,-12065.356855,1850.514855,-536.266849
3944.000188,-11917.315666,1702.473667,-229.828649
3944.000518,-11473.192101,1110.308913,842.705048
3944.000847,-9992.780217,148.041188,383.047749
3944.001177,-9178.553681,-740.205942,-612.876398
3944.001507,-8216.285956,-1776.494261,-689.485948
3944.001837,-7624.121203,-2146.597232,-306.438199
3944.002167,-7624.121203,-1554.432478,383.047749
3944.002497,-7624.121203,-1406.391290,689.485948
3944.002826,-8364.327145,0.000000,306.438199
3944.003156,-9622.677246,592.164754,0.000000
3944.003486,-11325.150913,1332.370696,153.219100
3944.003816,-12287.418637,1702.473667,383.047749
3944.004146,-12805.562797,1480.411884,689.485948
3944.004475,-11325.150913,1258.350101,383.047749
3944.004805,-10066.800811,222.061783,0.000000
3944.005135,-8956.491898,-592.164754,-306.438199
3944.005465,-8808.450710,-1258.350101,76.609550
3944.005795,-8216.285956,-1702.473667,153.219100
3944.006124,-7179.997637,-1406.391290,306.438199
3944.006454,-7550.100608,-444.123565,153.219100
3944.006784,-9104.533087,222.061783,0.000000
3944.007114,-10510.924376,962.267725,0.000000
3944.007443,-11177.109724,1258.350101,-766.095498
3944.007773,-11843.295072,1924.535449,0.000000
3944.008103,-11769.274478,1998.556043,1072.533697
3944.008433,-11325.150913,888.247130,1225.752797
3944.008763,-10214.842000,0.000000,1072.533697
3944.009092,-9622.677246,-740.205942,153.219100
3944.009422,-9030.512492,-1332.370696,229.828649
3944.009752,-7920.203579,-1850.514855,995.924147
3944.010082,-8142.265362,-1036.288319,842.705048
3944.010412,-7846.182985,-1036.288319,229.828649
3944.010741,-8734.430116,0.000000,0.000000
3944.011071,-10066.800811,888.247130,-766.095498
3944.011401,-11325.150913,1998.556043,-612.876398
3944.011731,-12435.459826,2072.576638,0.000000
3944.012060,-12509.480420,1850.514855,536.266849
3944.012390,-11547.212695,1184.329507,459.657299
3944.012720,-9992.780217,0.000000,0.000000
3944.013050,-9326.594869,-962.267725,-306.438199
3944.013380,-8364.327145,-1702.473667,229.828649
3944.013709,-7920.203579,-1850.514855,766.095498
3944.014039,-7179.997637,-1998.556043,1225.752797
3944.014369,-8216.285956,-962.267725,1455.581446
3944.014699,-9844.739029,222.061783,995.924147
3944.015029,-11177.109724,1480.411884,76.609550
3944.015358,-11695.253884,1776.494261,-1072.533697
3944.015688,-11695.253884,1924.535449,-1072.533697
3944.016018,-11769.274478,1702.473667,153.219100
3944.016348,-10807.006753,1110.308913,612.876398
3944.016677,-9770.718434,0.000000,0.000000
3944.017007,-8660.409521,-1258.350101,-612.876398
3944.017337,-8364.327145,-1628.453072,-766.095498
3944.017667,-7624.121203,-1776.494261,0.000000
3944.017997,-7624.121203,-1480.411884,229.828649
3944.018326,-7920.203579,-814.226536,612.876398
3944.018656,-9178.553681,148.041188,919.314598
3944.018986,-10658.965565,740.205942,306.438199
3944.019316,-11695.253884,1924.535449,536.266849
3944.019646,-12509.480420,1776.494261,919.314598
3944.019975,-12139.377449,1702.473667,995.924147
3944.020305,-10807.006753,814.226536,153.219100
3944.020635,-9548.656652,0.000000,-229.828649
3944.020965,-8956.491898,-740.205942,0.000000
3944.021294,-8364.327145,-1554.432478,536.266849
3944.021624,-7624.121203,-1702.473667,689.485948
3944.021954,-7328.038826,-1332.370696,0.000000
3944.022284,-8142.265362,-518.144159,0.000000
3944.022614,-9696.697840,444.123565,-229.828649
3944.022943,-10732.986159,1554.432478,-842.705048
3944.023273,-11251.130318,1332.370696,-153.219100
3944.023603,-11621.233289,1850.514855,76.609550
3944.023933,-11843.295072,1332.370696,1072.533697
3944.024263,-10732.986159,444.123565,1149.143247
3944.024592,-9844.739029,-444.123565,766.095498
3944.024922,-8734.430116,-1332.370696,536.266849
3944.025252,-8364.327145,-1628.453072,536.266849
3944.025582,-8142.265362,-1628.453072,1072.533697
3944.025911,-7624.121203,-1776.494261,612.876398
3944.026241,-8216.285956,-814.226536,153.219100
3944.026571,-9400.615463,444.123565,-612.876398
3944.026901,-10214.842000,1036.288319,0.000000
3944.027231,-11769.274478,1924.535449,-383.047749
3944.027560,-12287.418637,1850.514855,459.657299
3944.027890,-11843.295072,1332.370696,766.095498
3944.028220,-10658.965565,296.082377,76.609550
3944.028550,-9844.739029,-444.123565,0.000000
3944.028880,-9178.553681,-1406.391290,153.219100
3944.029209,-8512.368333,-1998.556043,689.485948
3944.029539,-7698.141797,-1924.535449,1532.190996
3944.029869,-7920.203579,-1036.288319,1685.410096
3944.030199,-8734.430116,-666.185348,1455.581446
3944.030528,-10214.842000,518.144159,689.485948
3944.030858,-11251.130318,1554.432478,-766.095498
3944.031188,-11695.253884,1998.556043,-229.828649
3944.031518,-12213.398043,2294.638420,-842.705048
3944.031848,-11621.233289,1406.391290,229.828649
3944.032177,-10436.903782,592.164754,689.485948
3944.032507,-9622.677246,-74.020594,76.609550
3944.032837,-8660.409521,-1258.350101,-536.266849
3944.033167,-7994.224174,-1924.535449,-229.828649
3944.033497,-7698.141797,-1776.494261,0.000000
3944.033826,-7328.038826,-1702.473667,612.876398
3944.034156,-8438.347739,-74.020594,459.657299
3944.034486,-9474.636058,592.164754,536.266849
3944.034816,-11325.150913,1554.432478,153.219100
3944.035145,-12287.418637,2220.617826,536.266849
3944.035475,-12731.542202,1702.473667,1225.752797
3944.035805,-11917.315666,1406.391290,153.219100
3944.036135,-10732.986159,592.164754,-229.828649
3944.036465,-9252.574275,-444.123565,-306.438199
3944.036794,-8808.450710,-1184.329507,0.000000
3944.037124,-7920.203579,-1332.370696,153.219100
3944.037454,-7402.059420,-1850.514855,536.266849
3944.037784,-7846.182985,-666.185348,0.000000
3944.038114,-8808.450710,-74.020594,153.219100
3944.038443,-10732.986159,888.247130,0.000000
3944.038773,-11399.171507,1554.432478,-536.266849
3944.039103,-11769.274478,1702.473667,-306.438199
3944.039433,-12065.356855,1702.473667,306.438199
3944.039762,-11473.192101,962.267725,1149.143247
3944.040092,-10510.924376,296.082377,919.314598
3944.040422,-9178.553681,-740.205942,766.095498
3944.040752,-8734.430116,-1258.350101,229.828649
3944.041082,-7772.162391,-2590.720797,459.657299
3944.041411,-7402.059420,-1998.556043,306.438199
3944.041741,-7624.121203,-1554.432478,459.657299
3944.042071,-8512.368333,-444.123565,76.609550
3944.042401,-9844.739029,518.144159,-536.266849
3944.042731,-10881.027347,1332.370696,-459.657299
3944.043060,-11991.336260,1924.535449,0.000000
3944.043390,-12287.418637,1776.494261,76.609550
3944.043720,-11843.295072,1184.329507,383.047749
3944.044050,-10436.903782,0.000000,229.828649
3944.044379,-9178.553681,-740.205942,153.219100
3944.044709,-8290.306550,-1702.473667,536.266849
3944.045039,-7550.100608,-2220.617826,306.438199
3944.045369,-7179.997637,-2220.617826,919.314598
3944.045699,-7550.100608,-1480.411884,1149.143247
3944.046028,-9104.533087,-296.082377,1302.362347
3944.046358,-10658.965565,962.267725,306.438199
3944.046688,-11769.274478,1702.473667,-612.876398
3944.047018,-12435.459826,2294.638420,-536.266849
3944.047348,-11917.315666,2146.597232,0.000000
3944.047677,-11399.171507,1036.288319,229.828649
3944.048007,-9918.759623,0.000000,306.438199
3944.048337,-9030.512492,-592.164754,76.609550
3944.048667,-8290.306550,-1776.494261,-306.438199
3944.048996,-7994.224174,-1850.514855,-229.828649
3944.049326,-7328.038826,-1702.473667,153.219100
3944.049656,-7624.121203,-1406.391290,383.047749
3944.049986,-8882.471304,-222.061783,229.828649
3944.050316,-10214.842000,814.226536,612.876398
3944.050645,-11325.150913,1554.432478,842.705048
3944.050975,-12213.398043,2072.576638,766.095498
3944.051305,-12583.501014,1628.453072,842.705048
3944.051635,-11621.233289,962.267725,76.609550
3944.051965,-10066.800811,0.000000,-306.438199
3944.052294,-8808.450710,-814.226536,-153.219100
3944.052624,-8216.285956,-888.247130,459.657299
3944.052954,-7698.141797,-1554.432478,459.657299
3944.053284,-7698.141797,-1406.391290,0.000000
3944.053613,-8142.265362,-592.164754,-76.609550
3944.053943,-9474.636058,-148.041188,0.000000
3944.054273,-10510.924376,888.247130,-383.047749
3944.054603,-11325.150913,1628.453072,-459.657299
3944.054933,-11843.295072,1924.535449,0.000000
3944.055262,-11991.336260,1850.514855,1149.143247
3944.055592,-11103.089130,740.205942,842.705048
3944.055922,-9992.780217,-74.020594,766.095498
3944.056252,-9400.615463,-888.247130,459.657299
3944.056582,-8512.368333,-1850.514855,383.047749
3944.056911,-7772.162391,-2146.597232,459.657299
3944.057241,-7254.018232,-2146.597232,919.314598
3944.057571,-7920.203579,-888.247130,459.657299
3944.057901,-9252.574275,518.144159,-536.266849
3944.058230,-10436.903782,1406.391290,-306.438199
3944.058560,-11621.233289,1924.535449,-689.485948
3944.058890,-12657.521608,2516.700203,153.219100
3944.059220,-12361.439231,1702.473667,536.266849
3944.059550,-11103.089130,1184.329507,689.485948
3944.059879,-9770.718434,0.000000,0.000000
3944.060209,-8808.450710,-1110.308913,-383.047749
3944.060539,-8290.306550,-1702.473667,153.219100
3944.060869,-7402.059420,-1998.556043,766.095498
3944.061199,-7328.038826,-1702.473667,1302.362347
3944.061528,-8438.347739,-888.247130,1608.800546
3944.061858,-10066.800811,222.061783,995.924147
3944.062188,-11325.150913,1554.432478,-383.047749
3944.062518,-12065.356855,1998.556043,-1225.752797
3944.062847,-12065.356855,1850.514855,-689.485948
3944.063177,-11843.295072,1480.411884,229.828649
3944.063507,-11251.130318,962.267725,766.095498
3944.063837,-9622.677246,-518.144159,153.219100
3944.064167,-8882.471304,-962.267725,-459.657299
3944.064496,-8142.265362,-1776.494261,-612.876398
3944.064826,-7772.162391,-2146.597232,-229.828649
3944.065156,-7254.018232,-1628.453072,689.485948
3944.065486,-7698.141797,-740.205942,306.438199
3944.065816,-9326.594869,222.061783,612.876398
3944.066145,-10732.986159,962.267725,229.828649
3944.066475,-12139.377449,1924.535449,459.657299
3944.066805,-12805.562797,1628.453072,612.876398
3944.067135,-12361.439231,1554.432478,229.828649
3944.067464,-10881.027347,444.123565,383.047749
3944.067794,-9474.636058,-74.020594,0.000000
3944.068124,-8808.450710,-814.226536,536.266849
3944.068454,-8068.244768,-1480.411884,612.876398
3944.068784,-7476.080014,-1776.494261,459.657299
3944.069113,-7550.100608,-1184.329507,-153.219100
3944.069443,-8586.388927,-296.082377,919.314598
3944.069773,-10288.862594,740.205942,0.000000
3944.070103,-10955.047942,1406.391290,-612.876398
3944.070433,-11547.212695,1406.391290,-919.314598
3944.070762,-11843.295072,1850.514855,306.438199
3944.071092,-11399.171507,1110.308913,766.095498
3944.071422,-10510.924376,518.144159,919.314598
3944.071752,-9770.718434,-296.082377,536.266849
3944.072081,-8808.450710,-1036.288319,306.438199
3944.072411,-8660.409521,-1258.350101,153.219100
3944.072741,-7624.121203,-1702.473667,536.266849
3944.073071,-7698.141797,-1258.350101,766.095498
3944.073401,-8512.368333,-74.020594,153.219100
3944.073730,-9400.615463,740.205942,229.828649
3944.074060,-10732.986159,1332.370696,-919.314598
3944.074390,-12139.377449,2368.659014,-229.828649
3944.074720,-12583.501014,2072.576638,153.219100
3944.075050,-11991.336260,1702.473667,536.266849
3944.075379,-10510.924376,518.144159,0.000000
3944.075709,-9252.574275,-740.205942,0.000000
3944.076039,-8512.368333,-1480.411884,0.000000
3944.076369,-8068.244768,-1924.535449,995.924147
3944.076699,-7179.997637,-2294.638420,1225.752797
3944.077028,-7328.038826,-1554.432478,1532.190996
3944.077358,-8882.471304,-370.102971,1532.190996
3944.077688,-10807.006753,888.247130,919.314598
3944.078018,-11399.171507,1110.308913,306.438199
3944.078347,-12139.377449,2146.597232,-689.485948
3944.078677,-12065.356855,1776.494261,-229.828649
3944.079007,-11917.315666,1406.391290,919.314598
3944.079337,-10658.965565,444.123565,766.095498
3944.079667,-8956.491898,-518.144159,0.000000
3944.079996,-8290.306550,-1258.350101,-1149.143247
3944.080326,-7846.182985,-1628.453072,-995.924147
3944.080656,-7550.100608,-2072.576638,0.000000
3944.080986,-7328.038826,-1776.494261,0.000000
3944.081316,-8586.388927,-296.082377,612.876398
3944.081645,-9770.718434,296.082377,459.657299
3944.081975,-11399.171507,1036.288319,536.266849
3944.082305,-12287.418637,1850.514855,919.314598
3944.082635,-12657.521608,1924.535449,1072.533697
3944.082964,-12139.377449,1406.391290,612.876398
3944.083294,-10288.862594,296.082377,0.000000
3944.083624,-9104.533087,-592.164754,0.000000
3944.083954,-8512.368333,-1110.308913,153.219100
3944.084284,-8142.265362,-1554.432478,0.000000
3944.084613,-7402.059420,-1850.514855,-383.047749
3944.084943,-7846.182985,-1036.288319,0.000000
3944.085273,-9104.533087,148.041188,-459.657299
3944.085603,-10584.944971,740.205942,-459.657299
3944.085933,-11399.171507,1480.411884,-689.485948
3944.086262,-11843.295072,1776.494261,-536.266849
3944.086592,-11843.295072,1184.329507,459.657299
3944.086922,-11621.233289,1184.329507,1455.581446
3944.087252,-10436.903782,74.020594,1302.362347
3944.087581,-9252.574275,-740.205942,229.828649
3944.087911,-8216.285956,-1184.329507,383.047749
3944.088241,-7920.203579,-1776.494261,459.657299
3944.088571,-7698.141797,-1776.494261,1225.752797
3944.088901,-7698.141797,-1184.329507,919.314598
3944.089230,-8586.388927,-222.061783,0.000000
3944.089560,-9844.739029,1036.288319,-766.095498
3944.089890,-11473.192101,1998.556043,-1149.143247
3944.090220,-12657.521608,2220.617826,-229.828649
3944.090550,-12435.459826,1850.514855,536.266849
3944.090879,-11547.212695,1332.370696,306.438199
3944.091209,-10214.842000,74.020594,76.609550
3944.091539,-9178.553681,-740.205942,0.000000
3944.091869,-8142.265362,-1628.453072,0.000000
3944.092198,-7550.100608,-1554.432478,383.047749
3944.092528,-7105.977043,-2146.597232,919.314598
