#time,accel_x,accel_y,accel_z
3579.651160,-10436.903782,-2368.659014,-1072.533697
3579.651490,-9622.677246,-2146.597232,-1149.143247
3579.651820,-9696.697840,-1628.453072,-1149.143247
3579.652149,-9770.718434,-1480.411884,-1991.848295
3579.652479,-8660.409521,-740.205942,-1991.848295
3579.652809,-8734.430116,-518.144159,-2298.286494
3579.653139,-8808.450710,0.000000,-1915.238745
3579.653468,-9252.574275,-296.082377,-1838.629195
3579.653798,-9548.656652,222.061783,-1838.629195
3579.654128,-9548.656652,0.000000,-1991.848295
3579.654457,-9622.677246,-296.082377,-2145.067394
3579.654787,-10732.986159,0.000000,-459.657299
3579.655117,-10584.944971,-370.102971,842.705048
3579.655447,-9918.759623,-370.102971,612.876398
3579.655776,-9992.780217,-222.061783,-536.266849
3579.656106,-9918.759623,-370.102971,-1072.533697
3579.656436,-9622.677246,0.000000,-1685.410096
3579.656765,-9104.533087,888.247130,-2834.553343
3579.657095,-8512.368333,888.247130,-2834.553343
3579.657425,-9400.615463,1184.329507,-1915.238745
3579.657755,-9992.780217,1628.453072,459.657299
3579.658084,-8882.471304,2220.617826,766.095498
3579.658414,-9400.615463,592.164754,-306.438199
3579.658744,-11251.130318,-518.144159,-919.314598
3579.659073,-9104.533087,-1332.370696,306.438199
3579.659403,-8734.430116,-444.123565,536.266849
3579.659733,-10584.944971,-666.185348,1072.533697
3579.660063,-9844.739029,222.061783,1225.752797
3579.660392,-10066.800811,148.041188,76.609550
3579.660722,-10214.842000,0.000000,-229.828649
3579.661052,-10288.862594,888.247130,842.705048
3579.661381,-11029.068536,740.205942,-536.266849
3579.661711,-10807.006753,814.226536,-1915.238745
3579.662041,-10140.821405,-222.061783,-2451.505594
3579.662371,-10066.800811,-740.205942,-2757.943793
3579.662700,-9104.533087,-1332.370696,-2451.505594
3579.663030,-8956.491898,-1998.556043,-1149.143247
3579.663360,-8068.244768,-2294.638420,-842.705048
3579.663689,-8438.347739,-2072.576638,536.266849
3579.664019,-9252.574275,-1850.514855,1608.800546
3579.664349,-9622.677246,-888.247130,2987.772442
3579.664679,-10214.842000,-296.082377,2757.943793
3579.665008,-10362.883188,-518.144159,1532.190996
3579.665338,-11029.068536,0.000000,612.876398
3579.665668,-11621.233289,0.000000,766.095498
3579.665997,-11473.192101,-444.123565,-459.657299
3579.666327,-10584.944971,-1332.370696,-1532.190996
3579.666657,-9622.677246,-1480.411884,-3677.258390
3579.666987,-8734.430116,-1554.432478,-3447.429741
3579.667316,-7920.203579,-1628.453072,-2221.676944
3579.667646,-7772.162391,-1332.370696,-1225.752797
3579.667976,-8512.368333,-666.185348,0.000000
3579.668305,-9474.636058,-518.144159,1608.800546
3579.668635,-10362.883188,74.020594,2374.896044
3579.668965,-11547.212695,444.123565,2068.457845
3579.669295,-12139.377449,74.020594,1225.752797
3579.669624,-12213.398043,-370.102971,0.000000
3579.669954,-11473.192101,-1184.329507,-1455.581446
3579.670284,-10214.842000,-1924.535449,-2221.676944
3579.670613,-7920.203579,-2812.782580,-1225.752797
3579.670943,-7105.977043,-2220.617826,-459.657299
3579.671273,-7179.997637,-1332.370696,612.876398
3579.671603,-8364.327145,0.000000,1149.143247
3579.671932,-9400.615463,1258.350101,1685.410096
3579.672262,-10214.842000,1850.514855,383.047749
3579.672592,-10658.965565,1924.535449,536.266849
3579.672921,-11843.295072,1184.329507,229.828649
3579.673251,-12361.439231,592.164754,0.000000
3579.673581,-11695.253884,-518.144159,-842.705048
3579.673911,-9844.739029,-1554.432478,-1455.581446
3579.674241,-7550.100608,-1702.473667,-995.924147
3579.674571,-7402.059420,-814.226536,459.657299
3579.674901,-8734.430116,444.123565,2374.896044
3579.675231,-9104.533087,1332.370696,2987.772442
3579.675561,-9252.574275,2072.576638,1378.971896
3579.675890,-9992.780217,2220.617826,-383.047749
3579.676220,-11325.150913,2294.638420,-1149.143247
3579.676550,-12657.521608,1702.473667,-1378.971896
3579.676880,-12361.439231,74.020594,-919.314598
3579.677210,-10436.903782,-1554.432478,-1532.190996
3579.677540,-8438.347739,-1924.535449,-612.876398
3579.677870,-7476.080014,-1998.556043,842.705048
3579.678200,-6809.894666,-962.267725,2451.505594
3579.678530,-6735.874072,666.185348,3064.381992
3579.678860,-7772.162391,2146.597232,2145.067394
3579.679189,-10288.862594,2812.782580,919.314598
3579.679519,-12657.521608,2590.720797,612.876398
3579.679849,-14359.995275,1850.514855,153.219100
3579.680179,-14137.933492,148.041188,-459.657299
3579.680509,-11621.233289,-1184.329507,-1072.533697
3579.680839,-9474.636058,-2442.679609,-383.047749
3579.681169,-7846.182985,-2812.782580,459.657299
3579.681499,-7476.080014,-1850.514855,919.314598
3579.681829,-7328.038826,-1110.308913,1072.533697
3579.682159,-8068.244768,296.082377,459.657299
3579.682488,-9474.636058,814.226536,0.000000
3579.682818,-10584.944971,74.020594,-229.828649
3579.683148,-11325.150913,-1184.329507,-919.314598
3579.683478,-10658.965565,-2294.638420,-842.705048
3579.683808,-9696.697840,-3478.967927,0.000000
3579.684138,-8290.306550,-4145.153275,995.924147
3579.684468,-8142.265362,-3849.070898,1991.848295
3579.684798,-8956.491898,-2664.741391,2221.676944
3579.685128,-9548.656652,-1776.494261,1532.190996
3579.685457,-9844.739029,-1110.308913,-306.438199
3579.685787,-9696.697840,-814.226536,-689.485948
3579.686117,-9696.697840,-1480.411884,-1302.362347
3579.686447,-9474.636058,-1628.453072,-1915.238745
3579.686777,-8808.450710,-2146.597232,-2374.896044
3579.687107,-8364.327145,-2590.720797,-2221.676944
3579.687437,-8808.450710,-2294.638420,-842.705048
3579.687767,-9104.533087,-2294.638420,612.876398
3579.688097,-10510.924376,-1110.308913,1762.019645
3579.688427,-11917.315666,-444.123565,2221.676944
3579.688756,-12287.418637,-370.102971,995.924147
3579.689086,-12213.398043,-1184.329507,-766.095498
3579.689416,-11029.068536,-1554.432478,-1532.190996
3579.689746,-9474.636058,-2294.638420,-1608.800546
3579.690076,-7846.182985,-2294.638420,-995.924147
3579.690406,-6883.915261,-2146.597232,153.219100
3579.690736,-7179.997637,-1036.288319,842.705048
3579.691066,-8808.450710,518.144159,1685.410096
3579.691396,-10584.944971,1628.453072,1378.971896
3579.691726,-12213.398043,2146.597232,919.314598
3579.692055,-13249.686362,1850.514855,1378.971896
3579.692385,-13249.686362,962.267725,1685.410096
3579.692715,-12287.418637,296.082377,919.314598
3579.693045,-10288.862594,-444.123565,76.609550
3579.693375,-7846.182985,-666.185348,-842.705048
3579.693705,-7476.080014,74.020594,459.657299
3579.694035,-7624.121203,1184.329507,1072.533697
3579.694365,-8438.347739,2368.659014,1608.800546
3579.694695,-8734.430116,3849.070898,766.095498
3579.695024,-10214.842000,3701.029710,-459.657299
3579.695354,-11399.171507,3108.864956,-1149.143247
3579.695684,-11621.233289,1850.514855,-1302.362347
3579.696014,-11103.089130,0.000000,-842.705048
3579.696344,-8586.388927,0.000000,-919.314598
3579.696674,-7476.080014,-962.267725,995.924147
3579.697004,-7031.956449,148.041188,2298.286494
3579.697334,-7772.162391,1406.391290,2834.553343
3579.697664,-8734.430116,2960.823768,2068.457845
3579.697994,-10214.842000,3849.070898,76.609550
3579.698323,-10732.986159,3923.091493,-536.266849
3579.698653,-11177.109724,3627.009116,-536.266849
3579.698983,-12213.398043,2886.803174,0.000000
3579.699313,-11251.130318,1998.556043,-1608.800546
3579.699643,-9400.615463,740.205942,-2451.505594
3579.699973,-7328.038826,222.061783,-1762.019645
3579.700303,-7550.100608,296.082377,383.047749
3579.700633,-8956.491898,1554.432478,2451.505594
3579.700963,-9696.697840,2146.597232,2987.772442
3579.701293,-10362.883188,2590.720797,2068.457845
3579.701622,-11103.089130,2738.761985,0.000000
3579.701952,-12139.377449,1924.535449,-1532.190996
3579.702282,-12213.398043,666.185348,-1838.629195
3579.702612,-10807.006753,-444.123565,-766.095498
3579.702942,-8586.388927,-1332.370696,-306.438199
3579.703272,-7105.977043,-1702.473667,766.095498
3579.703602,-7105.977043,-1184.329507,1991.848295
3579.703932,-8290.306550,-518.144159,2221.676944
3579.704262,-9474.636058,370.102971,2145.067394
3579.704591,-10881.027347,666.185348,1991.848295
3579.704921,-11103.089130,814.226536,1685.410096
3579.705251,-11917.315666,148.041188,1608.800546
3579.705581,-11769.274478,-1184.329507,689.485948
3579.705911,-10584.944971,-1924.535449,0.000000
3579.706241,-8808.450710,-2220.617826,-1149.143247
3579.706571,-8142.265362,-2368.659014,-383.047749
3579.706901,-8216.285956,-1924.535449,766.095498
3579.707231,-9030.512492,-666.185348,1762.019645
3579.707561,-9548.656652,-74.020594,536.266849
3579.707890,-10288.862594,-74.020594,-612.876398
3579.708220,-11103.089130,-222.061783,-1302.362347
3579.708550,-11547.212695,-1258.350101,-1378.971896
3579.708880,-11103.089130,-1628.453072,-536.266849
3579.709210,-9696.697840,-2812.782580,-459.657299
3579.709540,-8586.388927,-3108.864956,842.705048
3579.709870,-8068.244768,-3034.844362,1378.971896
3579.710200,-8734.430116,-1924.535449,2681.334243
3579.710530,-9474.636058,-1184.329507,1532.190996
3579.710860,-10288.862594,-222.061783,1149.143247
3579.711189,-10881.027347,74.020594,459.657299
3579.711519,-11473.192101,0.000000,536.266849
3579.711849,-11695.253884,-74.020594,-229.828649
3579.712179,-10436.903782,-1258.350101,-1378.971896
3579.712509,-8882.471304,-1850.514855,-2145.067394
3579.712839,-7920.203579,-1776.494261,-612.876398
3579.713169,-8660.409521,-814.226536,1378.971896
3579.713499,-9178.553681,0.000000,2681.334243
3579.713829,-9770.718434,592.164754,1915.238745
3579.714158,-10658.965565,1258.350101,612.876398
3579.714488,-11473.192101,888.247130,-689.485948
3579.714818,-12287.418637,1036.288319,-766.095498
3579.715148,-11695.253884,0.000000,-1149.143247
3579.715478,-9844.739029,-814.226536,-1378.971896
3579.715808,-7476.080014,-1702.473667,-1225.752797
3579.716138,-6513.812290,-1332.370696,-536.266849
3579.716468,-6957.935855,-592.164754,995.924147
3579.716798,-8142.265362,666.185348,2221.676944
3579.717128,-9178.553681,1184.329507,2298.286494
3579.717457,-10288.862594,1998.556043,2145.067394
3579.717787,-11473.192101,1924.535449,1302.362347
3579.718117,-12287.418637,1850.514855,689.485948
3579.718447,-12361.439231,1110.308913,-306.438199
3579.718777,-10436.903782,-148.041188,-1072.533697
3579.719107,-8586.388927,0.000000,-1378.971896
3579.719437,-7772.162391,0.000000,-689.485948
3579.719767,-8216.285956,296.082377,689.485948
3579.720097,-8956.491898,1554.432478,383.047749
3579.720427,-9252.574275,2072.576638,229.828649
3579.720756,-9992.780217,2664.741391,-459.657299
3579.721086,-10732.986159,2368.659014,-1225.752797
3579.721416,-11473.192101,1554.432478,-1225.752797
3579.721746,-10881.027347,444.123565,-689.485948
3579.722076,-9622.677246,-370.102971,-842.705048
3579.722406,-8438.347739,-740.205942,383.047749
3579.722736,-7994.224174,-592.164754,1302.362347
3579.723066,-8142.265362,-222.061783,2374.896044
3579.723396,-9474.636058,1258.350101,2374.896044
3579.723725,-10436.903782,1998.556043,1225.752797
3579.724055,-10807.006753,2294.638420,0.000000
3579.724385,-11029.068536,1776.494261,-689.485948
3579.724715,-11547.212695,1406.391290,-919.314598
3579.725045,-10807.006753,518.144159,-1225.752797
3579.725375,-9252.574275,-444.123565,-1455.581446
3579.725705,-7772.162391,-666.185348,-766.095498
3579.726035,-8142.265362,-370.102971,459.657299
3579.726365,-9252.574275,370.102971,1762.019645
3579.726695,-10066.800811,1110.308913,2298.286494
3579.727024,-11251.130318,1184.329507,1685.410096
3579.727354,-12065.356855,1406.391290,612.876398
3579.727684,-12509.480420,592.164754,-459.657299
3579.728014,-11843.295072,-148.041188,-1149.143247
3579.728344,-10214.842000,-888.247130,-1915.238745
3579.728674,-8216.285956,-1776.494261,-1225.752797
3579.729004,-7105.977043,-2146.597232,76.609550
3579.729334,-7402.059420,-1480.411884,1225.752797
3579.729664,-8068.244768,-444.123565,1838.629195
3579.729994,-9252.574275,0.000000,1225.752797
3579.730323,-10658.965565,740.205942,1532.190996
3579.730653,-11399.171507,518.144159,995.924147
3579.730983,-12139.377449,74.020594,1302.362347
3579.731313,-12065.356855,-740.205942,459.657299
3579.731643,-10436.903782,-1332.370696,-995.924147
3579.731973,-8734.430116,-1924.535449,-1302.362347
3579.732303,-7846.182985,-1850.514855,-919.314598
3579.732633,-8364.327145,-1258.350101,0.000000
3579.732963,-8364.327145,222.061783,842.705048
3579.733292,-9104.533087,518.144159,536.266849
3579.733622,-9992.780217,1258.350101,-229.828649
3579.733952,-10807.006753,592.164754,-842.705048
3579.734282,-11325.150913,0.000000,-1072.533697
3579.734612,-10881.027347,-814.226536,-995.924147
3579.734942,-9474.636058,-1850.514855,-919.314598
3579.735272,-8142.265362,-2368.659014,0.000000
3579.735602,-7994.224174,-2220.617826,1378.971896
3579.735932,-8290.306550,-1036.288319,2451.505594
3579.736262,-9400.615463,-222.061783,2068.457845
3579.736591,-9992.780217,518.144159,1302.362347
3579.736921,-10214.842000,888.247130,459.657299
3579.737251,-11029.068536,1406.391290,0.000000
3579.737581,-11547.212695,370.102971,-842.705048
3579.737911,-10807.006753,-444.123565,-1378.971896
3579.738241,-9252.574275,-1110.308913,-1762.019645
3579.738571,-7624.121203,-1332.370696,-766.095498
3579.738901,-7994.224174,-1110.308913,459.657299
3579.739231,-9104.533087,-148.041188,1838.629195
3579.739561,-10214.842000,888.247130,2451.505594
3579.739890,-10732.986159,1332.370696,1072.533697
3579.740220,-11547.212695,1258.350101,306.438199
3579.740550,-12213.398043,814.226536,-919.314598
3579.740880,-11843.295072,222.061783,-1378.971896
3579.741210,-10362.883188,-888.247130,-1685.410096
3579.741540,-7920.203579,-1702.473667,-995.924147
3579.741870,-6957.935855,-1406.391290,0.000000
3579.742200,-7698.141797,-666.185348,1225.752797
3579.742530,-8586.388927,74.020594,2145.067394
3579.742859,-9696.697840,1258.350101,2221.676944
3579.743189,-10584.944971,1924.535449,1762.019645
3579.743519,-11399.171507,1702.473667,1532.190996
3579.743849,-12361.439231,962.267725,689.485948
3579.744179,-11843.295072,148.041188,-383.047749
3579.744509,-10510.924376,-666.185348,-612.876398
3579.744839,-8364.327145,-1110.308913,-1149.143247
3579.745169,-7698.141797,-666.185348,-536.266849
3579.745499,-8216.285956,0.000000,153.219100
3579.745829,-8660.409521,1036.288319,1072.533697
3579.746158,-9030.512492,1406.391290,229.828649
3579.746488,-9770.718434,1850.514855,-459.657299
3579.746818,-11029.068536,1480.411884,-689.485948
3579.747148,-11399.171507,962.267725,-1378.971896
3579.747478,-10732.986159,0.000000,-919.314598
3579.747808,-9104.533087,-814.226536,-766.095498
3579.748138,-8216.285956,-1480.411884,-459.657299
3579.748468,-7994.224174,-962.267725,1149.143247
3579.748798,-8882.471304,0.000000,2298.286494
3579.749128,-9474.636058,814.226536,1838.629195
3579.749457,-10140.821405,1554.432478,1225.752797
3579.749787,-10584.944971,1924.535449,536.266849
3579.750117,-11399.171507,1924.535449,0.000000
3579.750447,-11399.171507,1036.288319,-459.657299
3579.750777,-10881.027347,370.102971,-1455.581446
3579.751107,-9030.512492,-296.082377,-1455.581446
3579.751437,-7994.224174,-592.164754,-842.705048
3579.751767,-8364.327145,0.000000,1608.800546
3579.752097,-9326.594869,444.123565,2451.505594
3579.752426,-10288.862594,1480.411884,2221.676944
3579.752756,-10807.006753,1628.453072,1378.971896
3579.753086,-11843.295072,1850.514855,536.266849
3579.753416,-11917.315666,962.267725,-459.657299
3579.753746,-11843.295072,296.082377,-919.314598
3579.754076,-10066.800811,-888.247130,-1532.190996
3579.754406,-8290.306550,-1480.411884,-1378.971896
3579.754736,-7105.977043,-1554.432478,-612.876398
3579.755066,-7105.977043,-1258.350101,1149.143247
3579.755396,-8216.285956,-370.102971,1991.848295
3579.755725,-9252.574275,444.123565,2145.067394
3579.756055,-10436.903782,962.267725,1685.410096
3579.756385,-11251.130318,740.205942,1225.752797
3579.756715,-12213.398043,296.082377,612.876398
3579.757045,-12139.377449,-296.082377,-229.828649
3579.757375,-10658.965565,-1406.391290,-306.438199
3579.757705,-8586.388927,-1702.473667,-1072.533697
3579.758035,-7920.203579,-1628.453072,-383.047749
3579.758365,-8512.368333,-962.267725,0.000000
3579.758695,-8956.491898,0.000000,459.657299
3579.759024,-9030.512492,740.205942,76.609550
3579.759354,-9992.780217,370.102971,0.000000
3579.759684,-10807.006753,444.123565,-612.876398
3579.760014,-11695.253884,-222.061783,-919.314598
3579.760344,-11177.109724,-1184.329507,-612.876398
3579.760674,-9844.739029,-2294.638420,-459.657299
3579.761004,-8882.471304,-2368.659014,153.219100
3579.761334,-8290.306550,-2294.638420,1149.143247
3579.761664,-8438.347739,-2072.576638,2374.896044
3579.761993,-9474.636058,-444.123565,2298.286494
3579.762323,-10140.821405,518.144159,1762.019645
3579.762653,-10362.883188,592.164754,306.438199
3579.762983,-11325.150913,518.144159,-229.828649
3579.763313,-11695.253884,518.144159,-536.266849
3579.763643,-10732.986159,-814.226536,-1685.410096
3579.763973,-9030.512492,-1332.370696,-1302.362347
3579.764303,-7772.162391,-1702.473667,-306.438199
3579.764633,-7920.203579,-1110.308913,612.876398
3579.764963,-9104.533087,-296.082377,1915.238745
3579.765292,-9696.697840,444.123565,1838.629195
3579.765622,-10214.842000,1110.308913,995.924147
3579.765952,-11029.068536,1184.329507,306.438199
3579.766282,-11917.315666,1110.308913,-919.314598
3579.766612,-11769.274478,74.020594,-1762.019645
3579.766942,-10066.800811,-814.226536,-1991.848295
3579.767272,-8068.244768,-1554.432478,-995.924147
3579.767602,-6809.894666,-1258.350101,-306.438199
3579.767932,-6883.915261,-740.205942,1225.752797
3579.768262,-8068.244768,444.123565,2298.286494
3579.768591,-9548.656652,1776.494261,2221.676944
3579.768921,-10732.986159,1998.556043,1455.581446
3579.769251,-11547.212695,2294.638420,536.266849
3579.769581,-12213.398043,1776.494261,0.000000
3579.769911,-12139.377449,1036.288319,-842.705048
3579.770241,-10510.924376,0.000000,-919.314598
3579.770571,-8438.347739,-518.144159,-919.314598
3579.770901,-7550.100608,-296.082377,-536.266849
3579.771231,-8364.327145,370.102971,536.266849
3579.771560,-9474.636058,1628.453072,1455.581446
3579.771890,-10066.800811,2220.617826,842.705048
3579.772220,-10362.883188,2442.679609,0.000000
3579.772550,-11029.068536,1998.556043,-459.657299
3579.772880,-11473.192101,888.247130,-459.657299
3579.773210,-10658.965565,148.041188,0.000000
3579.773540,-9252.574275,-962.267725,0.000000
3579.773870,-8216.285956,-1258.350101,689.485948
3579.774200,-8216.285956,-666.185348,1762.019645
3579.774530,-8438.347739,296.082377,2681.334243
3579.774859,-9696.697840,1110.308913,2451.505594
3579.775189,-10658.965565,1776.494261,1225.752797
3579.775519,-10732.986159,1628.453072,306.438199
3579.775849,-11251.130318,1628.453072,-229.828649
3579.776179,-11547.212695,814.226536,-842.705048
3579.776509,-10584.944971,0.000000,-1608.800546
3579.776839,-8660.409521,-1036.288319,-1532.190996
3579.777169,-7402.059420,-1110.308913,-842.705048
3579.777499,-8068.244768,-444.123565,612.876398
3579.777828,-8956.491898,74.020594,1991.848295
3579.778158,-9992.780217,1036.288319,2374.896044
3579.778488,-10584.944971,1184.329507,1455.581446
3579.778818,-11843.295072,1406.391290,0.000000
3579.779148,-12139.377449,444.123565,-919.314598
3579.779478,-11621.233289,-666.185348,-1302.362347
3579.779808,-9844.739029,-1332.370696,-1302.362347
3579.780138,-7846.182985,-1776.494261,-1455.581446
3579.780468,-6809.894666,-1924.535449,0.000000
3579.780798,-7105.977043,-1184.329507,1149.143247
3579.781127,-8438.347739,0.000000,1762.019645
3579.781457,-9474.636058,814.226536,1838.629195
3579.781787,-11029.068536,1480.411884,1149.143247
3579.782117,-11621.233289,1258.350101,1072.533697
3579.782447,-12583.501014,518.144159,306.438199
3579.782777,-12287.418637,-370.102971,0.000000
3579.783107,-10658.965565,-1480.411884,-766.095498
3579.783437,-8586.388927,-1850.514855,-1378.971896
3579.783767,-7920.203579,-1702.473667,-536.266849
3579.784096,-8438.347739,-814.226536,536.266849
3579.784426,-9104.533087,370.102971,1532.190996
3579.784756,-9400.615463,962.267725,995.924147
3579.785086,-10214.842000,1406.391290,0.000000
3579.785416,-11325.150913,1036.288319,-306.438199
3579.785746,-11695.253884,370.102971,-766.095498
3579.786076,-11473.192101,-666.185348,-1149.143247
3579.786406,-9474.636058,-1480.411884,-689.485948
3579.786736,-8290.306550,-2220.617826,0.000000
3579.787065,-7920.203579,-1998.556043,459.657299
3579.787395,-8586.388927,-592.164754,2374.896044
3579.787725,-9548.656652,370.102971,2068.457845
3579.788055,-10140.821405,962.267725,842.705048
3579.788385,-10362.883188,1332.370696,153.219100
3579.788715,-11177.109724,1406.391290,-459.657299
3579.789045,-11473.192101,888.247130,-689.485948
3579.789375,-10510.924376,-296.082377,-1149.143247
3579.789705,-8734.430116,-1036.288319,-1762.019645
3579.790035,-7402.059420,-1332.370696,-612.876398
3579.790364,-7772.162391,-740.205942,766.095498
3579.790694,-9474.636058,222.061783,1915.238745
3579.791024,-10140.821405,1184.329507,2145.067394
3579.791354,-10214.842000,1480.411884,1532.190996
3579.791684,-11399.171507,1702.473667,0.000000
3579.792014,-11621.233289,962.267725,-1149.143247
3579.792344,-11547.212695,0.000000,-1838.629195
3579.792674,-9918.759623,-814.226536,-1991.848295
3579.793004,-7920.203579,-1554.432478,-1378.971896
3579.793333,-7105.977043,-1258.350101,-76.609550
3579.793663,-7402.059420,-740.205942,766.095498
3579.793993,-8438.347739,222.061783,1762.019645
3579.794323,-9548.656652,1184.329507,2068.457845
3579.794653,-10584.944971,1628.453072,1302.362347
3579.794983,-11547.212695,1702.473667,1072.533697
3579.795313,-12213.398043,1184.329507,612.876398
3579.795643,-11695.253884,222.061783,229.828649
3579.795973,-10658.965565,-370.102971,-1072.533697
3579.796302,-8882.471304,-888.247130,-1225.752797
3579.796632,-8068.244768,-962.267725,-383.047749
3579.796962,-8216.285956,-444.123565,612.876398
3579.797292,-9030.512492,592.164754,1302.362347
3579.797622,-9400.615463,1036.288319,1302.362347
3579.797952,-10214.842000,1554.432478,0.000000
3579.798282,-11103.089130,1036.288319,-536.266849
3579.798612,-11399.171507,518.144159,-995.924147
3579.798942,-10584.944971,-592.164754,-612.876398
3579.799272,-9770.718434,-1480.411884,383.047749
3579.799601,-8660.409521,-1850.514855,536.266849
3579.799931,-8142.265362,-1332.370696,1302.362347
3579.800261,-8512.368333,-666.185348,2451.505594
3579.800591,-9696.697840,444.123565,2145.067394
3579.800921,-10214.842000,1258.350101,919.314598
3579.801251,-10658.965565,1480.411884,0.000000
3579.801581,-11177.109724,1332.370696,-612.876398
3579.801911,-11473.192101,666.185348,-842.705048
3579.802241,-10584.944971,-148.041188,-1225.752797
3579.802570,-8808.450710,-1036.288319,-1608.800546
3579.802900,-7328.038826,-1776.494261,-1302.362347
3579.803230,-8068.244768,-740.205942,306.438199
3579.803560,-9474.636058,222.061783,1915.238745
3579.803890,-9844.739029,814.226536,2068.457845
3579.804220,-10362.883188,1702.473667,1225.752797
3579.804550,-11695.253884,1332.370696,0.000000
3579.804880,-11843.295072,444.123565,-1302.362347
3579.805210,-11547.212695,-222.061783,-1762.019645
3579.805540,-9622.677246,-814.226536,-2298.286494
3579.805869,-7698.141797,-1998.556043,-1378.971896
3579.806199,-6735.874072,-1850.514855,-306.438199
3579.806529,-7328.038826,-1184.329507,689.485948
3579.806859,-8142.265362,148.041188,1532.190996
3579.807189,-9770.718434,814.226536,1991.848295
3579.807519,-10732.986159,1554.432478,1532.190996
3579.807849,-11843.295072,1480.411884,1149.143247
3579.808179,-12509.480420,962.267725,842.705048
3579.808509,-12509.480420,222.061783,-383.047749
3579.808838,-10436.903782,-888.247130,-919.314598
3579.809168,-8586.388927,-1628.453072,-1149.143247
3579.809498,-8068.244768,-1036.288319,-536.266849
3579.809828,-8808.450710,-74.020594,919.314598
3579.810158,-9326.594869,518.144159,2068.457845
3579.810488,-9622.677246,1406.391290,842.705048
3579.810818,-9918.759623,1332.370696,-459.657299
3579.811148,-10807.006753,1036.288319,-995.924147
3579.811478,-11399.171507,0.000000,-842.705048
3579.811807,-10732.986159,-740.205942,-689.485948
3579.812137,-9474.636058,-1480.411884,0.000000
3579.812467,-8586.388927,-1924.535449,459.657299
3579.812797,-7402.059420,-1702.473667,1302.362347
3579.813127,-8586.388927,-666.185348,2145.067394
3579.813457,-9844.739029,592.164754,2221.676944
3579.813787,-10584.944971,1332.370696,919.314598
3579.814117,-10436.903782,1702.473667,0.000000
3579.814447,-11325.150913,1406.391290,-612.876398
3579.814777,-11251.130318,370.102971,-1225.752797
3579.815106,-9918.759623,-666.185348,-1762.019645
3579.815436,-8438.347739,-666.185348,-1991.848295
3579.815766,-7328.038826,-1332.370696,-995.924147
3579.816096,-8068.244768,-444.123565,766.095498
3579.816426,-9400.615463,0.000000,1608.800546
3579.816756,-10288.862594,962.267725,1838.629195
3579.817086,-10807.006753,1554.432478,919.314598
3579.817416,-11621.233289,1554.432478,0.000000
3579.817746,-11917.315666,740.205942,-1149.143247
3579.818075,-11769.274478,0.000000,-1991.848295
3579.818405,-9474.636058,-1110.308913,-1991.848295
3579.818735,-8068.244768,-1480.411884,-1302.362347
3579.819065,-7179.997637,-1184.329507,-383.047749
3579.819395,-7328.038826,-592.164754,1149.143247
3579.819725,-8734.430116,888.247130,1915.238745
3579.820055,-10140.821405,1258.350101,2145.067394
3579.820385,-10881.027347,1702.473667,1608.800546
3579.820715,-11621.233289,1332.370696,1455.581446
3579.821045,-12213.398043,1036.288319,612.876398
3579.821374,-12139.377449,222.061783,229.828649
3579.821704,-10658.965565,-740.205942,-306.438199
3579.822034,-8882.471304,-1184.329507,-612.876398
3579.822364,-7624.121203,-1184.329507,0.000000
3579.822694,-8364.327145,-222.061783,383.047749
3579.823024,-8660.409521,666.185348,1225.752797
3579.823354,-9326.594869,1332.370696,995.924147
3579.823684,-10066.800811,1702.473667,153.219100
3579.824014,-10584.944971,1406.391290,-1455.581446
3579.824343,-11399.171507,222.061783,-766.095498
3579.824673,-10584.944971,-518.144159,-1225.752797
3579.825003,-9326.594869,-1258.350101,-229.828649
3579.825333,-8068.244768,-1332.370696,536.266849
3579.825663,-7846.182985,-1110.308913,919.314598
3579.825993,-8512.368333,-518.144159,1838.629195
3579.826323,-9770.718434,740.205942,1378.971896
3579.826653,-10362.883188,1480.411884,766.095498
3579.826983,-10732.986159,1776.494261,0.000000
3579.827312,-11251.130318,1258.350101,-689.485948
3579.827642,-11547.212695,740.205942,-995.924147
3579.827972,-10140.821405,-296.082377,-1762.019645
3579.828302,-8290.306550,-740.205942,-1302.362347
3579.828632,-7624.121203,-1110.308913,-536.266849
3579.828962,-8586.388927,-296.082377,919.314598
3579.829292,-9548.656652,296.082377,2145.067394
3579.829622,-10362.883188,1110.308913,2451.505594
3579.829952,-10807.006753,1406.391290,1455.581446
3579.830282,-11991.336260,1480.411884,0.000000
3579.830611,-12065.356855,666.185348,-1149.143247
3579.830941,-11621.233289,-296.082377,-1302.362347
3579.831271,-9622.677246,-1332.370696,-1762.019645
3579.831601,-7624.121203,-1998.556043,-995.924147
3579.831931,-6735.874072,-1702.473667,76.609550
3579.832261,-7328.038826,-1184.329507,1455.581446
3579.832591,-8882.471304,74.020594,1991.848295
3579.832921,-10066.800811,1184.329507,2298.286494
3579.833251,-11177.109724,1628.453072,1838.629195
3579.833580,-11547.212695,1480.411884,1149.143247
3579.833910,-12213.398043,1036.288319,766.095498
3579.834240,-11991.336260,0.000000,153.219100
3579.834570,-10214.842000,-888.247130,-459.657299
3579.834900,-8438.347739,-1332.370696,-1072.533697
3579.835230,-7550.100608,-1258.350101,-612.876398
3579.835560,-8290.306550,-296.082377,536.266849
3579.835890,-8734.430116,814.226536,1455.581446
3579.836220,-9622.677246,1628.453072,689.485948
3579.836549,-10362.883188,1628.453072,0.000000
3579.836879,-10955.047942,1332.370696,-995.924147
3579.837209,-11621.233289,296.082377,-536.266849
3579.837539,-11103.089130,-740.205942,-689.485948
3579.837869,-9178.553681,-1554.432478,-306.438199
3579.838199,-7772.162391,-1776.494261,76.609550
3579.838529,-7772.162391,-1332.370696,1378.971896
3579.838859,-8660.409521,-74.020594,1915.238745
3579.839189,-9992.780217,1110.308913,1608.800546
3579.839519,-10658.965565,2072.576638,842.705048
3579.839848,-11103.089130,1924.535449,153.219100
3579.840178,-11325.150913,1554.432478,-689.485948
3579.840508,-11695.253884,740.205942,-842.705048
3579.840838,-10288.862594,-518.144159,-1149.143247
3579.841168,-8956.491898,-1036.288319,-1225.752797
3579.841498,-7624.121203,-1036.288319,76.609550
3579.841828,-7994.224174,-444.123565,1608.800546
3579.842158,-9400.615463,518.144159,2528.115143
3579.842488,-10362.883188,1480.411884,2528.115143
3579.842817,-11103.089130,1702.473667,1149.143247
3579.843147,-11473.192101,1406.391290,0.000000
3579.843477,-11769.274478,444.123565,-1149.143247
3579.843807,-11251.130318,-592.164754,-1762.019645
3579.844137,-9178.553681,-1406.391290,-1915.238745
3579.844467,-7402.059420,-1924.535449,-1532.190996
3579.844797,-6439.791695,-1850.514855,0.000000
3579.845127,-7105.977043,-1258.350101,1149.143247
3579.845457,-8438.347739,222.061783,2374.896044
3579.845787,-10140.821405,1332.370696,1838.629195
3579.846116,-11029.068536,1850.514855,1302.362347
3579.846446,-11621.233289,1332.370696,995.924147
3579.846776,-12287.418637,1110.308913,0.000000
3579.847106,-12287.418637,-296.082377,-229.828649
3579.847436,-10140.821405,-1258.350101,-919.314598
3579.847766,-8290.306550,-1406.391290,-1532.190996
3579.848096,-7698.141797,-888.247130,-995.924147
3579.848426,-8142.265362,-296.082377,612.876398
3579.848756,-9030.512492,666.185348,1225.752797
3579.849085,-9548.656652,1480.411884,383.047749
3579.849415,-10436.903782,2072.576638,0.000000
3579.849745,-11325.150913,1036.288319,-612.876398
3579.850075,-11843.295072,0.000000,-536.266849
3579.850405,-10881.027347,-888.247130,-536.266849
3579.850735,-9400.615463,-2072.576638,-383.047749
3579.851065,-8290.306550,-1850.514855,153.219100
3579.851395,-7698.141797,-1850.514855,1455.581446
3579.851725,-8734.430116,-296.082377,2221.676944
3579.852054,-10140.821405,962.267725,1762.019645
3579.852384,-10732.986159,1702.473667,995.924147
3579.852714,-11103.089130,1332.370696,306.438199
3579.853044,-11473.192101,1332.370696,-383.047749
3579.853374,-11325.150913,518.144159,-1455.581446
3579.853704,-10362.883188,-74.020594,-1302.362347
3579.854034,-8438.347739,-1406.391290,-1072.533697
3579.854364,-7624.121203,-1258.350101,-306.438199
3579.854694,-8142.265362,-814.226536,1532.190996
3579.855024,-9474.636058,148.041188,2528.115143
3579.855353,-10066.800811,740.205942,2374.896044
3579.855683,-10881.027347,1480.411884,1302.362347
3579.856013,-11399.171507,1258.350101,0.000000
3579.856343,-11991.336260,518.144159,-612.876398
3579.856673,-11177.109724,0.000000,-1608.800546
3579.857003,-9474.636058,-1480.411884,-1608.800546
3579.857333,-7846.182985,-2072.576638,-1455.581446
3579.857663,-7031.956449,-1554.432478,-76.609550
3579.857993,-7328.038826,-518.144159,919.314598
3579.858322,-8586.388927,518.144159,1838.629195
3579.858652,-9770.718434,1036.288319,1838.629195
3579.858982,-10881.027347,1554.432478,1455.581446
3579.859312,-11695.253884,1702.473667,995.924147
3579.859642,-12509.480420,814.226536,536.266849
3579.859972,-11917.315666,0.000000,-459.657299
3579.860302,-10140.821405,-1184.329507,-919.314598
3579.860632,-8438.347739,-1332.370696,-995.924147
3579.860962,-7476.080014,-814.226536,-383.047749
3579.861291,-8290.306550,-148.041188,306.438199
3579.861621,-9104.533087,666.185348,995.924147
3579.861951,-9696.697840,1480.411884,536.266849
3579.862281,-10436.903782,2146.597232,-536.266849
3579.862611,-11325.150913,1406.391290,-536.266849
3579.862941,-11473.192101,0.000000,-689.485948
3579.863271,-10510.924376,-888.247130,-1072.533697
3579.863601,-9326.594869,-1036.288319,-383.047749
3579.863931,-8068.244768,-1998.556043,306.438199
3579.864261,-7476.080014,-1406.391290,1762.019645
3579.864590,-8586.388927,0.000000,2757.943793
3579.864920,-9622.677246,1036.288319,2451.505594
3579.865250,-10510.924376,1850.514855,919.314598
3579.865580,-10881.027347,1628.453072,306.438199
3579.865910,-11695.253884,1332.370696,-153.219100
3579.866240,-11621.233289,666.185348,-612.876398
3579.866570,-10066.800811,-148.041188,-306.438199
3579.866900,-8586.388927,-1184.329507,-1225.752797
3579.867230,-7402.059420,-1110.308913,-383.047749
3579.867559,-8290.306550,-148.041188,766.095498
3579.867889,-9474.636058,518.144159,1762.019645
3579.868219,-10066.800811,1332.370696,2145.067394
3579.868549,-10658.965565,1702.473667,1302.362347
3579.868879,-11769.274478,1628.453072,306.438199
3579.869209,-12287.418637,962.267725,-536.266849
3579.869539,-11621.233289,0.000000,-1225.752797
3579.869869,-9770.718434,-962.267725,-2068.457845
3579.870199,-7550.100608,-1776.494261,-1378.971896
3579.870529,-6809.894666,-1628.453072,0.000000
3579.870858,-7105.977043,-888.247130,1455.581446
3579.871188,-8512.368333,370.102971,2145.067394
3579.871518,-9770.718434,1036.288319,1915.238745
3579.871848,-10658.965565,1406.391290,1455.581446
3579.872178,-11473.192101,1258.350101,1762.019645
3579.872508,-12435.459826,1036.288319,306.438199
3579.872838,-11547.212695,-370.102971,-153.219100
3579.873168,-10288.862594,-1184.329507,-1072.533697
3579.873498,-8290.306550,-1554.432478,-1072.533697
3579.873827,-8068.244768,-1258.350101,0.000000
3579.874157,-8364.327145,-592.164754,612.876398
3579.874487,-9252.574275,666.185348,689.485948
3579.874817,-9252.574275,1628.453072,383.047749
3579.875147,-10066.800811,1628.453072,-229.828649
3579.875477,-11103.089130,1110.308913,-1225.752797
3579.875806,-11695.253884,296.082377,-1455.581446
3579.876136,-10807.006753,-518.144159,-1378.971896
3579.876466,-9030.512492,-1480.411884,-1149.143247
3579.876796,-8068.244768,-2072.576638,383.047749
3579.877125,-7994.224174,-1480.411884,1455.581446
3579.877455,-8438.347739,-518.144159,2451.505594
3579.877785,-9474.636058,888.247130,2221.676944
3579.878115,-9844.739029,814.226536,1302.362347
3579.878445,-10584.944971,1332.370696,612.876398
3579.878774,-11473.192101,1258.350101,153.219100
3579.879104,-11473.192101,444.123565,-612.876398
3579.879434,-10658.965565,-222.061783,-1532.190996
3579.879764,-8734.430116,-1184.329507,-1532.190996
3579.880094,-7846.182985,-1406.391290,-459.657299
3579.880423,-8438.347739,-740.205942,842.705048
3579.880753,-9178.553681,0.000000,2221.676944
3579.881083,-10214.842000,740.205942,1685.410096
3579.881413,-10658.965565,1332.370696,919.314598
3579.881743,-11547.212695,1258.350101,0.000000
3579.882072,-12139.377449,888.247130,-383.047749
3579.882402,-11843.295072,0.000000,-1072.533697
3579.882732,-9992.780217,-962.267725,-1455.581446
3579.883062,-8216.285956,-2146.597232,-1532.190996
3579.883392,-7031.956449,-1776.494261,-306.438199
3579.883721,-7328.038826,-1110.308913,1149.143247
3579.884051,-8142.265362,0.000000,1762.019645
3579.884381,-9326.594869,666.185348,2145.067394
3579.884711,-10140.821405,962.267725,2068.457845
3579.885041,-11325.150913,1258.350101,1915.238745
3579.885370,-12213.398043,962.267725,612.876398
3579.885700,-11843.295072,-74.020594,0.000000
3579.886030,-10436.903782,-888.247130,-842.705048
3579.886360,-8586.388927,-1332.370696,-766.095498
3579.886689,-7920.203579,-1036.288319,76.609550
3579.887019,-8438.347739,0.000000,383.047749
3579.887349,-8734.430116,592.164754,612.876398
3579.887679,-9474.636058,1406.391290,153.219100
3579.888009,-10436.903782,1702.473667,-459.657299
3579.888338,-11103.089130,1480.411884,-1072.533697
3579.888668,-11399.171507,592.164754,-612.876398
3579.888998,-10955.047942,-444.123565,-689.485948
3579.889328,-9474.636058,-1110.308913,-383.047749
3579.889658,-8290.306550,-1924.535449,0.000000
3579.889987,-7994.224174,-1554.432478,1225.752797
3579.890317,-8734.430116,-370.102971,2145.067394
3579.890647,-9696.697840,518.144159,2451.505594
3579.890977,-10510.924376,1184.329507,1608.800546
3579.891307,-10955.047942,1554.432478,842.705048
3579.891636,-11325.150913,1184.329507,0.000000
3579.891966,-11547.212695,518.144159,-689.485948
3579.892296,-10436.903782,-296.082377,-1302.362347
3579.892626,-8734.430116,-888.247130,-1455.581446
3579.892956,-7402.059420,-1036.288319,-229.828649
3579.893285,-8142.265362,-592.164754,995.924147
3579.893615,-9474.636058,518.144159,1378.971896
3579.893945,-10066.800811,1184.329507,1608.800546
3579.894275,-11177.109724,1776.494261,536.266849
3579.894604,-11473.192101,1628.453072,-229.828649
3579.894934,-11843.295072,888.247130,-1072.533697
3579.895264,-11177.109724,-296.082377,-1608.800546
3579.895594,-9622.677246,-1110.308913,-1378.971896
3579.895924,-7920.203579,-1776.494261,-1225.752797
3579.896253,-6883.915261,-1480.411884,-229.828649
3579.896583,-7328.038826,-888.247130,995.924147
3579.896913,-8512.368333,444.123565,1991.848295
3579.897243,-9992.780217,1258.350101,1991.848295
3579.897573,-10955.047942,1776.494261,1225.752797
3579.897902,-11843.295072,1480.411884,842.705048
3579.898232,-12657.521608,740.205942,383.047749
3579.898562,-12361.439231,0.000000,-459.657299
3579.898892,-10658.965565,-740.205942,-689.485948
3579.899222,-8438.347739,-1480.411884,-612.876398
3579.899551,-7846.182985,-1110.308913,153.219100
3579.899881,-8290.306550,0.000000,766.095498
3579.900211,-9178.553681,1036.288319,995.924147
3579.900541,-9918.759623,2072.576638,766.095498
3579.900871,-10732.986159,2146.597232,-383.047749
3579.901200,-11325.150913,1480.411884,-842.705048
3579.901530,-11547.212695,74.020594,-612.876398
3579.901860,-10807.006753,-592.164754,-536.266849
3579.902190,-9252.574275,-1850.514855,-383.047749
3579.902520,-7994.224174,-1924.535449,536.266849
3579.902849,-7402.059420,-1850.514855,1762.019645
3579.903179,-8512.368333,-296.082377,2681.334243
3579.903509,-9474.636058,592.164754,2374.896044
3579.903839,-10214.842000,1480.411884,1225.752797
3579.904168,-10658.965565,1628.453072,689.485948
3579.904498,-11029.068536,1258.350101,0.000000
3579.904828,-11177.109724,444.123565,-536.266849
3579.905158,-10288.862594,-444.123565,-1225.752797
3579.905488,-8512.368333,-1036.288319,-1302.362347
3579.905817,-7254.018232,-1036.288319,-689.485948
3579.906147,-7920.203579,-888.247130,1072.533697
3579.906477,-9474.636058,518.144159,1685.410096
3579.906807,-10140.821405,1332.370696,1685.410096
3579.907137,-10732.986159,1776.494261,1072.533697
3579.907466,-11399.171507,1480.411884,-229.828649
3579.907796,-11843.295072,666.185348,-919.314598
3579.908126,-11695.253884,148.041188,-1149.143247
3579.908456,-9918.759623,-1184.329507,-1685.410096
3579.908786,-8290.306550,-1850.514855,-1072.533697
3579.909115,-7105.977043,-1776.494261,-76.609550
3579.909445,-7476.080014,-666.185348,1302.362347
3579.909775,-8734.430116,370.102971,2298.286494
3579.910105,-9696.697840,1036.288319,1838.629195
3579.910435,-11103.089130,1850.514855,1532.190996
3579.910764,-11399.171507,1258.350101,842.705048
3579.911094,-12657.521608,1036.288319,612.876398
3579.911424,-12213.398043,0.000000,229.828649
3579.911754,-10510.924376,-962.267725,-766.095498
3579.912084,-7994.224174,-1628.453072,-1378.971896
3579.912413,-7772.162391,-1036.288319,-689.485948
3579.912743,-8364.327145,-370.102971,536.266849
3579.913073,-8956.491898,592.164754,1225.752797
3579.913403,-9992.780217,1480.411884,383.047749
3579.913732,-10362.883188,1480.411884,-306.438199
3579.914062,-11177.109724,962.267725,-1532.190996
3579.914392,-11399.171507,0.000000,-1302.362347
3579.914722,-10140.821405,-1110.308913,-306.438199
3579.915052,-9030.512492,-1850.514855,-459.657299
3579.915381,-7920.203579,-2294.638420,0.000000
3579.915711,-7402.059420,-1850.514855,1302.362347
3579.916041,-8586.388927,-740.205942,2068.457845
3579.916371,-9844.739029,370.102971,1608.800546
3579.916701,-10658.965565,1332.370696,1302.362347
3579.917030,-10881.027347,1184.329507,459.657299
3579.917360,-11547.212695,888.247130,0.000000
3579.917690,-11621.233289,370.102971,-919.314598
3579.918020,-10732.986159,-222.061783,-1302.362347
3579.918350,-8808.450710,-1110.308913,-1225.752797
3579.918679,-7772.162391,-814.226536,-383.047749
3579.919009,-8512.368333,-370.102971,842.705048
3579.919339,-9844.739029,666.185348,2298.286494
3579.919669,-10288.862594,1258.350101,1838.629195
3579.919999,-10732.986159,1480.411884,689.485948
3579.920328,-11769.274478,1406.391290,76.609550
3579.920658,-12213.398043,740.205942,-612.876398
3579.920988,-11251.130318,-518.144159,-1455.581446
3579.921318,-9770.718434,-1110.308913,-1991.848295
3579.921648,-7920.203579,-1628.453072,-995.924147
3579.921977,-6957.935855,-1776.494261,0.000000
3579.922307,-7772.162391,-814.226536,1532.190996
3579.922637,-8364.327145,0.000000,2068.457845
3579.922967,-9474.636058,740.205942,2068.457845
3579.923296,-10214.842000,1480.411884,1685.410096
3579.923626,-11473.192101,1480.411884,1532.190996
3579.923956,-12213.398043,1110.308913,842.705048
3579.924286,-12213.398043,370.102971,153.219100
3579.924616,-10436.903782,-592.164754,-766.095498
3579.924945,-8586.388927,-1184.329507,-229.828649
3579.925275,-7624.121203,-888.247130,-383.047749
3579.925605,-8586.388927,-444.123565,229.828649
3579.925935,-8956.491898,814.226536,1072.533697
3579.926265,-9474.636058,1480.411884,612.876398
3579.926594,-10510.924376,1702.473667,-842.705048
3579.926924,-11103.089130,1184.329507,-612.876398
3579.927254,-11399.171507,296.082377,-459.657299
3579.927584,-10658.965565,-370.102971,-995.924147
3579.927914,-9918.759623,-1110.308913,383.047749
3579.928243,-8364.327145,-1924.535449,536.266849
3579.928573,-7846.182985,-1480.411884,1302.362347
3579.928903,-8438.347739,-740.205942,2528.115143
3579.929233,-9696.697840,592.164754,2834.553343
3579.929563,-10362.883188,1184.329507,1685.410096
3579.929892,-10732.986159,1406.391290,536.266849
3579.930222,-11399.171507,1332.370696,-306.438199
3579.930552,-11473.192101,814.226536,-1072.533697
3579.930882,-10658.965565,-296.082377,-1225.752797
3579.931212,-8512.368333,-1036.288319,-1532.190996
3579.931541,-7846.182985,-962.267725,-919.314598
3579.931871,-8364.327145,-740.205942,383.047749
3579.932201,-9326.594869,222.061783,1608.800546
3579.932531,-10066.800811,962.267725,1838.629195
3579.932860,-10807.006753,1702.473667,842.705048
3579.933190,-11769.274478,1110.308913,0.000000
3579.933520,-12065.356855,1036.288319,0.000000
3579.933850,-11325.150913,-222.061783,-1149.143247
3579.934180,-9622.677246,-888.247130,-1225.752797
3579.934509,-7994.224174,-1702.473667,-1225.752797
3579.934839,-7105.977043,-1554.432478,76.609550
3579.935169,-7550.100608,-1110.308913,1149.143247
3579.935499,-8512.368333,370.102971,1991.848295
3579.935829,-9326.594869,518.144159,1685.410096
3579.936158,-10288.862594,1332.370696,1762.019645
3579.936488,-11621.233289,1776.494261,1302.362347
3579.936818,-12435.459826,888.247130,766.095498
3579.937148,-12065.356855,0.000000,76.609550
3579.937478,-10732.986159,-666.185348,-306.438199
3579.937807,-8438.347739,-962.267725,-229.828649
3579.938137,-8364.327145,-814.226536,-536.266849
3579.938467,-8586.388927,0.000000,459.657299
3579.938797,-8882.471304,814.226536,919.314598
3579.939127,-9104.533087,1406.391290,766.095498
3579.939456,-9992.780217,1554.432478,-229.828649
3579.939786,-11177.109724,1406.391290,-1072.533697
3579.940116,-11843.295072,740.205942,-995.924147
3579.940446,-10658.965565,-370.102971,-1225.752797
3579.940776,-9252.574275,-1480.411884,-383.047749
3579.941105,-7846.182985,-1998.556043,0.000000
3579.941435,-7846.182985,-1406.391290,1455.581446
3579.941765,-8438.347739,-592.164754,2451.505594
3579.942095,-9696.697840,518.144159,2681.334243
3579.942424,-10436.903782,1258.350101,1532.190996
3579.942754,-11029.068536,1480.411884,536.266849
3579.943084,-11843.295072,1628.453072,0.000000
3579.943414,-11547.212695,740.205942,76.609550
3579.943744,-10510.924376,0.000000,-1302.362347
3579.944073,-8660.409521,-814.226536,-1302.362347
3579.944403,-7624.121203,-1184.329507,-689.485948
3579.944733,-8290.306550,-666.185348,612.876398
3579.945063,-9400.615463,222.061783,1378.971896
3579.945393,-9844.739029,962.267725,1685.410096
3579.945722,-10436.903782,1184.329507,766.095498
3579.946052,-11325.150913,1258.350101,0.000000
3579.946382,-12213.398043,1036.288319,-536.266849
3579.946712,-11473.192101,-296.082377,-919.314598
3579.947042,-9918.759623,-1332.370696,-1302.362347
3579.947371,-8290.306550,-1998.556043,-919.314598
3579.947701,-7031.956449,-1702.473667,76.609550
3579.948031,-7698.141797,-1036.288319,1302.362347
3579.948361,-8290.306550,0.000000,2145.067394
3579.948691,-9400.615463,888.247130,1915.238745
3579.949020,-9918.759623,1480.411884,1378.971896
3579.949350,-11399.171507,1406.391290,1072.533697
3579.949680,-12583.501014,1258.350101,842.705048
3579.950010,-12361.439231,222.061783,0.000000
3579.950339,-10807.006753,-740.205942,-995.924147
3579.950669,-8808.450710,-1332.370696,-766.095498
3579.950999,-8068.244768,-962.267725,-612.876398
3579.951329,-8290.306550,-296.082377,306.438199
3579.951659,-8956.491898,518.144159,459.657299
3579.951988,-8956.491898,1110.308913,1225.752797
3579.952318,-10658.965565,1776.494261,0.000000
3579.952648,-11621.233289,1184.329507,-766.095498
3579.952978,-11843.295072,222.061783,-995.924147
3579.953308,-10584.944971,-148.041188,-689.485948
3579.953637,-9104.533087,-1628.453072,-459.657299
3579.953967,-8290.306550,-1702.473667,229.828649
3579.954297,-7920.203579,-1480.411884,1532.190996
3579.954627,-8586.388927,-148.041188,2374.896044
3579.954957,-9696.697840,888.247130,2221.676944
3579.955286,-10510.924376,1480.411884,1225.752797
3579.955616,-11029.068536,1776.494261,689.485948
3579.955946,-11325.150913,1036.288319,153.219100
3579.956276,-10955.047942,148.041188,-766.095498
3579.956606,-10584.944971,-148.041188,-1378.971896
3579.956935,-8438.347739,-888.247130,-1378.971896
3579.957265,-7624.121203,-1184.329507,-459.657299
3579.957595,-7920.203579,-888.247130,995.924147
3579.957925,-9252.574275,296.082377,1532.190996
3579.958255,-10214.842000,888.247130,1685.410096
3579.958584,-10584.944971,1332.370696,459.657299
3579.958914,-11251.130318,1332.370696,-612.876398
3579.959244,-11621.233289,296.082377,-1225.752797
3579.959574,-11325.150913,-592.164754,-1532.190996
3579.959903,-9770.718434,-1480.411884,-1302.362347
3579.960233,-7698.141797,-2368.659014,-1149.143247
3579.960563,-6661.853478,-1776.494261,76.609550
3579.960893,-7031.956449,-1406.391290,1072.533697
3579.961223,-8290.306550,0.000000,1378.971896
3579.961552,-9548.656652,740.205942,1455.581446
3579.961882,-10362.883188,1628.453072,1532.190996
3579.962212,-11251.130318,1110.308913,995.924147
3579.962542,-12287.418637,518.144159,383.047749
3579.962872,-12065.356855,0.000000,76.609550
3579.963201,-10436.903782,-1036.288319,-1455.581446
3579.963531,-8660.409521,-1184.329507,-919.314598
3579.963861,-8290.306550,-1036.288319,-306.438199
3579.964191,-8734.430116,-296.082377,689.485948
3579.964521,-9104.533087,740.205942,919.314598
3579.964850,-9474.636058,1332.370696,153.219100
3579.965180,-10288.862594,1776.494261,-536.266849
3579.965510,-11029.068536,1184.329507,-1072.533697
3579.965840,-11843.295072,222.061783,-919.314598
3579.966170,-10658.965565,-148.041188,-766.095498
3579.966499,-9474.636058,-1702.473667,76.609550
3579.966829,-8290.306550,-1924.535449,1072.533697
3579.967159,-8142.265362,-1258.350101,1838.629195
3579.967489,-8882.471304,0.000000,1532.190996
3579.967819,-9844.739029,740.205942,2145.067394
3579.968148,-10658.965565,1554.432478,1685.410096
3579.968478,-10807.006753,1776.494261,766.095498
3579.968808,-11251.130318,1332.370696,76.609550
3579.969138,-11399.171507,888.247130,-766.095498
3579.969467,-10288.862594,296.082377,-1302.362347
3579.969797,-8438.347739,-814.226536,-1302.362347
3579.970127,-7624.121203,-888.247130,-536.266849
3579.970457,-7994.224174,0.000000,459.657299
3579.970787,-9326.594869,740.205942,2145.067394
3579.971116,-10066.800811,1332.370696,1762.019645
3579.971446,-11029.068536,1702.473667,536.266849
3579.971776,-11399.171507,1480.411884,-766.095498
3579.972106,-11695.253884,666.185348,-689.485948
3579.972436,-11399.171507,74.020594,-842.705048
3579.972765,-9474.636058,-888.247130,-1685.410096
3579.973095,-7402.059420,-1850.514855,-1225.752797
3579.973425,-6661.853478,-1850.514855,0.000000
3579.973755,-7105.977043,-962.267725,995.924147
3579.974085,-8216.285956,148.041188,2068.457845
3579.974414,-9548.656652,962.267725,1915.238745
3579.974744,-10214.842000,1702.473667,842.705048
3579.975074,-11399.171507,1554.432478,919.314598
3579.975404,-12287.418637,814.226536,229.828649
3579.975734,-11991.336260,222.061783,-153.219100
3579.976063,-9918.759623,-592.164754,-1149.143247
3579.976393,-8512.368333,-1110.308913,-1225.752797
3579.976723,-8364.327145,-518.144159,-459.657299
3579.977053,-8808.450710,222.061783,229.828649
3579.977383,-8956.491898,888.247130,842.705048
3579.977712,-9252.574275,1554.432478,0.000000
3579.978042,-10510.924376,1702.473667,-306.438199
3579.978372,-11399.171507,1332.370696,-842.705048
3579.978702,-11695.253884,148.041188,-689.485948
3579.979032,-10732.986159,-666.185348,-766.095498
3579.979361,-9252.574275,-1924.535449,-459.657299
3579.979691,-8142.265362,-2220.617826,612.876398
3579.980021,-7698.141797,-1702.473667,1838.629195
3579.980351,-8512.368333,-740.205942,2911.162892
3579.980681,-9548.656652,222.061783,2451.505594
3579.981011,-10288.862594,888.247130,1378.971896
3579.981340,-10881.027347,1184.329507,306.438199
3579.981670,-11991.336260,1702.473667,306.438199
3579.982000,-11991.336260,518.144159,-612.876398
3579.982330,-10436.903782,-370.102971,-1455.581446
3579.982660,-8808.450710,-1258.350101,-1915.238745
3579.982989,-7698.141797,-1184.329507,-1072.533697
3579.983319,-8068.244768,-814.226536,459.657299
3579.983649,-8956.491898,0.000000,1991.848295
3579.983979,-9548.656652,222.061783,2221.676944
3579.984309,-10510.924376,814.226536,1225.752797
3579.984639,-11547.212695,1480.411884,153.219100
3579.984968,-11991.336260,592.164754,-612.876398
3579.985298,-11621.233289,-740.205942,-1532.190996
3579.985628,-10214.842000,-1036.288319,-1532.190996
3579.985958,-8438.347739,-1480.411884,-995.924147
3579.986288,-6883.915261,-1850.514855,153.219100
3579.986617,-7328.038826,-1184.329507,1302.362347
3579.986947,-7846.182985,0.000000,1378.971896
3579.987277,-9400.615463,666.185348,1225.752797
3579.987607,-10362.883188,1184.329507,1149.143247
3579.987937,-11473.192101,1480.411884,1149.143247
3579.988266,-12361.439231,1110.308913,459.657299
3579.988596,-11991.336260,222.061783,-229.828649
3579.988926,-10732.986159,-296.082377,-1302.362347
3579.989256,-9030.512492,-592.164754,-1838.629195
3579.989586,-8364.327145,-740.205942,-766.095498
3579.989916,-8808.450710,0.000000,689.485948
3579.990245,-9104.533087,444.123565,1532.190996
3579.990575,-9104.533087,1110.308913,229.828649
3579.990905,-9992.780217,1480.411884,0.000000
3579.991235,-10955.047942,814.226536,-383.047749
3579.991565,-11325.150913,740.205942,-536.266849
3579.991894,-10584.944971,-444.123565,-459.657299
3579.992224,-9178.553681,-1332.370696,0.000000
3579.992554,-8068.244768,-1776.494261,229.828649
3579.992884,-8142.265362,-1110.308913,1302.362347
3579.993214,-8956.491898,0.000000,2221.676944
3579.993544,-9474.636058,296.082377,1991.848295
3579.993873,-10140.821405,1110.308913,1378.971896
3579.994203,-10510.924376,1406.391290,612.876398
3579.994533,-11399.171507,1702.473667,229.828649
3579.994863,-11695.253884,962.267725,-383.047749
3579.995193,-10881.027347,222.061783,-1149.143247
3579.995522,-8660.409521,-592.164754,-1455.581446
3579.995852,-7846.182985,-592.164754,-536.266849
3579.996182,-8512.368333,-370.102971,76.609550
3579.996512,-9474.636058,370.102971,1455.581446
3579.996842,-9918.759623,1110.308913,1378.971896
3579.997171,-10362.883188,1332.370696,1072.533697
3579.997501,-11547.212695,1036.288319,-383.047749
3579.997831,-11843.295072,518.144159,-612.876398
3579.998161,-11695.253884,-222.061783,-689.485948
3579.998491,-9918.759623,-962.267725,-919.314598
3579.998821,-7772.162391,-2146.597232,-459.657299
3579.999150,-6957.935855,-1850.514855,306.438199
3579.999480,-7402.059420,-1332.370696,1532.190996
3579.999810,-8438.347739,74.020594,1685.410096
3580.000140,-9252.574275,370.102971,2298.286494
3580.000470,-10140.821405,888.247130,1302.362347
3580.000799,-11177.109724,1184.329507,612.876398
3580.001129,-12287.418637,962.267725,76.609550
3580.001459,-12139.377449,444.123565,-612.876398
3580.001789,-10436.903782,-370.102971,-1838.629195
3580.002119,-8882.471304,-1110.308913,-1915.238745
3580.002449,-8142.265362,-814.226536,-842.705048
3580.002778,-8512.368333,-148.041188,536.266849
3580.003108,-9030.512492,370.102971,842.705048
3580.003438,-9474.636058,1110.308913,229.828649
3580.003768,-10362.883188,1332.370696,-229.828649
3580.004098,-11251.130318,1110.308913,-612.876398
3580.004427,-11769.274478,740.205942,-153.219100
3580.004757,-11029.068536,-444.123565,-459.657299
3580.005087,-9548.656652,-1184.329507,0.000000
3580.005417,-8364.327145,-1776.494261,842.705048
3580.005747,-8068.244768,-1406.391290,1838.629195
3580.006076,-8734.430116,-592.164754,2068.457845
3580.006406,-9548.656652,444.123565,2374.896044
3580.006736,-10066.800811,1110.308913,1532.190996
3580.007066,-10658.965565,1258.350101,1149.143247
3580.007396,-11621.233289,1702.473667,306.438199
3580.007726,-12065.356855,1036.288319,-306.438199
3580.008055,-10807.006753,0.000000,-1532.190996
3580.008385,-8882.471304,-814.226536,-1762.019645
3580.008715,-7624.121203,-296.082377,-766.095498
3580.009045,-8586.388927,-518.144159,536.266849
3580.009375,-9104.533087,0.000000,1378.971896
3580.009704,-9844.739029,666.185348,1608.800546
3580.010034,-9992.780217,1258.350101,689.485948
3580.010364,-11177.109724,1036.288319,-459.657299
3580.010694,-11769.274478,518.144159,-919.314598
3580.011024,-11399.171507,-148.041188,-1302.362347
3580.011353,-9622.677246,-962.267725,-1455.581446
3580.011683,-8142.265362,-1998.556043,-995.924147
3580.012013,-6735.874072,-2146.597232,153.219100
3580.012343,-7105.977043,-1480.411884,766.095498
3580.012673,-8068.244768,-296.082377,2145.067394
3580.013003,-9474.636058,444.123565,1302.362347
3580.013332,-10436.903782,1332.370696,842.705048
3580.013662,-11547.212695,1406.391290,306.438199
3580.013992,-12509.480420,962.267725,76.609550
3580.014322,-12213.398043,666.185348,0.000000
3580.014652,-10807.006753,-222.061783,-1685.410096
3580.014981,-9030.512492,-888.247130,-1455.581446
3580.015311,-8290.306550,-814.226536,-842.705048
3580.015641,-8882.471304,0.000000,536.266849
3580.015971,-9252.574275,296.082377,1149.143247
3580.016301,-9400.615463,888.247130,383.047749
3580.016631,-10140.821405,1036.288319,0.000000
3580.016960,-11103.089130,592.164754,-612.876398
3580.017290,-11473.192101,222.061783,-612.876398
3580.017620,-10807.006753,-740.205942,-459.657299
3580.017950,-9326.594869,-1554.432478,536.266849
3580.018280,-8142.265362,-1998.556043,1378.971896
3580.018609,-7920.203579,-1480.411884,2145.067394
3580.018939,-8956.491898,-814.226536,2681.334243
3580.019269,-10066.800811,518.144159,2221.676944
3580.019599,-10362.883188,1110.308913,1072.533697
3580.019929,-10362.883188,1554.432478,383.047749
3580.020258,-11695.253884,1554.432478,0.000000
3580.020588,-11621.233289,740.205942,-766.095498
3580.020918,-10288.862594,-148.041188,-1225.752797
3580.021248,-8438.347739,-814.226536,-1685.410096
3580.021578,-7402.059420,-1110.308913,-459.657299
3580.021908,-8216.285956,-370.102971,612.876398
3580.022237,-9178.553681,148.041188,1762.019645
3580.022567,-9696.697840,666.185348,2221.676944
3580.022897,-10214.842000,1036.288319,919.314598
3580.023227,-11769.274478,1406.391290,0.000000
3580.023557,-12287.418637,888.247130,-919.314598
3580.023886,-11621.233289,-148.041188,-1225.752797
3580.024216,-9622.677246,-1036.288319,-1685.410096
3580.024546,-7846.182985,-1554.432478,-842.705048
3580.024876,-7328.038826,-1332.370696,153.219100
3580.025206,-7624.121203,-592.164754,1302.362347
3580.025536,-8438.347739,222.061783,1302.362347
3580.025865,-9474.636058,1036.288319,919.314598
3580.026195,-10362.883188,1850.514855,842.705048
3580.026525,-11621.233289,1776.494261,919.314598
3580.026855,-13027.624579,1554.432478,306.438199
3580.027185,-12139.377449,592.164754,0.000000
3580.027514,-10807.006753,-74.020594,-919.314598
3580.027844,-8882.471304,-814.226536,-995.924147
3580.028174,-8364.327145,-518.144159,0.000000
3580.028504,-8512.368333,518.144159,842.705048
3580.028834,-8956.491898,740.205942,1225.752797
3580.029163,-9326.594869,1554.432478,383.047749
3580.029493,-9770.718434,1480.411884,-536.266849
3580.029823,-10955.047942,1110.308913,-1762.019645
3580.030153,-11251.130318,370.102971,-919.314598
3580.030483,-10288.862594,-444.123565,-612.876398
3580.030813,-9030.512492,-1258.350101,383.047749
3580.031142,-8290.306550,-1332.370696,1225.752797
3580.031472,-7698.141797,-1110.308913,1915.238745
3580.031802,-8586.388927,-296.082377,2145.067394
3580.032132,-9844.739029,444.123565,1991.848295
3580.032462,-10584.944971,962.267725,1225.752797
3580.032791,-10510.924376,1036.288319,919.314598
3580.033121,-11473.192101,1406.391290,229.828649
3580.033451,-11177.109724,740.205942,-612.876398
3580.033781,-10140.821405,-296.082377,-1608.800546
3580.034111,-8290.306550,-666.185348,-1915.238745
3580.034441,-7624.121203,-592.164754,-689.485948
3580.034770,-8216.285956,-222.061783,842.705048
3580.035100,-9178.553681,370.102971,1838.629195
3580.035430,-9844.739029,962.267725,1685.410096
3580.035760,-10807.006753,1480.411884,689.485948
3580.036090,-11917.315666,1184.329507,-689.485948
3580.036419,-12287.418637,296.082377,-1149.143247
3580.036749,-11769.274478,-296.082377,-995.924147
3580.037079,-9474.636058,-1110.308913,-919.314598
3580.037409,-7994.224174,-1554.432478,-612.876398
3580.037739,-7179.997637,-1480.411884,306.438199
3580.038068,-7476.080014,-1036.288319,1149.143247
3580.038398,-8290.306550,444.123565,995.924147
3580.038728,-9474.636058,888.247130,1302.362347
3580.039058,-10288.862594,1258.350101,1378.971896
3580.039388,-11399.171507,1184.329507,1225.752797
3580.039718,-12509.480420,666.185348,-229.828649
3580.040047,-11991.336260,0.000000,-612.876398
3580.040377,-10436.903782,-962.267725,-1149.143247
3580.040707,-8660.409521,-1184.329507,-919.314598
3580.041037,-8142.265362,-814.226536,0.000000
3580.041367,-8142.265362,-444.123565,1072.533697
3580.041696,-8512.368333,296.082377,1302.362347
3580.042026,-9178.553681,1036.288319,689.485948
3580.042356,-10140.821405,962.267725,-459.657299
3580.042686,-10807.006753,444.123565,-689.485948
3580.043016,-11547.212695,0.000000,-689.485948
3580.043346,-10436.903782,-740.205942,-383.047749
3580.043675,-8882.471304,-1776.494261,0.000000
3580.044005,-7772.162391,-1998.556043,153.219100
3580.044335,-7920.203579,-1554.432478,1838.629195
3580.044665,-8808.450710,-518.144159,2374.896044
3580.044995,-9474.636058,296.082377,1991.848295
3580.045324,-10140.821405,888.247130,1302.362347
3580.045654,-10658.965565,1258.350101,689.485948
3580.045984,-11547.212695,888.247130,-459.657299
3580.046314,-11695.253884,444.123565,-1149.143247
3580.046644,-10214.842000,-592.164754,-1608.800546
3580.046973,-8290.306550,-1110.308913,-1532.190996
3580.047303,-7698.141797,-740.205942,-306.438199
3580.047633,-8216.285956,-444.123565,536.266849
3580.047963,-9326.594869,74.020594,1302.362347
3580.048293,-9696.697840,1258.350101,919.314598
3580.048623,-10732.986159,1332.370696,383.047749
3580.048952,-11991.336260,1332.370696,-459.657299
3580.049282,-11917.315666,666.185348,-459.657299
3580.049612,-11251.130318,0.000000,-1225.752797
3580.049942,-9474.636058,-740.205942,-1532.190996
3580.050272,-7846.182985,-1702.473667,-1685.410096
3580.050601,-7105.977043,-1628.453072,-76.609550
3580.050931,-7476.080014,-962.267725,919.314598
3580.051261,-8068.244768,222.061783,2068.457845
3580.051591,-9474.636058,962.267725,1608.800546
3580.051921,-10288.862594,1776.494261,1378.971896
3580.052251,-11325.150913,1258.350101,1072.533697
3580.052580,-12139.377449,1036.288319,612.876398
3580.052910,-12287.418637,296.082377,-229.828649
3580.053240,-10807.006753,-296.082377,-536.266849
3580.053570,-9104.533087,-962.267725,-842.705048
3580.053900,-7772.162391,-1110.308913,0.000000
3580.054229,-8290.306550,0.000000,459.657299
3580.054559,-8734.430116,370.102971,766.095498
3580.054889,-9178.553681,1332.370696,459.657299
3580.055219,-10066.800811,1480.411884,-153.219100
3580.055549,-10807.006753,740.205942,-306.438199
3580.055878,-11399.171507,296.082377,-383.047749
3580.056208,-10807.006753,-296.082377,0.000000
3580.056538,-9770.718434,-1332.370696,0.000000
3580.056868,-8142.265362,-1702.473667,536.266849
3580.057198,-8216.285956,-1258.350101,2068.457845
3580.057528,-9178.553681,-222.061783,2757.943793
3580.057857,-10066.800811,666.185348,2068.457845
3580.058187,-10510.924376,1850.514855,842.705048
3580.058517,-11177.109724,1554.432478,536.266849
3580.058847,-11547.212695,1332.370696,-612.876398
3580.059177,-11547.212695,740.205942,-1149.143247
3580.059506,-9992.780217,74.020594,-1225.752797
3580.059836,-8290.306550,-888.247130,-1302.362347
3580.060166,-7402.059420,-814.226536,-459.657299
3580.060496,-8438.347739,-444.123565,536.266849
3580.060826,-9252.574275,222.061783,1532.190996
3580.061156,-9696.697840,888.247130,1455.581446
3580.061485,-11029.068536,1332.370696,1072.533697
3580.061815,-11769.274478,1184.329507,0.000000
3580.062145,-12435.459826,814.226536,-459.657299
3580.062475,-10955.047942,296.082377,-919.314598
3580.062805,-9474.636058,-1184.329507,-1532.190996
3580.063134,-7772.162391,-1702.473667,-1072.533697
3580.063464,-7105.977043,-1258.350101,229.828649
3580.063794,-7402.059420,-888.247130,1302.362347
3580.064124,-8438.347739,370.102971,2068.457845
3580.064454,-9474.636058,888.247130,1532.190996
3580.064783,-10510.924376,1184.329507,1149.143247
3580.065113,-11621.233289,1332.370696,1072.533697
3580.065443,-12287.418637,888.247130,536.266849
3580.065773,-11991.336260,0.000000,0.000000
3580.066103,-10510.924376,-888.247130,-842.705048
3580.066433,-8882.471304,-962.267725,-689.485948
3580.066762,-7994.224174,-962.267725,-229.828649
3580.067092,-8438.347739,-370.102971,689.485948
3580.067422,-8882.471304,518.144159,1072.533697
3580.067752,-9326.594869,1332.370696,306.438199
3580.068082,-10066.800811,1554.432478,-306.438199
3580.068411,-11029.068536,814.226536,-919.314598
3580.068741,-11251.130318,74.020594,-383.047749
3580.069071,-10658.965565,-666.185348,-612.876398
3580.069401,-9474.636058,-1702.473667,0.000000
3580.069731,-8364.327145,-1776.494261,766.095498
3580.070061,-7846.182985,-1924.535449,2068.457845
3580.070390,-8734.430116,-518.144159,2911.162892
3580.070720,-9918.759623,444.123565,2221.676944
3580.071050,-10066.800811,1036.288319,1225.752797
3580.071380,-10732.986159,1406.391290,383.047749
3580.071710,-11621.233289,1258.350101,-306.438199
3580.072039,-11399.171507,444.123565,-1072.533697
3580.072369,-9622.677246,-444.123565,-1532.190996
3580.072699,-8364.327145,-1110.308913,-1532.190996
3580.073029,-7698.141797,-962.267725,-536.266849
3580.073359,-7846.182985,-592.164754,536.266849
3580.073688,-9104.533087,0.000000,1455.581446
3580.074018,-9770.718434,666.185348,1838.629195
3580.074348,-10881.027347,1258.350101,919.314598
3580.074678,-11769.274478,888.247130,0.000000
3580.075008,-12361.439231,592.164754,-612.876398
3580.075338,-11621.233289,-148.041188,-1072.533697
3580.075667,-9770.718434,-1110.308913,-1685.410096
3580.075997,-7994.224174,-1850.514855,-919.314598
3580.076327,-7179.997637,-1554.432478,0.000000
3580.076657,-6809.894666,-1406.391290,995.924147
3580.076987,-8364.327145,222.061783,1991.848295
3580.077317,-9548.656652,888.247130,1532.190996
3580.077647,-10510.924376,1480.411884,1072.533697
3580.077976,-11695.253884,1702.473667,306.438199
3580.078306,-12361.439231,888.247130,153.219100
3580.078636,-11695.253884,0.000000,76.609550
3580.078966,-10288.862594,-518.144159,-766.095498
3580.079296,-8586.388927,-1110.308913,-919.314598
3580.079626,-8364.327145,-1036.288319,0.000000
3580.079956,-8216.285956,-296.082377,383.047749
3580.080285,-8586.388927,370.102971,842.705048
3580.080615,-9104.533087,1110.308913,612.876398
3580.080945,-9696.697840,1480.411884,-306.438199
3580.081275,-10881.027347,1036.288319,-459.657299
3580.081605,-11251.130318,0.000000,-842.705048
3580.081935,-10510.924376,-740.205942,-766.095498
3580.082265,-9326.594869,-1110.308913,0.000000
3580.082594,-8142.265362,-1850.514855,612.876398
3580.082924,-8216.285956,-1258.350101,1838.629195
3580.083254,-8882.471304,-444.123565,2221.676944
3580.083584,-9696.697840,444.123565,1838.629195
3580.083914,-10288.862594,1332.370696,536.266849
3580.084244,-10732.986159,1332.370696,229.828649
3580.084573,-11399.171507,1036.288319,-612.876398
3580.084903,-11177.109724,444.123565,-689.485948
3580.085233,-9696.697840,-370.102971,-1225.752797
3580.085563,-8068.244768,-740.205942,-1685.410096
3580.085893,-7994.224174,-666.185348,-766.095498
3580.086223,-8808.450710,-222.061783,766.095498
3580.086553,-9400.615463,370.102971,2374.896044
3580.086882,-10214.842000,1258.350101,2145.067394
3580.087212,-11029.068536,1554.432478,536.266849
3580.087542,-12139.377449,1480.411884,-459.657299
3580.087872,-12139.377449,592.164754,-612.876398
3580.088202,-11325.150913,-444.123565,-1302.362347
3580.088532,-9474.636058,-1258.350101,-1225.752797
3580.088862,-7698.141797,-1702.473667,-536.266849
3580.089191,-7031.956449,-1406.391290,459.657299
3580.089521,-7624.121203,-666.185348,1991.848295
3580.089851,-8956.491898,666.185348,2145.067394
3580.090181,-10066.800811,1110.308913,1608.800546
3580.090511,-10881.027347,1628.453072,1302.362347
3580.090841,-11399.171507,2072.576638,1455.581446
3580.091171,-12805.562797,1184.329507,612.876398
3580.091500,-11843.295072,148.041188,0.000000
3580.091830,-9770.718434,-592.164754,-766.095498
3580.092160,-8068.244768,-518.144159,-766.095498
3580.092490,-7624.121203,-740.205942,459.657299
3580.092820,-8142.265362,148.041188,995.924147
3580.093150,-8586.388927,962.267725,1532.190996
3580.093480,-9400.615463,1628.453072,612.876398
3580.093809,-10140.821405,1628.453072,-229.828649
3580.094139,-11103.089130,962.267725,-383.047749
3580.094469,-11177.109724,444.123565,-689.485948
3580.094799,-10436.903782,-592.164754,-306.438199
3580.095129,-8586.388927,-1406.391290,0.000000
3580.095459,-8142.265362,-1554.432478,1149.143247
3580.095789,-8290.306550,-1036.288319,1991.848295
3580.096118,-9030.512492,296.082377,2221.676944
3580.096448,-9918.759623,1480.411884,1838.629195
3580.096778,-10732.986159,1628.453072,612.876398
3580.097108,-11325.150913,1924.535449,76.609550
3580.097438,-11621.233289,1554.432478,-229.828649
3580.097768,-11695.253884,666.185348,-842.705048
3580.098098,-10066.800811,-370.102971,-1455.581446
3580.098427,-7846.182985,-962.267725,-1532.190996
3580.098757,-7402.059420,-1110.308913,-306.438199
3580.099087,-8364.327145,-296.082377,1072.533697
3580.099417,-9548.656652,814.226536,2298.286494
3580.099747,-10066.800811,1332.370696,2145.067394
3580.100077,-11029.068536,1184.329507,919.314598
3580.100406,-12139.377449,1258.350101,0.000000
3580.100736,-12139.377449,518.144159,-536.266849
3580.101066,-11029.068536,-740.205942,-1302.362347
3580.101396,-9252.574275,-1480.411884,-919.314598
3580.101726,-7698.141797,-2294.638420,-919.314598
3580.102056,-7105.977043,-1850.514855,0.000000
3580.102386,-7476.080014,-1110.308913,995.924147
3580.102715,-8512.368333,222.061783,1455.581446
3580.103045,-9696.697840,888.247130,1455.581446
3580.103375,-10510.924376,1184.329507,1149.143247
3580.103705,-11621.233289,592.164754,1149.143247
3580.104035,-12435.459826,0.000000,1072.533697
3580.104365,-11843.295072,-592.164754,383.047749
3580.104695,-9992.780217,-1332.370696,-919.314598
3580.105024,-8586.388927,-1036.288319,-919.314598
3580.105354,-8142.265362,-1406.391290,-306.438199
3580.105684,-8586.388927,-592.164754,229.828649
3580.106014,-8734.430116,0.000000,1149.143247
3580.106344,-9178.553681,1110.308913,-306.438199
3580.106674,-10140.821405,962.267725,-689.485948
3580.107004,-10955.047942,740.205942,-1225.752797
3580.107333,-11325.150913,0.000000,-1225.752797
3580.107663,-10362.883188,-962.267725,-766.095498
3580.107993,-9400.615463,-1332.370696,153.219100
3580.108323,-8512.368333,-1776.494261,689.485948
3580.108653,-8142.265362,-1406.391290,1838.629195
3580.108983,-9178.553681,-444.123565,2298.286494
3580.109313,-9992.780217,1036.288319,1378.971896
3580.109642,-10436.903782,1036.288319,612.876398
3580.109972,-10881.027347,1776.494261,229.828649
3580.110302,-11547.212695,1480.411884,-536.266849
3580.110632,-11325.150913,666.185348,-612.876398
3580.110962,-9844.739029,-444.123565,-1532.190996
3580.111292,-8364.327145,-888.247130,-1532.190996
3580.111622,-7698.141797,-666.185348,0.000000
3580.111951,-8734.430116,-74.020594,1149.143247
3580.112281,-9622.677246,296.082377,2221.676944
3580.112611,-10510.924376,1406.391290,2068.457845
3580.112941,-10955.047942,1554.432478,919.314598
3580.113271,-11769.274478,1036.288319,229.828649
3580.113601,-12065.356855,666.185348,-383.047749
3580.113931,-10881.027347,-370.102971,-459.657299
3580.114260,-9104.533087,-1258.350101,-1072.533697
3580.114590,-7550.100608,-1554.432478,-612.876398
3580.114920,-7254.018232,-888.247130,229.828649
3580.115250,-7476.080014,-518.144159,1072.533697
3580.115580,-8586.388927,444.123565,1838.629195
3580.115910,-9696.697840,1332.370696,1608.800546
3580.116240,-10510.924376,1628.453072,1762.019645
3580.116569,-11473.192101,1406.391290,689.485948
3580.116899,-12435.459826,814.226536,153.219100
3580.117229,-11843.295072,74.020594,-153.219100
3580.117559,-10436.903782,-592.164754,-995.924147
3580.117889,-8438.347739,-1184.329507,-766.095498
3580.118219,-8142.265362,-1036.288319,0.000000
3580.118548,-8586.388927,0.000000,995.924147
3580.118878,-8882.471304,666.185348,1225.752797
3580.119208,-9252.574275,1332.370696,383.047749
3580.119538,-10214.842000,1258.350101,-842.705048
3580.119868,-11103.089130,962.267725,-1225.752797
3580.120198,-11325.150913,0.000000,-766.095498
3580.120528,-10214.842000,-962.267725,-306.438199
3580.120857,-8808.450710,-1998.556043,0.000000
3580.121187,-7698.141797,-1776.494261,229.828649
3580.121517,-7994.224174,-1258.350101,1608.800546
3580.121847,-9252.574275,0.000000,1991.848295
3580.122177,-10288.862594,1036.288319,1532.190996
3580.122507,-10658.965565,1184.329507,842.705048
3580.122837,-10955.047942,1406.391290,229.828649
3580.123166,-11621.233289,1110.308913,-459.657299
3580.123496,-10955.047942,222.061783,-1532.190996
3580.123826,-10066.800811,-370.102971,-1455.581446
3580.124156,-7994.224174,-1036.288319,-1149.143247
3580.124486,-7772.162391,-1184.329507,-153.219100
3580.124816,-8364.327145,-962.267725,1608.800546
3580.125146,-9474.636058,148.041188,2451.505594
3580.125475,-10288.862594,1110.308913,2374.896044
3580.125805,-11029.068536,1110.308913,1072.533697
3580.126135,-11917.315666,1036.288319,-76.609550
3580.126465,-12065.356855,296.082377,0.000000
3580.126795,-11547.212695,-296.082377,-995.924147
3580.127125,-9474.636058,-1258.350101,-1149.143247
3580.127455,-7772.162391,-1776.494261,-612.876398
3580.127784,-7402.059420,-1332.370696,306.438199
3580.128114,-7772.162391,-592.164754,1532.190996
3580.128444,-8734.430116,222.061783,1532.190996
3580.128774,-9844.739029,962.267725,1455.581446
3580.129104,-10658.965565,1480.411884,1685.410096
3580.129434,-11399.171507,1332.370696,919.314598
3580.129764,-12361.439231,814.226536,306.438199
3580.130093,-11991.336260,0.000000,-689.485948
3580.130423,-9992.780217,-814.226536,-1532.190996
3580.130753,-8512.368333,-1258.350101,-995.924147
3580.131083,-8290.306550,-888.247130,229.828649
3580.131413,-8438.347739,0.000000,995.924147
3580.131743,-8660.409521,444.123565,919.314598
3580.132073,-9400.615463,1258.350101,-153.219100
3580.132402,-9992.780217,1480.411884,-842.705048
3580.132732,-11103.089130,962.267725,-1072.533697
3580.133062,-11399.171507,222.061783,-1072.533697
3580.133392,-9844.739029,-518.144159,-842.705048
3580.133722,-8882.471304,-1702.473667,-612.876398
3580.134052,-8216.285956,-1332.370696,383.047749
3580.134382,-8438.347739,-1332.370696,1378.971896
3580.134711,-9178.553681,-444.123565,1532.190996
3580.135041,-9918.759623,666.185348,1455.581446
3580.135371,-10288.862594,888.247130,919.314598
3580.135701,-10658.965565,1406.391290,306.438199
3580.136031,-11621.233289,1110.308913,-383.047749
3580.136361,-11029.068536,222.061783,-919.314598
3580.136690,-9918.759623,-370.102971,-1838.629195
3580.137020,-8364.327145,-1184.329507,-1225.752797
3580.137350,-7550.100608,-1110.308913,76.609550
3580.137680,-8364.327145,-592.164754,1685.410096
3580.138010,-9474.636058,370.102971,2374.896044
3580.138340,-10214.842000,814.226536,1915.238745
3580.138670,-11251.130318,1332.370696,766.095498
3580.138999,-11991.336260,1036.288319,536.266849
3580.139329,-12287.418637,592.164754,-689.485948
3580.139659,-11473.192101,-148.041188,-995.924147
3580.139989,-9474.636058,-1184.329507,-1455.581446
3580.140319,-7772.162391,-1924.535449,-919.314598
3580.140649,-6883.915261,-1702.473667,-383.047749
3580.140979,-7254.018232,-962.267725,919.314598
3580.141308,-8290.306550,74.020594,1608.800546
3580.141638,-9400.615463,592.164754,1838.629195
3580.141968,-10362.883188,1110.308913,1378.971896
3580.142298,-11695.253884,962.267725,1225.752797
3580.142628,-12509.480420,666.185348,612.876398
3580.142958,-12213.398043,0.000000,-383.047749
3580.143288,-10732.986159,-666.185348,-1225.752797
3580.143617,-8586.388927,-1406.391290,-1072.533697
3580.143947,-8364.327145,-962.267725,0.000000
3580.144277,-8364.327145,-370.102971,995.924147
3580.144607,-8586.388927,74.020594,612.876398
3580.144937,-9474.636058,1258.350101,0.000000
3580.145267,-10140.821405,1184.329507,-1225.752797
3580.145597,-10881.027347,666.185348,-1608.800546
3580.145926,-11103.089130,148.041188,-995.924147
3580.146256,-10510.924376,-666.185348,-306.438199
3580.146586,-9326.594869,-1554.432478,0.000000
3580.146916,-8438.347739,-1702.473667,689.485948
3580.147246,-8438.347739,-1184.329507,1762.019645
3580.147576,-9104.533087,-370.102971,2298.286494
3580.147906,-10214.842000,962.267725,1685.410096
3580.148235,-10658.965565,1628.453072,1149.143247
3580.148565,-11177.109724,1628.453072,229.828649
3580.148895,-11547.212695,1184.329507,0.000000
3580.149225,-10881.027347,444.123565,-1302.362347
3580.149555,-9770.718434,-148.041188,-1608.800546
3580.149885,-7994.224174,-740.205942,-1378.971896
3580.150215,-7550.100608,-444.123565,76.609550
3580.150544,-8586.388927,0.000000,1302.362347
3580.150874,-9622.677246,666.185348,1838.629195
3580.151204,-10584.944971,1628.453072,1455.581446
3580.151534,-11621.233289,1850.514855,842.705048
3580.151864,-11991.336260,1110.308913,76.609550
3580.152194,-11843.295072,592.164754,-536.266849
3580.152524,-10955.047942,-222.061783,-1225.752797
3580.152853,-8956.491898,-1406.391290,-1225.752797
3580.153183,-7328.038826,-1702.473667,0.000000
3580.153513,-6957.935855,-1184.329507,536.266849
3580.153843,-7550.100608,-296.082377,1608.800546
3580.154173,-8808.450710,888.247130,1685.410096
3580.154503,-9622.677246,1258.350101,1455.581446
3580.154832,-10732.986159,1480.411884,1225.752797
3580.155162,-11547.212695,1184.329507,612.876398
3580.155492,-12435.459826,814.226536,306.438199
3580.155822,-11843.295072,0.000000,-383.047749
3580.156152,-9918.759623,-814.226536,-919.314598
3580.156482,-7994.224174,-1258.350101,-842.705048
3580.156812,-7920.203579,-740.205942,153.219100
3580.157141,-8364.327145,222.061783,1149.143247
3580.157471,-8956.491898,1332.370696,995.924147
3580.157801,-9548.656652,1702.473667,0.000000
3580.158131,-10732.986159,1924.535449,-842.705048
3580.158461,-11399.171507,1036.288319,-1149.143247
3580.158791,-11251.130318,0.000000,-1225.752797
3580.159121,-10436.903782,-740.205942,-766.095498
3580.159450,-8956.491898,-1924.535449,0.000000
3580.159780,-8068.244768,-1998.556043,842.705048
3580.160110,-7772.162391,-1406.391290,1838.629195
3580.160440,-8660.409521,-296.082377,1991.848295
3580.160770,-9844.739029,666.185348,1991.848295
3580.161100,-10584.944971,1036.288319,1532.190996
3580.161430,-11029.068536,1110.308913,536.266849
3580.161759,-11177.109724,888.247130,-153.219100
3580.162089,-11547.212695,0.000000,-766.095498
3580.162419,-10140.821405,-666.185348,-1455.581446
3580.162749,-8290.306550,-1406.391290,-995.924147
3580.163079,-7476.080014,-1036.288319,76.609550
3580.163409,-8586.388927,-740.205942,1225.752797
3580.163739,-9474.636058,296.082377,2451.505594
3580.164068,-10214.842000,1036.288319,1915.238745
3580.164398,-11029.068536,1258.350101,459.657299
3580.164728,-11843.295072,1332.370696,-536.266849
3580.165058,-12139.377449,222.061783,-612.876398
3580.165388,-11399.171507,-592.164754,-842.705048
3580.165718,-9252.574275,-1850.514855,-1072.533697
3580.166048,-7624.121203,-2072.576638,-1225.752797
3580.166377,-7031.956449,-1850.514855,0.000000
3580.166707,-7328.038826,-962.267725,1149.143247
3580.167037,-8512.368333,74.020594,2145.067394
3580.167367,-9474.636058,1406.391290,1762.019645
3580.167697,-10807.006753,1776.494261,1915.238745
3580.168027,-11695.253884,1110.308913,842.705048
3580.168357,-12361.439231,740.205942,0.000000
3580.168686,-11843.295072,-296.082377,-1072.533697
3580.169016,-9844.739029,-888.247130,-1225.752797
3580.169346,-8290.306550,-1332.370696,-1225.752797
3580.169676,-7994.224174,-666.185348,-536.266849
3580.170006,-8438.347739,74.020594,995.924147
3580.170336,-9030.512492,1184.329507,842.705048
3580.170665,-9474.636058,1480.411884,0.000000
3580.170995,-10436.903782,1480.411884,-766.095498
3580.171325,-11177.109724,814.226536,-1072.533697
3580.171655,-11029.068536,296.082377,-842.705048
3580.171985,-10214.842000,-740.205942,-766.095498
3580.172315,-8734.430116,-1406.391290,-229.828649
3580.172645,-7772.162391,-1628.453072,306.438199
3580.172974,-7920.203579,-814.226536,1838.629195
3580.173304,-9030.512492,0.000000,1991.848295
3580.173634,-9992.780217,1036.288319,1838.629195
3580.173964,-11029.068536,1628.453072,919.314598
3580.174294,-11029.068536,1776.494261,459.657299
3580.174624,-11547.212695,1480.411884,-229.828649
3580.174953,-10955.047942,518.144159,-1225.752797
3580.175283,-9622.677246,-444.123565,-1762.019645
3580.175613,-7772.162391,-888.247130,-919.314598
3580.175943,-7179.997637,-814.226536,612.876398
3580.176272,-8438.347739,74.020594,1455.581446
3580.176602,-9474.636058,592.164754,2451.505594
3580.176932,-10362.883188,1554.432478,1838.629195
3580.177261,-11029.068536,1628.453072,1225.752797
3580.177591,-12065.356855,1036.288319,-153.219100
3580.177921,-12361.439231,518.144159,-842.705048
3580.178251,-11251.130318,-296.082377,-1608.800546
3580.178580,-8956.491898,-1480.411884,-1915.238745
3580.178910,-7550.100608,-1258.350101,-1302.362347
3580.179240,-6661.853478,-1406.391290,0.000000
3580.179569,-7476.080014,-592.164754,1225.752797
3580.179899,-8586.388927,740.205942,1915.238745
3580.180229,-9918.759623,1110.308913,1608.800546
3580.180559,-10807.006753,1702.473667,1378.971896
3580.180888,-11917.315666,1184.329507,1532.190996
3580.181218,-12361.439231,370.102971,306.438199
3580.181548,-11547.212695,-518.144159,0.000000
3580.181878,-10288.862594,-1036.288319,-842.705048
3580.182207,-8660.409521,-1776.494261,-995.924147
3580.182537,-7994.224174,-1184.329507,-229.828649
3580.182867,-8586.388927,0.000000,689.485948
3580.183196,-9178.553681,740.205942,766.095498
3580.183526,-9474.636058,1332.370696,0.000000
3580.183856,-10214.842000,1110.308913,-1149.143247
3580.184186,-11029.068536,518.144159,-1302.362347
3580.184515,-11251.130318,-518.144159,-995.924147
3580.184845,-10214.842000,-1406.391290,-536.266849
3580.185175,-8734.430116,-2220.617826,0.000000
3580.185505,-8068.244768,-2220.617826,689.485948
3580.185834,-8290.306550,-1110.308913,1532.190996
3580.186164,-9400.615463,-370.102971,2757.943793
3580.186494,-10362.883188,444.123565,2298.286494
3580.186823,-10510.924376,962.267725,995.924147
3580.187153,-10732.986159,1184.329507,459.657299
3580.187483,-10807.006753,814.226536,-612.876398
3580.187813,-10658.965565,-148.041188,-1072.533697
3580.188142,-9548.656652,-1110.308913,-1455.581446
3580.188472,-7772.162391,-1628.453072,-1608.800546
3580.188802,-7920.203579,-1184.329507,-306.438199
3580.189132,-8438.347739,-370.102971,1072.533697
3580.189461,-9844.739029,518.144159,2374.896044
3580.189791,-10807.006753,1110.308913,2221.676944
3580.190121,-11399.171507,1776.494261,919.314598
3580.190450,-12139.377449,1258.350101,0.000000
3580.190780,-12287.418637,74.020594,-612.876398
3580.191110,-10955.047942,-518.144159,-1302.362347
3580.191440,-8512.368333,-1184.329507,-1455.581446
3580.191769,-7105.977043,-1776.494261,-919.314598
3580.192099,-6809.894666,-1184.329507,76.609550
3580.192429,-7254.018232,-518.144159,995.924147
3580.192759,-8586.388927,592.164754,1838.629195
3580.193088,-10362.883188,1480.411884,1838.629195
3580.193418,-11029.068536,1554.432478,1455.581446
3580.193748,-11843.295072,1628.453072,1378.971896
3580.194077,-12435.459826,814.226536,536.266849
3580.194407,-11621.233289,-370.102971,0.000000
3580.194737,-9844.739029,-814.226536,-995.924147
3580.195067,-8290.306550,-962.267725,-1378.971896
3580.195396,-7772.162391,-518.144159,-76.609550
3580.195726,-8660.409521,518.144159,842.705048
3580.196056,-8956.491898,1406.391290,995.924147
3580.196385,-9474.636058,1850.514855,0.000000
3580.196715,-10288.862594,1776.494261,-995.924147
3580.197045,-11251.130318,1480.411884,-766.095498
3580.197375,-11325.150913,370.102971,-995.924147
3580.197704,-10288.862594,-592.164754,-689.485948
3580.198034,-8882.471304,-1406.391290,76.609550
3580.198364,-7994.224174,-1480.411884,842.705048
3580.198694,-7698.141797,-1258.350101,1915.238745
3580.199023,-8956.491898,0.000000,2451.505594
3580.199353,-10140.821405,1036.288319,1838.629195
3580.199683,-10362.883188,1258.350101,1149.143247
3580.200012,-11029.068536,1776.494261,459.657299
3580.200342,-11325.150913,1184.329507,-306.438199
3580.200672,-11177.109724,296.082377,-842.705048
3580.201002,-9548.656652,-592.164754,-1915.238745
3580.201331,-8438.347739,-740.205942,-1072.533697
3580.201661,-8068.244768,-814.226536,0.000000
3580.201991,-8586.388927,-222.061783,1762.019645
3580.202321,-9696.697840,444.123565,2145.067394
3580.202650,-10214.842000,962.267725,1838.629195
3580.202980,-11103.089130,1258.350101,383.047749
3580.203310,-11843.295072,1258.350101,-689.485948
3580.203639,-11843.295072,148.041188,-919.314598
3580.203969,-10510.924376,-888.247130,-1455.581446
3580.204299,-8734.430116,-1702.473667,-1532.190996
3580.204629,-7179.997637,-2072.576638,-766.095498
3580.204958,-6957.935855,-1776.494261,0.000000
3580.205288,-7698.141797,-962.267725,1149.143247
3580.205618,-9252.574275,222.061783,1608.800546
3580.205948,-10140.821405,888.247130,1378.971896
3580.206277,-10807.006753,1036.288319,1838.629195
3580.206607,-12065.356855,814.226536,1685.410096
3580.206937,-12583.501014,296.082377,229.828649
3580.207266,-11843.295072,-592.164754,-459.657299
3580.207596,-9992.780217,-1406.391290,-1302.362347
3580.207926,-8068.244768,-1554.432478,-919.314598
3580.208256,-8142.265362,-740.205942,0.000000
3580.208585,-8290.306550,518.144159,536.266849
3580.208915,-9178.553681,888.247130,995.924147
3580.209245,-9622.677246,1554.432478,76.609550
3580.209574,-10881.027347,1628.453072,-612.876398
3580.209904,-11843.295072,888.247130,-842.705048
3580.210234,-11843.295072,0.000000,-383.047749
3580.210564,-10510.924376,-1036.288319,0.000000
3580.210893,-8808.450710,-1924.535449,306.438199
3580.211223,-8142.265362,-1776.494261,1378.971896
3580.211553,-8068.244768,-814.226536,1991.848295
3580.211883,-9030.512492,0.000000,2145.067394
3580.212212,-9918.759623,1036.288319,1608.800546
3580.212542,-10436.903782,1554.432478,1225.752797
3580.212872,-10955.047942,1850.514855,0.000000
3580.213201,-11399.171507,1258.350101,-536.266849
3580.213531,-11177.109724,296.082377,-1225.752797
3580.213861,-9844.739029,-370.102971,-1685.410096
3580.214191,-7772.162391,-1110.308913,-1838.629195
3580.214520,-7476.080014,-592.164754,0.000000
3580.214850,-8586.388927,0.000000,1608.800546
3580.215180,-9770.718434,1110.308913,2451.505594
3580.215510,-10436.903782,1702.473667,1762.019645
3580.215839,-11621.233289,1998.556043,306.438199
3580.216169,-11917.315666,1406.391290,-153.219100
3580.216499,-12139.377449,592.164754,-919.314598
3580.216828,-10732.986159,-444.123565,-1378.971896
3580.217158,-8660.409521,-962.267725,-1762.019645
3580.217488,-7179.997637,-1628.453072,-612.876398
3580.217818,-7031.956449,-1332.370696,0.000000
3580.218147,-7698.141797,-296.082377,995.924147
3580.218477,-8734.430116,962.267725,995.924147
3580.218807,-10140.821405,1554.432478,1915.238745
3580.219137,-10955.047942,1480.411884,1991.848295
3580.219466,-11991.336260,1480.411884,1072.533697
3580.219796,-12731.542202,592.164754,383.047749
3580.220126,-11621.233289,0.000000,-612.876398
3580.220455,-9844.739029,-740.205942,-1302.362347
3580.220785,-8142.265362,-1184.329507,-1225.752797
3580.221115,-7920.203579,-592.164754,76.609550
3580.221445,-7846.182985,444.123565,306.438199
3580.221774,-9178.553681,888.247130,766.095498
3580.222104,-9844.739029,1480.411884,0.000000
3580.222434,-10658.965565,1332.370696,-995.924147
3580.222763,-11251.130318,888.247130,-1302.362347
3580.223093,-11251.130318,-296.082377,-919.314598
3580.223423,-10288.862594,-962.267725,0.000000
3580.223753,-8808.450710,-1924.535449,536.266849
3580.224082,-7994.224174,-1998.556043,1149.143247
3580.224412,-8142.265362,-1406.391290,1991.848295
3580.224742,-9326.594869,0.000000,2298.286494
3580.225072,-10510.924376,962.267725,1762.019645
3580.225401,-10658.965565,1480.411884,1302.362347
3580.225731,-10881.027347,1258.350101,842.705048
3580.226061,-11695.253884,962.267725,-536.266849
3580.226390,-11029.068536,0.000000,-1072.533697
3580.226720,-9548.656652,-740.205942,-1838.629195
3580.227050,-8216.285956,-814.226536,-1149.143247
3580.227380,-7772.162391,-962.267725,459.657299
3580.227709,-8512.368333,-370.102971,1915.238745
3580.228039,-9770.718434,592.164754,2451.505594
3580.228369,-11103.089130,1776.494261,2068.457845
3580.228699,-11547.212695,1702.473667,459.657299
3580.229028,-12065.356855,1258.350101,-459.657299
3580.229358,-12435.459826,444.123565,-842.705048
3580.229688,-11103.089130,-296.082377,-1225.752797
3580.230017,-8734.430116,-1258.350101,-1838.629195
3580.230347,-7105.977043,-1628.453072,-1608.800546
3580.230677,-6809.894666,-1406.391290,-306.438199
3580.231007,-7550.100608,-296.082377,1149.143247
3580.231336,-8734.430116,518.144159,1532.190996
3580.231666,-9770.718434,1036.288319,1991.848295
3580.231996,-10807.006753,1406.391290,1838.629195
3580.232326,-12287.418637,1258.350101,1378.971896
3580.232655,-12583.501014,666.185348,306.438199
3580.232985,-11843.295072,-148.041188,-229.828649
3580.233315,-9770.718434,-740.205942,-995.924147
3580.233644,-8216.285956,-1184.329507,-766.095498
3580.233974,-7920.203579,-740.205942,0.000000
3580.234304,-8364.327145,296.082377,689.485948
3580.234634,-8660.409521,666.185348,995.924147
3580.234963,-9474.636058,1332.370696,0.000000
3580.235293,-10214.842000,1184.329507,-919.314598
3580.235623,-11029.068536,666.185348,-1455.581446
3580.235952,-11103.089130,0.000000,-612.876398
3580.236282,-10066.800811,-962.267725,-612.876398
3580.236612,-8956.491898,-1628.453072,153.219100
3580.236942,-7846.182985,-1554.432478,306.438199
3580.237271,-8142.265362,-1258.350101,2298.286494
3580.237601,-9178.553681,0.000000,2298.286494
3580.237931,-10066.800811,814.226536,1685.410096
3580.238261,-10510.924376,1628.453072,842.705048
3580.238590,-10732.986159,1332.370696,0.000000
3580.238920,-11547.212695,1258.350101,-1072.533697
3580.239250,-11177.109724,444.123565,-1608.800546
3580.239579,-9696.697840,-370.102971,-1685.410096
3580.239909,-7846.182985,-814.226536,-1685.410096
3580.240239,-7846.182985,-740.205942,-306.438199
3580.240569,-8586.388927,-370.102971,766.095498
3580.240898,-9770.718434,222.061783,1838.629195
3580.241228,-10362.883188,1184.329507,766.095498
3580.241558,-11325.150913,1184.329507,766.095498
3580.241888,-12065.356855,888.247130,-306.438199
3580.242217,-11991.336260,0.000000,-1072.533697
3580.242547,-10955.047942,-296.082377,-1685.410096
3580.242877,-8956.491898,-1628.453072,-1991.848295
3580.243206,-7179.997637,-1850.514855,-1302.362347
3580.243536,-6883.915261,-1406.391290,-153.219100
3580.243866,-7476.080014,-814.226536,1149.143247
3580.244196,-9104.533087,592.164754,1685.410096
3580.244525,-10066.800811,814.226536,1608.800546
3580.244855,-11029.068536,1332.370696,1915.238745
3580.245185,-12213.398043,1184.329507,1225.752797
3580.245515,-12435.459826,740.205942,612.876398
3580.245844,-11695.253884,-370.102971,-306.438199
3580.246174,-9918.759623,-1110.308913,-766.095498
3580.246504,-8438.347739,-1258.350101,-383.047749
3580.246833,-8068.244768,-444.123565,536.266849
3580.247163,-8512.368333,74.020594,689.485948
3580.247493,-8882.471304,814.226536,919.314598
3580.247823,-9474.636058,1184.329507,229.828649
3580.248152,-10288.862594,1036.288319,-536.266849
3580.248482,-11103.089130,222.061783,-1072.533697
3580.248812,-10955.047942,-444.123565,-383.047749
3580.249142,-10066.800811,-1258.350101,0.000000
3580.249471,-8734.430116,-1924.535449,229.828649
3580.249801,-7994.224174,-1850.514855,1225.752797
3580.250131,-7920.203579,-1406.391290,2145.067394
3580.250460,-9252.574275,296.082377,2374.896044
3580.250790,-10214.842000,888.247130,1378.971896
3580.251120,-10584.944971,1998.556043,995.924147
3580.251450,-10955.047942,1554.432478,0.000000
3580.251779,-11399.171507,1406.391290,-612.876398
3580.252109,-10955.047942,592.164754,-1149.143247
3580.252439,-9696.697840,0.000000,-1608.800546
3580.252768,-7772.162391,-814.226536,-1685.410096
3580.253098,-7624.121203,-740.205942,0.000000
3580.253428,-9178.553681,74.020594,1378.971896
3580.253758,-9548.656652,740.205942,2451.505594
3580.254087,-10732.986159,1258.350101,1991.848295
3580.254417,-11325.150913,1776.494261,612.876398
3580.254747,-11917.315666,1406.391290,-306.438199
3580.255077,-12213.398043,592.164754,-919.314598
3580.255406,-10881.027347,222.061783,-2374.896044
3580.255736,-9104.533087,-1258.350101,-1225.752797
3580.256066,-7402.059420,-1924.535449,-766.095498
3580.256395,-6735.874072,-1480.411884,306.438199
3580.256725,-7402.059420,0.000000,1608.800546
3580.257055,-8956.491898,444.123565,1915.238745
3580.257385,-9918.759623,1184.329507,1838.629195
3580.257714,-11177.109724,1702.473667,1455.581446
3580.258044,-12361.439231,1702.473667,1762.019645
3580.258374,-12953.603985,962.267725,919.314598
3580.258704,-11843.295072,0.000000,0.000000
3580.259033,-9844.739029,-666.185348,-1225.752797
3580.259363,-8290.306550,-962.267725,-1378.971896
3580.259693,-8290.306550,-666.185348,-153.219100
3580.260022,-8660.409521,0.000000,536.266849
3580.260352,-8956.491898,592.164754,612.876398
3580.260682,-9252.574275,1258.350101,229.828649
3580.261012,-10362.883188,1258.350101,-459.657299
3580.261341,-10881.027347,592.164754,-919.314598
3580.261671,-11177.109724,0.000000,-766.095498
3580.262001,-10362.883188,-1184.329507,0.000000
3580.262331,-9178.553681,-1924.535449,306.438199
3580.262660,-8512.368333,-1702.473667,919.314598
3580.262990,-8290.306550,-1258.350101,2221.676944
3580.263320,-9030.512492,-148.041188,2221.676944
3580.263649,-9844.739029,518.144159,1455.581446
3580.263979,-10288.862594,962.267725,766.095498
3580.264309,-10510.924376,1184.329507,153.219100
3580.264639,-11325.150913,962.267725,-306.438199
3580.264968,-11177.109724,444.123565,-919.314598
3580.265298,-9326.594869,-370.102971,-1532.190996
3580.265628,-8068.244768,-888.247130,-1455.581446
3580.265957,-7698.141797,-1110.308913,-306.438199
3580.266287,-8586.388927,-370.102971,995.924147
3580.266617,-9326.594869,148.041188,2298.286494
3580.266947,-10510.924376,1036.288319,1685.410096
3580.267276,-11399.171507,1406.391290,459.657299
3580.267606,-11843.295072,1110.308913,-536.266849
3580.267936,-11917.315666,74.020594,-1378.971896
3580.268266,-10807.006753,-592.164754,-1608.800546
3580.268595,-8956.491898,-1332.370696,-1455.581446
3580.268925,-7772.162391,-1702.473667,-766.095498
3580.269255,-6957.935855,-1554.432478,0.000000
3580.269584,-7476.080014,-592.164754,1072.533697
3580.269914,-9104.533087,222.061783,1685.410096
3580.270244,-10066.800811,888.247130,1685.410096
3580.270574,-11029.068536,1036.288319,2221.676944
3580.270903,-11843.295072,962.267725,1838.629195
3580.271233,-12583.501014,592.164754,1378.971896
3580.271563,-11991.336260,-370.102971,0.000000
3580.271893,-10140.821405,-962.267725,-919.314598
3580.272222,-8660.409521,-1332.370696,-689.485948
3580.272552,-8512.368333,-592.164754,76.609550
3580.272882,-8290.306550,0.000000,919.314598
3580.273211,-8512.368333,296.082377,1072.533697
3580.273541,-9104.533087,962.267725,-383.047749
3580.273871,-10140.821405,1184.329507,-1378.971896
3580.274201,-11103.089130,444.123565,-1149.143247
3580.274530,-11473.192101,-296.082377,-842.705048
3580.274860,-10214.842000,-1184.329507,0.000000
3580.275190,-8882.471304,-2220.617826,306.438199
3580.275520,-7920.203579,-1924.535449,1072.533697
3580.275849,-7994.224174,-1406.391290,1762.019645
3580.276179,-9030.512492,-296.082377,2221.676944
3580.276509,-9844.739029,444.123565,1532.190996
3580.276838,-10288.862594,1480.411884,459.657299
3580.277168,-11251.130318,1628.453072,153.219100
3580.277498,-11769.274478,1480.411884,-536.266849
3580.277828,-11251.130318,666.185348,-1532.190996
3580.278158,-9622.677246,-74.020594,-2298.286494
3580.278487,-8068.244768,-666.185348,-1838.629195
3580.278817,-7698.141797,-518.144159,-229.828649
3580.279147,-8882.471304,0.000000,1532.190996
3580.279477,-9918.759623,740.205942,2451.505594
3580.279806,-10658.965565,1406.391290,1838.629195
3580.280136,-11399.171507,2146.597232,306.438199
3580.280466,-11843.295072,1258.350101,-383.047749
3580.280796,-12065.356855,148.041188,-536.266849
3580.281125,-10881.027347,0.000000,-995.924147
3580.281455,-8660.409521,-1332.370696,-1149.143247
3580.281785,-7402.059420,-1776.494261,-536.266849
3580.282115,-7105.977043,-962.267725,459.657299
3580.282445,-7624.121203,-370.102971,1225.752797
3580.282774,-9104.533087,814.226536,1762.019645
3580.283104,-10214.842000,1332.370696,1685.410096
3580.283434,-10955.047942,1702.473667,1532.190996
3580.283764,-12065.356855,1332.370696,919.314598
3580.284093,-12435.459826,666.185348,459.657299
3580.284423,-11547.212695,-148.041188,-306.438199
3580.284753,-9770.718434,-740.205942,-1378.971896
3580.285083,-8290.306550,-962.267725,-306.438199
3580.285412,-8216.285956,-592.164754,-306.438199
3580.285742,-8586.388927,0.000000,536.266849
3580.286072,-8660.409521,814.226536,383.047749
3580.286402,-9474.636058,1184.329507,0.000000
3580.286732,-10584.944971,1110.308913,-689.485948
3580.287061,-11103.089130,370.102971,-689.485948
3580.287391,-11251.130318,-222.061783,-536.266849
3580.287721,-10140.821405,-1406.391290,-612.876398
3580.288051,-9474.636058,-1850.514855,306.438199
3580.288380,-8068.244768,-2072.576638,1455.581446
3580.288710,-8068.244768,-1406.391290,1915.238745
3580.289040,-9178.553681,-296.082377,2374.896044
3580.289370,-9770.718434,666.185348,1915.238745
3580.289700,-10362.883188,1332.370696,689.485948
3580.290029,-11399.171507,1258.350101,153.219100
3580.290359,-11991.336260,962.267725,-689.485948
3580.290689,-11399.171507,74.020594,-1072.533697
3580.291019,-9622.677246,-740.205942,-1991.848295
3580.291348,-7920.203579,-1332.370696,-1378.971896
3580.291678,-7994.224174,-1110.308913,0.000000
3580.292008,-8808.450710,-296.082377,1455.581446
3580.292338,-9918.759623,740.205942,1915.238745
3580.292667,-10807.006753,1406.391290,1532.190996
3580.292997,-11547.212695,1184.329507,766.095498
3580.293327,-12213.398043,1110.308913,-229.828649
3580.293657,-11991.336260,444.123565,-1149.143247
3580.293987,-10732.986159,-814.226536,-1225.752797
3580.294316,-8734.430116,-1332.370696,-1072.533697
3580.294646,-7179.997637,-1702.473667,-612.876398
3580.294976,-6661.853478,-1258.350101,0.000000
3580.295306,-7698.141797,-370.102971,995.924147
3580.295635,-9030.512492,666.185348,1991.848295
3580.295965,-10362.883188,1406.391290,1991.848295
3580.296295,-11547.212695,1776.494261,1915.238745
3580.296625,-12287.418637,1628.453072,1149.143247
3580.296954,-12805.562797,1036.288319,689.485948
3580.297284,-11103.089130,148.041188,-153.219100
3580.297614,-9622.677246,-296.082377,-1302.362347
3580.297944,-8364.327145,-592.164754,-1302.362347
3580.298274,-8142.265362,0.000000,0.000000
3580.298603,-8364.327145,518.144159,229.828649
3580.298933,-9178.553681,1184.329507,383.047749
3580.299263,-9326.594869,1554.432478,229.828649
3580.299593,-10807.006753,1332.370696,-766.095498
3580.299922,-11251.130318,666.185348,-766.095498
3580.300252,-11177.109724,0.000000,-612.876398
3580.300582,-10140.821405,-888.247130,0.000000
3580.300912,-9104.533087,-1628.453072,76.609550
3580.301241,-8068.244768,-1480.411884,1149.143247
3580.301571,-8290.306550,-666.185348,1685.410096
3580.301901,-9104.533087,222.061783,2528.115143
3580.302231,-9474.636058,1184.329507,1608.800546
3580.302561,-10214.842000,1332.370696,1149.143247
3580.302890,-10732.986159,1332.370696,153.219100
3580.303220,-11177.109724,1036.288319,-1072.533697
3580.303550,-10732.986159,666.185348,-1072.533697
3580.303880,-9770.718434,-74.020594,-1991.848295
3580.304209,-8142.265362,-740.205942,-1608.800546
3580.304539,-7624.121203,-888.247130,0.000000
3580.304869,-8364.327145,-148.041188,1302.362347
3580.305199,-9770.718434,592.164754,2451.505594
3580.305529,-10066.800811,814.226536,1991.848295
3580.305858,-11029.068536,1184.329507,383.047749
3580.306188,-11843.295072,814.226536,-536.266849
3580.306518,-12361.439231,444.123565,-612.876398
3580.306848,-11029.068536,-592.164754,-1225.752797
3580.307177,-9326.594869,-1406.391290,-1225.752797
3580.307507,-7328.038826,-2146.597232,-766.095498
3580.307837,-6883.915261,-1554.432478,995.924147
3580.308167,-7402.059420,-888.247130,1378.971896
3580.308496,-8882.471304,148.041188,1915.238745
3580.308826,-10066.800811,888.247130,1685.410096
3580.309156,-10584.944971,1036.288319,766.095498
3580.309486,-11991.336260,1036.288319,1378.971896
3580.309816,-12657.521608,444.123565,612.876398
3580.310145,-11991.336260,0.000000,-383.047749
3580.310475,-9992.780217,-888.247130,-1455.581446
3580.310805,-8660.409521,-1036.288319,-1225.752797
3580.311135,-8290.306550,-888.247130,-459.657299
3580.311464,-8660.409521,0.000000,229.828649
3580.311794,-8956.491898,666.185348,459.657299
3580.312124,-9030.512492,814.226536,0.000000
3580.312454,-10436.903782,1036.288319,-919.314598
3580.312783,-10881.027347,518.144159,-612.876398
3580.313113,-11103.089130,-148.041188,-459.657299
3580.313443,-9474.636058,-1110.308913,-459.657299
3580.313773,-8808.450710,-1850.514855,229.828649
3580.314103,-8068.244768,-1702.473667,919.314598
3580.314432,-8512.368333,-888.247130,2145.067394
3580.314762,-9400.615463,0.000000,2374.896044
3580.315092,-10214.842000,814.226536,1838.629195
3580.315422,-10658.965565,1480.411884,689.485948
3580.315751,-11177.109724,1628.453072,76.609550
3580.316081,-11547.212695,1258.350101,-306.438199
3580.316411,-10807.006753,592.164754,-536.266849
3580.316741,-9770.718434,-296.082377,-1608.800546
3580.317070,-8216.285956,-666.185348,-1149.143247
3580.317400,-7994.224174,-296.082377,0.000000
3580.317730,-8734.430116,74.020594,1608.800546
3580.318060,-9992.780217,592.164754,2298.286494
3580.318390,-10510.924376,1332.370696,1685.410096
3580.318719,-11251.130318,1480.411884,1149.143247
3580.319049,-11917.315666,1480.411884,76.609550
3580.319379,-11991.336260,518.144159,-612.876398
3580.319709,-10732.986159,-518.144159,-1072.533697
3580.320038,-8734.430116,-1258.350101,-1685.410096
3580.320368,-7105.977043,-1554.432478,-995.924147
3580.320698,-7031.956449,-1258.350101,153.219100
3580.321028,-7402.059420,-518.144159,1225.752797
3580.321358,-8660.409521,518.144159,1838.629195
3580.321687,-9622.677246,740.205942,1685.410096
3580.322017,-10436.903782,1480.411884,766.095498
3580.322347,-11843.295072,814.226536,766.095498
3580.322677,-12657.521608,296.082377,153.219100
3580.323006,-11547.212695,-592.164754,-383.047749
3580.323336,-9474.636058,-592.164754,-689.485948
3580.323666,-8216.285956,-1406.391290,-995.924147
3580.323996,-7920.203579,-1258.350101,-306.438199
3580.324325,-8512.368333,0.000000,689.485948
3580.324655,-9178.553681,740.205942,153.219100
3580.324985,-9474.636058,962.267725,0.000000
3580.325315,-10584.944971,1036.288319,-995.924147
3580.325645,-11103.089130,370.102971,-689.485948
3580.325974,-11547.212695,-296.082377,-153.219100
3580.326304,-10436.903782,-888.247130,0.000000
3580.326634,-9326.594869,-1850.514855,229.828649
3580.326964,-8512.368333,-1776.494261,1225.752797
3580.327293,-8660.409521,-1258.350101,2221.676944
3580.327623,-9622.677246,0.000000,1685.410096
3580.327953,-10362.883188,814.226536,1991.848295
3580.328283,-10510.924376,1258.350101,612.876398
3580.328612,-11029.068536,1332.370696,229.828649
3580.328942,-11547.212695,1850.514855,-459.657299
3580.329272,-11029.068536,0.000000,-1072.533697
3580.329602,-9844.739029,-370.102971,-1685.410096
3580.329932,-7920.203579,-962.267725,-1532.190996
3580.330261,-8216.285956,-592.164754,0.000000
3580.330591,-9104.533087,-296.082377,1302.362347
3580.330921,-9252.574275,370.102971,2298.286494
3580.331251,-10214.842000,1184.329507,2145.067394
3580.331580,-11103.089130,1258.350101,612.876398
3580.331910,-11917.315666,1628.453072,-1072.533697
3580.332240,-12139.377449,370.102971,-689.485948
3580.332570,-10436.903782,-518.144159,-1532.190996
3580.332899,-8660.409521,-1184.329507,-1608.800546
3580.333229,-7179.997637,-888.247130,-76.609550
3580.333559,-6735.874072,-1406.391290,76.609550
3580.333889,-7624.121203,-370.102971,1225.752797
3580.334219,-9030.512492,740.205942,1762.019645
3580.334548,-9992.780217,1628.453072,1685.410096
3580.334878,-11103.089130,1924.535449,1302.362347
3580.335208,-12287.418637,1702.473667,842.705048
3580.335538,-12509.480420,1258.350101,0.000000
3580.335867,-11251.130318,0.000000,-842.705048
3580.336197,-9474.636058,-370.102971,-1608.800546
3580.336527,-8216.285956,-592.164754,-689.485948
3580.336857,-8216.285956,-370.102971,0.000000
3580.337187,-8290.306550,370.102971,612.876398
3580.337516,-8808.450710,888.247130,459.657299
3580.337846,-9770.718434,1406.391290,0.000000
3580.338176,-10584.944971,1258.350101,-842.705048
3580.338506,-11177.109724,666.185348,-689.485948
3580.338835,-11177.109724,-222.061783,-153.219100
3580.339165,-10140.821405,-1036.288319,0.000000
3580.339495,-8882.471304,-1702.473667,76.609550
3580.339825,-8068.244768,-1628.453072,1072.533697
3580.340154,-8216.285956,-1184.329507,2145.067394
3580.340484,-9252.574275,74.020594,2451.505594
3580.340814,-10288.862594,740.205942,1838.629195
3580.341144,-10584.944971,1184.329507,1149.143247
3580.341474,-11325.150913,1406.391290,229.828649
3580.341803,-11843.295072,1110.308913,-536.266849
3580.342133,-10881.027347,-296.082377,-1225.752797
3580.342463,-9548.656652,-888.247130,-1685.410096
3580.342793,-7846.182985,-1406.391290,-1225.752797
3580.343122,-7698.141797,-962.267725,919.314598
3580.343452,-8660.409521,-592.164754,2068.457845
3580.343782,-9622.677246,222.061783,2298.286494
3580.344112,-10362.883188,888.247130,1838.629195
3580.344441,-11399.171507,1184.329507,766.095498
3580.344771,-11991.336260,666.185348,-229.828649
3580.345101,-12287.418637,0.000000,-459.657299
3580.345431,-10732.986159,-740.205942,-1149.143247
3580.345761,-8956.491898,-1406.391290,-1532.190996
3580.346090,-7402.059420,-1480.411884,-842.705048
3580.346420,-7031.956449,-1406.391290,0.000000
3580.346750,-7846.182985,-296.082377,1455.581446
3580.347080,-9252.574275,814.226536,2145.067394
3580.347409,-9992.780217,1258.350101,1532.190996
3580.347739,-11473.192101,1924.535449,1455.581446
3580.348069,-12361.439231,1406.391290,76.609550
3580.348399,-13027.624579,1036.288319,0.000000
3580.348728,-11917.315666,0.000000,-1149.143247
3580.349058,-9400.615463,-888.247130,-1072.533697
3580.349388,-7846.182985,-962.267725,-842.705048
3580.349718,-7920.203579,-444.123565,0.000000
3580.350048,-7994.224174,0.000000,995.924147
3580.350377,-8512.368333,740.205942,766.095498
3580.350707,-9252.574275,962.267725,229.828649
3580.351037,-10140.821405,1184.329507,-459.657299
3580.351367,-11177.109724,592.164754,-306.438199
3580.351696,-11399.171507,370.102971,0.000000
3580.352026,-9918.759623,-962.267725,0.000000
3580.352356,-8438.347739,-1702.473667,0.000000
3580.352686,-7402.059420,-1480.411884,1225.752797
3580.353015,-8216.285956,-296.082377,1915.238745
3580.353345,-9178.553681,518.144159,2604.724693
3580.353675,-10584.944971,1480.411884,1532.190996
3580.354005,-10510.924376,1850.514855,612.876398
3580.354335,-11029.068536,1406.391290,-229.828649
3580.354664,-11251.130318,1406.391290,-766.095498
3580.354994,-10807.006753,296.082377,-1378.971896
3580.355324,-9400.615463,-592.164754,-1225.752797
3580.355654,-7846.182985,-888.247130,-842.705048
3580.355983,-8216.285956,-592.164754,766.095498
3580.356313,-8882.471304,74.020594,1685.410096
3580.356643,-9770.718434,740.205942,2298.286494
3580.356973,-10658.965565,1332.370696,2221.676944
3580.357303,-11325.150913,1258.350101,1302.362347
3580.357632,-12065.356855,962.267725,153.219100
3580.357962,-12139.377449,518.144159,-919.314598
3580.358292,-10881.027347,-296.082377,-1455.581446
3580.358622,-9178.553681,-888.247130,-1608.800546
3580.358951,-7328.038826,-1554.432478,-766.095498
3580.359281,-7031.956449,-1036.288319,76.609550
3580.359611,-7550.100608,-148.041188,1455.581446
3580.359941,-9030.512492,518.144159,1532.190996
3580.360270,-10214.842000,1332.370696,1149.143247
3580.360600,-11325.150913,1480.411884,1149.143247
3580.360930,-12213.398043,1258.350101,1149.143247
3580.361260,-12583.501014,296.082377,766.095498
3580.361590,-10955.047942,-592.164754,-612.876398
3580.361919,-9252.574275,-1184.329507,-1225.752797
3580.362249,-8216.285956,-1554.432478,-919.314598
3580.362579,-7846.182985,-1110.308913,306.438199
3580.362909,-8438.347739,-444.123565,1149.143247
3580.363238,-8956.491898,370.102971,842.705048
3580.363568,-9400.615463,666.185348,0.000000
3580.363898,-10288.862594,444.123565,-306.438199
3580.364228,-11103.089130,74.020594,-689.485948
3580.364557,-11029.068536,-814.226536,-153.219100
3580.364887,-10436.903782,-1332.370696,-459.657299
3580.365217,-8956.491898,-2072.576638,76.609550
3580.365547,-7846.182985,-1850.514855,1072.533697
3580.365877,-8512.368333,-740.205942,2681.334243
3580.366206,-9326.594869,148.041188,2298.286494
3580.366536,-10436.903782,1110.308913,1455.581446
3580.366866,-10732.986159,1110.308913,76.609550
3580.367196,-11029.068536,1406.391290,0.000000
3580.367525,-11325.150913,592.164754,-842.705048
3580.367855,-10955.047942,74.020594,-1608.800546
3580.368185,-9474.636058,-592.164754,-2068.457845
3580.368515,-7772.162391,-1184.329507,-1302.362347
3580.368844,-7846.182985,-888.247130,76.609550
3580.369174,-9104.533087,0.000000,1762.019645
3580.369504,-9844.739029,444.123565,2604.724693
3580.369834,-10584.944971,1184.329507,2145.067394
3580.370164,-11473.192101,1776.494261,1225.752797
3580.370493,-12065.356855,888.247130,-612.876398
3580.370823,-11843.295072,74.020594,-842.705048
3580.371153,-10732.986159,-444.123565,-1532.190996
3580.371483,-8734.430116,-1332.370696,-1378.971896
3580.371812,-7254.018232,-1332.370696,-536.266849
3580.372142,-6883.915261,-888.247130,383.047749
3580.372472,-7698.141797,0.000000,1762.019645
3580.372802,-9326.594869,1184.329507,1915.238745
3580.373132,-10436.903782,1628.453072,1149.143247
3580.373461,-11177.109724,1850.514855,1149.143247
3580.373791,-12139.377449,1480.411884,995.924147
3580.374121,-12583.501014,962.267725,306.438199
3580.374451,-11251.130318,148.041188,-766.095498
3580.374780,-9252.574275,-666.185348,-1532.190996
3580.375110,-7772.162391,-888.247130,-1225.752797
3580.375440,-7698.141797,-666.185348,153.219100
3580.375770,-8660.409521,814.226536,1455.581446
3580.376099,-8808.450710,888.247130,1225.752797
3580.376429,-9474.636058,1258.350101,229.828649
3580.376759,-10658.965565,1184.329507,-383.047749
3580.377089,-11325.150913,444.123565,-536.266849
3580.377419,-11029.068536,-370.102971,-919.314598
3580.377748,-10140.821405,-740.205942,-536.266849
3580.378078,-8956.491898,-1258.350101,153.219100
3580.378408,-8364.327145,-740.205942,1225.752797
3580.378738,-8882.471304,-518.144159,1762.019645
3580.379067,-9770.718434,518.144159,1608.800546
3580.379397,-10807.006753,1258.350101,1225.752797
3580.379727,-11029.068536,1480.411884,459.657299
3580.380056,-11251.130318,1332.370696,536.266849
3580.380386,-11103.089130,740.205942,0.000000
3580.380716,-10658.965565,0.000000,-995.924147
3580.381046,-9252.574275,-1036.288319,-1608.800546
3580.381375,-7772.162391,-1702.473667,-612.876398
3580.381705,-7476.080014,-1628.453072,383.047749
3580.382035,-8734.430116,-666.185348,2374.896044
3580.382365,-9622.677246,0.000000,3064.381992
3580.382694,-10436.903782,592.164754,2374.896044
3580.383024,-11251.130318,814.226536,612.876398
3580.383354,-11769.274478,222.061783,-536.266849
3580.383683,-11843.295072,-148.041188,-1225.752797
3580.384013,-10214.842000,-1036.288319,-1532.190996
3580.384343,-8438.347739,-1406.391290,-995.924147
3580.384673,-7031.956449,-2220.617826,-306.438199
3580.385002,-6883.915261,-1332.370696,306.438199
3580.385332,-7698.141797,-592.164754,1225.752797
3580.385662,-8734.430116,444.123565,1378.971896
3580.385991,-10214.842000,1184.329507,1149.143247
3580.386321,-11103.089130,1332.370696,1378.971896
3580.386651,-12139.377449,888.247130,612.876398
3580.386981,-12583.501014,370.102971,229.828649
3580.387310,-11547.212695,-296.082377,-995.924147
3580.387640,-9400.615463,-1184.329507,-1378.971896
3580.387970,-8290.306550,-888.247130,-919.314598
3580.388300,-8068.244768,-666.185348,459.657299
3580.388629,-8364.327145,0.000000,995.924147
3580.388959,-9104.533087,814.226536,1149.143247
3580.389289,-9844.739029,1184.329507,153.219100
3580.389618,-10658.965565,1036.288319,-842.705048
3580.389948,-11843.295072,666.185348,0.000000
3580.390278,-11621.233289,222.061783,-612.876398
3580.390608,-10066.800811,-592.164754,-383.047749
3580.390937,-9030.512492,-1480.411884,76.609550
3580.391267,-8216.285956,-814.226536,919.314598
3580.391597,-8438.347739,-740.205942,1838.629195
3580.391926,-9326.594869,444.123565,1838.629195
3580.392256,-10066.800811,1258.350101,1225.752797
3580.392586,-10436.903782,1998.556043,612.876398
3580.392916,-10807.006753,1628.453072,-459.657299
3580.393245,-11473.192101,1332.370696,-1225.752797
3580.393575,-10881.027347,222.061783,-2068.457845
3580.393905,-9104.533087,-518.144159,-2221.676944
3580.394235,-7105.977043,-888.247130,-1455.581446
3580.394564,-7254.018232,-888.247130,459.657299
3580.394894,-8438.347739,0.000000,2221.676944
3580.395224,-9548.656652,666.185348,2374.896044
3580.395553,-10288.862594,1480.411884,1762.019645
3580.395883,-11029.068536,1406.391290,612.876398
3580.396213,-12139.377449,1258.350101,-229.828649
3580.396543,-12139.377449,518.144159,-1072.533697
3580.396872,-10732.986159,-222.061783,-1608.800546
3580.397202,-8882.471304,-1406.391290,-1838.629195
3580.397532,-7105.977043,-1776.494261,-1225.752797
3580.397862,-7105.977043,-1184.329507,0.000000
3580.398191,-7698.141797,-222.061783,1072.533697
3580.398521,-9104.533087,814.226536,1838.629195
3580.398851,-10066.800811,1480.411884,1378.971896
3580.399180,-10955.047942,1480.411884,995.924147
3580.399510,-11991.336260,1258.350101,383.047749
3580.399840,-12731.542202,444.123565,306.438199
3580.400170,-11769.274478,-222.061783,-995.924147
3580.400499,-9696.697840,-1184.329507,-1225.752797
3580.400829,-8216.285956,-1332.370696,-383.047749
3580.401159,-7920.203579,-814.226536,612.876398
3580.401488,-8586.388927,-222.061783,1149.143247
3580.401818,-8956.491898,666.185348,1149.143247
3580.402148,-9548.656652,1036.288319,459.657299
3580.402478,-10658.965565,888.247130,-76.609550
3580.402807,-11843.295072,592.164754,-229.828649
3580.403137,-11325.150913,-296.082377,-229.828649
3580.403467,-9992.780217,-1332.370696,-306.438199
3580.403797,-8438.347739,-1998.556043,76.609550
3580.404126,-8512.368333,-1702.473667,1838.629195
3580.404456,-8660.409521,-1036.288319,2374.896044
3580.404786,-9474.636058,0.000000,2451.505594
3580.405115,-10584.944971,962.267725,1838.629195
3580.405445,-10807.006753,1406.391290,1302.362347
3580.405775,-11177.109724,1184.329507,153.219100
3580.406105,-11251.130318,740.205942,-766.095498
3580.406434,-10584.944971,74.020594,-842.705048
3580.406764,-9104.533087,-666.185348,-1378.971896
3580.407094,-7846.182985,-1184.329507,-842.705048
3580.407424,-7994.224174,-740.205942,383.047749
3580.407753,-8808.450710,0.000000,1991.848295
3580.408083,-9918.759623,1036.288319,2221.676944
3580.408413,-11103.089130,1480.411884,1685.410096
3580.408742,-11547.212695,1406.391290,306.438199
3580.409072,-11917.315666,888.247130,-459.657299
3580.409402,-11843.295072,370.102971,-1302.362347
3580.409732,-10584.944971,-370.102971,-612.876398
3580.410061,-8734.430116,-1036.288319,-1455.581446
3580.410391,-7105.977043,-1184.329507,-689.485948
3580.410721,-7105.977043,-814.226536,229.828649
3580.411050,-7920.203579,0.000000,1225.752797
3580.411380,-9400.615463,592.164754,1608.800546
3580.411710,-10436.903782,1702.473667,1149.143247
3580.412040,-11029.068536,1702.473667,995.924147
3580.412369,-12435.459826,1332.370696,306.438199
3580.412699,-12805.562797,888.247130,0.000000
3580.413029,-10955.047942,-444.123565,-1072.533697
3580.413359,-8956.491898,-888.247130,-1149.143247
3580.413688,-7550.100608,-1184.329507,-766.095498
3580.414018,-7846.182985,-666.185348,766.095498
3580.414348,-8438.347739,148.041188,1532.190996
3580.414677,-9104.533087,962.267725,1378.971896
3580.415007,-9918.759623,1406.391290,536.266849
3580.415337,-10955.047942,1406.391290,-229.828649
3580.415667,-11399.171507,518.144159,-459.657299
3580.415996,-11399.171507,0.000000,-306.438199
3580.416326,-10288.862594,-1110.308913,-383.047749
3580.416656,-9104.533087,-1776.494261,0.000000
3580.416986,-8068.244768,-1628.453072,1455.581446
3580.417315,-8068.244768,-1258.350101,2298.286494
3580.417645,-9252.574275,0.000000,2757.943793
3580.417975,-9770.718434,592.164754,1302.362347
3580.418304,-10288.862594,888.247130,1455.581446
3580.418634,-10881.027347,1110.308913,306.438199
3580.418964,-11621.233289,814.226536,-383.047749
3580.419294,-11177.109724,0.000000,-1225.752797
3580.419623,-9400.615463,-1332.370696,-1455.581446
3580.419953,-7994.224174,-1110.308913,-995.924147
3580.420283,-7994.224174,-962.267725,459.657299
3580.420612,-8734.430116,-444.123565,1685.410096
3580.420942,-9844.739029,592.164754,2374.896044
3580.421272,-10658.965565,1110.308913,1302.362347
3580.421602,-11695.253884,1480.411884,0.000000
3580.421931,-11991.336260,888.247130,-689.485948
3580.422261,-11621.233289,-74.020594,-842.705048
3580.422591,-10436.903782,-666.185348,-1378.971896
3580.422921,-8142.265362,-1702.473667,-1302.362347
3580.423250,-7328.038826,-1702.473667,-612.876398
3580.423580,-7254.018232,-1332.370696,153.219100
3580.423910,-8142.265362,-148.041188,995.924147
3580.424239,-9400.615463,296.082377,1608.800546
3580.424569,-10510.924376,1184.329507,995.924147
3580.424899,-11029.068536,1480.411884,1225.752797
3580.425229,-11991.336260,1480.411884,842.705048
3580.425558,-12287.418637,888.247130,-383.047749
3580.425888,-11029.068536,148.041188,-1072.533697
3580.426218,-9178.553681,-666.185348,-1302.362347
3580.426547,-8364.327145,-592.164754,-153.219100
3580.426877,-8586.388927,74.020594,995.924147
3580.427207,-9030.512492,592.164754,1838.629195
3580.427537,-9252.574275,1184.329507,1149.143247
3580.427866,-9844.739029,1850.514855,0.000000
3580.428196,-11103.089130,1406.391290,-766.095498
3580.428526,-11547.212695,1258.350101,0.000000
3580.428856,-11325.150913,74.020594,-229.828649
3580.429185,-9992.780217,-518.144159,-536.266849
3580.429515,-8512.368333,-1332.370696,383.047749
3580.429845,-7994.224174,-1110.308913,766.095498
3580.430174,-8364.327145,-518.144159,1915.238745
3580.430504,-9400.615463,666.185348,2298.286494
3580.430834,-9918.759623,1110.308913,1838.629195
3580.431164,-10362.883188,1628.453072,1072.533697
3580.431493,-11251.130318,1850.514855,76.609550
3580.431823,-11843.295072,1110.308913,-536.266849
3580.432153,-10881.027347,0.000000,-1455.581446
3580.432483,-8956.491898,-666.185348,-1991.848295
3580.432812,-7105.977043,-1406.391290,-1378.971896
3580.433142,-7476.080014,-962.267725,995.924147
3580.433472,-8586.388927,0.000000,2221.676944
3580.433801,-9474.636058,592.164754,2374.896044
3580.434131,-10140.821405,1110.308913,1225.752797
3580.434461,-11325.150913,1184.329507,0.000000
3580.434791,-12139.377449,962.267725,-459.657299
3580.435120,-12139.377449,222.061783,-1072.533697
3580.435450,-10436.903782,-740.205942,-1455.581446
3580.435780,-8660.409521,-1628.453072,-1532.190996
3580.436109,-7328.038826,-1924.535449,-1378.971896
3580.436439,-7105.977043,-1628.453072,-306.438199
3580.436769,-8068.244768,-518.144159,1072.533697
3580.437099,-9252.574275,222.061783,2068.457845
3580.437428,-10066.800811,814.226536,1455.581446
3580.437758,-10881.027347,1110.308913,995.924147
3580.438088,-12213.398043,1036.288319,229.828649
3580.438418,-12509.480420,0.000000,76.609550
3580.438747,-11695.253884,-740.205942,-919.314598
3580.439077,-9770.718434,-1258.350101,-995.924147
3580.439407,-8512.368333,-1036.288319,-153.219100
3580.439736,-8216.285956,-1036.288319,766.095498
3580.440066,-8734.430116,-296.082377,1225.752797
3580.440396,-9252.574275,296.082377,1225.752797
3580.440726,-9918.759623,814.226536,229.828649
3580.441055,-10807.006753,962.267725,-612.876398
3580.441385,-11547.212695,444.123565,-919.314598
3580.441715,-10807.006753,-592.164754,-842.705048
3580.442045,-9918.759623,-1258.350101,-995.924147
3580.442374,-9030.512492,-1776.494261,0.000000
3580.442704,-8586.388927,-1850.514855,689.485948
3580.443034,-8512.368333,-1036.288319,1685.410096
3580.443363,-9400.615463,-222.061783,2298.286494
3580.443693,-9918.759623,444.123565,1685.410096
3580.444023,-10288.862594,962.267725,1378.971896
3580.444353,-10881.027347,1110.308913,306.438199
3580.444682,-11473.192101,666.185348,-459.657299
3580.445012,-10807.006753,0.000000,-842.705048
3580.445342,-9178.553681,-666.185348,-1455.581446
3580.445671,-7698.141797,-1110.308913,-766.095498
3580.446001,-7772.162391,-888.247130,229.828649
3580.446331,-8734.430116,-148.041188,1838.629195
3580.446661,-9400.615463,592.164754,2145.067394
3580.446990,-9918.759623,1332.370696,1608.800546
3580.447320,-11399.171507,1628.453072,459.657299
3580.447650,-11695.253884,1184.329507,-459.657299
3580.447980,-11917.315666,518.144159,-919.314598
3580.448309,-10510.924376,-148.041188,-1378.971896
3580.448639,-8956.491898,-814.226536,-1455.581446
3580.448969,-7550.100608,-888.247130,-766.095498
3580.449298,-7402.059420,-740.205942,383.047749
3580.449628,-7994.224174,296.082377,1378.971896
3580.449958,-9178.553681,1110.308913,1455.581446
3580.450288,-10362.883188,1850.514855,1302.362347
3580.450617,-11325.150913,2072.576638,919.314598
3580.450947,-12139.377449,1998.556043,689.485948
3580.451277,-12583.501014,1406.391290,0.000000
3580.451606,-11621.233289,444.123565,-842.705048
3580.451936,-9252.574275,-370.102971,-612.876398
3580.452266,-8290.306550,-740.205942,-459.657299
3580.452596,-8068.244768,0.000000,536.266849
3580.452925,-8660.409521,592.164754,1762.019645
3580.453255,-9252.574275,1332.370696,1378.971896
3580.453585,-9844.739029,1480.411884,153.219100
3580.453915,-10658.965565,1258.350101,-766.095498
3580.454244,-11251.130318,962.267725,-995.924147
3580.454574,-10955.047942,0.000000,-1072.533697
3580.454904,-10140.821405,-740.205942,-919.314598
3580.455233,-8660.409521,-1554.432478,0.000000
3580.455563,-7994.224174,-1184.329507,459.657299
3580.455893,-7920.203579,-888.247130,1455.581446
3580.456223,-9104.533087,74.020594,1685.410096
3580.456552,-9696.697840,740.205942,1149.143247
3580.456882,-10584.944971,1036.288319,842.705048
3580.457212,-10881.027347,888.247130,-76.609550
3580.457542,-11621.233289,888.247130,-612.876398
3580.457871,-10955.047942,0.000000,-1608.800546
3580.458201,-9474.636058,-814.226536,-1608.800546
3580.458531,-7698.141797,-1110.308913,-1532.190996
