#time,accel_x,accel_y,accel_z
4028.924193,-10362.883188,-518.144159,3064.381992
4028.924523,-10362.883188,74.020594,1991.848295
4028.924853,-10732.986159,148.041188,-153.219100
4028.925183,-9548.656652,-444.123565,-153.219100
4028.925513,-9326.594869,-666.185348,459.657299
4028.925843,-8290.306550,-666.185348,1991.848295
4028.926173,-8438.347739,-444.123565,2145.067394
4028.926502,-7994.224174,-666.185348,1225.752797
4028.926832,-8956.491898,-444.123565,0.000000
4028.927162,-10066.800811,-296.082377,306.438199
4028.927492,-11029.068536,0.000000,1072.533697
4028.927822,-11251.130318,666.185348,2221.676944
4028.928152,-10584.944971,148.041188,2374.896044
4028.928482,-10436.903782,296.082377,2374.896044
4028.928812,-10362.883188,0.000000,2374.896044
4028.929142,-10510.924376,148.041188,153.219100
4028.929472,-9992.780217,-296.082377,842.705048
4028.929801,-9696.697840,0.000000,1455.581446
4028.930131,-10066.800811,222.061783,2451.505594
4028.930461,-9844.739029,444.123565,3064.381992
4028.930791,-10214.842000,518.144159,1608.800546
4028.931121,-10140.821405,0.000000,842.705048
4028.931451,-10658.965565,74.020594,1225.752797
4028.931781,-10807.006753,0.000000,2451.505594
4028.932111,-9918.759623,-518.144159,3140.991542
4028.932441,-9178.553681,-962.267725,2451.505594
4028.932771,-9770.718434,-1036.288319,2528.115143
4028.933100,-10436.903782,-1332.370696,2451.505594
4028.933430,-9770.718434,-1184.329507,2145.067394
4028.933760,-8956.491898,-1776.494261,2604.724693
4028.934090,-8882.471304,-2146.597232,3140.991542
4028.934420,-9104.533087,-2072.576638,3600.648841
4028.934750,-8586.388927,-2146.597232,3140.991542
4028.935080,-10955.047942,-3330.926739,4443.353888
4028.935410,-12139.377449,-3330.926739,4213.525239
4028.935740,-11251.130318,-3701.029710,3140.991542
4028.936070,-11177.109724,-2886.803174,2068.457845
4028.936400,-10510.924376,-2812.782580,1302.362347
4028.936729,-9474.636058,-2812.782580,1991.848295
4028.937059,-10288.862594,-2886.803174,3064.381992
4028.937389,-9178.553681,-3330.926739,4213.525239
4028.937719,-9326.594869,-3775.050304,4060.306139
4028.938049,-9622.677246,-4367.215058,2221.676944
4028.938379,-10066.800811,-4811.338623,2298.286494
4028.938709,-9622.677246,-5625.565159,2604.724693
4028.939039,-9252.574275,-5477.523971,4903.011187
4028.939369,-9548.656652,-5699.585753,4826.401637
4028.939699,-9992.780217,-4737.318029,4519.963438
4028.940028,-10288.862594,-4071.132681,2681.334243
4028.940358,-10510.924376,-3775.050304,2068.457845
4028.940688,-10066.800811,-3923.091493,1915.238745
4028.941018,-10881.027347,-4071.132681,3447.429741
4028.941348,-11103.089130,-4367.215058,3830.477490
4028.941678,-9474.636058,-4959.379811,2681.334243
4028.942008,-9178.553681,-5033.400406,1685.410096
4028.942338,-9252.574275,-5181.441594,1762.019645
4028.942668,-10362.883188,-5329.482782,1915.238745
4028.942998,-10362.883188,-4589.276840,2834.553343
4028.943327,-9548.656652,-4737.318029,3217.601092
4028.943657,-8882.471304,-4145.153275,3294.210641
4028.943987,-9104.533087,-3775.050304,2451.505594
4028.944317,-9474.636058,-3775.050304,1685.410096
4028.944647,-9622.677246,-3478.967927,1302.362347
4028.944977,-9696.697840,-3404.947333,2068.457845
4028.945307,-9696.697840,-3330.926739,2298.286494
4028.945637,-10066.800811,-3256.906145,2604.724693
4028.945967,-9918.759623,-2516.700203,1915.238745
4028.946297,-10881.027347,-2442.679609,536.266849
4028.946626,-10288.862594,-2220.617826,842.705048
4028.946956,-9918.759623,-1702.473667,1378.971896
4028.947286,-9770.718434,-1110.308913,2145.067394
4028.947616,-9696.697840,-592.164754,2528.115143
4028.947946,-10214.842000,-592.164754,1378.971896
4028.948276,-10362.883188,0.000000,383.047749
4028.948606,-10436.903782,-296.082377,306.438199
4028.948935,-9844.739029,0.000000,2221.676944
4028.949265,-9918.759623,666.185348,1838.629195
4028.949595,-9770.718434,888.247130,1608.800546
4028.949925,-9992.780217,1036.288319,766.095498
4028.950255,-10732.986159,1480.411884,-306.438199
4028.950585,-10658.965565,1406.391290,0.000000
4028.950915,-9548.656652,1480.411884,-612.876398
4028.951244,-8290.306550,1998.556043,-1149.143247
4028.951574,-8512.368333,2072.576638,-1532.190996
4028.951904,-9474.636058,2294.638420,-1991.848295
4028.952234,-8882.471304,2516.700203,-1225.752797
4028.952564,-9474.636058,2960.823768,-383.047749
4028.952894,-10140.821405,3404.947333,0.000000
4028.953224,-10807.006753,2886.803174,76.609550
4028.953553,-11103.089130,2886.803174,-1302.362347
4028.953883,-9844.739029,2146.597232,-2298.286494
4028.954213,-9030.512492,1628.453072,-1608.800546
4028.954543,-7846.182985,1702.473667,0.000000
4028.954873,-8216.285956,2220.617826,766.095498
4028.955203,-8438.347739,2738.761985,766.095498
4028.955533,-9252.574275,3478.967927,-1072.533697
4028.955862,-10140.821405,3404.947333,-2221.676944
4028.956192,-11547.212695,3775.050304,-2528.115143
4028.956522,-11843.295072,3256.906145,-612.876398
4028.956852,-11695.253884,2886.803174,766.095498
4028.957182,-10288.862594,2368.659014,766.095498
4028.957512,-9622.677246,1850.514855,-306.438199
4028.957842,-9030.512492,1110.308913,-3064.381992
4028.958171,-8586.388927,1554.432478,-3370.820191
4028.958501,-9548.656652,1850.514855,-1532.190996
4028.958831,-9548.656652,1702.473667,612.876398
4028.959161,-9918.759623,1924.535449,1225.752797
4028.959491,-10436.903782,1702.473667,689.485948
4028.959821,-11029.068536,1110.308913,-153.219100
4028.960151,-11177.109724,518.144159,-689.485948
4028.960480,-10807.006753,0.000000,-766.095498
4028.960810,-9622.677246,-814.226536,919.314598
4028.961140,-8512.368333,-1554.432478,2451.505594
4028.961470,-8808.450710,-1776.494261,3064.381992
4028.961800,-9030.512492,-1850.514855,1838.629195
4028.962130,-9474.636058,-1702.473667,0.000000
4028.962460,-9030.512492,-1628.453072,-842.705048
4028.962790,-8734.430116,-1332.370696,-76.609550
4028.963119,-8956.491898,-1480.411884,1915.238745
4028.963449,-10584.944971,-962.267725,2604.724693
4028.963779,-11695.253884,-1110.308913,1762.019645
4028.964109,-11547.212695,-1702.473667,0.000000
4028.964439,-10288.862594,-2442.679609,-995.924147
4028.964769,-9696.697840,-2590.720797,0.000000
4028.965099,-9400.615463,-2960.823768,1378.971896
4028.965428,-8660.409521,-3182.885551,3064.381992
4028.965758,-8216.285956,-3108.864956,3217.601092
4028.966088,-9252.574275,-2442.679609,2298.286494
4028.966418,-10140.821405,-2294.638420,766.095498
4028.966748,-11547.212695,-1480.411884,0.000000
4028.967078,-11029.068536,-1776.494261,229.828649
4028.967408,-10362.883188,-1702.473667,2145.067394
4028.967737,-10214.842000,-1776.494261,2374.896044
4028.968067,-10732.986159,-1850.514855,1915.238745
4028.968397,-10658.965565,-1554.432478,842.705048
4028.968727,-9548.656652,-1702.473667,-306.438199
4028.969057,-9400.615463,-1332.370696,-689.485948
4028.969387,-9696.697840,-1184.329507,0.000000
4028.969717,-9622.677246,-666.185348,766.095498
4028.970046,-9400.615463,-814.226536,1225.752797
4028.970376,-9918.759623,-592.164754,1225.752797
4028.970706,-10584.944971,-444.123565,76.609550
4028.971036,-10658.965565,-370.102971,-689.485948
4028.971366,-10436.903782,0.000000,-536.266849
4028.971696,-9622.677246,-222.061783,-306.438199
4028.972026,-9104.533087,0.000000,1072.533697
4028.972355,-9030.512492,-222.061783,1762.019645
4028.972685,-9104.533087,-222.061783,1455.581446
4028.973015,-8512.368333,74.020594,-536.266849
4028.973345,-8364.327145,74.020594,-1608.800546
4028.973675,-8956.491898,444.123565,-1838.629195
4028.974005,-9326.594869,814.226536,-919.314598
4028.974335,-9326.594869,1110.308913,306.438199
4028.974664,-9326.594869,1184.329507,919.314598
4028.974994,-9696.697840,1702.473667,536.266849
4028.975324,-9918.759623,1554.432478,-689.485948
4028.975654,-9844.739029,1702.473667,-1149.143247
4028.975984,-9770.718434,1480.411884,-1378.971896
4028.976314,-9252.574275,1776.494261,-459.657299
4028.976644,-8956.491898,1480.411884,766.095498
4028.976973,-9474.636058,1702.473667,689.485948
4028.977303,-9474.636058,1924.535449,383.047749
4028.977633,-9548.656652,1776.494261,-1838.629195
4028.977963,-9622.677246,1850.514855,-2374.896044
4028.978293,-10362.883188,2516.700203,-1608.800546
4028.978623,-10140.821405,2368.659014,-459.657299
4028.978953,-9844.739029,2442.679609,1225.752797
4028.979283,-10214.842000,2516.700203,612.876398
4028.979612,-10584.944971,2368.659014,-919.314598
4028.979942,-10658.965565,2294.638420,-2221.676944
4028.980272,-10658.965565,1924.535449,-2528.115143
4028.980602,-9844.739029,1850.514855,-1455.581446
4028.980932,-9326.594869,1036.288319,229.828649
4028.981262,-9696.697840,1036.288319,1378.971896
4028.981592,-10066.800811,888.247130,842.705048
4028.981921,-10140.821405,1110.308913,-612.876398
4028.982251,-9918.759623,962.267725,-919.314598
4028.982581,-10214.842000,1110.308913,-459.657299
4028.982911,-10362.883188,888.247130,995.924147
4028.983241,-9622.677246,444.123565,1685.410096
4028.983571,-9918.759623,666.185348,1991.848295
4028.983901,-9992.780217,222.061783,536.266849
4028.984230,-9992.780217,0.000000,-1608.800546
4028.984560,-9326.594869,-370.102971,-2145.067394
4028.984890,-9326.594869,-222.061783,-1532.190996
4028.985220,-9178.553681,-444.123565,612.876398
4028.985550,-9252.574275,-296.082377,1762.019645
4028.985880,-9474.636058,-370.102971,1302.362347
4028.986210,-9474.636058,-740.205942,306.438199
4028.986539,-10140.821405,-444.123565,-842.705048
4028.986869,-10288.862594,-370.102971,-689.485948
4028.987199,-10362.883188,-222.061783,306.438199
4028.987529,-9992.780217,-1110.308913,1378.971896
4028.987859,-9918.759623,-740.205942,2451.505594
4028.988189,-9992.780217,-592.164754,1455.581446
4028.988519,-9326.594869,-1110.308913,-306.438199
4028.988848,-9326.594869,-1184.329507,-1915.238745
4028.989178,-9548.656652,-888.247130,-995.924147
4028.989508,-9548.656652,-962.267725,306.438199
4028.989838,-9474.636058,-1258.350101,2374.896044
4028.990168,-10140.821405,-1332.370696,2604.724693
4028.990498,-10658.965565,-1258.350101,1302.362347
4028.990828,-10510.924376,-1110.308913,0.000000
4028.991157,-9844.739029,-1110.308913,-842.705048
4028.991487,-9918.759623,-962.267725,229.828649
4028.991817,-10214.842000,-962.267725,1378.971896
4028.992147,-9696.697840,-1036.288319,2374.896044
4028.992477,-9548.656652,-888.247130,1991.848295
4028.992807,-9548.656652,-1184.329507,612.876398
4028.993137,-9770.718434,-1036.288319,-1149.143247
4028.993466,-9844.739029,-1184.329507,-689.485948
4028.993796,-9178.553681,-1332.370696,612.876398
4028.994126,-8660.409521,-1110.308913,2068.457845
4028.994456,-9104.533087,-962.267725,2834.553343
4028.994786,-10066.800811,-962.267725,1532.190996
4028.995116,-10066.800811,-888.247130,229.828649
4028.995446,-9622.677246,-814.226536,-766.095498
4028.995776,-9622.677246,-518.144159,0.000000
4028.996105,-9474.636058,-148.041188,306.438199
4028.996435,-8956.491898,-814.226536,1838.629195
4028.996765,-9326.594869,-592.164754,1455.581446
4028.997095,-9548.656652,-148.041188,0.000000
4028.997425,-9844.739029,-518.144159,-1991.848295
4028.997755,-10140.821405,148.041188,-1762.019645
4028.998085,-10066.800811,0.000000,-229.828649
4028.998414,-9400.615463,0.000000,1149.143247
4028.998744,-9622.677246,0.000000,1991.848295
4028.999074,-9770.718434,0.000000,1762.019645
4028.999404,-10066.800811,0.000000,306.438199
4028.999734,-9992.780217,444.123565,-919.314598
4029.000064,-10362.883188,518.144159,-689.485948
4029.000394,-10214.842000,888.247130,0.000000
4029.000723,-10214.842000,1036.288319,1225.752797
4029.001053,-10140.821405,888.247130,1302.362347
4029.001383,-9918.759623,888.247130,-229.828649
4029.001713,-9474.636058,1184.329507,-2681.334243
4029.002043,-9770.718434,1332.370696,-2451.505594
4029.002373,-9770.718434,1702.473667,-1915.238745
4029.002703,-9918.759623,1036.288319,-919.314598
4029.003032,-9400.615463,1110.308913,766.095498
4029.003362,-10140.821405,814.226536,1378.971896
4029.003692,-10362.883188,888.247130,459.657299
4029.004022,-9622.677246,222.061783,-459.657299
4029.004352,-9326.594869,444.123565,-995.924147
4029.004682,-9252.574275,444.123565,-383.047749
4029.005012,-9326.594869,666.185348,536.266849
4029.005341,-9400.615463,666.185348,1762.019645
4029.005671,-9992.780217,1184.329507,995.924147
4029.006001,-9474.636058,1406.391290,-995.924147
4029.006331,-9992.780217,740.205942,-1991.848295
4029.006661,-9622.677246,888.247130,-1915.238745
4029.006991,-9400.615463,592.164754,-689.485948
4029.007321,-8586.388927,518.144159,-153.219100
4029.007650,-9252.574275,370.102971,1455.581446
4029.007980,-9400.615463,444.123565,383.047749
4029.008310,-9770.718434,814.226536,-383.047749
4029.008640,-10140.821405,444.123565,-1072.533697
4029.008970,-9992.780217,518.144159,-306.438199
4029.009300,-10066.800811,592.164754,1378.971896
4029.009630,-10066.800811,296.082377,2374.896044
4029.009959,-10066.800811,296.082377,2145.067394
4029.010289,-9548.656652,444.123565,229.828649
4029.010619,-9992.780217,74.020594,-842.705048
4029.010949,-10066.800811,370.102971,-1762.019645
4029.011279,-9474.636058,296.082377,-1072.533697
4029.011609,-8882.471304,740.205942,766.095498
4029.011939,-9252.574275,296.082377,1608.800546
4029.012269,-10066.800811,0.000000,1225.752797
4029.012598,-10362.883188,74.020594,0.000000
4029.012928,-10362.883188,-370.102971,-383.047749
4029.013258,-9622.677246,-518.144159,-76.609550
4029.013588,-9622.677246,-740.205942,842.705048
4029.013918,-10140.821405,-296.082377,1149.143247
4029.014248,-9844.739029,-370.102971,1608.800546
4029.014578,-10214.842000,148.041188,766.095498
4029.014907,-10066.800811,0.000000,-383.047749
4029.015237,-9918.759623,-296.082377,-1072.533697
4029.015567,-9844.739029,0.000000,-459.657299
4029.015897,-9696.697840,0.000000,919.314598
4029.016227,-9474.636058,-962.267725,1378.971896
4029.016557,-9770.718434,-1184.329507,1455.581446
4029.016887,-9548.656652,-1110.308913,766.095498
4029.017216,-9474.636058,-740.205942,0.000000
4029.017546,-9844.739029,-370.102971,229.828649
4029.017876,-10066.800811,-444.123565,766.095498
4029.018206,-10732.986159,-370.102971,1302.362347
4029.018536,-10140.821405,-518.144159,1532.190996
4029.018866,-10288.862594,-592.164754,1378.971896
4029.019196,-9992.780217,-1036.288319,306.438199
4029.019525,-9548.656652,-1184.329507,-842.705048
4029.019855,-9400.615463,-1036.288319,-612.876398
4029.020185,-9622.677246,-444.123565,-766.095498
4029.020515,-9326.594869,-666.185348,766.095498
4029.020845,-9400.615463,-962.267725,1455.581446
4029.021175,-9770.718434,-592.164754,1149.143247
4029.021505,-9992.780217,0.000000,76.609550
4029.021834,-9844.739029,-888.247130,-459.657299
4029.022164,-9474.636058,-296.082377,0.000000
4029.022494,-10140.821405,-222.061783,536.266849
4029.022824,-9918.759623,-148.041188,766.095498
4029.023154,-9770.718434,-74.020594,995.924147
4029.023484,-9696.697840,0.000000,536.266849
4029.023814,-9622.677246,0.000000,-153.219100
4029.024143,-9992.780217,0.000000,-1378.971896
4029.024473,-9622.677246,74.020594,-612.876398
4029.024803,-9474.636058,-148.041188,459.657299
4029.025133,-9030.512492,-370.102971,1302.362347
4029.025463,-9400.615463,-74.020594,1455.581446
4029.025793,-9844.739029,148.041188,842.705048
4029.026123,-9548.656652,74.020594,-995.924147
4029.026452,-9770.718434,370.102971,-995.924147
4029.026782,-10214.842000,814.226536,-306.438199
4029.027112,-10584.944971,888.247130,689.485948
4029.027442,-9918.759623,296.082377,1225.752797
4029.027772,-9696.697840,592.164754,766.095498
4029.028102,-9918.759623,518.144159,-229.828649
4029.028432,-9696.697840,148.041188,-1302.362347
4029.028762,-9400.615463,518.144159,-1762.019645
4029.029091,-9474.636058,888.247130,-383.047749
4029.029421,-9918.759623,1258.350101,689.485948
4029.029751,-9844.739029,814.226536,919.314598
4029.030081,-9992.780217,1480.411884,383.047749
4029.030411,-9548.656652,814.226536,-306.438199
4029.030741,-9770.718434,740.205942,-689.485948
4029.031071,-9770.718434,814.226536,0.000000
4029.031400,-9696.697840,592.164754,1302.362347
4029.031730,-9770.718434,814.226536,1149.143247
4029.032060,-9696.697840,296.082377,919.314598
4029.032390,-10066.800811,666.185348,0.000000
4029.032720,-9844.739029,666.185348,-766.095498
4029.033050,-9770.718434,1036.288319,-1225.752797
4029.033380,-9474.636058,740.205942,-1072.533697
4029.033709,-9326.594869,740.205942,0.000000
4029.034039,-9030.512492,740.205942,536.266849
4029.034369,-9770.718434,740.205942,842.705048
4029.034699,-9844.739029,370.102971,-229.828649
4029.035029,-9622.677246,0.000000,-153.219100
4029.035359,-9622.677246,74.020594,-306.438199
4029.035689,-10584.944971,592.164754,612.876398
4029.036018,-10140.821405,666.185348,689.485948
4029.036348,-9918.759623,740.205942,842.705048
4029.036678,-10066.800811,740.205942,689.485948
4029.037008,-9992.780217,444.123565,-306.438199
4029.037338,-10214.842000,148.041188,-1072.533697
4029.037668,-9844.739029,148.041188,-919.314598
4029.037998,-9474.636058,74.020594,-536.266849
4029.038327,-9178.553681,0.000000,229.828649
4029.038657,-9622.677246,0.000000,1072.533697
4029.038987,-9918.759623,0.000000,459.657299
4029.039317,-10140.821405,0.000000,153.219100
4029.039647,-9992.780217,0.000000,-153.219100
4029.039977,-10140.821405,-592.164754,1072.533697
4029.040307,-10362.883188,-74.020594,1072.533697
4029.040636,-9770.718434,-74.020594,1532.190996
4029.040966,-9326.594869,-296.082377,1608.800546
4029.041296,-9548.656652,148.041188,842.705048
4029.041626,-9696.697840,-148.041188,-306.438199
4029.041956,-9918.759623,0.000000,-689.485948
4029.042286,-10066.800811,0.000000,-306.438199
4029.042616,-9548.656652,-370.102971,76.609550
4029.042945,-9326.594869,-592.164754,1225.752797
4029.043275,-9622.677246,-518.144159,689.485948
4029.043605,-9770.718434,-814.226536,612.876398
4029.043935,-9326.594869,-888.247130,306.438199
4029.044265,-9844.739029,-592.164754,1149.143247
4029.044595,-10066.800811,-370.102971,995.924147
4029.044925,-10066.800811,-444.123565,1149.143247
4029.045254,-9844.739029,-666.185348,1225.752797
4029.045584,-9622.677246,74.020594,1378.971896
4029.045914,-9696.697840,-518.144159,76.609550
4029.046244,-9844.739029,-296.082377,-995.924147
4029.046573,-9844.739029,-296.082377,-766.095498
4029.046903,-9474.636058,-370.102971,0.000000
4029.047233,-9548.656652,-148.041188,766.095498
4029.047563,-9770.718434,-148.041188,1072.533697
4029.047893,-9992.780217,-296.082377,459.657299
4029.048222,-9918.759623,-296.082377,-229.828649
4029.048552,-10140.821405,0.000000,-229.828649
4029.048882,-10066.800811,-222.061783,-306.438199
4029.049212,-10066.800811,74.020594,689.485948
4029.049541,-10436.903782,0.000000,1762.019645
4029.049871,-10510.924376,74.020594,1838.629195
4029.050201,-10362.883188,148.041188,383.047749
4029.050531,-10362.883188,0.000000,-995.924147
4029.050861,-10214.842000,0.000000,-1225.752797
4029.051190,-9622.677246,0.000000,-229.828649
4029.051520,-9178.553681,148.041188,842.705048
4029.051850,-9252.574275,-444.123565,1225.752797
4029.052180,-9474.636058,0.000000,536.266849
4029.052510,-9548.656652,0.000000,76.609550
4029.052839,-9474.636058,0.000000,-919.314598
4029.053169,-9992.780217,0.000000,-383.047749
4029.053499,-10066.800811,148.041188,-76.609550
4029.053829,-9474.636058,222.061783,536.266849
4029.054158,-9400.615463,0.000000,1225.752797
4029.054488,-9326.594869,444.123565,459.657299
4029.054818,-9770.718434,222.061783,-766.095498
4029.055148,-9548.656652,444.123565,-1072.533697
4029.055478,-9622.677246,296.082377,-689.485948
4029.055807,-9770.718434,666.185348,229.828649
4029.056137,-9326.594869,296.082377,1149.143247
4029.056467,-9548.656652,518.144159,766.095498
4029.056797,-9252.574275,444.123565,76.609550
4029.057126,-9474.636058,592.164754,-919.314598
4029.057456,-9918.759623,962.267725,-536.266849
4029.057786,-10955.047942,962.267725,-153.219100
4029.058116,-10807.006753,1184.329507,0.000000
4029.058446,-9918.759623,740.205942,76.609550
4029.058775,-9770.718434,666.185348,0.000000
4029.059105,-9918.759623,592.164754,-459.657299
4029.059435,-9770.718434,740.205942,-1378.971896
4029.059765,-9918.759623,814.226536,-1072.533697
4029.060095,-9548.656652,666.185348,-76.609550
4029.060424,-9622.677246,666.185348,612.876398
4029.060754,-9770.718434,592.164754,995.924147
4029.061084,-10288.862594,518.144159,459.657299
4029.061414,-9474.636058,518.144159,229.828649
4029.061743,-9770.718434,222.061783,-76.609550
4029.062073,-9918.759623,0.000000,153.219100
4029.062403,-10066.800811,148.041188,153.219100
4029.062733,-9326.594869,148.041188,689.485948
4029.063063,-9622.677246,518.144159,995.924147
4029.063392,-9918.759623,1036.288319,459.657299
4029.063722,-10140.821405,444.123565,-766.095498
4029.064052,-9992.780217,148.041188,-1532.190996
4029.064382,-9844.739029,592.164754,-842.705048
4029.064711,-9548.656652,296.082377,-76.609550
4029.065041,-9252.574275,0.000000,766.095498
4029.065371,-9622.677246,0.000000,383.047749
4029.065701,-9400.615463,-222.061783,153.219100
4029.066031,-9474.636058,-296.082377,-459.657299
4029.066360,-9992.780217,0.000000,0.000000
4029.066690,-10214.842000,-296.082377,689.485948
4029.067020,-9770.718434,-148.041188,1685.410096
4029.067350,-9918.759623,-296.082377,2068.457845
4029.067679,-9992.780217,-222.061783,1378.971896
4029.068009,-9918.759623,-296.082377,153.219100
4029.068339,-9622.677246,-592.164754,-229.828649
4029.068669,-9548.656652,-222.061783,-612.876398
4029.068999,-9400.615463,-148.041188,-153.219100
4029.069328,-9326.594869,-370.102971,306.438199
4029.069658,-9992.780217,-444.123565,689.485948
4029.069988,-10214.842000,-518.144159,1149.143247
4029.070318,-9770.718434,-1110.308913,383.047749
4029.070648,-9474.636058,-962.267725,0.000000
4029.070977,-9548.656652,-1184.329507,612.876398
4029.071307,-9474.636058,-888.247130,689.485948
4029.071637,-9474.636058,-962.267725,1838.629195
4029.071967,-9992.780217,-148.041188,2298.286494
4029.072296,-10362.883188,0.000000,1225.752797
4029.072626,-10510.924376,-370.102971,-229.828649
4029.072956,-10436.903782,0.000000,-995.924147
4029.073286,-9548.656652,-592.164754,-842.705048
4029.073616,-9326.594869,-370.102971,229.828649
4029.073945,-8808.450710,-666.185348,383.047749
4029.074275,-9474.636058,-666.185348,612.876398
4029.074605,-9030.512492,-814.226536,0.000000
4029.074935,-9326.594869,-444.123565,-536.266849
4029.075264,-9918.759623,-148.041188,0.000000
4029.075594,-10584.944971,0.000000,229.828649
4029.075924,-10288.862594,-74.020594,1608.800546
4029.076254,-10288.862594,0.000000,1991.848295
4029.076584,-10288.862594,0.000000,1455.581446
4029.076913,-10362.883188,0.000000,0.000000
4029.077243,-9696.697840,370.102971,-995.924147
4029.077573,-9474.636058,296.082377,-1532.190996
4029.077903,-9474.636058,814.226536,-919.314598
4029.078232,-9400.615463,518.144159,0.000000
4029.078562,-10436.903782,370.102971,383.047749
4029.078892,-10214.842000,296.082377,0.000000
4029.079222,-9622.677246,0.000000,-842.705048
4029.079552,-9474.636058,0.000000,-2145.067394
4029.079881,-9622.677246,222.061783,-1072.533697
4029.080211,-10066.800811,370.102971,383.047749
4029.080541,-9696.697840,370.102971,1532.190996
4029.080871,-10288.862594,740.205942,2374.896044
4029.081201,-9918.759623,888.247130,919.314598
4029.081530,-9918.759623,370.102971,-612.876398
4029.081860,-9844.739029,518.144159,-1225.752797
4029.082190,-9178.553681,74.020594,-995.924147
4029.082520,-8734.430116,740.205942,383.047749
4029.082849,-8734.430116,296.082377,995.924147
4029.083179,-9622.677246,814.226536,306.438199
4029.083509,-9474.636058,518.144159,-306.438199
4029.083839,-9474.636058,518.144159,-1302.362347
4029.084169,-9770.718434,518.144159,-1072.533697
4029.084498,-10510.924376,592.164754,0.000000
4029.084828,-9770.718434,666.185348,1149.143247
4029.085158,-9918.759623,592.164754,2068.457845
4029.085488,-9622.677246,666.185348,1149.143247
4029.085817,-10214.842000,592.164754,-306.438199
4029.086147,-10066.800811,518.144159,-1455.581446
4029.086477,-9844.739029,444.123565,-1302.362347
4029.086807,-9178.553681,222.061783,0.000000
4029.087137,-9326.594869,0.000000,1532.190996
4029.087466,-9622.677246,74.020594,1378.971896
4029.087796,-9252.574275,-296.082377,536.266849
4029.088126,-8882.471304,222.061783,-1532.190996
4029.088456,-9326.594869,0.000000,-1378.971896
4029.088785,-10140.821405,222.061783,-306.438199
4029.089115,-9992.780217,222.061783,1149.143247
4029.089445,-9770.718434,74.020594,1991.848295
4029.089775,-10066.800811,74.020594,1915.238745
4029.090105,-10066.800811,0.000000,306.438199
4029.090434,-10362.883188,0.000000,-1302.362347
4029.090764,-10066.800811,-148.041188,-1302.362347
4029.091094,-9252.574275,-296.082377,-383.047749
4029.091424,-9326.594869,-370.102971,1455.581446
4029.091754,-9474.636058,-296.082377,2221.676944
4029.092083,-10066.800811,-518.144159,1149.143247
4029.092413,-9696.697840,-370.102971,-306.438199
4029.092743,-9622.677246,-222.061783,-1072.533697
4029.093073,-10140.821405,-148.041188,-612.876398
4029.093402,-9918.759623,-148.041188,1072.533697
4029.093732,-9696.697840,-370.102971,1608.800546
4029.094062,-10066.800811,0.000000,1991.848295
4029.094392,-10066.800811,0.000000,689.485948
4029.094722,-10584.944971,-222.061783,-1302.362347
4029.095051,-10214.842000,-222.061783,-1532.190996
4029.095381,-9474.636058,-518.144159,-459.657299
4029.095711,-8956.491898,0.000000,995.924147
4029.096041,-9326.594869,-518.144159,1915.238745
4029.096370,-9992.780217,-370.102971,1762.019645
4029.096700,-9992.780217,-148.041188,0.000000
4029.097030,-9844.739029,-518.144159,-1225.752797
4029.097360,-9992.780217,-666.185348,-919.314598
4029.097690,-9770.718434,-518.144159,536.266849
4029.098019,-8882.471304,0.000000,1072.533697
4029.098349,-9030.512492,-296.082377,2145.067394
4029.098679,-9548.656652,-148.041188,919.314598
4029.099009,-10066.800811,-148.041188,-689.485948
4029.099338,-10066.800811,0.000000,-1762.019645
4029.099668,-9622.677246,0.000000,-1149.143247
4029.099998,-9104.533087,0.000000,-76.609550
4029.100328,-9104.533087,-296.082377,1225.752797
4029.100658,-9992.780217,0.000000,1378.971896
4029.100987,-9474.636058,0.000000,0.000000
4029.101317,-9918.759623,74.020594,-1225.752797
4029.101647,-10066.800811,0.000000,-1302.362347
4029.101977,-10140.821405,0.000000,76.609550
4029.102307,-9400.615463,0.000000,1225.752797
4029.102636,-9252.574275,74.020594,1838.629195
4029.102966,-9844.739029,296.082377,1225.752797
4029.103296,-9992.780217,296.082377,-459.657299
4029.103626,-10214.842000,518.144159,-1838.629195
4029.103955,-10288.862594,518.144159,-1225.752797
4029.104285,-9696.697840,222.061783,-153.219100
4029.104615,-9326.594869,370.102971,995.924147
4029.104945,-9548.656652,148.041188,1915.238745
4029.105275,-9770.718434,444.123565,842.705048
4029.105604,-9474.636058,0.000000,-306.438199
4029.105934,-9844.739029,0.000000,-766.095498
4029.106264,-10066.800811,74.020594,-153.219100
4029.106594,-9844.739029,444.123565,842.705048
4029.106923,-9770.718434,740.205942,1915.238745
4029.107253,-9992.780217,370.102971,2068.457845
4029.107583,-9844.739029,296.082377,612.876398
4029.107913,-9252.574275,148.041188,-995.924147
4029.108243,-9400.615463,740.205942,-1532.190996
4029.108572,-9474.636058,666.185348,-689.485948
4029.108902,-9844.739029,1110.308913,383.047749
4029.109232,-10140.821405,518.144159,1455.581446
4029.109562,-10584.944971,666.185348,612.876398
4029.109892,-9770.718434,222.061783,-536.266849
4029.110221,-9474.636058,222.061783,-1149.143247
4029.110551,-9400.615463,444.123565,-383.047749
4029.110881,-9770.718434,296.082377,306.438199
4029.111211,-9992.780217,740.205942,1378.971896
4029.111540,-10140.821405,370.102971,1762.019645
4029.111870,-10584.944971,740.205942,842.705048
4029.112200,-10214.842000,814.226536,-995.924147
4029.112530,-9992.780217,444.123565,-1378.971896
4029.112860,-9326.594869,148.041188,-1378.971896
4029.113189,-9104.533087,222.061783,-459.657299
4029.113519,-8734.430116,222.061783,612.876398
4029.113849,-9474.636058,0.000000,766.095498
4029.114179,-9992.780217,222.061783,229.828649
4029.114508,-9844.739029,0.000000,-459.657299
4029.114838,-9918.759623,0.000000,-689.485948
4029.115168,-10066.800811,148.041188,153.219100
4029.115498,-10066.800811,0.000000,1149.143247
4029.115828,-9696.697840,0.000000,1608.800546
4029.116157,-10066.800811,148.041188,1762.019645
4029.116487,-10140.821405,518.144159,0.000000
4029.116817,-10436.903782,148.041188,-1149.143247
4029.117147,-9622.677246,222.061783,-1685.410096
4029.117476,-9548.656652,0.000000,-919.314598
4029.117806,-9474.636058,0.000000,0.000000
4029.118136,-9178.553681,-814.226536,995.924147
4029.118466,-9326.594869,-518.144159,612.876398
4029.118796,-9474.636058,-740.205942,-229.828649
4029.119125,-9400.615463,-888.247130,-306.438199
4029.119455,-9770.718434,-888.247130,383.047749
4029.119785,-10140.821405,-740.205942,1608.800546
4029.120115,-9844.739029,-370.102971,2374.896044
4029.120445,-9548.656652,-444.123565,1991.848295
4029.120774,-9696.697840,-296.082377,1149.143247
4029.121104,-10288.862594,0.000000,-919.314598
4029.121434,-10214.842000,0.000000,-1838.629195
4029.121764,-9696.697840,-148.041188,-689.485948
4029.122093,-8808.450710,0.000000,306.438199
4029.122423,-9326.594869,-518.144159,1455.581446
4029.122753,-9696.697840,-592.164754,1072.533697
4029.123083,-9548.656652,-518.144159,0.000000
4029.123413,-9548.656652,-814.226536,-766.095498
4029.123742,-9548.656652,-370.102971,0.000000
4029.124072,-10066.800811,0.000000,995.924147
4029.124402,-9918.759623,148.041188,1915.238745
4029.124732,-9770.718434,74.020594,1915.238745
4029.125061,-10140.821405,-296.082377,1225.752797
4029.125391,-10732.986159,222.061783,-995.924147
4029.125721,-10288.862594,0.000000,-1532.190996
4029.126051,-9474.636058,0.000000,-995.924147
4029.126381,-9474.636058,296.082377,0.000000
4029.126710,-8956.491898,370.102971,1149.143247
4029.127040,-9030.512492,0.000000,766.095498
4029.127370,-9770.718434,518.144159,-383.047749
4029.127700,-9992.780217,222.061783,-1149.143247
4029.128029,-10436.903782,148.041188,-1149.143247
4029.128359,-10214.842000,0.000000,0.000000
4029.128689,-10288.862594,148.041188,1608.800546
4029.129019,-9474.636058,0.000000,1838.629195
4029.129349,-9474.636058,148.041188,1149.143247
4029.129678,-9548.656652,148.041188,0.000000
4029.130008,-10066.800811,518.144159,-1149.143247
4029.130338,-10066.800811,666.185348,-995.924147
4029.130668,-9400.615463,888.247130,-306.438199
4029.130998,-9400.615463,518.144159,306.438199
4029.131327,-9696.697840,222.061783,153.219100
4029.131657,-10288.862594,148.041188,-229.828649
4029.131987,-9252.574275,0.000000,-1302.362347
4029.132317,-9474.636058,-148.041188,-1302.362347
4029.132646,-9474.636058,-74.020594,153.219100
4029.132976,-9548.656652,0.000000,1455.581446
4029.133306,-9548.656652,148.041188,1838.629195
4029.133636,-9844.739029,518.144159,1532.190996
4029.133966,-10436.903782,666.185348,383.047749
4029.134295,-10584.944971,592.164754,-995.924147
4029.134625,-10214.842000,370.102971,-1608.800546
4029.134955,-9030.512492,296.082377,-1149.143247
4029.135285,-8734.430116,0.000000,0.000000
4029.135614,-8734.430116,-222.061783,229.828649
4029.135944,-9104.533087,0.000000,153.219100
4029.136274,-9178.553681,74.020594,-612.876398
4029.136604,-9474.636058,-370.102971,-689.485948
4029.136934,-10214.842000,222.061783,76.609550
4029.137263,-10436.903782,222.061783,1685.410096
4029.137593,-10807.006753,74.020594,1991.848295
4029.137923,-10214.842000,0.000000,1302.362347
4029.138253,-10288.862594,370.102971,383.047749
4029.138582,-10288.862594,370.102971,-689.485948
4029.138912,-10214.842000,370.102971,-919.314598
4029.139242,-9474.636058,-148.041188,-229.828649
4029.139572,-9696.697840,222.061783,229.828649
4029.139902,-9400.615463,0.000000,1225.752797
4029.140231,-9548.656652,-814.226536,995.924147
4029.140561,-9474.636058,-296.082377,612.876398
4029.140891,-9474.636058,-814.226536,76.609550
4029.141221,-9622.677246,-296.082377,229.828649
4029.141551,-9696.697840,-74.020594,612.876398
4029.141880,-10362.883188,0.000000,995.924147
4029.142210,-10510.924376,370.102971,1378.971896
4029.142540,-10658.965565,444.123565,995.924147
4029.142870,-10955.047942,222.061783,536.266849
4029.143199,-10584.944971,0.000000,-383.047749
4029.143529,-9992.780217,0.000000,-383.047749
4029.143859,-9178.553681,-370.102971,-306.438199
4029.144189,-8808.450710,-370.102971,0.000000
4029.144519,-8734.430116,-296.082377,0.000000
4029.144848,-9030.512492,0.000000,-383.047749
4029.145178,-9474.636058,74.020594,0.000000
4029.145508,-10140.821405,-74.020594,-612.876398
4029.145838,-10214.842000,0.000000,76.609550
4029.146167,-10362.883188,-444.123565,536.266849
4029.146497,-9844.739029,0.000000,1149.143247
4029.146827,-9770.718434,0.000000,1072.533697
4029.147157,-9770.718434,222.061783,842.705048
4029.147486,-10288.862594,444.123565,0.000000
4029.147816,-10140.821405,444.123565,-766.095498
4029.148146,-10066.800811,888.247130,-842.705048
4029.148475,-10140.821405,370.102971,-76.609550
4029.148805,-9400.615463,74.020594,306.438199
4029.149135,-8808.450710,74.020594,0.000000
4029.149464,-8882.471304,0.000000,0.000000
4029.149794,-8882.471304,-74.020594,-229.828649
4029.150124,-9400.615463,148.041188,306.438199
4029.150453,-9844.739029,0.000000,1072.533697
4029.150783,-10732.986159,148.041188,1378.971896
4029.151113,-10066.800811,222.061783,2068.457845
4029.151442,-9918.759623,148.041188,1685.410096
4029.151772,-9770.718434,370.102971,459.657299
4029.152102,-9400.615463,222.061783,-76.609550
4029.152431,-9252.574275,148.041188,-842.705048
4029.152761,-9548.656652,370.102971,-383.047749
4029.153091,-9844.739029,592.164754,229.828649
4029.153420,-9548.656652,592.164754,-153.219100
4029.153750,-10066.800811,296.082377,-306.438199
4029.154079,-9474.636058,0.000000,-689.485948
4029.154409,-9178.553681,-222.061783,-459.657299
4029.154739,-8808.450710,-148.041188,536.266849
4029.155068,-9548.656652,0.000000,1378.971896
4029.155398,-9844.739029,148.041188,1608.800546
4029.155728,-10140.821405,370.102971,1378.971896
4029.156057,-10881.027347,592.164754,1072.533697
4029.156387,-10658.965565,74.020594,0.000000
4029.156717,-10584.944971,222.061783,-536.266849
4029.157046,-10066.800811,0.000000,-153.219100
4029.157376,-9474.636058,74.020594,-383.047749
4029.157706,-8956.491898,0.000000,0.000000
4029.158035,-9326.594869,-370.102971,-459.657299
4029.158365,-9696.697840,0.000000,-459.657299
4029.158695,-10066.800811,0.000000,0.000000
4029.159024,-9770.718434,222.061783,689.485948
4029.159354,-10066.800811,-296.082377,1225.752797
4029.159684,-10658.965565,-296.082377,1455.581446
4029.160013,-9918.759623,-296.082377,1762.019645
4029.160343,-10214.842000,-74.020594,1149.143247
4029.160673,-9992.780217,-296.082377,383.047749
4029.161002,-10066.800811,0.000000,76.609550
4029.161332,-10214.842000,296.082377,-153.219100
4029.161662,-10066.800811,74.020594,0.000000
4029.161991,-9474.636058,0.000000,0.000000
4029.162321,-9474.636058,-370.102971,0.000000
4029.162651,-9622.677246,-370.102971,0.000000
4029.162980,-9400.615463,-592.164754,76.609550
4029.163310,-8438.347739,-74.020594,-153.219100
4029.163640,-8956.491898,-296.082377,306.438199
4029.163969,-9918.759623,0.000000,153.219100
4029.164299,-10066.800811,0.000000,383.047749
4029.164629,-9992.780217,222.061783,766.095498
4029.164958,-10140.821405,370.102971,1149.143247
4029.165288,-10066.800811,592.164754,306.438199
4029.165618,-10066.800811,518.144159,-153.219100
4029.165947,-9474.636058,0.000000,-766.095498
4029.166277,-9770.718434,814.226536,-383.047749
4029.166606,-9770.718434,222.061783,306.438199
4029.166936,-10288.862594,518.144159,229.828649
4029.167266,-9622.677246,296.082377,-383.047749
4029.167595,-8956.491898,74.020594,-766.095498
4029.167925,-8734.430116,0.000000,-689.485948
4029.168255,-9696.697840,296.082377,0.000000
4029.168584,-9844.739029,444.123565,229.828649
4029.168914,-9918.759623,666.185348,1532.190996
4029.169244,-10955.047942,666.185348,1532.190996
4029.169573,-10732.986159,148.041188,689.485948
4029.169903,-10955.047942,222.061783,0.000000
4029.170233,-9770.718434,296.082377,-153.219100
4029.170562,-9474.636058,444.123565,383.047749
4029.170892,-8956.491898,296.082377,689.485948
4029.171222,-9326.594869,0.000000,919.314598
4029.171551,-9844.739029,444.123565,383.047749
4029.171881,-9548.656652,370.102971,76.609550
4029.172211,-9992.780217,222.061783,-766.095498
4029.172540,-9918.759623,-222.061783,-1149.143247
4029.172870,-9844.739029,0.000000,0.000000
4029.173200,-9030.512492,0.000000,1225.752797
4029.173529,-9474.636058,74.020594,1302.362347
4029.173859,-9770.718434,518.144159,1149.143247
4029.174189,-10214.842000,296.082377,0.000000
4029.174518,-10362.883188,814.226536,0.000000
4029.174848,-10288.862594,222.061783,-536.266849
4029.175178,-10066.800811,0.000000,0.000000
4029.175507,-9474.636058,-296.082377,612.876398
4029.175837,-9474.636058,-370.102971,766.095498
4029.176167,-9474.636058,148.041188,383.047749
4029.176496,-9474.636058,-148.041188,-612.876398
4029.176826,-9844.739029,148.041188,-766.095498
4029.177156,-10510.924376,444.123565,-383.047749
4029.177485,-10510.924376,518.144159,459.657299
4029.177815,-10732.986159,0.000000,1608.800546
4029.178145,-10362.883188,0.000000,1378.971896
4029.178474,-9696.697840,-370.102971,842.705048
4029.178804,-9770.718434,222.061783,76.609550
4029.179133,-9474.636058,-74.020594,-383.047749
4029.179463,-9474.636058,74.020594,-383.047749
4029.179793,-9474.636058,148.041188,612.876398
4029.180122,-10214.842000,0.000000,919.314598
4029.180452,-10066.800811,0.000000,536.266849
4029.180782,-9696.697840,-370.102971,153.219100
4029.181111,-9622.677246,-518.144159,-459.657299
4029.181441,-9548.656652,-518.144159,0.000000
4029.181771,-9770.718434,-74.020594,995.924147
4029.182100,-9548.656652,-222.061783,1149.143247
4029.182430,-9474.636058,-74.020594,1991.848295
4029.182760,-9622.677246,0.000000,1149.143247
4029.183089,-10584.944971,148.041188,306.438199
4029.183419,-10288.862594,74.020594,-306.438199
4029.183749,-10066.800811,0.000000,-383.047749
4029.184078,-9548.656652,0.000000,459.657299
4029.184408,-9474.636058,-296.082377,1608.800546
4029.184738,-9696.697840,-222.061783,919.314598
4029.185067,-9178.553681,0.000000,0.000000
4029.185397,-9326.594869,0.000000,-995.924147
4029.185727,-9622.677246,0.000000,-689.485948
4029.186056,-10140.821405,-222.061783,-306.438199
4029.186386,-9548.656652,0.000000,1072.533697
4029.186716,-9696.697840,-296.082377,2068.457845
4029.187045,-9992.780217,0.000000,1455.581446
4029.187375,-10214.842000,-296.082377,689.485948
4029.187705,-10066.800811,148.041188,-1072.533697
4029.188034,-9992.780217,148.041188,-1072.533697
4029.188364,-9918.759623,0.000000,-306.438199
4029.188694,-9844.739029,74.020594,1302.362347
4029.189023,-10214.842000,296.082377,1608.800546
4029.189353,-9696.697840,0.000000,689.485948
4029.189683,-9474.636058,-222.061783,-766.095498
4029.190012,-9178.553681,0.000000,-1455.581446
4029.190342,-9770.718434,0.000000,-459.657299
4029.190671,-10066.800811,74.020594,1149.143247
4029.191001,-9918.759623,0.000000,1838.629195
4029.191331,-10066.800811,222.061783,2145.067394
4029.191660,-10066.800811,148.041188,229.828649
4029.191990,-10066.800811,592.164754,-2068.457845
4029.192320,-10288.862594,296.082377,-1378.971896
4029.192649,-9770.718434,370.102971,-459.657299
4029.192979,-9252.574275,518.144159,919.314598
4029.193309,-9918.759623,888.247130,1608.800546
4029.193638,-10066.800811,0.000000,1072.533697
4029.193968,-9474.636058,-148.041188,-459.657299
4029.194298,-9326.594869,-148.041188,-1149.143247
4029.194627,-9622.677246,-148.041188,-919.314598
4029.194957,-9622.677246,0.000000,612.876398
4029.195287,-9400.615463,0.000000,2374.896044
4029.195616,-9474.636058,148.041188,2451.505594
4029.195946,-10140.821405,222.061783,919.314598
4029.196276,-10214.842000,296.082377,-1608.800546
4029.196605,-10066.800811,370.102971,-1149.143247
4029.196935,-9548.656652,0.000000,-459.657299
4029.197265,-9474.636058,370.102971,459.657299
4029.197594,-9548.656652,518.144159,1608.800546
4029.197924,-9918.759623,0.000000,842.705048
4029.198254,-9844.739029,0.000000,-459.657299
4029.198583,-9696.697840,-296.082377,-1072.533697
4029.198913,-9770.718434,-74.020594,-766.095498
4029.199243,-9696.697840,0.000000,536.266849
4029.199572,-9474.636058,148.041188,1762.019645
4029.199902,-9696.697840,296.082377,2068.457845
4029.200232,-10658.965565,592.164754,1378.971896
4029.200561,-10584.944971,592.164754,0.000000
4029.200891,-11029.068536,296.082377,-1149.143247
4029.201221,-10140.821405,222.061783,-459.657299
4029.201550,-9474.636058,74.020594,229.828649
4029.201880,-8438.347739,0.000000,919.314598
4029.202210,-9474.636058,-222.061783,383.047749
4029.202539,-9474.636058,-222.061783,-383.047749
4029.202869,-9474.636058,-296.082377,-766.095498
4029.203198,-9548.656652,-148.041188,-612.876398
4029.203528,-9992.780217,-148.041188,459.657299
4029.203858,-9918.759623,-296.082377,1225.752797
4029.204187,-9770.718434,-222.061783,1915.238745
4029.204517,-10140.821405,222.061783,1685.410096
4029.204847,-10214.842000,0.000000,766.095498
4029.205176,-10362.883188,0.000000,-1225.752797
4029.205506,-10066.800811,148.041188,-1302.362347
4029.205836,-9474.636058,0.000000,-76.609550
4029.206165,-9400.615463,222.061783,1149.143247
4029.206495,-9622.677246,-296.082377,1149.143247
4029.206825,-9548.656652,-296.082377,536.266849
4029.207154,-9104.533087,-296.082377,-536.266849
4029.207484,-9326.594869,0.000000,-1532.190996
4029.207814,-9622.677246,0.000000,-766.095498
4029.208143,-9844.739029,518.144159,0.000000
4029.208473,-9696.697840,444.123565,1302.362347
4029.208803,-9992.780217,296.082377,1762.019645
4029.209132,-10807.006753,296.082377,1455.581446
4029.209462,-10658.965565,74.020594,306.438199
4029.209792,-9992.780217,0.000000,-229.828649
4029.210121,-9474.636058,-148.041188,-383.047749
4029.210451,-8956.491898,296.082377,766.095498
4029.210781,-9178.553681,74.020594,1532.190996
4029.211110,-9770.718434,296.082377,612.876398
4029.211440,-9770.718434,296.082377,-459.657299
4029.211770,-9474.636058,592.164754,-1455.581446
4029.212099,-9844.739029,296.082377,-1302.362347
4029.212429,-9770.718434,148.041188,76.609550
4029.212759,-9844.739029,296.082377,1608.800546
4029.213088,-9548.656652,0.000000,1991.848295
4029.213418,-10140.821405,0.000000,1685.410096
4029.213748,-10066.800811,222.061783,-536.266849
4029.214077,-10066.800811,0.000000,-1378.971896
4029.214407,-9548.656652,0.000000,-766.095498
4029.214736,-9252.574275,74.020594,612.876398
4029.215066,-9474.636058,222.061783,1685.410096
4029.215396,-9992.780217,0.000000,1302.362347
4029.215725,-9992.780217,-74.020594,76.609550
4029.216055,-9400.615463,-74.020594,-766.095498
4029.216385,-9326.594869,-74.020594,-1455.581446
4029.216714,-9400.615463,0.000000,-306.438199
4029.217044,-9252.574275,0.000000,1072.533697
4029.217374,-9400.615463,0.000000,2298.286494
4029.217703,-10214.842000,74.020594,1838.629195
4029.218033,-10436.903782,222.061783,459.657299
4029.218363,-10584.944971,74.020594,-919.314598
4029.218692,-10066.800811,0.000000,-842.705048
4029.219022,-9400.615463,74.020594,76.609550
4029.219352,-9104.533087,148.041188,536.266849
4029.219681,-9178.553681,74.020594,536.266849
4029.220011,-9844.739029,148.041188,76.609550
4029.220341,-10214.842000,296.082377,-153.219100
4029.220670,-9992.780217,0.000000,-995.924147
4029.221000,-9844.739029,-148.041188,-76.609550
4029.221330,-10066.800811,-296.082377,1149.143247
4029.221659,-9918.759623,0.000000,2068.457845
4029.221989,-9326.594869,-888.247130,1762.019645
4029.222319,-9548.656652,-222.061783,612.876398
4029.222648,-9400.615463,0.000000,-383.047749
4029.222978,-10214.842000,444.123565,-1225.752797
4029.223308,-9844.739029,444.123565,-536.266849
4029.223637,-9844.739029,370.102971,0.000000
4029.223967,-9696.697840,370.102971,919.314598
4029.224297,-10214.842000,0.000000,919.314598
4029.224626,-9696.697840,74.020594,153.219100
4029.224956,-9474.636058,-592.164754,-1072.533697
4029.225286,-9400.615463,-666.185348,-689.485948
4029.225615,-9696.697840,-518.144159,459.657299
4029.225945,-9770.718434,0.000000,1762.019645
4029.226275,-9696.697840,-148.041188,2221.676944
4029.226604,-10066.800811,148.041188,1838.629195
4029.226934,-10732.986159,222.061783,995.924147
4029.227263,-10732.986159,0.000000,-459.657299
4029.227593,-9770.718434,370.102971,-919.314598
4029.227923,-9474.636058,0.000000,-229.828649
4029.228252,-9252.574275,148.041188,229.828649
4029.228582,-9548.656652,-222.061783,383.047749
4029.228912,-9844.739029,0.000000,-76.609550
4029.229241,-8956.491898,0.000000,-1149.143247
4029.229571,-9178.553681,0.000000,-995.924147
4029.229901,-9844.739029,74.020594,0.000000
4029.230230,-9918.759623,0.000000,1225.752797
4029.230560,-9548.656652,74.020594,1762.019645
4029.230890,-9918.759623,222.061783,1915.238745
4029.231219,-10732.986159,444.123565,842.705048
4029.231549,-10214.842000,518.144159,-536.266849
4029.231879,-9844.739029,74.020594,-919.314598
4029.232208,-9548.656652,222.061783,-383.047749
4029.232538,-9622.677246,518.144159,0.000000
4029.232868,-9474.636058,0.000000,536.266849
4029.233197,-9400.615463,0.000000,-229.828649
4029.233527,-9770.718434,0.000000,-689.485948
4029.233857,-9178.553681,0.000000,-1455.581446
4029.234186,-9178.553681,0.000000,-995.924147
4029.234516,-9548.656652,296.082377,459.657299
4029.234846,-10066.800811,222.061783,1762.019645
4029.235175,-10362.883188,148.041188,1532.190996
4029.235505,-10807.006753,222.061783,1455.581446
4029.235835,-10881.027347,296.082377,306.438199
4029.236164,-10510.924376,148.041188,-459.657299
4029.236494,-9400.615463,74.020594,-306.438199
4029.236824,-9178.553681,222.061783,689.485948
4029.237153,-8956.491898,222.061783,766.095498
4029.237483,-9474.636058,296.082377,612.876398
4029.237813,-9696.697840,74.020594,-383.047749
4029.238142,-9474.636058,222.061783,-1378.971896
4029.238472,-9918.759623,222.061783,-1225.752797
4029.238802,-10066.800811,296.082377,229.828649
4029.239131,-10066.800811,0.000000,1225.752797
4029.239461,-9696.697840,296.082377,1608.800546
4029.239790,-10066.800811,0.000000,1149.143247
4029.240120,-10584.944971,74.020594,306.438199
4029.240450,-10362.883188,370.102971,-383.047749
4029.240779,-10510.924376,666.185348,-459.657299
4029.241109,-9844.739029,518.144159,0.000000
4029.241439,-9400.615463,296.082377,689.485948
4029.241768,-9178.553681,-148.041188,459.657299
4029.242098,-9474.636058,0.000000,0.000000
4029.242428,-9178.553681,-222.061783,-842.705048
4029.242757,-9252.574275,0.000000,-1149.143247
4029.243087,-9622.677246,148.041188,689.485948
4029.243417,-10066.800811,74.020594,1532.190996
4029.243746,-9992.780217,0.000000,1532.190996
4029.244076,-9770.718434,-444.123565,919.314598
4029.244406,-10288.862594,0.000000,689.485948
4029.244735,-9992.780217,148.041188,0.000000
4029.245065,-9770.718434,0.000000,-229.828649
4029.245395,-9770.718434,370.102971,0.000000
4029.245724,-9622.677246,370.102971,919.314598
4029.246054,-9918.759623,0.000000,1225.752797
4029.246384,-10140.821405,-296.082377,153.219100
4029.246713,-9474.636058,-370.102971,-536.266849
4029.247043,-9178.553681,-592.164754,-459.657299
4029.247373,-9696.697840,0.000000,0.000000
4029.247702,-9622.677246,-222.061783,459.657299
4029.248032,-9770.718434,-148.041188,995.924147
4029.248362,-9474.636058,0.000000,1225.752797
4029.248691,-9844.739029,0.000000,842.705048
4029.249021,-10140.821405,-296.082377,229.828649
4029.249351,-10362.883188,74.020594,-383.047749
4029.249680,-9918.759623,74.020594,-306.438199
4029.250010,-9696.697840,0.000000,229.828649
4029.250339,-9622.677246,148.041188,612.876398
4029.250669,-9622.677246,-370.102971,229.828649
4029.250999,-9770.718434,0.000000,-383.047749
4029.251328,-9474.636058,74.020594,-1149.143247
4029.251658,-9622.677246,0.000000,-995.924147
4029.251987,-9622.677246,-74.020594,0.000000
4029.252317,-10214.842000,74.020594,459.657299
4029.252647,-10214.842000,-222.061783,1149.143247
4029.252976,-9844.739029,-666.185348,1302.362347
4029.253306,-10066.800811,-444.123565,689.485948
4029.253635,-9918.759623,-296.082377,0.000000
4029.253965,-9992.780217,-518.144159,0.000000
4029.254295,-9622.677246,0.000000,1072.533697
4029.254624,-9326.594869,74.020594,1225.752797
4029.254954,-9548.656652,222.061783,1072.533697
4029.255284,-10214.842000,222.061783,76.609550
4029.255613,-10066.800811,148.041188,-536.266849
4029.255943,-9474.636058,0.000000,-1072.533697
4029.256272,-9326.594869,0.000000,-536.266849
4029.256602,-9548.656652,-222.061783,766.095498
4029.256932,-9770.718434,0.000000,1455.581446
4029.257261,-9326.594869,-148.041188,1455.581446
4029.257591,-9474.636058,-148.041188,766.095498
4029.257920,-9992.780217,74.020594,0.000000
4029.258250,-10288.862594,518.144159,-459.657299
4029.258580,-9474.636058,962.267725,459.657299
4029.258909,-9548.656652,592.164754,229.828649
4029.259239,-9400.615463,740.205942,306.438199
4029.259568,-9844.739029,444.123565,0.000000
4029.259898,-10140.821405,518.144159,-536.266849
4029.260228,-9548.656652,666.185348,-1302.362347
4029.260557,-9474.636058,296.082377,-153.219100
4029.260887,-9474.636058,222.061783,536.266849
4029.261217,-9918.759623,0.000000,919.314598
4029.261546,-9844.739029,370.102971,766.095498
4029.261876,-9622.677246,222.061783,612.876398
4029.262205,-9622.677246,592.164754,306.438199
4029.262535,-9844.739029,888.247130,-536.266849
4029.262865,-9770.718434,1702.473667,-766.095498
4029.263194,-10510.924376,1036.288319,0.000000
4029.263524,-10510.924376,740.205942,153.219100
4029.263853,-9992.780217,148.041188,536.266849
4029.264183,-9918.759623,0.000000,-612.876398
4029.264513,-9474.636058,-296.082377,-383.047749
4029.264842,-9252.574275,-444.123565,229.828649
4029.265172,-9178.553681,-296.082377,536.266849
4029.265501,-9622.677246,0.000000,995.924147
4029.265831,-10066.800811,222.061783,1149.143247
4029.266161,-10436.903782,296.082377,1685.410096
4029.266490,-11029.068536,370.102971,1149.143247
4029.266820,-9992.780217,0.000000,153.219100
4029.267150,-9622.677246,-296.082377,-383.047749
4029.267479,-9474.636058,0.000000,-306.438199
4029.267809,-9548.656652,-444.123565,0.000000
4029.268138,-9326.594869,-296.082377,0.000000
4029.268468,-9104.533087,-518.144159,383.047749
4029.268798,-9622.677246,-370.102971,76.609550
4029.269127,-9178.553681,-666.185348,76.609550
4029.269457,-9252.574275,-444.123565,229.828649
4029.269786,-9104.533087,-296.082377,612.876398
4029.270116,-9474.636058,-296.082377,689.485948
4029.270446,-9770.718434,0.000000,1225.752797
4029.270775,-10066.800811,0.000000,1072.533697
4029.271105,-10732.986159,296.082377,536.266849
4029.271434,-10140.821405,148.041188,-383.047749
4029.271764,-10288.862594,370.102971,-1302.362347
4029.272094,-9548.656652,370.102971,-995.924147
4029.272423,-9696.697840,222.061783,-459.657299
4029.272753,-9474.636058,-148.041188,0.000000
4029.273083,-9548.656652,0.000000,0.000000
4029.273412,-9696.697840,0.000000,0.000000
4029.273742,-10066.800811,-370.102971,0.000000
4029.274071,-9548.656652,-296.082377,689.485948
4029.274401,-10288.862594,-444.123565,1225.752797
4029.274731,-10436.903782,-296.082377,1455.581446
4029.275060,-10066.800811,-296.082377,1608.800546
4029.275390,-10066.800811,0.000000,1302.362347
4029.275719,-10140.821405,0.000000,536.266849
4029.276049,-10288.862594,148.041188,-306.438199
4029.276379,-9696.697840,222.061783,-536.266849
4029.276708,-9474.636058,148.041188,-76.609550
4029.277038,-9844.739029,222.061783,229.828649
4029.277368,-9844.739029,0.000000,76.609550
4029.277697,-9474.636058,-296.082377,-536.266849
4029.278027,-9030.512492,-296.082377,-842.705048
4029.278356,-9030.512492,148.041188,-919.314598
4029.278686,-9474.636058,0.000000,229.828649
4029.279016,-9622.677246,74.020594,383.047749
4029.279345,-9474.636058,0.000000,1378.971896
4029.279675,-10362.883188,222.061783,2145.067394
4029.280004,-10436.903782,444.123565,1302.362347
4029.280334,-10732.986159,370.102971,-229.828649
4029.280664,-9696.697840,74.020594,-689.485948
4029.280993,-9548.656652,74.020594,-383.047749
4029.281323,-9030.512492,592.164754,-766.095498
4029.281652,-9548.656652,222.061783,0.000000
4029.281982,-9474.636058,222.061783,0.000000
4029.282312,-9474.636058,222.061783,-612.876398
4029.282641,-9252.574275,296.082377,-1225.752797
4029.282971,-9622.677246,0.000000,0.000000
4029.283301,-10066.800811,0.000000,536.266849
4029.283630,-9844.739029,74.020594,1608.800546
4029.283960,-10066.800811,444.123565,2221.676944
4029.284289,-10362.883188,370.102971,1762.019645
4029.284619,-10362.883188,0.000000,0.000000
4029.284949,-10362.883188,296.082377,-689.485948
4029.285278,-10066.800811,518.144159,-766.095498
4029.285608,-9696.697840,962.267725,0.000000
4029.285937,-9474.636058,296.082377,536.266849
4029.286267,-9696.697840,740.205942,153.219100
4029.286597,-9474.636058,148.041188,-689.485948
4029.286926,-9622.677246,0.000000,-766.095498
4029.287256,-9918.759623,0.000000,-1225.752797
4029.287585,-9844.739029,0.000000,0.000000
4029.287915,-9622.677246,0.000000,1072.533697
4029.288245,-9326.594869,-666.185348,1915.238745
4029.288574,-10066.800811,222.061783,1685.410096
4029.288904,-10584.944971,74.020594,995.924147
4029.289234,-10436.903782,148.041188,-306.438199
4029.289563,-10140.821405,222.061783,-689.485948
4029.289893,-9992.780217,148.041188,-383.047749
4029.290222,-9474.636058,0.000000,306.438199
4029.290552,-9474.636058,-296.082377,766.095498
4029.290882,-9548.656652,0.000000,229.828649
4029.291211,-8956.491898,-666.185348,-612.876398
4029.291541,-9400.615463,-296.082377,-766.095498
4029.291870,-9548.656652,-370.102971,-306.438199
4029.292200,-9474.636058,-444.123565,459.657299
4029.292530,-9326.594869,-518.144159,2145.067394
4029.292859,-10288.862594,0.000000,2451.505594
4029.293189,-10658.965565,0.000000,1685.410096
4029.293518,-10362.883188,0.000000,-536.266849
4029.293848,-10288.862594,222.061783,-919.314598
4029.294178,-10066.800811,0.000000,-1378.971896
4029.294507,-9252.574275,222.061783,-306.438199
4029.294837,-9104.533087,0.000000,306.438199
4029.295167,-9622.677246,222.061783,459.657299
4029.295496,-9474.636058,0.000000,-306.438199
4029.295826,-9400.615463,-222.061783,-1455.581446
4029.296155,-9474.636058,-444.123565,-1302.362347
4029.296485,-9844.739029,-74.020594,0.000000
4029.296815,-9474.636058,74.020594,1455.581446
4029.297144,-9474.636058,-370.102971,2298.286494
4029.297474,-9770.718434,74.020594,1838.629195
4029.297803,-10214.842000,370.102971,229.828649
4029.298133,-10807.006753,666.185348,-229.828649
4029.298463,-10584.944971,296.082377,-995.924147
4029.298792,-9992.780217,0.000000,0.000000
4029.299122,-9474.636058,148.041188,1378.971896
4029.299451,-9622.677246,0.000000,1455.581446
4029.299781,-9326.594869,222.061783,612.876398
4029.300111,-9104.533087,-296.082377,-1072.533697
4029.300440,-9178.553681,148.041188,-1149.143247
4029.300770,-9622.677246,370.102971,-689.485948
4029.301100,-10510.924376,666.185348,306.438199
4029.301429,-10066.800811,0.000000,1838.629195
4029.301759,-10140.821405,0.000000,1991.848295
4029.302088,-9844.739029,-222.061783,919.314598
4029.302418,-10288.862594,148.041188,0.000000
4029.302748,-9548.656652,370.102971,-1072.533697
4029.303077,-9548.656652,518.144159,-766.095498
4029.303407,-9474.636058,666.185348,306.438199
4029.303736,-10288.862594,592.164754,1455.581446
4029.304066,-10732.986159,814.226536,612.876398
4029.304396,-10140.821405,0.000000,-766.095498
4029.304725,-9548.656652,0.000000,-1225.752797
4029.305055,-9104.533087,-592.164754,-766.095498
4029.305385,-9252.574275,-148.041188,306.438199
4029.305714,-9474.636058,148.041188,1685.410096
4029.306044,-9844.739029,222.061783,2145.067394
4029.306373,-10436.903782,592.164754,1378.971896
4029.306703,-10288.862594,962.267725,-153.219100
4029.307033,-10658.965565,518.144159,-995.924147
4029.307362,-10214.842000,370.102971,-612.876398
4029.307692,-9474.636058,296.082377,229.828649
4029.308021,-9104.533087,0.000000,1225.752797
4029.308351,-9474.636058,222.061783,153.219100
4029.308681,-9696.697840,518.144159,0.000000
4029.309010,-9622.677246,296.082377,-689.485948
4029.309340,-9548.656652,222.061783,-1149.143247
4029.309669,-9548.656652,0.000000,-459.657299
4029.309999,-9622.677246,-74.020594,1225.752797
4029.310329,-9548.656652,-296.082377,1838.629195
4029.310658,-9844.739029,0.000000,1685.410096
4029.310988,-9696.697840,74.020594,612.876398
4029.311318,-10066.800811,0.000000,-459.657299
4029.311647,-9918.759623,74.020594,-459.657299
4029.311977,-9770.718434,0.000000,0.000000
4029.312306,-9622.677246,74.020594,1455.581446
4029.312636,-10214.842000,0.000000,1838.629195
4029.312966,-10066.800811,74.020594,383.047749
4029.313295,-9622.677246,-148.041188,-1072.533697
4029.313625,-8882.471304,-296.082377,-1838.629195
4029.313954,-9104.533087,-370.102971,-995.924147
4029.314284,-9622.677246,0.000000,153.219100
4029.314614,-9548.656652,-666.185348,1608.800546
4029.314943,-10214.842000,74.020594,2528.115143
4029.315273,-10362.883188,74.020594,1532.190996
4029.315602,-10658.965565,0.000000,-383.047749
4029.315932,-10214.842000,0.000000,-1532.190996
4029.316262,-10066.800811,-296.082377,-612.876398
4029.316591,-9548.656652,148.041188,612.876398
4029.316921,-9548.656652,0.000000,1302.362347
4029.317251,-9622.677246,0.000000,1225.752797
4029.317580,-9844.739029,-148.041188,-689.485948
4029.317910,-9400.615463,0.000000,-1532.190996
4029.318239,-9252.574275,-740.205942,-1378.971896
4029.318569,-9548.656652,-592.164754,-153.219100
4029.318899,-9474.636058,-370.102971,1762.019645
4029.319228,-9696.697840,-740.205942,2451.505594
4029.319558,-9918.759623,-370.102971,1762.019645
4029.319887,-10288.862594,-296.082377,153.219100
4029.320217,-10658.965565,148.041188,-1072.533697
4029.320547,-10510.924376,74.020594,-153.219100
4029.320876,-10584.944971,666.185348,1149.143247
4029.321206,-9622.677246,0.000000,1762.019645
4029.321535,-10066.800811,592.164754,1685.410096
4029.321865,-9770.718434,296.082377,0.000000
4029.322195,-9622.677246,0.000000,-995.924147
4029.322524,-9252.574275,222.061783,-2068.457845
4029.322854,-9474.636058,0.000000,-842.705048
4029.323184,-9474.636058,-222.061783,1072.533697
4029.323513,-9474.636058,0.000000,2221.676944
4029.323843,-9548.656652,0.000000,2221.676944
4029.324172,-9770.718434,74.020594,383.047749
4029.324502,-10288.862594,296.082377,-1225.752797
4029.324832,-10436.903782,814.226536,-536.266849
4029.325161,-9918.759623,740.205942,1302.362347
4029.325491,-9770.718434,740.205942,1762.019645
4029.325820,-10066.800811,666.185348,1685.410096
4029.326150,-9844.739029,518.144159,0.000000
4029.326480,-9474.636058,296.082377,-1915.238745
4029.326809,-9104.533087,592.164754,-2604.724693
4029.327139,-9030.512492,222.061783,-1532.190996
4029.327468,-9474.636058,444.123565,766.095498
4029.327798,-9918.759623,444.123565,1762.019645
4029.328128,-9844.739029,592.164754,1685.410096
4029.328457,-10140.821405,666.185348,229.828649
4029.328787,-10362.883188,370.102971,-1072.533697
4029.329117,-10288.862594,222.061783,-995.924147
4029.329446,-9474.636058,148.041188,229.828649
4029.329776,-9474.636058,296.082377,1378.971896
4029.330105,-9326.594869,148.041188,1762.019645
4029.330435,-9992.780217,370.102971,766.095498
4029.330765,-9844.739029,0.000000,153.219100
4029.331094,-9622.677246,74.020594,-995.924147
4029.331424,-9474.636058,-74.020594,-459.657299
4029.331753,-9696.697840,0.000000,536.266849
4029.332083,-9770.718434,0.000000,995.924147
4029.332413,-9696.697840,-148.041188,1762.019645
4029.332742,-10140.821405,-222.061783,842.705048
4029.333072,-9992.780217,0.000000,-383.047749
4029.333402,-10214.842000,370.102971,-842.705048
4029.333731,-9918.759623,148.041188,-383.047749
4029.334061,-9844.739029,222.061783,459.657299
4029.334390,-9696.697840,222.061783,1225.752797
4029.334720,-10066.800811,0.000000,1302.362347
4029.335050,-10214.842000,0.000000,0.000000
4029.335379,-9696.697840,-370.102971,-1378.971896
4029.335709,-9622.677246,-296.082377,-1302.362347
4029.336038,-9844.739029,-518.144159,-229.828649
4029.336368,-9770.718434,-666.185348,919.314598
4029.336698,-9030.512492,-666.185348,1915.238745
4029.337027,-9548.656652,-296.082377,1838.629195
4029.337357,-9918.759623,0.000000,612.876398
4029.337686,-10214.842000,74.020594,-536.266849
4029.338016,-10214.842000,0.000000,-766.095498
4029.338346,-10362.883188,0.000000,0.000000
4029.338675,-9844.739029,0.000000,995.924147
4029.339005,-9474.636058,-370.102971,919.314598
4029.339335,-9326.594869,-296.082377,612.876398
4029.339664,-9326.594869,-148.041188,-689.485948
4029.339994,-9474.636058,-296.082377,-919.314598
4029.340323,-9844.739029,0.000000,-76.609550
4029.340653,-9844.739029,-296.082377,1072.533697
4029.340983,-9622.677246,-296.082377,1608.800546
4029.341312,-9992.780217,0.000000,2374.896044
4029.341642,-9622.677246,-222.061783,842.705048
4029.341971,-9622.677246,-370.102971,-306.438199
4029.342301,-9770.718434,148.041188,-1532.190996
4029.342631,-9844.739029,0.000000,-459.657299
4029.342960,-9918.759623,444.123565,383.047749
4029.343290,-9474.636058,222.061783,1378.971896
4029.343619,-10214.842000,296.082377,842.705048
4029.343949,-9844.739029,74.020594,-383.047749
4029.344279,-9252.574275,0.000000,-1762.019645
4029.344608,-9178.553681,-222.061783,-1225.752797
4029.344938,-9622.677246,296.082377,612.876398
4029.345268,-9992.780217,74.020594,1225.752797
4029.345597,-9548.656652,-222.061783,1685.410096
4029.345927,-9918.759623,222.061783,1608.800546
4029.346256,-9992.780217,222.061783,995.924147
4029.346586,-10140.821405,0.000000,-842.705048
4029.346916,-9770.718434,148.041188,-536.266849
4029.347245,-9770.718434,814.226536,306.438199
4029.347575,-9548.656652,592.164754,995.924147
4029.347904,-10288.862594,740.205942,689.485948
4029.348234,-10140.821405,444.123565,-459.657299
4029.348564,-9474.636058,370.102971,-1378.971896
4029.348893,-9474.636058,0.000000,-1302.362347
4029.349223,-9474.636058,444.123565,-459.657299
4029.349553,-9918.759623,0.000000,1072.533697
4029.349882,-9400.615463,0.000000,1991.848295
4029.350212,-10066.800811,0.000000,1762.019645
4029.350542,-10214.842000,-148.041188,919.314598
4029.350871,-10288.862594,0.000000,-842.705048
4029.351201,-9548.656652,222.061783,-229.828649
4029.351531,-9252.574275,0.000000,459.657299
4029.351860,-9400.615463,518.144159,1072.533697
4029.352190,-9548.656652,222.061783,1149.143247
4029.352520,-9992.780217,592.164754,-612.876398
4029.352849,-9918.759623,148.041188,-1378.971896
4029.353179,-9770.718434,74.020594,-1762.019645
4029.353509,-9622.677246,0.000000,-153.219100
4029.353838,-9474.636058,-74.020594,383.047749
4029.354168,-9178.553681,0.000000,1378.971896
4029.354498,-9252.574275,-222.061783,1378.971896
4029.354828,-10658.965565,296.082377,1838.629195
4029.355157,-10732.986159,0.000000,536.266849
4029.355487,-10807.006753,444.123565,-306.438199
4029.355817,-10288.862594,296.082377,153.219100
4029.356146,-10066.800811,296.082377,536.266849
4029.356476,-9696.697840,148.041188,383.047749
4029.356806,-9548.656652,0.000000,-383.047749
4029.357135,-9400.615463,0.000000,-842.705048
4029.357465,-9474.636058,74.020594,-1149.143247
4029.357795,-9622.677246,148.041188,-536.266849
4029.358124,-9770.718434,-296.082377,459.657299
4029.358454,-9918.759623,-370.102971,995.924147
4029.358784,-9992.780217,-296.082377,1455.581446
4029.359113,-10362.883188,-370.102971,919.314598
4029.359443,-10066.800811,-296.082377,995.924147
4029.359773,-9918.759623,-370.102971,153.219100
4029.360102,-9548.656652,-148.041188,229.828649
4029.360432,-9548.656652,222.061783,995.924147
4029.360762,-9622.677246,74.020594,1072.533697
4029.361091,-9918.759623,-74.020594,536.266849
4029.361421,-9992.780217,0.000000,-76.609550
4029.361751,-9252.574275,-296.082377,-1072.533697
4029.362080,-9400.615463,-370.102971,-536.266849
4029.362410,-9104.533087,-370.102971,76.609550
4029.362740,-9474.636058,-222.061783,306.438199
4029.363069,-9326.594869,-74.020594,383.047749
4029.363399,-9696.697840,-148.041188,612.876398
4029.363729,-9992.780217,74.020594,612.876398
4029.364058,-9992.780217,-222.061783,76.609550
4029.364388,-10066.800811,0.000000,0.000000
4029.364718,-9400.615463,-148.041188,76.609550
4029.365047,-9770.718434,0.000000,76.609550
4029.365377,-9474.636058,-370.102971,459.657299
4029.365707,-10066.800811,-296.082377,229.828649
4029.366036,-9696.697840,-370.102971,0.000000
4029.366366,-9474.636058,-592.164754,-306.438199
4029.366696,-9252.574275,-370.102971,-76.609550
4029.367025,-9548.656652,-148.041188,383.047749
4029.367355,-9844.739029,0.000000,689.485948
4029.367685,-9474.636058,-518.144159,766.095498
4029.368014,-10214.842000,-148.041188,995.924147
4029.368344,-10066.800811,0.000000,306.438199
4029.368674,-10140.821405,0.000000,0.000000
4029.369003,-9622.677246,-222.061783,0.000000
4029.369333,-9622.677246,222.061783,459.657299
4029.369663,-9622.677246,222.061783,1149.143247
4029.369992,-9992.780217,148.041188,919.314598
4029.370322,-10214.842000,222.061783,153.219100
4029.370652,-9770.718434,74.020594,0.000000
4029.370981,-9696.697840,0.000000,-76.609550
4029.371311,-9622.677246,0.000000,0.000000
4029.371641,-9548.656652,0.000000,-229.828649
4029.371970,-9474.636058,0.000000,229.828649
4029.372300,-9326.594869,296.082377,612.876398
4029.372630,-9474.636058,518.144159,612.876398
4029.372959,-9992.780217,592.164754,0.000000
4029.373289,-10510.924376,444.123565,153.219100
4029.373619,-10436.903782,296.082377,0.000000
4029.373948,-10066.800811,222.061783,383.047749
4029.374278,-9622.677246,-222.061783,689.485948
4029.374608,-9844.739029,296.082377,1225.752797
4029.374937,-9548.656652,74.020594,306.438199
4029.375267,-9622.677246,74.020594,0.000000
4029.375597,-9770.718434,296.082377,-383.047749
4029.375926,-10066.800811,296.082377,76.609550
4029.376256,-10066.800811,296.082377,306.438199
4029.376586,-9622.677246,222.061783,1149.143247
4029.376915,-9770.718434,444.123565,1378.971896
4029.377245,-9548.656652,296.082377,153.219100
4029.377575,-9992.780217,444.123565,-306.438199
4029.377904,-9992.780217,148.041188,-306.438199
4029.378234,-9844.739029,592.164754,0.000000
4029.378564,-9548.656652,444.123565,612.876398
4029.378893,-9548.656652,888.247130,1225.752797
4029.379223,-9844.739029,518.144159,383.047749
4029.379553,-9696.697840,222.061783,-383.047749
4029.379883,-9770.718434,370.102971,-689.485948
4029.380212,-9770.718434,222.061783,-306.438199
4029.380542,-9770.718434,296.082377,153.219100
4029.380872,-9252.574275,-370.102971,995.924147
4029.381201,-9252.574275,-296.082377,1225.752797
4029.381531,-9326.594869,0.000000,459.657299
4029.381861,-10140.821405,222.061783,-536.266849
4029.382190,-10288.862594,444.123565,-766.095498
4029.382520,-10436.903782,148.041188,0.000000
4029.382850,-9918.759623,296.082377,995.924147
4029.383179,-10140.821405,0.000000,1762.019645
4029.383509,-9770.718434,0.000000,306.438199
4029.383839,-9548.656652,-370.102971,-612.876398
4029.384168,-9400.615463,-518.144159,-919.314598
4029.384498,-8956.491898,-222.061783,76.609550
4029.384828,-9474.636058,0.000000,0.000000
4029.385157,-9696.697840,0.000000,459.657299
4029.385487,-9918.759623,-296.082377,766.095498
4029.385817,-10288.862594,-74.020594,919.314598
4029.386146,-10214.842000,-518.144159,306.438199
4029.386476,-10288.862594,-148.041188,-383.047749
4029.386806,-9622.677246,-370.102971,153.219100
4029.387135,-9474.636058,0.000000,536.266849
4029.387465,-9770.718434,-74.020594,1378.971896
4029.387795,-10510.924376,0.000000,689.485948
4029.388124,-10288.862594,74.020594,153.219100
4029.388454,-10066.800811,-148.041188,-689.485948
4029.388784,-9548.656652,-370.102971,0.000000
4029.389113,-9622.677246,-296.082377,-536.266849
4029.389443,-9770.718434,-74.020594,459.657299
4029.389773,-9548.656652,-518.144159,689.485948
4029.390102,-9918.759623,0.000000,1225.752797
4029.390432,-9918.759623,74.020594,153.219100
4029.390762,-9844.739029,0.000000,-306.438199
4029.391091,-9844.739029,222.061783,-612.876398
4029.391421,-9622.677246,74.020594,383.047749
4029.391751,-9918.759623,518.144159,229.828649
4029.392080,-9918.759623,222.061783,612.876398
4029.392410,-10362.883188,444.123565,306.438199
4029.392740,-9696.697840,148.041188,-306.438199
4029.393069,-9696.697840,-148.041188,-995.924147
4029.393399,-9474.636058,-222.061783,-766.095498
4029.393729,-9696.697840,-370.102971,0.000000
4029.394058,-9252.574275,0.000000,1225.752797
4029.394388,-9622.677246,74.020594,1838.629195
4029.394718,-9548.656652,296.082377,1225.752797
4029.395047,-9918.759623,0.000000,-229.828649
4029.395377,-10362.883188,370.102971,-995.924147
4029.395707,-10362.883188,370.102971,-766.095498
4029.396036,-9474.636058,0.000000,153.219100
4029.396366,-9178.553681,-296.082377,689.485948
4029.396696,-9400.615463,148.041188,766.095498
4029.397025,-9474.636058,222.061783,536.266849
4029.397355,-9548.656652,0.000000,0.000000
4029.397685,-9622.677246,148.041188,-459.657299
4029.398014,-10066.800811,222.061783,-306.438199
4029.398344,-9548.656652,296.082377,689.485948
4029.398674,-9770.718434,-666.185348,1685.410096
4029.399003,-9918.759623,148.041188,1838.629195
4029.399333,-9770.718434,296.082377,612.876398
4029.399663,-9770.718434,74.020594,-766.095498
4029.399992,-9474.636058,74.020594,-1149.143247
4029.400322,-9548.656652,0.000000,-76.609550
4029.400652,-9474.636058,222.061783,766.095498
4029.400981,-9992.780217,518.144159,1455.581446
4029.401311,-10436.903782,296.082377,689.485948
4029.401641,-9918.759623,0.000000,-459.657299
4029.401970,-9918.759623,296.082377,-1149.143247
4029.402300,-9844.739029,148.041188,-766.095498
4029.402630,-9770.718434,74.020594,0.000000
4029.402959,-9326.594869,0.000000,995.924147
4029.403289,-9474.636058,296.082377,1225.752797
4029.403619,-10140.821405,222.061783,842.705048
4029.403948,-10214.842000,0.000000,-536.266849
4029.404278,-9770.718434,0.000000,-1302.362347
4029.404608,-9548.656652,0.000000,-689.485948
4029.404938,-9622.677246,0.000000,766.095498
4029.405267,-9770.718434,-296.082377,1225.752797
4029.405597,-10214.842000,0.000000,1378.971896
4029.405927,-9696.697840,0.000000,306.438199
4029.406256,-10140.821405,0.000000,-689.485948
4029.406586,-9844.739029,0.000000,-612.876398
4029.406916,-10140.821405,0.000000,76.609550
4029.407245,-9622.677246,-74.020594,995.924147
4029.407575,-9474.636058,-222.061783,1915.238745
4029.407905,-9992.780217,74.020594,1608.800546
4029.408234,-9844.739029,0.000000,0.000000
4029.408564,-9992.780217,74.020594,-1149.143247
4029.408894,-9770.718434,0.000000,-612.876398
4029.409223,-9400.615463,148.041188,0.000000
4029.409553,-9252.574275,0.000000,1225.752797
4029.409883,-9918.759623,0.000000,1302.362347
4029.410212,-10066.800811,222.061783,306.438199
4029.410542,-9548.656652,0.000000,-766.095498
4029.410872,-9252.574275,0.000000,-1149.143247
4029.411201,-9326.594869,0.000000,-766.095498
4029.411531,-9326.594869,0.000000,153.219100
4029.411861,-8882.471304,148.041188,1149.143247
4029.412190,-9548.656652,222.061783,1378.971896
4029.412520,-9770.718434,74.020594,459.657299
4029.412850,-9770.718434,0.000000,-919.314598
4029.413179,-9474.636058,74.020594,-919.314598
4029.413509,-9326.594869,222.061783,-612.876398
4029.413839,-9178.553681,148.041188,612.876398
4029.414168,-9992.780217,222.061783,1225.752797
4029.414498,-10584.944971,370.102971,995.924147
4029.414828,-10288.862594,0.000000,-383.047749
4029.415157,-9992.780217,0.000000,-1072.533697
4029.415487,-9770.718434,0.000000,-842.705048
4029.415817,-9770.718434,0.000000,-383.047749
4029.416146,-9622.677246,-148.041188,1072.533697
4029.416476,-9474.636058,-74.020594,1991.848295
4029.416806,-10066.800811,0.000000,1302.362347
4029.417135,-10140.821405,148.041188,-306.438199
4029.417465,-10510.924376,0.000000,-689.485948
4029.417795,-10066.800811,0.000000,-1149.143247
4029.418124,-9770.718434,74.020594,383.047749
4029.418454,-10066.800811,-74.020594,1532.190996
4029.418784,-10066.800811,0.000000,2068.457845
4029.419113,-9548.656652,-74.020594,919.314598
4029.419443,-9548.656652,0.000000,-612.876398
4029.419773,-9696.697840,-222.061783,-459.657299
4029.420102,-10214.842000,0.000000,-153.219100
4029.420432,-9918.759623,0.000000,766.095498
4029.420762,-9326.594869,-222.061783,1838.629195
4029.421091,-9474.636058,0.000000,1608.800546
4029.421421,-9844.739029,0.000000,0.000000
4029.421751,-9770.718434,74.020594,-1225.752797
4029.422080,-9400.615463,0.000000,-1532.190996
4029.422410,-9548.656652,0.000000,-536.266849
4029.422740,-9696.697840,296.082377,1072.533697
4029.423069,-9992.780217,0.000000,2068.457845
4029.423399,-10288.862594,148.041188,1149.143247
4029.423729,-9548.656652,-592.164754,-306.438199
4029.424058,-9696.697840,0.000000,-1072.533697
4029.424388,-9326.594869,-148.041188,-766.095498
4029.424718,-9770.718434,74.020594,383.047749
4029.425047,-9696.697840,370.102971,2068.457845
4029.425377,-10436.903782,814.226536,1991.848295
4029.425707,-10584.944971,666.185348,536.266849
4029.426036,-10288.862594,74.020594,-1072.533697
4029.426366,-10362.883188,370.102971,-1608.800546
4029.426696,-10140.821405,222.061783,-689.485948
4029.427025,-9326.594869,74.020594,306.438199
4029.427355,-8956.491898,-444.123565,1455.581446
4029.427685,-9474.636058,444.123565,1302.362347
4029.428014,-10066.800811,296.082377,153.219100
4029.428344,-9696.697840,0.000000,-766.095498
4029.428674,-9770.718434,222.061783,-1072.533697
4029.429003,-9770.718434,148.041188,229.828649
4029.429333,-9992.780217,518.144159,1608.800546
4029.429663,-9696.697840,0.000000,2374.896044
4029.429993,-9918.759623,74.020594,1378.971896
4029.430322,-9622.677246,0.000000,-306.438199
4029.430652,-9844.739029,-74.020594,-1608.800546
4029.430982,-9548.656652,-296.082377,-1302.362347
4029.431311,-9252.574275,0.000000,0.000000
4029.431641,-8512.368333,-740.205942,2221.676944
4029.431971,-9400.615463,-222.061783,1608.800546
4029.432300,-9844.739029,0.000000,229.828649
4029.432630,-9622.677246,0.000000,-842.705048
4029.432960,-9622.677246,148.041188,-1532.190996
4029.433289,-9696.697840,370.102971,-919.314598
4029.433619,-9770.718434,222.061783,612.876398
4029.433949,-9770.718434,74.020594,1378.971896
4029.434278,-10214.842000,148.041188,1455.581446
4029.434608,-9992.780217,518.144159,0.000000
4029.434938,-9770.718434,0.000000,-1762.019645
4029.435267,-9548.656652,148.041188,-1991.848295
4029.435597,-9696.697840,444.123565,-459.657299
4029.435927,-10362.883188,592.164754,1378.971896
4029.436256,-9992.780217,0.000000,1915.238745
4029.436586,-10214.842000,148.041188,766.095498
4029.436916,-9770.718434,0.000000,-459.657299
4029.437245,-9844.739029,0.000000,-76.609550
4029.437575,-9992.780217,0.000000,-612.876398
4029.437905,-9770.718434,0.000000,612.876398
4029.438234,-9696.697840,74.020594,1991.848295
4029.438564,-9770.718434,0.000000,1915.238745
4029.438894,-9918.759623,370.102971,536.266849
4029.439223,-9992.780217,0.000000,-1149.143247
4029.439553,-10288.862594,-296.082377,-1685.410096
4029.439883,-9844.739029,-370.102971,-612.876398
4029.440212,-10066.800811,0.000000,919.314598
4029.440542,-9326.594869,-296.082377,2374.896044
4029.440872,-9474.636058,-148.041188,1762.019645
4029.441201,-9326.594869,0.000000,153.219100
4029.441531,-9474.636058,0.000000,-689.485948
4029.441861,-10362.883188,0.000000,-459.657299
4029.442190,-10658.965565,370.102971,612.876398
4029.442520,-9770.718434,0.000000,1455.581446
4029.442850,-9474.636058,0.000000,2068.457845
4029.443179,-9622.677246,0.000000,1149.143247
4029.443509,-9400.615463,0.000000,-766.095498
4029.443839,-9474.636058,0.000000,-1915.238745
4029.444168,-9548.656652,222.061783,-1149.143247
4029.444498,-9918.759623,370.102971,76.609550
4029.444828,-10214.842000,370.102971,1532.190996
4029.445157,-10510.924376,222.061783,1532.190996
4029.445487,-10510.924376,-148.041188,229.828649
4029.445817,-9770.718434,-888.247130,-689.485948
4029.446146,-9326.594869,-592.164754,-1302.362347
4029.446476,-9252.574275,-592.164754,0.000000
4029.446806,-9696.697840,-148.041188,1608.800546
4029.447135,-9474.636058,-444.123565,2068.457845
4029.447465,-10066.800811,0.000000,1532.190996
4029.447795,-9844.739029,0.000000,-153.219100
4029.448124,-9844.739029,0.000000,-1685.410096
4029.448454,-9770.718434,0.000000,-1225.752797
4029.448784,-9326.594869,-148.041188,-76.609550
4029.449113,-9104.533087,-296.082377,612.876398
4029.449443,-9622.677246,-74.020594,1072.533697
4029.449773,-10066.800811,0.000000,536.266849
4029.450102,-9696.697840,-444.123565,-842.705048
4029.450432,-9770.718434,0.000000,-1302.362347
4029.450762,-9474.636058,0.000000,-306.438199
4029.451092,-9696.697840,296.082377,1072.533697
4029.451422,-9918.759623,-296.082377,1455.581446
4029.451752,-10214.842000,222.061783,1532.190996
4029.452081,-10510.924376,518.144159,0.000000
4029.452411,-10066.800811,74.020594,-766.095498
4029.452741,-9622.677246,222.061783,-1378.971896
4029.453071,-9252.574275,0.000000,-612.876398
4029.453401,-9326.594869,222.061783,459.657299
4029.453730,-9326.594869,148.041188,1302.362347
4029.454060,-10140.821405,0.000000,1302.362347
4029.454390,-10214.842000,74.020594,0.000000
4029.454720,-9844.739029,-444.123565,-995.924147
4029.455050,-9400.615463,0.000000,-766.095498
4029.455380,-9474.636058,0.000000,612.876398
4029.455709,-9918.759623,370.102971,919.314598
4029.456039,-9622.677246,444.123565,1378.971896
4029.456369,-9992.780217,592.164754,919.314598
4029.456699,-10362.883188,592.164754,-766.095498
4029.457029,-10436.903782,666.185348,-1302.362347
4029.457358,-9992.780217,740.205942,-536.266849
4029.457688,-9326.594869,74.020594,306.438199
4029.458018,-8882.471304,0.000000,1225.752797
4029.458348,-9104.533087,-444.123565,919.314598
4029.458678,-9548.656652,0.000000,76.609550
4029.459008,-9030.512492,0.000000,-459.657299
4029.459337,-9474.636058,592.164754,-459.657299
4029.459667,-10214.842000,444.123565,153.219100
4029.459997,-10436.903782,296.082377,1072.533697
4029.460327,-9992.780217,222.061783,1225.752797
4029.460657,-10214.842000,444.123565,1072.533697
4029.460986,-10140.821405,370.102971,-306.438199
4029.461316,-9992.780217,0.000000,-1455.581446
4029.461646,-9400.615463,0.000000,-766.095498
4029.461976,-9178.553681,0.000000,0.000000
4029.462306,-9400.615463,148.041188,1149.143247
4029.462635,-9844.739029,-148.041188,1532.190996
4029.462965,-10066.800811,148.041188,459.657299
4029.463295,-9918.759623,0.000000,-306.438199
4029.463625,-10140.821405,0.000000,-383.047749
4029.463955,-9918.759623,-74.020594,0.000000
4029.464285,-9770.718434,-74.020594,229.828649
4029.464614,-9548.656652,296.082377,459.657299
4029.464944,-9548.656652,148.041188,459.657299
4029.465274,-9992.780217,518.144159,-459.657299
4029.465604,-9548.656652,0.000000,-612.876398
4029.465934,-9696.697840,222.061783,-1378.971896
4029.466263,-9696.697840,74.020594,-536.266849
4029.466593,-9548.656652,0.000000,153.219100
4029.466923,-9622.677246,-370.102971,995.924147
4029.467253,-9844.739029,-814.226536,766.095498
4029.467583,-9992.780217,-592.164754,76.609550
4029.467913,-9696.697840,-740.205942,0.000000
4029.468242,-9548.656652,-74.020594,383.047749
4029.468572,-9252.574275,-518.144159,1455.581446
4029.468902,-10288.862594,148.041188,1225.752797
4029.469232,-10510.924376,222.061783,1532.190996
4029.469562,-10584.944971,148.041188,842.705048
4029.469891,-9696.697840,-444.123565,-306.438199
4029.470221,-9622.677246,0.000000,-1378.971896
4029.470551,-9252.574275,-518.144159,-1072.533697
4029.470881,-9252.574275,-370.102971,-612.876398
4029.471211,-8956.491898,-74.020594,612.876398
4029.471541,-9104.533087,-370.102971,383.047749
4029.471870,-9992.780217,74.020594,536.266849
4029.472200,-10066.800811,0.000000,153.219100
4029.472530,-10288.862594,444.123565,76.609550
4029.472860,-10066.800811,0.000000,842.705048
4029.473190,-10140.821405,0.000000,995.924147
4029.473519,-9844.739029,148.041188,995.924147
4029.473849,-9844.739029,0.000000,766.095498
4029.474179,-9474.636058,0.000000,536.266849
4029.474509,-9696.697840,0.000000,-1072.533697
4029.474839,-9474.636058,0.000000,-1225.752797
4029.475169,-9252.574275,74.020594,-459.657299
4029.475498,-9252.574275,148.041188,459.657299
4029.475828,-9474.636058,0.000000,1072.533697
4029.476158,-10140.821405,148.041188,1149.143247
4029.476488,-10510.924376,296.082377,459.657299
4029.476818,-9918.759623,0.000000,153.219100
4029.477147,-9918.759623,0.000000,153.219100
4029.477477,-10214.842000,296.082377,689.485948
4029.477807,-9844.739029,148.041188,1149.143247
4029.478137,-9474.636058,222.061783,1072.533697
4029.478467,-9474.636058,518.144159,842.705048
4029.478797,-9622.677246,518.144159,0.000000
4029.479126,-10066.800811,666.185348,-842.705048
4029.479456,-10066.800811,592.164754,-842.705048
4029.479786,-9844.739029,370.102971,0.000000
4029.480116,-9474.636058,444.123565,459.657299
4029.480446,-9326.594869,-296.082377,612.876398
4029.480775,-9474.636058,0.000000,383.047749
4029.481105,-9548.656652,0.000000,459.657299
4029.481435,-9696.697840,148.041188,536.266849
4029.481765,-9622.677246,0.000000,689.485948
4029.482095,-9992.780217,0.000000,919.314598
4029.482425,-9548.656652,148.041188,1072.533697
4029.482754,-9548.656652,-296.082377,1378.971896
4029.483084,-9548.656652,0.000000,536.266849
4029.483414,-9548.656652,0.000000,-612.876398
4029.483744,-9400.615463,74.020594,-1302.362347
4029.484074,-9030.512492,74.020594,-842.705048
4029.484403,-9622.677246,370.102971,0.000000
4029.484733,-9400.615463,0.000000,766.095498
4029.485063,-10214.842000,296.082377,459.657299
4029.485393,-9770.718434,-74.020594,459.657299
4029.485723,-9770.718434,-222.061783,-459.657299
4029.486053,-9696.697840,-444.123565,0.000000
4029.486382,-9992.780217,-148.041188,383.047749
4029.486712,-9622.677246,0.000000,689.485948
4029.487042,-9770.718434,148.041188,919.314598
4029.487372,-10510.924376,592.164754,919.314598
4029.487702,-10658.965565,370.102971,0.000000
4029.488031,-10732.986159,222.061783,-1072.533697
4029.488361,-9696.697840,-444.123565,-766.095498
4029.488691,-9844.739029,148.041188,536.266849
4029.489021,-9696.697840,0.000000,1072.533697
4029.489351,-9770.718434,-74.020594,919.314598
4029.489681,-9622.677246,-74.020594,1072.533697
4029.490010,-9696.697840,-222.061783,229.828649
4029.490340,-9326.594869,-222.061783,306.438199
4029.490670,-9844.739029,-148.041188,689.485948
4029.491000,-9992.780217,-296.082377,689.485948
4029.491330,-9548.656652,-370.102971,919.314598
4029.491659,-9992.780217,-148.041188,1149.143247
4029.491989,-9992.780217,0.000000,536.266849
4029.492319,-10066.800811,-74.020594,-306.438199
4029.492649,-9252.574275,-444.123565,-689.485948
4029.492979,-8956.491898,-370.102971,-306.438199
4029.493309,-8956.491898,-222.061783,536.266849
4029.493638,-9474.636058,-666.185348,1225.752797
4029.493968,-9548.656652,-296.082377,1072.533697
4029.494298,-9474.636058,-444.123565,612.876398
4029.494628,-9474.636058,-444.123565,229.828649
4029.494958,-9548.656652,0.000000,229.828649
4029.495287,-9770.718434,0.000000,536.266849
4029.495617,-9696.697840,74.020594,0.000000
4029.495947,-9696.697840,74.020594,153.219100
4029.496277,-10214.842000,444.123565,153.219100
4029.496607,-9992.780217,222.061783,-689.485948
4029.496936,-9992.780217,518.144159,-1302.362347
4029.497266,-9474.636058,0.000000,-995.924147
4029.497596,-9474.636058,0.000000,-459.657299
4029.497926,-9252.574275,-296.082377,229.828649
4029.498256,-9992.780217,-296.082377,689.485948
4029.498586,-9992.780217,-296.082377,995.924147
4029.498915,-9696.697840,0.000000,229.828649
4029.499245,-9770.718434,148.041188,76.609550
4029.499575,-9622.677246,444.123565,229.828649
4029.499905,-9992.780217,222.061783,0.000000
4029.500235,-9918.759623,296.082377,689.485948
4029.500564,-10140.821405,592.164754,1072.533697
4029.500894,-10214.842000,814.226536,306.438199
4029.501224,-10066.800811,370.102971,-1149.143247
4029.501554,-9992.780217,444.123565,-1685.410096
4029.501884,-9326.594869,0.000000,-1378.971896
4029.502214,-9474.636058,74.020594,-536.266849
4029.502543,-9326.594869,0.000000,1225.752797
4029.502873,-9918.759623,0.000000,1225.752797
4029.503203,-9696.697840,0.000000,995.924147
4029.503533,-9696.697840,0.000000,0.000000
4029.503863,-9696.697840,0.000000,229.828649
4029.504192,-10140.821405,0.000000,612.876398
4029.504522,-9992.780217,222.061783,1149.143247
4029.504852,-9844.739029,0.000000,2221.676944
4029.505182,-10066.800811,296.082377,1608.800546
4029.505512,-9770.718434,0.000000,76.609550
4029.505842,-9918.759623,222.061783,-1532.190996
4029.506171,-9326.594869,148.041188,-1455.581446
4029.506501,-9326.594869,74.020594,-306.438199
4029.506831,-9622.677246,148.041188,306.438199
4029.507161,-9474.636058,370.102971,766.095498
4029.507491,-9696.697840,222.061783,536.266849
4029.507820,-9696.697840,-74.020594,-536.266849
4029.508150,-9696.697840,74.020594,-766.095498
4029.508480,-10140.821405,74.020594,0.000000
4029.508810,-10066.800811,148.041188,1072.533697
4029.509140,-9770.718434,0.000000,2068.457845
4029.509470,-9696.697840,222.061783,1378.971896
4029.509799,-9844.739029,370.102971,536.266849
4029.510129,-10066.800811,148.041188,-995.924147
4029.510459,-10066.800811,296.082377,-1302.362347
4029.510789,-9622.677246,444.123565,-612.876398
4029.511119,-9474.636058,444.123565,76.609550
4029.511448,-10288.862594,148.041188,919.314598
4029.511778,-9918.759623,148.041188,153.219100
4029.512108,-9474.636058,-444.123565,-766.095498
4029.512438,-8734.430116,-296.082377,-1149.143247
4029.512768,-9252.574275,-666.185348,-536.266849
4029.513098,-9918.759623,0.000000,612.876398
4029.513427,-9918.759623,-74.020594,2068.457845
4029.513757,-9992.780217,74.020594,1991.848295
4029.514087,-10436.903782,-370.102971,1685.410096
4029.514417,-10732.986159,-296.082377,0.000000
4029.514747,-10436.903782,-222.061783,-995.924147
4029.515076,-9548.656652,-222.061783,-689.485948
4029.515406,-9326.594869,0.000000,229.828649
4029.515736,-9178.553681,-370.102971,995.924147
4029.516066,-9770.718434,74.020594,919.314598
4029.516396,-9770.718434,0.000000,229.828649
4029.516726,-10140.821405,0.000000,-1225.752797
4029.517055,-10288.862594,-444.123565,-1225.752797
4029.517385,-10288.862594,-148.041188,-383.047749
4029.517715,-9548.656652,-370.102971,1225.752797
4029.518045,-9918.759623,222.061783,1455.581446
4029.518375,-10066.800811,592.164754,1455.581446
4029.518704,-10214.842000,518.144159,0.000000
4029.519034,-10510.924376,740.205942,-1225.752797
4029.519364,-10288.862594,74.020594,-1762.019645
4029.519694,-9622.677246,0.000000,0.000000
4029.520024,-9104.533087,-148.041188,995.924147
4029.520354,-9400.615463,-148.041188,1225.752797
4029.520683,-9252.574275,0.000000,153.219100
4029.521013,-9326.594869,-296.082377,-1149.143247
4029.521343,-8956.491898,0.000000,-919.314598
4029.521673,-9992.780217,0.000000,-229.828649
4029.522003,-10214.842000,592.164754,1149.143247
4029.522332,-9474.636058,592.164754,1915.238745
4029.522662,-9696.697840,370.102971,1608.800546
4029.522992,-9770.718434,74.020594,76.609550
4029.523322,-9992.780217,0.000000,-1072.533697
4029.523652,-9918.759623,592.164754,-2068.457845
4029.523982,-9178.553681,74.020594,-536.266849
4029.524311,-8882.471304,444.123565,689.485948
4029.524641,-9474.636058,222.061783,1762.019645
4029.524971,-10066.800811,888.247130,536.266849
4029.525301,-9918.759623,370.102971,-689.485948
4029.525631,-10066.800811,296.082377,-1532.190996
4029.525960,-9918.759623,0.000000,-842.705048
4029.526290,-10214.842000,370.102971,919.314598
4029.526620,-9474.636058,148.041188,1225.752797
4029.526950,-9696.697840,74.020594,1838.629195
4029.527280,-9992.780217,222.061783,919.314598
4029.527610,-10288.862594,148.041188,0.000000
4029.527939,-9992.780217,518.144159,-1838.629195
4029.528269,-9696.697840,148.041188,-153.219100
4029.528599,-9548.656652,296.082377,766.095498
4029.528929,-9622.677246,-296.082377,1762.019645
4029.529259,-9918.759623,0.000000,995.924147
4029.529588,-10066.800811,0.000000,229.828649
4029.529918,-9770.718434,-222.061783,-766.095498
4029.530248,-9400.615463,0.000000,-612.876398
4029.530578,-9696.697840,0.000000,229.828649
4029.530908,-9696.697840,0.000000,919.314598
4029.531237,-10140.821405,0.000000,2068.457845
4029.531567,-10362.883188,148.041188,1532.190996
4029.531897,-9918.759623,0.000000,0.000000
4029.532227,-9696.697840,74.020594,-1838.629195
4029.532557,-9178.553681,-222.061783,-1072.533697
4029.532887,-8956.491898,-370.102971,0.000000
4029.533216,-8882.471304,-222.061783,919.314598
4029.533546,-9548.656652,296.082377,1378.971896
4029.533876,-10140.821405,296.082377,612.876398
4029.534206,-9992.780217,0.000000,-459.657299
4029.534536,-9992.780217,148.041188,-995.924147
4029.534865,-10066.800811,0.000000,-383.047749
4029.535195,-10436.903782,0.000000,689.485948
4029.535525,-9622.677246,-296.082377,1378.971896
4029.535855,-9770.718434,-148.041188,1225.752797
4029.536185,-9696.697840,0.000000,689.485948
4029.536515,-9548.656652,148.041188,-1608.800546
4029.536844,-9696.697840,148.041188,-995.924147
4029.537174,-9548.656652,0.000000,-306.438199
4029.537504,-9548.656652,0.000000,1225.752797
4029.537834,-9992.780217,-444.123565,1302.362347
4029.538164,-10288.862594,0.000000,1302.362347
4029.538493,-9992.780217,-444.123565,459.657299
4029.538823,-9548.656652,-296.082377,-689.485948
4029.539153,-9844.739029,-148.041188,-383.047749
4029.539483,-10214.842000,0.000000,612.876398
4029.539813,-9622.677246,74.020594,1225.752797
4029.540143,-9548.656652,0.000000,1225.752797
4029.540472,-9770.718434,222.061783,919.314598
4029.540802,-9696.697840,0.000000,-919.314598
4029.541132,-9992.780217,0.000000,-1991.848295
4029.541462,-9178.553681,-370.102971,-1608.800546
4029.541792,-9104.533087,0.000000,-459.657299
4029.542121,-8956.491898,-518.144159,1838.629195
4029.542451,-9548.656652,0.000000,1838.629195
4029.542781,-9992.780217,-222.061783,536.266849
4029.543111,-9622.677246,-518.144159,-383.047749
4029.543441,-9178.553681,-518.144159,-612.876398
4029.543771,-9548.656652,-222.061783,0.000000
4029.544100,-9548.656652,0.000000,1532.190996
4029.544430,-9178.553681,0.000000,2298.286494
4029.544760,-9918.759623,148.041188,1685.410096
4029.545090,-10066.800811,74.020594,0.000000
4029.545420,-10288.862594,222.061783,-2221.676944
4029.545749,-9992.780217,518.144159,-2221.676944
4029.546079,-9474.636058,666.185348,-995.924147
4029.546409,-9474.636058,1184.329507,1072.533697
4029.546739,-9622.677246,444.123565,1685.410096
4029.547069,-10807.006753,962.267725,1149.143247
4029.547399,-10362.883188,444.123565,-612.876398
4029.547728,-10288.862594,0.000000,-612.876398
4029.548058,-10288.862594,-296.082377,-459.657299
4029.548388,-10510.924376,0.000000,1225.752797
4029.548718,-9770.718434,148.041188,2451.505594
4029.549048,-9918.759623,0.000000,2528.115143
4029.549377,-10140.821405,370.102971,766.095498
4029.549707,-10362.883188,518.144159,-1149.143247
4029.550037,-10140.821405,296.082377,-1378.971896
4029.550367,-9770.718434,0.000000,-383.047749
4029.550696,-8882.471304,0.000000,1149.143247
4029.551026,-8808.450710,-444.123565,1685.410096
4029.551356,-9474.636058,0.000000,766.095498
4029.551686,-9548.656652,-148.041188,-229.828649
4029.552016,-9770.718434,0.000000,-1225.752797
4029.552345,-9548.656652,-148.041188,-1378.971896
4029.552675,-10362.883188,148.041188,995.924147
4029.553005,-10066.800811,148.041188,1685.410096
4029.553335,-9548.656652,0.000000,1608.800546
4029.553664,-10066.800811,0.000000,612.876398
4029.553994,-9844.739029,0.000000,-995.924147
4029.554324,-9844.739029,0.000000,-1608.800546
4029.554654,-9326.594869,0.000000,-1225.752797
4029.554984,-8808.450710,0.000000,229.828649
4029.555313,-9030.512492,0.000000,1149.143247
4029.555643,-9400.615463,0.000000,383.047749
4029.555973,-9844.739029,0.000000,-536.266849
4029.556303,-9770.718434,-296.082377,-612.876398
4029.556632,-9844.739029,0.000000,-612.876398
4029.556962,-10214.842000,0.000000,842.705048
4029.557292,-10362.883188,0.000000,1685.410096
4029.557622,-9918.759623,74.020594,2374.896044
4029.557951,-10510.924376,444.123565,1072.533697
4029.558281,-10510.924376,444.123565,-306.438199
4029.558611,-10436.903782,296.082377,-1072.533697
4029.558941,-10066.800811,74.020594,-536.266849
4029.559271,-9770.718434,74.020594,229.828649
4029.559600,-9178.553681,0.000000,919.314598
4029.559930,-9178.553681,-370.102971,536.266849
4029.560260,-9770.718434,-222.061783,0.000000
4029.560590,-9474.636058,148.041188,-536.266849
4029.560919,-9400.615463,-444.123565,-229.828649
4029.561249,-9770.718434,-148.041188,689.485948
4029.561579,-10584.944971,222.061783,1685.410096
4029.561909,-9770.718434,222.061783,1608.800546
4029.562238,-9696.697840,0.000000,1455.581446
4029.562568,-10140.821405,74.020594,689.485948
4029.562898,-10362.883188,444.123565,-229.828649
4029.563228,-10066.800811,148.041188,-919.314598
4029.563558,-9400.615463,74.020594,-689.485948
4029.563887,-9178.553681,296.082377,0.000000
4029.564217,-9030.512492,-296.082377,229.828649
4029.564547,-9548.656652,0.000000,153.219100
4029.564877,-9178.553681,-296.082377,-306.438199
4029.565206,-9400.615463,-296.082377,-689.485948
4029.565536,-9474.636058,0.000000,0.000000
4029.565866,-10214.842000,0.000000,1072.533697
4029.566196,-10066.800811,0.000000,766.095498
4029.566525,-9770.718434,148.041188,1225.752797
4029.566855,-10362.883188,370.102971,1072.533697
4029.567185,-10214.842000,0.000000,-153.219100
4029.567515,-10510.924376,444.123565,-1225.752797
4029.567845,-9770.718434,444.123565,-1225.752797
4029.568174,-9696.697840,518.144159,0.000000
4029.568504,-9770.718434,222.061783,689.485948
4029.568834,-10066.800811,74.020594,536.266849
4029.569164,-9400.615463,592.164754,-306.438199
4029.569493,-9474.636058,0.000000,-612.876398
4029.569823,-9548.656652,222.061783,-153.219100
4029.570153,-10066.800811,148.041188,995.924147
4029.570483,-10288.862594,888.247130,1762.019645
4029.570813,-10214.842000,222.061783,1608.800546
4029.571142,-10214.842000,148.041188,1378.971896
4029.571472,-9844.739029,0.000000,153.219100
4029.571802,-9622.677246,222.061783,-919.314598
4029.572132,-9770.718434,148.041188,-995.924147
4029.572461,-9474.636058,74.020594,0.000000
4029.572791,-9474.636058,222.061783,842.705048
4029.573121,-9400.615463,0.000000,995.924147
4029.573451,-9252.574275,0.000000,689.485948
4029.573780,-9252.574275,0.000000,-459.657299
4029.574110,-9400.615463,0.000000,-766.095498
4029.574440,-9548.656652,0.000000,306.438199
4029.574770,-10140.821405,0.000000,689.485948
4029.575100,-10066.800811,222.061783,612.876398
4029.575429,-9918.759623,148.041188,1225.752797
4029.575759,-9770.718434,0.000000,842.705048
4029.576089,-10066.800811,0.000000,-459.657299
4029.576419,-10140.821405,222.061783,-842.705048
4029.576748,-9918.759623,148.041188,-612.876398
4029.577078,-9844.739029,148.041188,153.219100
4029.577408,-9474.636058,0.000000,536.266849
4029.577738,-10066.800811,0.000000,76.609550
4029.578067,-9992.780217,0.000000,-383.047749
4029.578397,-9548.656652,-518.144159,-842.705048
4029.578727,-9326.594869,-592.164754,-306.438199
4029.579057,-9844.739029,74.020594,76.609550
4029.579387,-10510.924376,0.000000,1225.752797
4029.579716,-10288.862594,0.000000,1378.971896
4029.580046,-9992.780217,74.020594,1302.362347
4029.580376,-10214.842000,444.123565,153.219100
4029.580706,-10140.821405,222.061783,0.000000
4029.581035,-9770.718434,0.000000,-536.266849
4029.581365,-9696.697840,-222.061783,229.828649
4029.581695,-9326.594869,0.000000,689.485948
4029.582025,-9622.677246,-444.123565,689.485948
4029.582354,-9770.718434,-444.123565,153.219100
4029.582684,-9178.553681,-518.144159,-383.047749
4029.583014,-9178.553681,-518.144159,0.000000
4029.583344,-9474.636058,-370.102971,536.266849
4029.583674,-10140.821405,-148.041188,1455.581446
4029.584003,-10066.800811,222.061783,1838.629195
4029.584333,-10658.965565,74.020594,1378.971896
4029.584663,-9992.780217,74.020594,766.095498
4029.584993,-9992.780217,0.000000,-229.828649
4029.585322,-9622.677246,370.102971,-919.314598
4029.585652,-9474.636058,148.041188,-76.609550
4029.585982,-9474.636058,518.144159,0.000000
4029.586312,-9326.594869,222.061783,153.219100
4029.586642,-10140.821405,518.144159,0.000000
4029.586971,-10066.800811,74.020594,-612.876398
4029.587301,-9770.718434,0.000000,-536.266849
4029.587631,-9400.615463,222.061783,-76.609550
4029.587961,-10066.800811,0.000000,842.705048
4029.588290,-10584.944971,222.061783,1302.362347
4029.588620,-10214.842000,0.000000,1455.581446
4029.588950,-9918.759623,518.144159,1225.752797
4029.589280,-10214.842000,296.082377,459.657299
4029.589609,-9992.780217,222.061783,-536.266849
4029.589939,-9696.697840,518.144159,-306.438199
4029.590269,-9474.636058,740.205942,229.828649
4029.590599,-9474.636058,518.144159,229.828649
4029.590929,-9474.636058,74.020594,0.000000
4029.591258,-9696.697840,518.144159,-766.095498
4029.591588,-9548.656652,74.020594,-995.924147
4029.591918,-9770.718434,296.082377,-306.438199
4029.592248,-9844.739029,222.061783,306.438199
4029.592577,-10436.903782,74.020594,459.657299
4029.592907,-9696.697840,0.000000,612.876398
4029.593237,-10066.800811,0.000000,1225.752797
4029.593567,-10066.800811,518.144159,766.095498
4029.593896,-9918.759623,0.000000,0.000000
4029.594226,-9474.636058,0.000000,-459.657299
4029.594556,-9252.574275,222.061783,76.609550
4029.594886,-9030.512492,0.000000,306.438199
4029.595216,-9400.615463,0.000000,612.876398
4029.595545,-9844.739029,148.041188,306.438199
4029.595875,-9770.718434,148.041188,-459.657299
4029.596205,-9400.615463,0.000000,-383.047749
4029.596535,-9696.697840,74.020594,0.000000
4029.596864,-9696.697840,148.041188,383.047749
4029.597194,-9696.697840,148.041188,842.705048
4029.597524,-9622.677246,222.061783,1302.362347
4029.597854,-9918.759623,222.061783,919.314598
4029.598183,-10288.862594,592.164754,-76.609550
4029.598513,-10584.944971,370.102971,-612.876398
4029.598843,-9696.697840,148.041188,0.000000
4029.599173,-9622.677246,0.000000,76.609550
4029.599503,-9400.615463,222.061783,612.876398
4029.599832,-9844.739029,296.082377,459.657299
4029.600162,-9992.780217,0.000000,153.219100
4029.600492,-9548.656652,-222.061783,76.609550
4029.600822,-10140.821405,0.000000,229.828649
4029.601151,-10214.842000,0.000000,306.438199
4029.601481,-10066.800811,-370.102971,766.095498
4029.601811,-9178.553681,-518.144159,919.314598
4029.602141,-9622.677246,-222.061783,1225.752797
4029.602471,-9918.759623,0.000000,919.314598
4029.602800,-10214.842000,0.000000,-612.876398
4029.603130,-9548.656652,0.000000,-306.438199
4029.603460,-9696.697840,-148.041188,0.000000
4029.603790,-9474.636058,0.000000,612.876398
4029.604119,-9548.656652,-518.144159,1072.533697
4029.604449,-9696.697840,-518.144159,536.266849
4029.604779,-9622.677246,-518.144159,0.000000
4029.605109,-9178.553681,-518.144159,-383.047749
4029.605438,-9548.656652,-370.102971,0.000000
4029.605768,-10140.821405,-222.061783,459.657299
4029.606098,-9918.759623,74.020594,612.876398
4029.606428,-9770.718434,0.000000,1455.581446
4029.606758,-10214.842000,148.041188,612.876398
4029.607087,-10066.800811,0.000000,-306.438199
4029.607417,-10436.903782,0.000000,-842.705048
4029.607747,-9548.656652,148.041188,-612.876398
4029.608077,-9178.553681,148.041188,0.000000
4029.608406,-9474.636058,74.020594,612.876398
4029.608736,-9844.739029,0.000000,842.705048
4029.609066,-9992.780217,0.000000,76.609550
4029.609396,-9548.656652,74.020594,76.609550
4029.609725,-9622.677246,74.020594,-612.876398
4029.610055,-10066.800811,74.020594,76.609550
4029.610385,-9992.780217,222.061783,459.657299
4029.610715,-9400.615463,74.020594,1302.362347
4029.611045,-9696.697840,222.061783,1762.019645
4029.611374,-10066.800811,74.020594,459.657299
4029.611704,-10362.883188,518.144159,-459.657299
4029.612034,-10066.800811,222.061783,-612.876398
4029.612364,-9474.636058,148.041188,-383.047749
4029.612693,-9252.574275,222.061783,383.047749
4029.613023,-9104.533087,-296.082377,919.314598
4029.613353,-9178.553681,0.000000,766.095498
4029.613683,-9104.533087,-296.082377,383.047749
4029.614012,-9696.697840,74.020594,0.000000
4029.614342,-10066.800811,222.061783,0.000000
4029.614672,-10436.903782,0.000000,459.657299
4029.615002,-10288.862594,222.061783,1149.143247
4029.615332,-10214.842000,74.020594,1838.629195
4029.615661,-10066.800811,296.082377,919.314598
4029.615991,-9844.739029,148.041188,-536.266849
4029.616321,-9844.739029,814.226536,-1608.800546
4029.616651,-9770.718434,444.123565,-842.705048
4029.616980,-9844.739029,740.205942,76.609550
4029.617310,-10066.800811,444.123565,612.876398
4029.617640,-10436.903782,518.144159,842.705048
4029.617970,-9992.780217,-148.041188,306.438199
4029.618300,-9696.697840,-370.102971,-153.219100
4029.618629,-9622.677246,-370.102971,76.609550
4029.618959,-9918.759623,-370.102971,995.924147
4029.619289,-9696.697840,-74.020594,1685.410096
4029.619619,-9622.677246,-222.061783,2451.505594
4029.619948,-9844.739029,148.041188,1991.848295
4029.620278,-10066.800811,74.020594,76.609550
4029.620608,-10436.903782,814.226536,-919.314598
4029.620938,-10214.842000,518.144159,-1608.800546
4029.621267,-9696.697840,518.144159,-689.485948
4029.621597,-9400.615463,0.000000,0.000000
4029.621927,-9252.574275,-296.082377,612.876398
4029.622257,-9400.615463,0.000000,-306.438199
4029.622587,-9104.533087,-370.102971,-536.266849
4029.622916,-9326.594869,-296.082377,-536.266849
4029.623246,-10140.821405,-296.082377,0.000000
4029.623576,-10362.883188,0.000000,766.095498
4029.623906,-9696.697840,-74.020594,1915.238745
4029.624235,-9696.697840,0.000000,2604.724693
4029.624565,-10214.842000,296.082377,1378.971896
4029.624895,-9622.677246,0.000000,-612.876398
4029.625225,-9548.656652,74.020594,-1838.629195
4029.625554,-9400.615463,296.082377,-1455.581446
4029.625884,-9474.636058,444.123565,-459.657299
4029.626214,-9992.780217,222.061783,766.095498
4029.626544,-9770.718434,370.102971,689.485948
4029.626874,-9696.697840,148.041188,0.000000
4029.627203,-9770.718434,0.000000,-536.266849
4029.627533,-9770.718434,0.000000,-459.657299
4029.627863,-10066.800811,-74.020594,229.828649
4029.628193,-9770.718434,-222.061783,1072.533697
4029.628522,-9622.677246,0.000000,2221.676944
4029.628852,-9918.759623,0.000000,1685.410096
4029.629182,-9844.739029,0.000000,76.609550
4029.629512,-10510.924376,444.123565,-766.095498
4029.629841,-9918.759623,296.082377,-766.095498
4029.630171,-9622.677246,296.082377,-153.219100
4029.630501,-9326.594869,74.020594,919.314598
4029.630831,-9252.574275,-296.082377,919.314598
4029.631161,-9474.636058,148.041188,383.047749
4029.631490,-9622.677246,-296.082377,-766.095498
4029.631820,-9992.780217,222.061783,-689.485948
4029.632150,-9548.656652,-296.082377,0.000000
4029.632480,-9548.656652,0.000000,1302.362347
4029.632809,-9548.656652,0.000000,2298.286494
4029.633139,-9918.759623,0.000000,1991.848295
4029.633469,-10362.883188,444.123565,459.657299
4029.633799,-10807.006753,444.123565,-766.095498
4029.634129,-10362.883188,370.102971,-1532.190996
4029.634458,-9474.636058,0.000000,-995.924147
4029.634788,-9548.656652,222.061783,842.705048
4029.635118,-9548.656652,0.000000,1149.143247
4029.635448,-9548.656652,0.000000,689.485948
4029.635777,-9326.594869,-74.020594,-536.266849
4029.636107,-9918.759623,222.061783,-842.705048
4029.636437,-9918.759623,0.000000,-536.266849
4029.636767,-10362.883188,-74.020594,1149.143247
4029.637096,-9918.759623,-148.041188,2221.676944
4029.637426,-9622.677246,-296.082377,2374.896044
4029.637756,-10288.862594,0.000000,1225.752797
4029.638086,-10732.986159,222.061783,-306.438199
4029.638416,-10732.986159,148.041188,-1302.362347
4029.638745,-9918.759623,370.102971,-995.924147
4029.639075,-10066.800811,148.041188,153.219100
4029.639405,-9400.615463,0.000000,995.924147
4029.639735,-9622.677246,0.000000,1149.143247
4029.640064,-9252.574275,-518.144159,229.828649
4029.640394,-9252.574275,0.000000,-689.485948
4029.640724,-9548.656652,0.000000,-766.095498
4029.641054,-10140.821405,74.020594,0.000000
4029.641383,-9770.718434,0.000000,1608.800546
4029.641713,-9548.656652,0.000000,2911.162892
4029.642043,-10066.800811,0.000000,1762.019645
4029.642373,-10510.924376,296.082377,229.828649
4029.642703,-10362.883188,444.123565,-1455.581446
4029.643032,-9844.739029,370.102971,-1532.190996
4029.643362,-9696.697840,148.041188,-153.219100
4029.643692,-9770.718434,592.164754,842.705048
4029.644022,-10214.842000,296.082377,1149.143247
4029.644351,-9622.677246,222.061783,-306.438199
4029.644681,-9252.574275,-296.082377,-995.924147
4029.645011,-9400.615463,-222.061783,-1685.410096
4029.645341,-9696.697840,-296.082377,-459.657299
4029.645670,-9992.780217,0.000000,766.095498
4029.646000,-9178.553681,0.000000,2681.334243
4029.646330,-9696.697840,0.000000,2451.505594
4029.646660,-10140.821405,74.020594,919.314598
4029.646990,-10436.903782,0.000000,-689.485948
4029.647319,-9992.780217,518.144159,-842.705048
4029.647649,-9178.553681,0.000000,-306.438199
4029.647979,-9400.615463,370.102971,0.000000
4029.648309,-9474.636058,74.020594,612.876398
4029.648638,-9992.780217,296.082377,229.828649
4029.648968,-9548.656652,148.041188,-766.095498
4029.649298,-9548.656652,0.000000,-1685.410096
4029.649628,-9696.697840,0.000000,-766.095498
4029.649958,-9622.677246,-296.082377,229.828649
4029.650287,-9400.615463,0.000000,1608.800546
4029.650617,-9844.739029,-222.061783,2451.505594
4029.650947,-10214.842000,0.000000,1455.581446
4029.651277,-10288.862594,0.000000,0.000000
4029.651606,-9918.759623,222.061783,-1225.752797
4029.651936,-9770.718434,222.061783,-306.438199
4029.652266,-9474.636058,222.061783,612.876398
4029.652596,-10066.800811,296.082377,1149.143247
4029.652925,-10362.883188,74.020594,842.705048
4029.653255,-9548.656652,222.061783,-459.657299
4029.653585,-9400.615463,-296.082377,-1532.190996
4029.653915,-9326.594869,148.041188,-1455.581446
4029.654245,-9770.718434,0.000000,76.609550
4029.654574,-9696.697840,296.082377,1302.362347
4029.654904,-9770.718434,0.000000,1915.238745
4029.655234,-10288.862594,296.082377,1532.190996
4029.655564,-10584.944971,0.000000,153.219100
4029.655894,-10658.965565,-74.020594,-1072.533697
4029.656223,-9696.697840,0.000000,-766.095498
4029.656553,-8956.491898,0.000000,306.438199
4029.656883,-9474.636058,444.123565,1225.752797
4029.657213,-10140.821405,222.061783,1072.533697
4029.657542,-10214.842000,666.185348,76.609550
4029.657872,-9770.718434,444.123565,-919.314598
4029.658202,-9992.780217,296.082377,-1608.800546
4029.658532,-9844.739029,148.041188,-919.314598
4029.658862,-9474.636058,222.061783,612.876398
4029.659191,-9252.574275,148.041188,1455.581446
4029.659521,-9474.636058,74.020594,1378.971896
4029.659851,-10288.862594,296.082377,306.438199
4029.660181,-10658.965565,148.041188,-383.047749
4029.660510,-9992.780217,222.061783,-689.485948
4029.660840,-9696.697840,0.000000,383.047749
4029.661170,-9696.697840,-148.041188,1149.143247
4029.661500,-9474.636058,-444.123565,1762.019645
4029.661830,-9400.615463,-148.041188,612.876398
4029.662159,-9326.594869,74.020594,-919.314598
4029.662489,-9104.533087,-296.082377,-1149.143247
4029.662819,-9400.615463,74.020594,-153.219100
4029.663149,-10288.862594,74.020594,766.095498
4029.663478,-10288.862594,148.041188,1685.410096
4029.663808,-10066.800811,74.020594,1608.800546
4029.664138,-10140.821405,-148.041188,612.876398
4029.664468,-9918.759623,-222.061783,0.000000
4029.664798,-9918.759623,148.041188,-995.924147
4029.665127,-9696.697840,0.000000,-306.438199
4029.665457,-9474.636058,370.102971,689.485948
4029.665787,-9474.636058,592.164754,1685.410096
4029.666117,-10510.924376,148.041188,842.705048
4029.666446,-10658.965565,222.061783,-383.047749
4029.666776,-9992.780217,-370.102971,-1072.533697
4029.667106,-9252.574275,-444.123565,-919.314598
4029.667436,-9622.677246,-370.102971,689.485948
4029.667766,-9548.656652,-222.061783,1455.581446
4029.668095,-9474.636058,-370.102971,1915.238745
4029.668425,-9622.677246,0.000000,1149.143247
4029.668755,-10362.883188,-296.082377,306.438199
4029.669085,-10807.006753,74.020594,-612.876398
4029.669414,-10140.821405,0.000000,-383.047749
4029.669744,-9622.677246,0.000000,306.438199
4029.670074,-8956.491898,148.041188,995.924147
4029.670404,-9696.697840,0.000000,995.924147
4029.670734,-9844.739029,222.061783,0.000000
4029.671063,-9622.677246,-296.082377,-995.924147
4029.671393,-9474.636058,-74.020594,-612.876398
4029.671723,-9548.656652,74.020594,459.657299
4029.672053,-10140.821405,0.000000,1225.752797
4029.672382,-10510.924376,-148.041188,1991.848295
4029.672712,-10066.800811,-444.123565,1378.971896
4029.673042,-9696.697840,0.000000,0.000000
4029.673372,-9696.697840,-74.020594,-842.705048
4029.673702,-9696.697840,74.020594,-1072.533697
4029.674031,-9622.677246,148.041188,0.000000
4029.674361,-9770.718434,148.041188,919.314598
4029.674691,-9178.553681,0.000000,612.876398
4029.675021,-10066.800811,0.000000,0.000000
4029.675350,-9770.718434,0.000000,-766.095498
4029.675680,-9474.636058,-222.061783,0.000000
4029.676010,-9104.533087,0.000000,-229.828649
4029.676340,-9474.636058,0.000000,459.657299
4029.676670,-9992.780217,148.041188,1378.971896
4029.676999,-9918.759623,148.041188,1378.971896
4029.677329,-10140.821405,518.144159,689.485948
4029.677659,-10140.821405,592.164754,-536.266849
4029.677989,-10140.821405,296.082377,-1378.971896
4029.678319,-9770.718434,74.020594,-689.485948
4029.678648,-9252.574275,370.102971,0.000000
4029.678978,-9030.512492,0.000000,842.705048
4029.679308,-9622.677246,0.000000,229.828649
4029.679638,-9474.636058,74.020594,-536.266849
4029.679967,-9252.574275,0.000000,-842.705048
4029.680297,-9474.636058,296.082377,-689.485948
4029.680627,-9696.697840,0.000000,842.705048
4029.680957,-10066.800811,74.020594,1378.971896
4029.681287,-9696.697840,148.041188,1455.581446
4029.681616,-9770.718434,0.000000,842.705048
4029.681946,-9992.780217,0.000000,76.609550
4029.682276,-10066.800811,74.020594,-1072.533697
4029.682606,-9918.759623,444.123565,-919.314598
4029.682935,-9696.697840,666.185348,153.219100
4029.683265,-9548.656652,666.185348,842.705048
4029.683595,-10066.800811,370.102971,689.485948
4029.683925,-10658.965565,296.082377,-459.657299
4029.684255,-10288.862594,370.102971,-383.047749
4029.684584,-9696.697840,0.000000,-536.266849
4029.684914,-9252.574275,0.000000,0.000000
4029.685244,-9770.718434,0.000000,1302.362347
4029.685574,-9844.739029,74.020594,1455.581446
4029.685903,-9770.718434,222.061783,1762.019645
4029.686233,-10362.883188,296.082377,1072.533697
4029.686563,-10584.944971,518.144159,76.609550
4029.686893,-10288.862594,222.061783,-459.657299
4029.687223,-9696.697840,222.061783,229.828649
4029.687552,-9400.615463,74.020594,612.876398
4029.687882,-9252.574275,0.000000,1149.143247
4029.688212,-9770.718434,0.000000,842.705048
4029.688542,-10140.821405,296.082377,-153.219100
4029.688871,-9326.594869,-296.082377,-766.095498
4029.689201,-9474.636058,148.041188,-459.657299
4029.689531,-10066.800811,296.082377,383.047749
4029.689861,-9622.677246,74.020594,1608.800546
4029.690191,-9474.636058,222.061783,1455.581446
4029.690520,-9696.697840,-370.102971,1149.143247
4029.690850,-9844.739029,0.000000,153.219100
4029.691180,-10140.821405,0.000000,-383.047749
4029.691510,-9770.718434,0.000000,-536.266849
4029.691839,-9474.636058,74.020594,536.266849
4029.692169,-9178.553681,74.020594,766.095498
4029.692499,-9548.656652,-222.061783,153.219100
4029.692829,-10066.800811,740.205942,0.000000
4029.693159,-9474.636058,0.000000,-1149.143247
4029.693488,-9474.636058,74.020594,-1302.362347
4029.693818,-9918.759623,0.000000,-153.219100
4029.694148,-10436.903782,0.000000,766.095498
4029.694478,-9770.718434,-296.082377,995.924147
4029.694807,-9770.718434,-740.205942,1532.190996
4029.695137,-9844.739029,-370.102971,1608.800546
4029.695467,-10066.800811,-222.061783,229.828649
4029.695797,-10140.821405,0.000000,0.000000
4029.696127,-9474.636058,-296.082377,383.047749
4029.696456,-9918.759623,296.082377,459.657299
4029.696786,-9474.636058,0.000000,766.095498
4029.697116,-9770.718434,0.000000,-229.828649
4029.697446,-9548.656652,0.000000,-766.095498
4029.697775,-9474.636058,-370.102971,-1302.362347
4029.698105,-9474.636058,-370.102971,-306.438199
4029.698435,-9844.739029,-74.020594,383.047749
4029.698765,-10140.821405,-370.102971,995.924147
4029.699095,-9844.739029,-592.164754,1685.410096
4029.699424,-10066.800811,-148.041188,1378.971896
4029.699754,-9844.739029,-74.020594,612.876398
4029.700084,-10140.821405,0.000000,-459.657299
4029.700414,-10288.862594,74.020594,459.657299
4029.700744,-10066.800811,296.082377,766.095498
4029.701073,-9918.759623,666.185348,306.438199
4029.701403,-9844.739029,0.000000,0.000000
4029.701733,-10510.924376,222.061783,-842.705048
4029.702063,-9622.677246,-222.061783,-919.314598
4029.702392,-9400.615463,-222.061783,-153.219100
4029.702722,-9548.656652,-518.144159,1072.533697
4029.703052,-9844.739029,-296.082377,919.314598
4029.703382,-9400.615463,-222.061783,1225.752797
4029.703712,-9696.697840,148.041188,842.705048
4029.704041,-9918.759623,518.144159,612.876398
4029.704371,-10436.903782,444.123565,0.000000
4029.704701,-10584.944971,444.123565,0.000000
4029.705031,-10066.800811,0.000000,536.266849
4029.705360,-9770.718434,148.041188,766.095498
4029.705690,-9474.636058,-370.102971,306.438199
4029.706020,-9622.677246,0.000000,229.828649
4029.706350,-9326.594869,-74.020594,-612.876398
4029.706680,-8956.491898,-518.144159,-76.609550
4029.707009,-8956.491898,-296.082377,229.828649
4029.707339,-9548.656652,222.061783,612.876398
4029.707669,-10066.800811,148.041188,536.266849
4029.707999,-10214.842000,0.000000,459.657299
4029.708328,-10362.883188,370.102971,383.047749
4029.708658,-10362.883188,222.061783,229.828649
4029.708988,-10066.800811,296.082377,-229.828649
4029.709318,-9252.574275,222.061783,76.609550
4029.709648,-9400.615463,444.123565,229.828649
4029.709977,-9696.697840,666.185348,689.485948
4029.710307,-10288.862594,222.061783,76.609550
4029.710637,-10214.842000,296.082377,-383.047749
4029.710967,-9548.656652,0.000000,-306.438199
4029.711296,-9178.553681,-370.102971,306.438199
4029.711626,-9844.739029,-148.041188,383.047749
4029.711956,-9918.759623,-222.061783,76.609550
4029.712286,-9326.594869,-222.061783,612.876398
4029.712616,-9474.636058,148.041188,842.705048
4029.712945,-10214.842000,592.164754,919.314598
4029.713275,-10881.027347,592.164754,306.438199
4029.713605,-10140.821405,518.144159,-153.219100
4029.713935,-9622.677246,222.061783,-842.705048
4029.714264,-9622.677246,444.123565,0.000000
4029.714594,-9918.759623,-222.061783,459.657299
4029.714924,-9696.697840,0.000000,76.609550
4029.715254,-8956.491898,0.000000,-536.266849
4029.715584,-9178.553681,0.000000,-459.657299
4029.715913,-9770.718434,148.041188,-383.047749
4029.716243,-10140.821405,222.061783,229.828649
4029.716573,-10066.800811,518.144159,766.095498
4029.716903,-10140.821405,296.082377,1225.752797
4029.717232,-10510.924376,222.061783,1302.362347
4029.717562,-9844.739029,-518.144159,229.828649
4029.717892,-9474.636058,0.000000,-766.095498
4029.718222,-9104.533087,0.000000,-1072.533697
4029.718552,-9400.615463,74.020594,0.000000
4029.718881,-9030.512492,0.000000,612.876398
4029.719211,-9622.677246,148.041188,229.828649
4029.719541,-9622.677246,666.185348,-383.047749
4029.719871,-9252.574275,0.000000,-306.438199
4029.720201,-9696.697840,370.102971,-459.657299
4029.720530,-10066.800811,0.000000,-76.609550
4029.720860,-10140.821405,0.000000,459.657299
4029.721190,-9474.636058,-518.144159,1608.800546
4029.721520,-10140.821405,0.000000,1838.629195
4029.721849,-9622.677246,-370.102971,842.705048
4029.722179,-9474.636058,-296.082377,-459.657299
4029.722509,-9696.697840,74.020594,0.000000
4029.722839,-9918.759623,0.000000,229.828649
4029.723169,-9622.677246,518.144159,842.705048
4029.723498,-10214.842000,0.000000,1225.752797
4029.723828,-9844.739029,0.000000,306.438199
4029.724158,-9104.533087,-370.102971,-612.876398
4029.724488,-8956.491898,-444.123565,-1072.533697
4029.724817,-9178.553681,-370.102971,-919.314598
4029.725147,-9548.656652,-296.082377,0.000000
4029.725477,-9326.594869,-296.082377,842.705048
4029.725807,-9844.739029,-296.082377,2068.457845
4029.726137,-9992.780217,-148.041188,1072.533697
4029.726466,-10066.800811,-296.082377,76.609550
4029.726796,-9474.636058,74.020594,-1378.971896
4029.727126,-9474.636058,0.000000,-536.266849
4029.727456,-9474.636058,444.123565,0.000000
4029.727785,-9696.697840,296.082377,842.705048
4029.728115,-9844.739029,518.144159,153.219100
4029.728445,-10066.800811,740.205942,-689.485948
4029.728775,-9696.697840,0.000000,-1608.800546
4029.729105,-9844.739029,148.041188,-1378.971896
4029.729434,-9770.718434,-74.020594,76.609550
4029.729764,-9252.574275,-148.041188,1225.752797
4029.730094,-9474.636058,0.000000,1915.238745
4029.730424,-10066.800811,0.000000,1991.848295
4029.730753,-10584.944971,0.000000,536.266849
4029.731083,-10807.006753,370.102971,0.000000
4029.731413,-10510.924376,148.041188,-842.705048
4029.731743,-9844.739029,666.185348,153.219100
4029.732073,-9252.574275,148.041188,766.095498
4029.732402,-9696.697840,0.000000,459.657299
4029.732732,-9696.697840,148.041188,0.000000
4029.733062,-9252.574275,-296.082377,-612.876398
4029.733392,-9178.553681,-74.020594,-612.876398
4029.733721,-9992.780217,148.041188,0.000000
4029.734051,-9992.780217,0.000000,1225.752797
4029.734381,-9474.636058,-222.061783,1532.190996
4029.734711,-9474.636058,222.061783,1608.800546
4029.735041,-9918.759623,296.082377,1072.533697
4029.735370,-10214.842000,444.123565,-383.047749
4029.735700,-10436.903782,444.123565,-995.924147
4029.736030,-10140.821405,444.123565,-383.047749
4029.736360,-9400.615463,148.041188,76.609550
4029.736689,-9030.512492,74.020594,153.219100
4029.737019,-9178.553681,0.000000,383.047749
4029.737349,-8734.430116,-370.102971,0.000000
4029.737679,-8808.450710,-148.041188,-459.657299
4029.738009,-9696.697840,0.000000,0.000000
4029.738338,-10214.842000,0.000000,536.266849
4029.738668,-10140.821405,222.061783,1072.533697
4029.738998,-10066.800811,0.000000,1915.238745
4029.739328,-10214.842000,222.061783,1378.971896
4029.739657,-10807.006753,444.123565,153.219100
4029.739987,-10066.800811,518.144159,-1532.190996
4029.740317,-9474.636058,444.123565,-1838.629195
4029.740647,-9474.636058,148.041188,-842.705048
4029.740977,-9770.718434,74.020594,842.705048
4029.741306,-10140.821405,148.041188,995.924147
4029.741636,-9548.656652,-74.020594,229.828649
4029.741966,-9178.553681,-592.164754,-689.485948
4029.742296,-9400.615463,-296.082377,-229.828649
4029.742626,-9844.739029,-222.061783,306.438199
4029.742955,-10288.862594,0.000000,1838.629195
4029.743285,-9992.780217,0.000000,2757.943793
4029.743615,-10510.924376,222.061783,2528.115143
4029.743945,-10955.047942,0.000000,612.876398
4029.744274,-11029.068536,0.000000,-1302.362347
4029.744604,-10066.800811,-148.041188,-1225.752797
4029.744934,-9252.574275,0.000000,-459.657299
4029.745264,-8808.450710,148.041188,536.266849
4029.745594,-9030.512492,0.000000,995.924147
4029.745923,-9622.677246,296.082377,76.609550
4029.746253,-9844.739029,148.041188,-1149.143247
4029.746583,-9918.759623,0.000000,-1455.581446
4029.746913,-9918.759623,-518.144159,-689.485948
4029.747242,-10140.821405,-222.061783,919.314598
4029.747572,-9696.697840,-296.082377,2068.457845
4029.747902,-9474.636058,-296.082377,2451.505594
4029.748232,-9622.677246,-592.164754,1149.143247
4029.748562,-10436.903782,0.000000,-153.219100
4029.748891,-10436.903782,148.041188,-766.095498
4029.749221,-9918.759623,74.020594,-306.438199
4029.749551,-9474.636058,296.082377,-229.828649
4029.749881,-9326.594869,0.000000,459.657299
4029.750210,-9548.656652,0.000000,383.047749
4029.750540,-9770.718434,0.000000,-612.876398
4029.750870,-9548.656652,-666.185348,-1532.190996
4029.751200,-9548.656652,0.000000,-919.314598
4029.751530,-9918.759623,0.000000,459.657299
4029.751860,-10066.800811,-148.041188,1762.019645
4029.752190,-9622.677246,-518.144159,2221.676944
4029.752520,-9770.718434,0.000000,2145.067394
4029.752849,-10066.800811,148.041188,766.095498
4029.753179,-10214.842000,0.000000,-536.266849
4029.753509,-9622.677246,0.000000,-306.438199
4029.753839,-9474.636058,444.123565,229.828649
4029.754169,-9400.615463,222.061783,919.314598
4029.754499,-9696.697840,0.000000,459.657299
4029.754829,-9474.636058,296.082377,0.000000
4029.755159,-8808.450710,148.041188,-1149.143247
4029.755488,-9474.636058,444.123565,-1149.143247
