#time,accel_x,accel_y,accel_z
3770.888597,-9844.739029,0.000000,306.438199
3770.888926,-9844.739029,148.041188,306.438199
3770.889256,-9622.677246,148.041188,76.609550
3770.889586,-9622.677246,74.020594,0.000000
3770.889915,-9622.677246,74.020594,153.219100
3770.890245,-9548.656652,148.041188,76.609550
3770.890574,-9844.739029,74.020594,229.828649
3770.890904,-10140.821405,222.061783,306.438199
3770.891234,-9770.718434,148.041188,153.219100
3770.891563,-10066.800811,0.000000,306.438199
3770.891893,-9770.718434,74.020594,153.219100
3770.892222,-9918.759623,0.000000,383.047749
3770.892552,-9844.739029,0.000000,153.219100
3770.892882,-9696.697840,74.020594,306.438199
3770.893211,-9918.759623,222.061783,76.609550
3770.893541,-9696.697840,0.000000,919.314598
3770.893871,-9696.697840,0.000000,153.219100
3770.894200,-9770.718434,74.020594,76.609550
3770.894530,-9844.739029,0.000000,306.438199
3770.894859,-9474.636058,0.000000,0.000000
3770.895189,-9400.615463,-74.020594,0.000000
3770.895519,-9548.656652,0.000000,76.609550
3770.895848,-9622.677246,148.041188,383.047749
3770.896178,-9696.697840,0.000000,76.609550
3770.896507,-9770.718434,0.000000,76.609550
3770.896837,-9696.697840,0.000000,536.266849
3770.897167,-9696.697840,0.000000,306.438199
3770.897496,-9770.718434,148.041188,383.047749
3770.897826,-9844.739029,-148.041188,306.438199
3770.898155,-9696.697840,0.000000,153.219100
3770.898485,-9548.656652,-222.061783,76.609550
3770.898815,-9622.677246,0.000000,0.000000
3770.899144,-9918.759623,74.020594,0.000000
3770.899474,-9770.718434,148.041188,0.000000
3770.899803,-9770.718434,74.020594,459.657299
3770.900133,-10214.842000,-222.061783,766.095498
3770.900463,-10066.800811,0.000000,383.047749
3770.900792,-9548.656652,74.020594,-612.876398
3770.901122,-9400.615463,-296.082377,-612.876398
3770.901451,-9474.636058,0.000000,-612.876398
3770.901781,-9918.759623,0.000000,-306.438199
3770.902111,-9622.677246,-222.061783,0.000000
3770.902440,-9844.739029,-444.123565,229.828649
3770.902770,-9622.677246,-666.185348,0.000000
3770.903099,-9474.636058,-444.123565,-536.266849
3770.903429,-9474.636058,-592.164754,-612.876398
3770.903759,-9622.677246,-222.061783,-766.095498
3770.904088,-9696.697840,-370.102971,-995.924147
3770.904418,-9992.780217,-592.164754,-229.828649
3770.904747,-9844.739029,-222.061783,0.000000
3770.905077,-10140.821405,-518.144159,-229.828649
3770.905407,-9918.759623,-444.123565,-842.705048
3770.905736,-9992.780217,-370.102971,-1915.238745
3770.906066,-9918.759623,-444.123565,-1915.238745
3770.906396,-9548.656652,-962.267725,-1455.581446
3770.906725,-9474.636058,-1110.308913,-1378.971896
3770.907055,-9252.574275,-1036.288319,-612.876398
3770.907384,-8882.471304,-1332.370696,-229.828649
3770.907714,-9548.656652,-666.185348,383.047749
3770.908044,-9622.677246,-962.267725,-536.266849
3770.908373,-10362.883188,-814.226536,-766.095498
3770.908703,-10362.883188,-444.123565,-1149.143247
3770.909032,-10362.883188,-592.164754,-1455.581446
3770.909362,-10584.944971,-370.102971,-1302.362347
3770.909692,-10288.862594,-444.123565,-1378.971896
3770.910021,-10066.800811,-1110.308913,-2298.286494
3770.910351,-10066.800811,-1702.473667,-3140.991542
3770.910680,-9548.656652,-1850.514855,-3677.258390
3770.911010,-9400.615463,-2146.597232,-2528.115143
3770.911340,-8290.306550,-1850.514855,-2374.896044
3770.911669,-7994.224174,-1924.535449,-1915.238745
3770.911999,-8586.388927,-1998.556043,-536.266849
3770.912328,-9474.636058,-1258.350101,-383.047749
3770.912658,-10140.821405,-1110.308913,0.000000
3770.912988,-10732.986159,-518.144159,306.438199
3770.913317,-11473.192101,-518.144159,-459.657299
3770.913647,-11769.274478,-1258.350101,-995.924147
3770.913976,-11769.274478,-1628.453072,-2681.334243
3770.914306,-10436.903782,-2294.638420,-5056.230287
3770.914636,-8956.491898,-2886.803174,-5209.449386
3770.914965,-7624.121203,-3478.967927,-3753.867940
3770.915295,-7476.080014,-2368.659014,-1378.971896
3770.915624,-8586.388927,-1184.329507,-383.047749
3770.915954,-9844.739029,-962.267725,-1455.581446
3770.916284,-11547.212695,-592.164754,-2834.553343
3770.916613,-11399.171507,-2072.576638,-4596.572988
3770.916943,-11991.336260,-2960.823768,-3907.087040
3770.917272,-11399.171507,-4515.256246,-2604.724693
3770.917602,-9030.512492,-5255.462188,-1378.971896
3770.917932,-7254.018232,-5551.544565,-1378.971896
3770.918261,-6809.894666,-4885.359217,-2298.286494
3770.918591,-7624.121203,-3552.988522,-2528.115143
3770.918921,-9030.512492,-2442.679609,-2451.505594
3770.919250,-10436.903782,-1480.411884,-1685.410096
3770.919580,-11325.150913,-1554.432478,-1838.629195
3770.919909,-11547.212695,-1998.556043,-3677.258390
3770.920239,-11325.150913,-3627.009116,-5362.668486
3770.920569,-9474.636058,-4885.359217,-6052.154434
3770.920898,-8290.306550,-5847.626942,-4673.182538
3770.921228,-8438.347739,-5403.503377,-2757.943793
3770.921557,-8216.285956,-5181.441594,-459.657299
3770.921887,-7698.141797,-4441.235652,383.047749
3770.922217,-8512.368333,-3552.988522,766.095498
3770.922546,-11177.109724,-2442.679609,-612.876398
3770.922876,-12361.439231,-2294.638420,-1915.238745
3770.923205,-11473.192101,-2738.761985,-2987.772442
3770.923535,-10066.800811,-3627.009116,-3370.820191
3770.923865,-9400.615463,-4737.318029,-2298.286494
3770.924194,-9770.718434,-4885.359217,-1915.238745
3770.924524,-9178.553681,-5181.441594,-1378.971896
3770.924853,-7920.203579,-4589.276840,-1532.190996
3770.925183,-8512.368333,-3849.070898,-1685.410096
3770.925513,-9992.780217,-2812.782580,-995.924147
3770.925842,-10955.047942,-1850.514855,0.000000
3770.926172,-11991.336260,-3034.844362,1302.362347
3770.926501,-12805.562797,-1850.514855,76.609550
3770.926831,-10066.800811,-2664.741391,-1838.629195
3770.927161,-9326.594869,-2960.823768,-1455.581446
3770.927490,-9844.739029,-2812.782580,-1532.190996
3770.927820,-10955.047942,-2812.782580,-2604.724693
3770.928149,-10214.842000,-3182.885551,-2451.505594
3770.928479,-9326.594869,-2960.823768,-1225.752797
3770.928809,-8882.471304,-2146.597232,-229.828649
3770.929138,-9326.594869,-2294.638420,459.657299
3770.929468,-9104.533087,-1850.514855,-919.314598
3770.929797,-9178.553681,-1776.494261,-2681.334243
3770.930127,-9622.677246,-1258.350101,-3447.429741
3770.930457,-9918.759623,-1036.288319,-1915.238745
3770.930786,-10066.800811,-962.267725,0.000000
3770.931116,-10436.903782,-444.123565,-766.095498
3770.931446,-10584.944971,-296.082377,-2528.115143
3770.931775,-10436.903782,-962.267725,-4979.620737
3770.932105,-10214.842000,-962.267725,-5286.058936
3770.932434,-9548.656652,-1480.411884,-3677.258390
3770.932764,-9548.656652,-888.247130,-2145.067394
3770.933094,-9770.718434,-444.123565,-1915.238745
3770.933423,-7624.121203,-592.164754,-3064.381992
3770.933753,-6809.894666,-814.226536,-3294.210641
3770.934082,-7105.977043,-222.061783,-3677.258390
3770.934412,-10066.800811,0.000000,-995.924147
3770.934742,-11695.253884,1110.308913,919.314598
3770.935071,-11251.130318,888.247130,-383.047749
3770.935401,-10436.903782,0.000000,-1915.238745
3770.935730,-11029.068536,-148.041188,-3370.820191
3770.936060,-11843.295072,-666.185348,-4519.963438
3770.936390,-11473.192101,-888.247130,-4366.744339
3770.936719,-8068.244768,-1184.329507,-3524.039291
3770.937049,-6809.894666,-1628.453072,-1225.752797
3770.937378,-7031.956449,-222.061783,-383.047749
3770.937708,-9548.656652,74.020594,-612.876398
3770.938038,-11103.089130,296.082377,-2221.676944
3770.938367,-10436.903782,-148.041188,-1991.848295
3770.938697,-10732.986159,-370.102971,-536.266849
3770.939026,-11399.171507,-1036.288319,459.657299
3770.939356,-11621.233289,-1554.432478,0.000000
3770.939686,-10140.821405,-2368.659014,-1608.800546
3770.940015,-8586.388927,-2368.659014,-2834.553343
3770.940345,-8068.244768,-1628.453072,-2221.676944
3770.940674,-10732.986159,-1850.514855,-76.609550
3770.941004,-10955.047942,-814.226536,-153.219100
3770.941334,-9030.512492,-1332.370696,-1532.190996
3770.941663,-8956.491898,-1850.514855,-2757.943793
3770.941993,-10214.842000,-1924.535449,-3753.867940
3770.942322,-10807.006753,-2960.823768,-3217.601092
3770.942652,-9252.574275,-3775.050304,-1991.848295
3770.942982,-8512.368333,-3404.947333,-842.705048
3770.943311,-9474.636058,-3701.029710,-459.657299
3770.943641,-10807.006753,-3552.988522,-842.705048
3770.943971,-11103.089130,-3775.050304,-995.924147
3770.944300,-10658.965565,-3701.029710,-2068.457845
3770.944630,-9770.718434,-3627.009116,-2374.896044
3770.944959,-9548.656652,-4293.194464,-2068.457845
3770.945289,-9030.512492,-3478.967927,-2451.505594
3770.945619,-9030.512492,-3923.091493,-3524.039291
3770.945948,-8142.265362,-3923.091493,-4443.353888
3770.946278,-8438.347739,-4219.173869,-5209.449386
3770.946607,-9770.718434,-3552.988522,-2604.724693
3770.946937,-11103.089130,-3552.988522,-842.705048
3770.947267,-10362.883188,-3108.864956,-1149.143247
3770.947596,-9178.553681,-3701.029710,-2451.505594
3770.947926,-9918.759623,-3923.091493,-2604.724693
3770.948255,-10881.027347,-3478.967927,-459.657299
3770.948585,-10807.006753,-3478.967927,383.047749
3770.948915,-9992.780217,-2812.782580,-766.095498
3770.949244,-8734.430116,-3108.864956,-2987.772442
3770.949574,-9030.512492,-2738.761985,-3753.867940
3770.949903,-10066.800811,-2294.638420,-2451.505594
3770.950233,-10362.883188,-2072.576638,-1225.752797
3770.950563,-9474.636058,-2146.597232,-306.438199
3770.950892,-9400.615463,-2294.638420,-383.047749
3770.951222,-10214.842000,-2220.617826,306.438199
3770.951551,-10436.903782,-2442.679609,153.219100
3770.951881,-9992.780217,-2516.700203,-383.047749
3770.952211,-9696.697840,-1776.494261,-842.705048
3770.952540,-9104.533087,-1924.535449,-459.657299
3770.952870,-8808.450710,-1702.473667,536.266849
3770.953199,-9104.533087,-1110.308913,1149.143247
3770.953529,-9770.718434,148.041188,1378.971896
3770.953859,-10584.944971,148.041188,536.266849
3770.954189,-11399.171507,0.000000,-842.705048
3770.954518,-10807.006753,370.102971,-1225.752797
3770.954848,-11029.068536,0.000000,-1149.143247
3770.955178,-10214.842000,-666.185348,-1378.971896
3770.955508,-8660.409521,-1184.329507,-1608.800546
3770.955838,-7328.038826,-1110.308913,-306.438199
3770.956168,-8068.244768,-888.247130,612.876398
3770.956497,-8068.244768,-666.185348,1149.143247
3770.956827,-8142.265362,814.226536,919.314598
3770.957157,-9252.574275,1332.370696,766.095498
3770.957487,-10584.944971,1702.473667,536.266849
3770.957817,-11843.295072,1480.411884,383.047749
3770.958146,-10955.047942,1258.350101,0.000000
3770.958476,-9770.718434,518.144159,-383.047749
3770.958806,-9400.615463,962.267725,766.095498
3770.959136,-9696.697840,518.144159,536.266849
3770.959466,-8734.430116,592.164754,0.000000
3770.959795,-8956.491898,1776.494261,-919.314598
3770.960125,-9548.656652,2220.617826,-2068.457845
3770.960455,-9696.697840,2590.720797,-1455.581446
3770.960785,-9992.780217,3256.906145,-76.609550
3770.961115,-10658.965565,2886.803174,-459.657299
3770.961444,-10807.006753,2590.720797,-919.314598
3770.961774,-10066.800811,1998.556043,-842.705048
3770.962104,-10510.924376,1332.370696,0.000000
3770.962434,-9622.677246,1110.308913,612.876398
3770.962764,-9844.739029,1406.391290,1302.362347
3770.963093,-10066.800811,1258.350101,1072.533697
3770.963423,-10140.821405,1258.350101,919.314598
3770.963753,-9844.739029,1702.473667,1302.362347
3770.964083,-10066.800811,2368.659014,2451.505594
3770.964413,-11029.068536,2516.700203,1302.362347
3770.964743,-10732.986159,2516.700203,306.438199
3770.965072,-10807.006753,1850.514855,-612.876398
3770.965402,-10807.006753,1036.288319,-1225.752797
3770.965732,-9696.697840,0.000000,-766.095498
3770.966062,-9696.697840,-370.102971,229.828649
3770.966392,-8586.388927,-1036.288319,1149.143247
3770.966721,-7698.141797,-296.082377,1838.629195
3770.967051,-8364.327145,0.000000,995.924147
3770.967381,-9104.533087,74.020594,306.438199
3770.967711,-10436.903782,444.123565,76.609550
3770.968041,-10584.944971,74.020594,306.438199
3770.968370,-9992.780217,148.041188,1608.800546
3770.968700,-10214.842000,0.000000,2145.067394
3770.969030,-9696.697840,-666.185348,766.095498
3770.969360,-9326.594869,-1628.453072,-919.314598
3770.969690,-8216.285956,-666.185348,-2451.505594
3770.970019,-8438.347739,-888.247130,-1532.190996
3770.970349,-9400.615463,-148.041188,0.000000
3770.970679,-9178.553681,222.061783,229.828649
3770.971009,-9326.594869,0.000000,-306.438199
3770.971339,-9770.718434,-296.082377,-995.924147
3770.971668,-10288.862594,0.000000,-1072.533697
3770.971998,-11029.068536,-518.144159,383.047749
3770.972328,-9770.718434,-666.185348,1378.971896
3770.972658,-9770.718434,-444.123565,2451.505594
3770.972988,-10807.006753,-444.123565,1302.362347
3770.973317,-11473.192101,-1110.308913,612.876398
3770.973647,-11399.171507,-962.267725,-76.609550
3770.973977,-9918.759623,-1110.308913,-1302.362347
3770.974307,-9030.512492,-740.205942,-842.705048
3770.974637,-9326.594869,-740.205942,1072.533697
3770.974967,-9770.718434,-962.267725,612.876398
3770.975296,-10288.862594,-888.247130,-383.047749
3770.975626,-9992.780217,-888.247130,-1225.752797
3770.975956,-10288.862594,-1480.411884,-1302.362347
3770.976286,-9622.677246,-1628.453072,459.657299
3770.976616,-9918.759623,-1628.453072,2451.505594
3770.976945,-10362.883188,-1776.494261,2604.724693
3770.977275,-9178.553681,-1480.411884,842.705048
3770.977605,-9400.615463,-1480.411884,-153.219100
3770.977935,-9622.677246,-1406.391290,-689.485948
3770.978265,-8882.471304,-740.205942,-306.438199
3770.978594,-8660.409521,-814.226536,536.266849
3770.978924,-9326.594869,-888.247130,-459.657299
3770.979254,-9030.512492,-1036.288319,-919.314598
3770.979584,-9474.636058,-1332.370696,-1608.800546
3770.979914,-9844.739029,-1036.288319,-1991.848295
3770.980243,-8882.471304,-888.247130,-995.924147
3770.980573,-9104.533087,-814.226536,459.657299
3770.980903,-8956.491898,-962.267725,383.047749
3770.981233,-9622.677246,-222.061783,995.924147
3770.981563,-9400.615463,-370.102971,383.047749
3770.981892,-10732.986159,148.041188,-842.705048
3770.982222,-10066.800811,0.000000,-383.047749
3770.982552,-9844.739029,296.082377,229.828649
3770.982882,-10584.944971,1036.288319,842.705048
3770.983212,-9696.697840,222.061783,766.095498
3770.983541,-10140.821405,666.185348,306.438199
3770.983871,-10140.821405,740.205942,-383.047749
3770.984201,-10362.883188,888.247130,-153.219100
3770.984531,-10732.986159,1702.473667,306.438199
3770.984861,-10584.944971,1184.329507,306.438199
3770.985191,-9548.656652,1184.329507,689.485948
3770.985520,-9548.656652,1332.370696,612.876398
3770.985850,-10436.903782,1184.329507,1149.143247
3770.986180,-10066.800811,962.267725,1991.848295
3770.986510,-10066.800811,2072.576638,1838.629195
3770.986840,-10510.924376,1258.350101,919.314598
3770.987169,-9474.636058,1776.494261,766.095498
3770.987499,-9326.594869,1480.411884,1991.848295
3770.987829,-9918.759623,1554.432478,919.314598
3770.988159,-10214.842000,1406.391290,153.219100
3770.988489,-9622.677246,1628.453072,-459.657299
3770.988818,-8956.491898,518.144159,-1072.533697
3770.989148,-8586.388927,1036.288319,0.000000
3770.989478,-9178.553681,1406.391290,0.000000
3770.989808,-9252.574275,518.144159,-229.828649
3770.990138,-7920.203579,740.205942,0.000000
3770.990467,-8364.327145,666.185348,229.828649
3770.990797,-9474.636058,962.267725,842.705048
3770.991127,-10362.883188,1110.308913,995.924147
3770.991457,-11399.171507,1480.411884,2298.286494
3770.991787,-9992.780217,962.267725,842.705048
3770.992116,-9548.656652,1184.329507,842.705048
3770.992446,-10584.944971,1184.329507,1532.190996
3770.992776,-11399.171507,666.185348,2221.676944
3770.993106,-10584.944971,1628.453072,459.657299
3770.993436,-10362.883188,1554.432478,-229.828649
3770.993766,-10584.944971,1332.370696,-612.876398
3770.994095,-10955.047942,1036.288319,-153.219100
3770.994425,-10140.821405,592.164754,153.219100
3770.994755,-9622.677246,222.061783,76.609550
3770.995085,-9400.615463,370.102971,766.095498
3770.995415,-9844.739029,148.041188,842.705048
3770.995744,-10584.944971,-222.061783,383.047749
3770.996074,-10066.800811,-370.102971,1762.019645
3770.996404,-10807.006753,-518.144159,2604.724693
3770.996734,-10584.944971,-888.247130,2528.115143
3770.997064,-10140.821405,-444.123565,2757.943793
3770.997393,-9918.759623,-962.267725,536.266849
3770.997723,-9030.512492,-370.102971,-995.924147
3770.998053,-8586.388927,-666.185348,-1149.143247
3770.998383,-9400.615463,-148.041188,-1072.533697
3770.998713,-9178.553681,-518.144159,-842.705048
3770.999042,-9252.574275,-222.061783,-842.705048
3770.999372,-8956.491898,-592.164754,-1838.629195
3770.999702,-9030.512492,-962.267725,-2451.505594
3771.000032,-9178.553681,-1036.288319,-1302.362347
3771.000362,-9844.739029,-962.267725,0.000000
3771.000691,-9400.615463,-1702.473667,0.000000
3771.001021,-9696.697840,-518.144159,536.266849
3771.001351,-9918.759623,-592.164754,459.657299
3771.001681,-9992.780217,-740.205942,0.000000
3771.002011,-9992.780217,-592.164754,229.828649
3771.002340,-10881.027347,-518.144159,0.000000
3771.002670,-10362.883188,-888.247130,766.095498
3771.003000,-9400.615463,-666.185348,459.657299
3771.003330,-9992.780217,-370.102971,0.000000
3771.003660,-9474.636058,-888.247130,-689.485948
3771.003990,-10066.800811,-222.061783,-459.657299
3771.004319,-10807.006753,-296.082377,76.609550
3771.004649,-10436.903782,-592.164754,1072.533697
3771.004979,-10362.883188,-888.247130,1838.629195
3771.005309,-10436.903782,-888.247130,1991.848295
3771.005639,-9474.636058,0.000000,2298.286494
3771.005968,-9474.636058,-1184.329507,842.705048
3771.006298,-9474.636058,-518.144159,-306.438199
3771.006628,-9252.574275,-962.267725,229.828649
3771.006958,-9548.656652,0.000000,766.095498
3771.007288,-9474.636058,-370.102971,536.266849
3771.007617,-8956.491898,-296.082377,-459.657299
3771.007947,-9104.533087,-518.144159,-919.314598
3771.008277,-9030.512492,-296.082377,-1149.143247
3771.008607,-10066.800811,-888.247130,-1838.629195
3771.008937,-9548.656652,-222.061783,-842.705048
3771.009266,-9030.512492,-296.082377,-459.657299
3771.009596,-7550.100608,-666.185348,-1225.752797
3771.009926,-7994.224174,-222.061783,-1838.629195
3771.010256,-9178.553681,-148.041188,-842.705048
3771.010586,-9474.636058,-370.102971,-306.438199
3771.010915,-9918.759623,518.144159,1072.533697
3771.011245,-10214.842000,592.164754,689.485948
3771.011575,-10732.986159,740.205942,536.266849
3771.011905,-10658.965565,222.061783,0.000000
3771.012235,-10955.047942,0.000000,-229.828649
3771.012564,-10066.800811,74.020594,689.485948
3771.012894,-9918.759623,814.226536,995.924147
3771.013224,-10584.944971,962.267725,1225.752797
3771.013554,-10288.862594,1184.329507,612.876398
3771.013884,-11103.089130,592.164754,-383.047749
3771.014214,-10881.027347,888.247130,-459.657299
3771.014543,-10214.842000,74.020594,612.876398
3771.014873,-9474.636058,296.082377,1455.581446
3771.015203,-9252.574275,-148.041188,2145.067394
3771.015533,-8364.327145,888.247130,1915.238745
3771.015863,-10214.842000,1406.391290,1915.238745
3771.016192,-11177.109724,888.247130,0.000000
3771.016522,-11177.109724,296.082377,-383.047749
3771.016852,-10510.924376,1406.391290,919.314598
3771.017182,-9400.615463,592.164754,919.314598
3771.017512,-8438.347739,592.164754,612.876398
3771.017841,-7920.203579,148.041188,-995.924147
3771.018171,-8364.327145,592.164754,-1915.238745
3771.018501,-8586.388927,370.102971,-1302.362347
3771.018831,-9104.533087,888.247130,-76.609550
3771.019161,-8956.491898,444.123565,383.047749
3771.019490,-8734.430116,740.205942,1149.143247
3771.019820,-9104.533087,962.267725,-383.047749
3771.020150,-10066.800811,148.041188,-1378.971896
3771.020480,-10510.924376,370.102971,-689.485948
3771.020810,-9992.780217,666.185348,995.924147
3771.021139,-10066.800811,814.226536,1762.019645
3771.021469,-9474.636058,962.267725,1455.581446
3771.021799,-9992.780217,1110.308913,0.000000
3771.022129,-9770.718434,666.185348,-1302.362347
3771.022459,-9696.697840,518.144159,-995.924147
3771.022788,-10584.944971,1554.432478,1072.533697
3771.023118,-11251.130318,1406.391290,1991.848295
3771.023448,-10510.924376,1628.453072,1532.190996
3771.023778,-10288.862594,962.267725,-153.219100
3771.024108,-11251.130318,740.205942,-1915.238745
3771.024438,-10881.027347,74.020594,-766.095498
3771.024767,-11029.068536,370.102971,1915.238745
3771.025097,-10658.965565,74.020594,3217.601092
3771.025427,-9400.615463,148.041188,2757.943793
3771.025757,-9252.574275,0.000000,1685.410096
3771.026087,-9030.512492,-740.205942,229.828649
3771.026416,-9104.533087,0.000000,306.438199
3771.026746,-9548.656652,518.144159,1225.752797
3771.027076,-9770.718434,-74.020594,1302.362347
3771.027406,-9178.553681,-296.082377,689.485948
3771.027736,-9252.574275,-74.020594,-306.438199
3771.028065,-9548.656652,-740.205942,-1532.190996
3771.028395,-9178.553681,-1036.288319,-1225.752797
3771.028725,-8216.285956,-888.247130,-842.705048
3771.029055,-8068.244768,-962.267725,-612.876398
3771.029385,-7772.162391,-740.205942,0.000000
3771.029714,-8734.430116,-740.205942,-76.609550
3771.030044,-10288.862594,-1110.308913,-995.924147
3771.030374,-10066.800811,-518.144159,306.438199
3771.030704,-10066.800811,-518.144159,612.876398
3771.031034,-10214.842000,-518.144159,306.438199
3771.031363,-9844.739029,-370.102971,229.828649
3771.031693,-10288.862594,-74.020594,842.705048
3771.032023,-11103.089130,0.000000,229.828649
3771.032353,-10955.047942,0.000000,-153.219100
3771.032683,-10881.027347,-74.020594,-306.438199
3771.033013,-10066.800811,148.041188,383.047749
3771.033342,-9844.739029,0.000000,306.438199
3771.033672,-11029.068536,74.020594,0.000000
3771.034002,-11473.192101,-444.123565,-766.095498
3771.034332,-10288.862594,-444.123565,229.828649
3771.034662,-9770.718434,-518.144159,919.314598
3771.034991,-10066.800811,-518.144159,1149.143247
3771.035321,-9770.718434,-740.205942,995.924147
3771.035651,-9474.636058,-518.144159,612.876398
3771.035981,-9918.759623,-444.123565,0.000000
3771.036311,-9844.739029,-666.185348,0.000000
3771.036640,-10436.903782,-370.102971,689.485948
3771.036970,-9622.677246,-740.205942,536.266849
3771.037300,-8586.388927,-592.164754,-459.657299
3771.037630,-8290.306550,-740.205942,-1685.410096
3771.037960,-8586.388927,-962.267725,-2068.457845
3771.038289,-8068.244768,-666.185348,-766.095498
3771.038619,-8364.327145,-444.123565,0.000000
3771.038949,-8512.368333,-518.144159,0.000000
3771.039279,-8956.491898,-148.041188,0.000000
3771.039609,-9622.677246,-444.123565,-306.438199
3771.039938,-10362.883188,-296.082377,-1378.971896
3771.040268,-10066.800811,-444.123565,-1072.533697
3771.040598,-9622.677246,-296.082377,153.219100
3771.040928,-9326.594869,222.061783,1225.752797
3771.041258,-9326.594869,222.061783,995.924147
3771.041587,-10066.800811,962.267725,0.000000
3771.041917,-10881.027347,444.123565,-919.314598
3771.042247,-10955.047942,1036.288319,-459.657299
3771.042577,-10955.047942,666.185348,153.219100
3771.042907,-10955.047942,814.226536,766.095498
3771.043237,-10066.800811,740.205942,1149.143247
3771.043566,-9844.739029,1110.308913,383.047749
3771.043896,-10214.842000,0.000000,-919.314598
3771.044226,-11029.068536,814.226536,536.266849
3771.044556,-11473.192101,666.185348,1608.800546
3771.044886,-10510.924376,0.000000,1991.848295
3771.045215,-9474.636058,444.123565,2374.896044
3771.045545,-9844.739029,518.144159,2298.286494
3771.045875,-9918.759623,74.020594,1455.581446
3771.046205,-9104.533087,148.041188,689.485948
3771.046535,-9178.553681,370.102971,919.314598
3771.046864,-8956.491898,518.144159,689.485948
3771.047194,-9030.512492,888.247130,842.705048
3771.047524,-10288.862594,814.226536,229.828649
3771.047854,-9992.780217,-148.041188,-1532.190996
3771.048184,-8438.347739,148.041188,-1225.752797
3771.048513,-8956.491898,-222.061783,-1915.238745
3771.048843,-8216.285956,-592.164754,-842.705048
3771.049173,-7476.080014,74.020594,995.924147
3771.049503,-8364.327145,518.144159,1072.533697
3771.049833,-9474.636058,444.123565,0.000000
3771.050162,-10955.047942,814.226536,-383.047749
3771.050492,-10955.047942,222.061783,-76.609550
3771.050822,-10288.862594,370.102971,842.705048
3771.051152,-9770.718434,148.041188,1225.752797
3771.051482,-9844.739029,0.000000,1225.752797
3771.051811,-10140.821405,222.061783,76.609550
3771.052141,-10066.800811,962.267725,-536.266849
3771.052471,-10658.965565,888.247130,-766.095498
3771.052801,-11695.253884,1332.370696,-459.657299
3771.053131,-10955.047942,1184.329507,153.219100
3771.053460,-10881.027347,888.247130,919.314598
3771.053790,-9622.677246,74.020594,689.485948
3771.054120,-10658.965565,0.000000,76.609550
3771.054450,-10140.821405,-518.144159,0.000000
3771.054780,-8808.450710,-814.226536,612.876398
3771.055109,-9400.615463,0.000000,2374.896044
3771.055439,-10362.883188,-370.102971,2681.334243
3771.055769,-10658.965565,0.000000,2374.896044
3771.056099,-9474.636058,-296.082377,766.095498
3771.056429,-9622.677246,-518.144159,-842.705048
3771.056758,-9326.594869,-740.205942,-1302.362347
3771.057088,-9622.677246,-888.247130,383.047749
3771.057418,-8808.450710,-296.082377,612.876398
3771.057748,-7846.182985,-888.247130,-536.266849
3771.058078,-8068.244768,222.061783,-2451.505594
3771.058407,-9104.533087,-666.185348,-2911.162892
3771.058737,-9252.574275,0.000000,-1991.848295
3771.059067,-8586.388927,-1036.288319,-766.095498
3771.059397,-9696.697840,-518.144159,612.876398
3771.059727,-9252.574275,-1036.288319,612.876398
3771.060056,-9252.574275,-1184.329507,153.219100
3771.060386,-9252.574275,-888.247130,-229.828649
3771.060716,-8660.409521,-740.205942,-306.438199
3771.061046,-9400.615463,0.000000,0.000000
3771.061376,-9992.780217,222.061783,612.876398
3771.061706,-10510.924376,222.061783,1532.190996
3771.062035,-11103.089130,444.123565,1302.362347
3771.062365,-11103.089130,148.041188,0.000000
3771.062695,-10732.986159,0.000000,-842.705048
3771.063025,-10362.883188,296.082377,-306.438199
3771.063355,-10436.903782,0.000000,306.438199
3771.063684,-10658.965565,0.000000,1225.752797
3771.064014,-10881.027347,592.164754,1915.238745
3771.064344,-11103.089130,148.041188,1608.800546
3771.064674,-10955.047942,370.102971,919.314598
3771.065004,-10288.862594,0.000000,536.266849
3771.065333,-9770.718434,0.000000,0.000000
3771.065663,-8956.491898,-296.082377,612.876398
3771.065993,-8956.491898,-370.102971,995.924147
3771.066323,-9178.553681,-444.123565,919.314598
3771.066653,-8586.388927,-296.082377,306.438199
3771.066982,-9326.594869,-592.164754,-612.876398
3771.067312,-8882.471304,-814.226536,-1302.362347
3771.067642,-8734.430116,-814.226536,-995.924147
3771.067972,-8290.306550,-370.102971,-229.828649
3771.068302,-8660.409521,0.000000,383.047749
3771.068631,-9252.574275,-518.144159,536.266849
3771.068961,-9178.553681,-296.082377,-689.485948
3771.069291,-8216.285956,-222.061783,-1608.800546
3771.069621,-9030.512492,148.041188,-919.314598
3771.069951,-10214.842000,148.041188,0.000000
3771.070280,-9918.759623,0.000000,306.438199
3771.070610,-8586.388927,222.061783,459.657299
3771.070940,-9252.574275,518.144159,0.000000
3771.071270,-11325.150913,296.082377,-153.219100
3771.071600,-11621.233289,74.020594,229.828649
3771.071929,-10510.924376,444.123565,306.438199
3771.072259,-9474.636058,296.082377,383.047749
3771.072589,-10140.821405,592.164754,995.924147
3771.072919,-10881.027347,962.267725,1149.143247
3771.073249,-10510.924376,1332.370696,229.828649
3771.073578,-10510.924376,1036.288319,229.828649
3771.073908,-11251.130318,1110.308913,995.924147
3771.074238,-11399.171507,518.144159,1532.190996
3771.074568,-10436.903782,444.123565,1225.752797
3771.074898,-9548.656652,0.000000,306.438199
3771.075227,-9326.594869,-222.061783,306.438199
3771.075557,-9104.533087,148.041188,1302.362347
3771.075887,-9992.780217,444.123565,689.485948
3771.076217,-9844.739029,740.205942,0.000000
3771.076547,-8956.491898,0.000000,842.705048
3771.076876,-9400.615463,518.144159,306.438199
3771.077206,-8586.388927,0.000000,-459.657299
3771.077536,-9252.574275,148.041188,-612.876398
3771.077866,-9104.533087,-370.102971,-995.924147
3771.078196,-8660.409521,-518.144159,-995.924147
3771.078525,-7476.080014,-444.123565,-536.266849
3771.078855,-7994.224174,74.020594,306.438199
3771.079185,-9474.636058,-296.082377,153.219100
3771.079515,-9326.594869,222.061783,0.000000
3771.079845,-8586.388927,148.041188,-612.876398
3771.080174,-9696.697840,222.061783,-995.924147
3771.080504,-9622.677246,0.000000,153.219100
3771.080834,-10288.862594,518.144159,1455.581446
3771.081164,-10658.965565,444.123565,919.314598
3771.081494,-10214.842000,740.205942,919.314598
3771.081823,-10732.986159,1184.329507,995.924147
3771.082153,-11029.068536,1036.288319,-306.438199
3771.082483,-10955.047942,888.247130,-459.657299
3771.082813,-11547.212695,1258.350101,-383.047749
3771.083143,-11621.233289,518.144159,0.000000
3771.083472,-10732.986159,370.102971,1991.848295
3771.083802,-10362.883188,74.020594,1762.019645
3771.084132,-10288.862594,-74.020594,536.266849
3771.084462,-9918.759623,-444.123565,229.828649
3771.084792,-10066.800811,-222.061783,995.924147
3771.085121,-10214.842000,-592.164754,2145.067394
3771.085451,-9770.718434,0.000000,2145.067394
3771.085781,-9992.780217,0.000000,1532.190996
3771.086111,-9622.677246,-148.041188,-76.609550
3771.086441,-8586.388927,222.061783,-919.314598
3771.086770,-8956.491898,-296.082377,-995.924147
3771.087100,-9178.553681,-1110.308913,-229.828649
3771.087430,-8438.347739,-296.082377,-459.657299
3771.087760,-8142.265362,-592.164754,-1149.143247
3771.088090,-8216.285956,-888.247130,-1378.971896
3771.088419,-9030.512492,-814.226536,-919.314598
3771.088749,-9252.574275,-962.267725,-612.876398
3771.089079,-8586.388927,-962.267725,-383.047749
3771.089409,-8512.368333,296.082377,1532.190996
3771.089739,-10066.800811,74.020594,2298.286494
3771.090068,-10732.986159,222.061783,1532.190996
3771.090398,-9770.718434,0.000000,-306.438199
3771.090728,-10362.883188,444.123565,-1225.752797
3771.091058,-11177.109724,0.000000,-689.485948
3771.091388,-11029.068536,370.102971,1302.362347
3771.091717,-10510.924376,222.061783,1072.533697
3771.092047,-9474.636058,592.164754,-383.047749
3771.092377,-9696.697840,0.000000,-1608.800546
3771.092707,-11029.068536,592.164754,-919.314598
3771.093037,-10955.047942,0.000000,0.000000
3771.093366,-10140.821405,666.185348,1915.238745
3771.093696,-10658.965565,518.144159,1991.848295
3771.094026,-10807.006753,-222.061783,1685.410096
3771.094356,-10214.842000,-296.082377,1608.800546
3771.094686,-10510.924376,-296.082377,1532.190996
3771.095015,-10288.862594,-740.205942,1378.971896
3771.095345,-9770.718434,0.000000,1225.752797
3771.095675,-9400.615463,-148.041188,1378.971896
3771.096005,-9030.512492,0.000000,0.000000
3771.096335,-9918.759623,0.000000,-612.876398
3771.096665,-9178.553681,-592.164754,-2681.334243
3771.096994,-7846.182985,-592.164754,-2451.505594
3771.097324,-7698.141797,-74.020594,-1455.581446
3771.097654,-8512.368333,-444.123565,-229.828649
3771.097984,-8438.347739,-222.061783,0.000000
3771.098314,-9104.533087,-740.205942,-459.657299
3771.098643,-9622.677246,-592.164754,-919.314598
3771.098973,-9844.739029,-444.123565,306.438199
3771.099303,-9992.780217,148.041188,2145.067394
3771.099633,-9696.697840,0.000000,1915.238745
3771.099963,-9474.636058,148.041188,383.047749
3771.100292,-9548.656652,296.082377,-153.219100
3771.100622,-10140.821405,592.164754,-689.485948
3771.100952,-10436.903782,74.020594,0.000000
3771.101282,-10140.821405,962.267725,536.266849
3771.101612,-10066.800811,740.205942,76.609550
3771.101941,-9844.739029,888.247130,0.000000
3771.102271,-10288.862594,888.247130,0.000000
3771.102601,-11621.233289,814.226536,76.609550
3771.102931,-11843.295072,444.123565,842.705048
3771.103261,-11547.212695,666.185348,2068.457845
3771.103590,-10510.924376,148.041188,1608.800546
3771.103920,-9992.780217,0.000000,1608.800546
3771.104250,-9252.574275,74.020594,842.705048
3771.104580,-8956.491898,0.000000,689.485948
3771.104910,-9474.636058,296.082377,1149.143247
3771.105239,-10288.862594,962.267725,1378.971896
3771.105569,-10066.800811,1110.308913,842.705048
3771.105899,-9548.656652,666.185348,-306.438199
3771.106229,-9474.636058,222.061783,-1608.800546
3771.106559,-9622.677246,-222.061783,-1532.190996
3771.106888,-9178.553681,-666.185348,-536.266849
3771.107218,-8290.306550,-666.185348,-229.828649
3771.107548,-8586.388927,0.000000,-459.657299
3771.107878,-7105.977043,-814.226536,-1149.143247
3771.108208,-8068.244768,-740.205942,-1072.533697
3771.108537,-9326.594869,74.020594,0.000000
3771.108867,-9622.677246,0.000000,1225.752797
3771.109197,-10510.924376,370.102971,1072.533697
3771.109527,-9770.718434,-148.041188,459.657299
3771.109857,-9696.697840,74.020594,306.438199
3771.110186,-10288.862594,592.164754,-306.438199
3771.110516,-10955.047942,74.020594,0.000000
3771.110846,-10140.821405,0.000000,536.266849
3771.111176,-10362.883188,592.164754,919.314598
3771.111506,-10955.047942,888.247130,1302.362347
3771.111835,-11251.130318,814.226536,536.266849
3771.112165,-10881.027347,888.247130,-766.095498
3771.112495,-10732.986159,0.000000,-612.876398
3771.112825,-10510.924376,222.061783,919.314598
3771.113155,-10436.903782,222.061783,1838.629195
3771.113484,-11251.130318,444.123565,1915.238745
3771.113814,-10288.862594,74.020594,1378.971896
3771.114144,-10510.924376,-148.041188,229.828649
3771.114474,-10658.965565,-666.185348,153.219100
3771.114804,-9992.780217,-370.102971,1225.752797
3771.115133,-9844.739029,-370.102971,1915.238745
3771.115463,-8660.409521,-296.082377,1302.362347
3771.115793,-8734.430116,-444.123565,0.000000
3771.116123,-9178.553681,-148.041188,-1225.752797
3771.116453,-9548.656652,-666.185348,-1838.629195
3771.116782,-8734.430116,-740.205942,-229.828649
3771.117112,-8216.285956,-1184.329507,383.047749
3771.117442,-8216.285956,-444.123565,-383.047749
3771.117772,-7846.182985,-814.226536,-995.924147
3771.118102,-9104.533087,-444.123565,-1455.581446
3771.118431,-9178.553681,-740.205942,-1685.410096
3771.118761,-9548.656652,-370.102971,-536.266849
3771.119091,-10140.821405,740.205942,1532.190996
3771.119421,-9548.656652,148.041188,919.314598
3771.119751,-9474.636058,592.164754,153.219100
3771.120080,-10140.821405,296.082377,-1838.629195
3771.120410,-10214.842000,-296.082377,-1915.238745
3771.120740,-10510.924376,0.000000,459.657299
3771.121070,-10584.944971,814.226536,1991.848295
3771.121400,-10807.006753,518.144159,1149.143247
3771.121729,-10510.924376,1036.288319,612.876398
3771.122059,-11177.109724,518.144159,-536.266849
3771.122389,-11621.233289,222.061783,-612.876398
3771.122719,-11029.068536,296.082377,919.314598
3771.123049,-10881.027347,74.020594,2298.286494
3771.123378,-10214.842000,296.082377,1762.019645
3771.123708,-9178.553681,0.000000,2068.457845
3771.124038,-9622.677246,74.020594,1149.143247
3771.124368,-10140.821405,-814.226536,-153.219100
3771.124698,-9696.697840,296.082377,153.219100
3771.125027,-9178.553681,-814.226536,1378.971896
3771.125357,-9252.574275,0.000000,1072.533697
3771.125687,-9326.594869,-370.102971,536.266849
3771.126017,-9622.677246,-148.041188,-919.314598
3771.126347,-9178.553681,-814.226536,-2451.505594
3771.126676,-8586.388927,-592.164754,-1302.362347
3771.127006,-9178.553681,-444.123565,229.828649
3771.127336,-8660.409521,-666.185348,689.485948
3771.127666,-7698.141797,-74.020594,536.266849
3771.127996,-8068.244768,-74.020594,-689.485948
3771.128325,-9104.533087,-222.061783,-2068.457845
3771.128655,-9548.656652,-222.061783,-306.438199
3771.128985,-9770.718434,148.041188,536.266849
3771.129315,-9770.718434,1628.453072,2068.457845
3771.129645,-11177.109724,1258.350101,1072.533697
3771.129974,-10955.047942,518.144159,-1378.971896
3771.130304,-10288.862594,0.000000,-1762.019645
3771.130634,-9622.677246,1184.329507,383.047749
3771.130964,-11029.068536,962.267725,995.924147
3771.131294,-11103.089130,1036.288319,1378.971896
3771.131624,-9844.739029,962.267725,1532.190996
3771.131953,-10288.862594,1702.473667,76.609550
3771.132283,-11547.212695,888.247130,-842.705048
3771.132613,-11695.253884,1036.288319,0.000000
3771.132943,-10510.924376,814.226536,1838.629195
3771.133273,-9622.677246,740.205942,2145.067394
3771.133602,-10066.800811,0.000000,2834.553343
3771.133932,-10436.903782,74.020594,1532.190996
3771.134262,-10066.800811,0.000000,-306.438199
3771.134592,-9548.656652,592.164754,76.609550
3771.134922,-9918.759623,74.020594,919.314598
3771.135251,-9252.574275,296.082377,1608.800546
3771.135581,-7920.203579,222.061783,689.485948
3771.135911,-8882.471304,518.144159,-536.266849
3771.136241,-9474.636058,0.000000,-1762.019645
3771.136571,-8808.450710,-444.123565,-1455.581446
3771.136900,-8660.409521,0.000000,-766.095498
3771.137230,-8882.471304,74.020594,229.828649
3771.137560,-8586.388927,-74.020594,842.705048
3771.137890,-9104.533087,370.102971,229.828649
3771.138220,-9474.636058,74.020594,-1149.143247
3771.138549,-9918.759623,0.000000,-612.876398
3771.138879,-10288.862594,1036.288319,459.657299
3771.139209,-9696.697840,370.102971,612.876398
3771.139539,-9178.553681,814.226536,842.705048
3771.139869,-9770.718434,1036.288319,-229.828649
3771.140198,-10807.006753,814.226536,-1149.143247
3771.140528,-11325.150913,888.247130,-1455.581446
3771.140858,-11029.068536,444.123565,-842.705048
3771.141188,-10436.903782,0.000000,0.000000
3771.141518,-10066.800811,518.144159,1225.752797
3771.141847,-10362.883188,370.102971,766.095498
3771.142177,-9992.780217,-444.123565,306.438199
3771.142507,-10362.883188,0.000000,-383.047749
3771.142837,-10436.903782,-518.144159,459.657299
3771.143167,-10584.944971,0.000000,2528.115143
3771.143496,-10140.821405,0.000000,2757.943793
3771.143826,-10436.903782,-296.082377,1915.238745
3771.144156,-9548.656652,-592.164754,153.219100
3771.144486,-9844.739029,-518.144159,153.219100
3771.144816,-10510.924376,-370.102971,-459.657299
3771.145145,-8956.491898,-592.164754,153.219100
3771.145475,-9030.512492,0.000000,76.609550
3771.145805,-8808.450710,-370.102971,-919.314598
3771.146135,-8142.265362,-962.267725,-1991.848295
3771.146465,-8660.409521,-740.205942,-1532.190996
3771.146794,-9696.697840,-666.185348,-306.438199
3771.147124,-9030.512492,-222.061783,306.438199
3771.147454,-8660.409521,0.000000,0.000000
3771.147784,-8956.491898,-370.102971,-383.047749
3771.148114,-9252.574275,-740.205942,0.000000
3771.148443,-10436.903782,0.000000,383.047749
3771.148773,-11251.130318,-592.164754,612.876398
3771.149103,-9474.636058,-518.144159,229.828649
3771.149433,-8734.430116,-444.123565,383.047749
3771.149763,-9622.677246,-222.061783,0.000000
3771.150092,-9918.759623,148.041188,-383.047749
3771.150422,-10362.883188,296.082377,-919.314598
3771.150752,-10066.800811,222.061783,-612.876398
3771.151082,-9992.780217,296.082377,536.266849
3771.151412,-10807.006753,1036.288319,1685.410096
3771.151741,-11695.253884,74.020594,842.705048
3771.152071,-11621.233289,74.020594,536.266849
3771.152401,-10436.903782,-444.123565,306.438199
3771.152731,-10362.883188,-444.123565,612.876398
3771.153061,-9696.697840,0.000000,1455.581446
3771.153390,-9474.636058,0.000000,1608.800546
3771.153720,-9326.594869,-370.102971,1608.800546
3771.154050,-9474.636058,222.061783,1302.362347
3771.154380,-9548.656652,296.082377,612.876398
3771.154709,-10658.965565,148.041188,306.438199
3771.155039,-10140.821405,518.144159,995.924147
3771.155369,-9474.636058,-74.020594,919.314598
3771.155699,-9474.636058,74.020594,-153.219100
3771.156029,-9178.553681,-222.061783,-766.095498
3771.156358,-9918.759623,0.000000,-1532.190996
3771.156688,-8438.347739,-222.061783,-1991.848295
3771.157018,-7698.141797,0.000000,-1149.143247
3771.157348,-8290.306550,518.144159,0.000000
3771.157677,-9326.594869,148.041188,383.047749
3771.158007,-9030.512492,0.000000,612.876398
3771.158337,-9622.677246,148.041188,459.657299
3771.158667,-9696.697840,222.061783,766.095498
3771.158997,-9622.677246,444.123565,1302.362347
3771.159326,-10140.821405,666.185348,1149.143247
3771.159656,-10066.800811,296.082377,76.609550
3771.159986,-10288.862594,888.247130,306.438199
3771.160316,-11325.150913,1332.370696,459.657299
3771.160645,-11473.192101,1184.329507,0.000000
3771.160975,-10584.944971,814.226536,-459.657299
3771.161305,-10288.862594,1332.370696,-612.876398
3771.161635,-9918.759623,740.205942,-842.705048
3771.161965,-9030.512492,1110.308913,459.657299
3771.162294,-9622.677246,1258.350101,1149.143247
3771.162624,-10658.965565,740.205942,689.485948
3771.162954,-10288.862594,962.267725,919.314598
3771.163284,-10732.986159,888.247130,1302.362347
3771.163614,-11251.130318,666.185348,1072.533697
3771.163943,-9696.697840,444.123565,689.485948
3771.164273,-9844.739029,518.144159,536.266849
3771.164603,-9844.739029,296.082377,0.000000
3771.164933,-9400.615463,74.020594,-229.828649
3771.165262,-8956.491898,74.020594,-306.438199
3771.165592,-8364.327145,0.000000,-306.438199
3771.165922,-8586.388927,74.020594,536.266849
3771.166252,-9326.594869,74.020594,0.000000
3771.166582,-9918.759623,0.000000,-1378.971896
3771.166911,-9252.574275,-296.082377,-1149.143247
3771.167241,-9104.533087,-148.041188,-689.485948
3771.167571,-9104.533087,-518.144159,-612.876398
3771.167901,-9400.615463,-592.164754,229.828649
3771.168230,-9178.553681,-592.164754,766.095498
3771.168560,-9326.594869,-666.185348,1455.581446
3771.168890,-9622.677246,0.000000,306.438199
3771.169220,-9992.780217,0.000000,536.266849
3771.169550,-9770.718434,-370.102971,306.438199
3771.169879,-9474.636058,518.144159,995.924147
3771.170209,-10955.047942,370.102971,995.924147
3771.170539,-11251.130318,0.000000,0.000000
3771.170869,-10732.986159,-592.164754,-612.876398
3771.171199,-10807.006753,-222.061783,0.000000
3771.171528,-9696.697840,-370.102971,919.314598
3771.171858,-10658.965565,0.000000,2145.067394
3771.172188,-10436.903782,-444.123565,1532.190996
3771.172518,-9992.780217,-666.185348,76.609550
3771.172847,-9474.636058,-666.185348,76.609550
3771.173177,-10214.842000,-370.102971,689.485948
3771.173507,-9770.718434,-222.061783,459.657299
3771.173837,-8734.430116,-148.041188,383.047749
3771.174167,-9770.718434,-148.041188,229.828649
3771.174496,-9770.718434,0.000000,-919.314598
3771.174826,-9622.677246,-518.144159,0.000000
3771.175156,-10362.883188,-666.185348,229.828649
3771.175486,-9918.759623,-1628.453072,612.876398
3771.175815,-9178.553681,-1332.370696,1455.581446
3771.176145,-8586.388927,-1110.308913,459.657299
3771.176475,-8216.285956,-666.185348,-1302.362347
3771.176805,-8660.409521,-666.185348,-919.314598
3771.177135,-9770.718434,222.061783,-229.828649
3771.177464,-9770.718434,-444.123565,-306.438199
3771.177794,-9400.615463,0.000000,383.047749
3771.178124,-9918.759623,222.061783,536.266849
3771.178454,-9844.739029,-222.061783,-153.219100
3771.178783,-9548.656652,148.041188,-536.266849
3771.179113,-10510.924376,296.082377,76.609550
3771.179443,-10658.965565,148.041188,306.438199
3771.179773,-10214.842000,814.226536,1378.971896
3771.180103,-10362.883188,814.226536,0.000000
3771.180432,-11103.089130,962.267725,0.000000
3771.180762,-11325.150913,888.247130,612.876398
3771.181092,-10732.986159,666.185348,229.828649
3771.181422,-9770.718434,444.123565,459.657299
3771.181752,-9178.553681,962.267725,919.314598
3771.182081,-10214.842000,740.205942,919.314598
3771.182411,-10288.862594,518.144159,306.438199
3771.182741,-10066.800811,592.164754,153.219100
3771.183071,-10584.944971,518.144159,306.438199
3771.183400,-9474.636058,0.000000,0.000000
3771.183730,-8956.491898,222.061783,306.438199
3771.184060,-9326.594869,814.226536,383.047749
3771.184390,-10066.800811,814.226536,-383.047749
3771.184720,-9992.780217,592.164754,-689.485948
3771.185049,-9622.677246,222.061783,-842.705048
3771.185379,-8808.450710,222.061783,-612.876398
3771.185709,-8290.306550,296.082377,612.876398
3771.186039,-8586.388927,0.000000,612.876398
3771.186368,-8586.388927,0.000000,153.219100
3771.186698,-8438.347739,222.061783,-919.314598
3771.187028,-9844.739029,296.082377,-306.438199
3771.187358,-10140.821405,0.000000,-766.095498
3771.187688,-9622.677246,222.061783,306.438199
3771.188017,-9252.574275,222.061783,536.266849
3771.188347,-8586.388927,-370.102971,-689.485948
3771.188677,-9696.697840,0.000000,-306.438199
3771.189007,-10362.883188,0.000000,153.219100
3771.189337,-10436.903782,0.000000,459.657299
3771.189666,-10658.965565,814.226536,1455.581446
3771.189996,-11917.315666,444.123565,1455.581446
3771.190326,-11547.212695,0.000000,612.876398
3771.190656,-10140.821405,-148.041188,153.219100
3771.190985,-10140.821405,-592.164754,-306.438199
3771.191315,-9918.759623,-518.144159,383.047749
3771.191645,-10214.842000,0.000000,1455.581446
3771.191975,-10140.821405,-518.144159,2068.457845
3771.192305,-9474.636058,0.000000,995.924147
3771.192634,-9844.739029,148.041188,306.438199
3771.192964,-10214.842000,-296.082377,-383.047749
3771.193294,-9622.677246,-666.185348,229.828649
3771.193624,-9696.697840,-888.247130,1072.533697
3771.193953,-9696.697840,-518.144159,919.314598
3771.194283,-9252.574275,-592.164754,306.438199
3771.194613,-9844.739029,-222.061783,-306.438199
3771.194943,-9844.739029,-296.082377,-612.876398
3771.195273,-9178.553681,-370.102971,-842.705048
3771.195602,-9770.718434,-148.041188,153.219100
3771.195932,-9548.656652,-814.226536,-689.485948
3771.196262,-8882.471304,-1332.370696,-842.705048
3771.196592,-7920.203579,-1036.288319,-229.828649
3771.196921,-8438.347739,-1184.329507,0.000000
3771.197251,-7846.182985,-962.267725,76.609550
3771.197581,-9474.636058,-296.082377,1608.800546
3771.197911,-11029.068536,0.000000,1455.581446
3771.198241,-10955.047942,-148.041188,842.705048
3771.198570,-11547.212695,0.000000,383.047749
3771.198900,-10807.006753,-666.185348,383.047749
3771.199230,-10066.800811,-148.041188,766.095498
3771.199560,-10140.821405,370.102971,919.314598
3771.199890,-9918.759623,222.061783,76.609550
3771.200219,-10436.903782,444.123565,0.000000
3771.200549,-10436.903782,518.144159,-153.219100
3771.200879,-11325.150913,0.000000,229.828649
3771.201209,-10584.944971,444.123565,766.095498
3771.201538,-10510.924376,370.102971,1225.752797
3771.201868,-10436.903782,222.061783,459.657299
3771.202198,-8808.450710,0.000000,76.609550
3771.202528,-9770.718434,222.061783,-229.828649
3771.202858,-10362.883188,370.102971,383.047749
3771.203187,-9474.636058,222.061783,1072.533697
3771.203517,-9252.574275,666.185348,459.657299
3771.203847,-9104.533087,740.205942,-536.266849
3771.204177,-9326.594869,222.061783,-1532.190996
3771.204506,-9326.594869,0.000000,-2221.676944
3771.204836,-9030.512492,0.000000,-1225.752797
3771.205166,-8438.347739,-296.082377,153.219100
3771.205496,-8290.306550,296.082377,612.876398
3771.205826,-8364.327145,-148.041188,76.609550
3771.206155,-8808.450710,370.102971,-536.266849
3771.206485,-9326.594869,666.185348,-1915.238745
3771.206815,-10066.800811,0.000000,-1225.752797
3771.207145,-9326.594869,222.061783,0.000000
3771.207475,-9548.656652,296.082377,919.314598
3771.207804,-9474.636058,222.061783,689.485948
3771.208134,-9178.553681,222.061783,229.828649
3771.208464,-10214.842000,962.267725,-76.609550
3771.208794,-10658.965565,-148.041188,0.000000
3771.209123,-10214.842000,592.164754,919.314598
3771.209453,-11177.109724,740.205942,1455.581446
3771.209783,-10955.047942,888.247130,1608.800546
3771.210113,-11029.068536,444.123565,1378.971896
3771.210443,-10288.862594,370.102971,-459.657299
3771.210772,-10066.800811,74.020594,-842.705048
3771.211102,-10510.924376,740.205942,1378.971896
3771.211432,-11695.253884,370.102971,2681.334243
3771.211762,-10955.047942,0.000000,2068.457845
3771.212091,-9474.636058,-370.102971,919.314598
3771.212421,-9400.615463,-74.020594,612.876398
3771.212751,-9400.615463,-814.226536,0.000000
3771.213081,-8512.368333,-296.082377,1225.752797
3771.213411,-9030.512492,-222.061783,1532.190996
3771.213740,-10140.821405,148.041188,1838.629195
3771.214070,-9548.656652,222.061783,1225.752797
3771.214400,-9844.739029,0.000000,-842.705048
3771.214730,-9400.615463,0.000000,-2374.896044
3771.215059,-8734.430116,0.000000,-995.924147
3771.215389,-8660.409521,0.000000,-766.095498
3771.215719,-9178.553681,0.000000,-842.705048
3771.216049,-8586.388927,0.000000,-1455.581446
3771.216379,-8882.471304,370.102971,-1149.143247
3771.216708,-8734.430116,296.082377,-1302.362347
3771.217038,-9030.512492,666.185348,612.876398
3771.217368,-10955.047942,814.226536,1149.143247
3771.217698,-11177.109724,888.247130,1455.581446
3771.218028,-11103.089130,592.164754,1378.971896
3771.218357,-10807.006753,1110.308913,76.609550
3771.218687,-9622.677246,0.000000,153.219100
3771.219017,-10658.965565,1110.308913,1455.581446
3771.219347,-11325.150913,814.226536,1915.238745
3771.219676,-10881.027347,888.247130,842.705048
3771.220006,-9548.656652,888.247130,153.219100
3771.220336,-10362.883188,888.247130,-153.219100
3771.220666,-11177.109724,444.123565,-306.438199
3771.220996,-10510.924376,962.267725,1608.800546
3771.221325,-10288.862594,74.020594,1455.581446
3771.221655,-9252.574275,296.082377,536.266849
3771.221985,-8882.471304,0.000000,306.438199
3771.222315,-9770.718434,-370.102971,383.047749
3771.222644,-9548.656652,0.000000,919.314598
3771.222974,-9992.780217,0.000000,1225.752797
3771.223304,-9622.677246,74.020594,536.266849
3771.223634,-8956.491898,-370.102971,-153.219100
3771.223964,-8216.285956,-222.061783,-1072.533697
3771.224293,-8956.491898,0.000000,-919.314598
3771.224623,-9474.636058,0.000000,-1072.533697
3771.224953,-8364.327145,-370.102971,-842.705048
3771.225283,-8216.285956,148.041188,-1302.362347
3771.225612,-8956.491898,444.123565,-1685.410096
3771.225942,-9918.759623,148.041188,-1455.581446
3771.226272,-9918.759623,0.000000,-1838.629195
3771.226602,-9030.512492,-888.247130,-1225.752797
3771.226932,-8956.491898,-518.144159,76.609550
3771.227261,-9918.759623,-518.144159,689.485948
3771.227591,-10362.883188,-222.061783,229.828649
3771.227921,-9622.677246,-222.061783,-383.047749
3771.228251,-10066.800811,0.000000,-459.657299
3771.228581,-10288.862594,-666.185348,0.000000
3771.228910,-10955.047942,148.041188,1072.533697
3771.229240,-11251.130318,518.144159,995.924147
3771.229570,-10288.862594,296.082377,-459.657299
3771.229900,-10436.903782,0.000000,0.000000
3771.230229,-12139.377449,-370.102971,-383.047749
3771.230559,-11325.150913,-1184.329507,0.000000
3771.230889,-9474.636058,-740.205942,1608.800546
3771.231219,-9178.553681,-1332.370696,2374.896044
3771.231549,-9474.636058,-666.185348,2681.334243
3771.231878,-8882.471304,-666.185348,1915.238745
3771.232208,-9548.656652,74.020594,612.876398
3771.232538,-10362.883188,222.061783,0.000000
3771.232868,-11177.109724,0.000000,766.095498
3771.233197,-10584.944971,-814.226536,1225.752797
3771.233527,-8882.471304,-888.247130,1149.143247
3771.233857,-8512.368333,-666.185348,766.095498
3771.234187,-9030.512492,-962.267725,-536.266849
3771.234517,-8808.450710,-962.267725,-1608.800546
3771.234846,-8364.327145,-296.082377,153.219100
3771.235176,-9104.533087,148.041188,1225.752797
3771.235506,-9548.656652,0.000000,1072.533697
3771.235836,-8956.491898,148.041188,-306.438199
3771.236166,-8882.471304,-74.020594,-1149.143247
3771.236495,-9326.594869,-222.061783,-766.095498
3771.236825,-10214.842000,222.061783,766.095498
3771.237155,-10288.862594,0.000000,1072.533697
3771.237485,-8734.430116,74.020594,995.924147
3771.237814,-8882.471304,962.267725,-153.219100
3771.238144,-10881.027347,962.267725,0.000000
3771.238474,-10658.965565,888.247130,-612.876398
3771.238804,-10436.903782,1184.329507,0.000000
3771.239134,-10436.903782,1036.288319,612.876398
3771.239463,-10955.047942,1110.308913,2068.457845
3771.239793,-11843.295072,1332.370696,1378.971896
3771.240123,-11769.274478,592.164754,0.000000
3771.240453,-9918.759623,74.020594,0.000000
3771.240782,-9622.677246,518.144159,766.095498
3771.241112,-10140.821405,740.205942,2145.067394
3771.241442,-9918.759623,370.102971,2068.457845
3771.241772,-9474.636058,1702.473667,1838.629195
3771.242102,-11473.192101,444.123565,0.000000
3771.242431,-10881.027347,222.061783,-1225.752797
3771.242761,-9696.697840,370.102971,-766.095498
3771.243091,-9400.615463,370.102971,842.705048
3771.243421,-8586.388927,148.041188,1378.971896
3771.243750,-9474.636058,518.144159,766.095498
3771.244080,-10066.800811,666.185348,-1532.190996
3771.244410,-8956.491898,0.000000,-2451.505594
3771.244740,-8956.491898,74.020594,-2068.457845
3771.245070,-9326.594869,0.000000,-995.924147
3771.245399,-9178.553681,0.000000,-612.876398
3771.245729,-8808.450710,148.041188,-842.705048
3771.246059,-8660.409521,-666.185348,-1455.581446
3771.246389,-8512.368333,-518.144159,-1378.971896
3771.246719,-9474.636058,0.000000,-536.266849
3771.247048,-10140.821405,-518.144159,612.876398
3771.247378,-9918.759623,0.000000,1455.581446
3771.247708,-9548.656652,0.000000,1149.143247
3771.248038,-9326.594869,-1258.350101,-306.438199
3771.248367,-9918.759623,-814.226536,-459.657299
3771.248697,-10510.924376,0.000000,842.705048
3771.249027,-10955.047942,-222.061783,919.314598
3771.249357,-10881.027347,-296.082377,689.485948
3771.249687,-10658.965565,0.000000,-229.828649
3771.250016,-11251.130318,-592.164754,-766.095498
3771.250346,-9622.677246,-444.123565,0.000000
3771.250676,-9696.697840,-814.226536,0.000000
3771.251006,-9474.636058,370.102971,612.876398
3771.251336,-9104.533087,296.082377,1149.143247
3771.251665,-10732.986159,1332.370696,153.219100
3771.251995,-10807.006753,0.000000,-689.485948
3771.252325,-10732.986159,0.000000,-842.705048
3771.252655,-11251.130318,-666.185348,76.609550
3771.252985,-10288.862594,-1036.288319,612.876398
3771.253315,-7920.203579,-814.226536,1072.533697
3771.253644,-7328.038826,-518.144159,383.047749
3771.253974,-9030.512492,-296.082377,-536.266849
3771.254304,-10288.862594,0.000000,536.266849
3771.254634,-10140.821405,-444.123565,306.438199
3771.254964,-9622.677246,-740.205942,0.000000
3771.255294,-9104.533087,-962.267725,536.266849
3771.255624,-9326.594869,-888.247130,1532.190996
3771.255953,-8660.409521,-1184.329507,306.438199
3771.256283,-7994.224174,-592.164754,0.000000
3771.256613,-9030.512492,-296.082377,536.266849
3771.256943,-10288.862594,444.123565,1378.971896
3771.257273,-10807.006753,666.185348,2145.067394
3771.257603,-11251.130318,666.185348,1455.581446
3771.257932,-10362.883188,222.061783,153.219100
3771.258262,-10140.821405,222.061783,919.314598
3771.258592,-10510.924376,814.226536,842.705048
3771.258922,-10362.883188,740.205942,689.485948
3771.259252,-11029.068536,666.185348,1072.533697
3771.259582,-10658.965565,1776.494261,306.438199
3771.259911,-10140.821405,666.185348,-306.438199
3771.260241,-9548.656652,1110.308913,-306.438199
3771.260571,-10288.862594,814.226536,229.828649
3771.260901,-10584.944971,518.144159,842.705048
3771.261231,-9696.697840,518.144159,919.314598
3771.261561,-9326.594869,74.020594,0.000000
3771.261890,-9252.574275,0.000000,-76.609550
3771.262220,-8660.409521,0.000000,0.000000
3771.262550,-9992.780217,0.000000,919.314598
3771.262880,-9474.636058,74.020594,612.876398
3771.263210,-9474.636058,518.144159,689.485948
3771.263540,-9770.718434,666.185348,-229.828649
3771.263869,-9030.512492,444.123565,-766.095498
3771.264199,-9104.533087,740.205942,-766.095498
3771.264529,-9548.656652,666.185348,-766.095498
3771.264859,-10140.821405,148.041188,-612.876398
3771.265189,-8956.491898,666.185348,-995.924147
3771.265519,-8438.347739,148.041188,-1378.971896
3771.265848,-9030.512492,592.164754,-1532.190996
3771.266178,-9326.594869,222.061783,76.609550
3771.266508,-10362.883188,962.267725,459.657299
3771.266838,-10362.883188,222.061783,919.314598
3771.267168,-9844.739029,444.123565,766.095498
3771.267498,-10807.006753,666.185348,536.266849
3771.267827,-10732.986159,222.061783,0.000000
3771.268157,-10362.883188,148.041188,689.485948
3771.268487,-10362.883188,296.082377,306.438199
3771.268817,-9992.780217,-296.082377,383.047749
3771.269147,-9696.697840,0.000000,1072.533697
3771.269477,-9844.739029,0.000000,766.095498
3771.269807,-10807.006753,0.000000,383.047749
3771.270136,-10436.903782,0.000000,229.828649
3771.270466,-10066.800811,-592.164754,-536.266849
3771.270796,-9400.615463,-518.144159,-1072.533697
3771.271126,-8882.471304,-444.123565,612.876398
3771.271456,-9622.677246,-296.082377,1685.410096
3771.271786,-10140.821405,-666.185348,995.924147
3771.272115,-10214.842000,-222.061783,459.657299
3771.272445,-9548.656652,-888.247130,0.000000
3771.272775,-9844.739029,-666.185348,-76.609550
3771.273105,-9400.615463,-666.185348,0.000000
3771.273435,-8882.471304,-666.185348,-766.095498
3771.273765,-8290.306550,-666.185348,-1302.362347
3771.274094,-7994.224174,-370.102971,-1225.752797
3771.274424,-9178.553681,0.000000,-1455.581446
3771.274754,-9252.574275,-222.061783,-1685.410096
3771.275084,-8956.491898,-592.164754,-1149.143247
3771.275414,-9622.677246,74.020594,153.219100
3771.275744,-9918.759623,-814.226536,612.876398
3771.276073,-9548.656652,-518.144159,919.314598
3771.276403,-9696.697840,-444.123565,1378.971896
3771.276733,-10066.800811,-518.144159,612.876398
3771.277063,-9992.780217,-592.164754,842.705048
3771.277393,-9918.759623,0.000000,1225.752797
3771.277723,-9030.512492,0.000000,2451.505594
3771.278052,-9992.780217,1110.308913,2298.286494
3771.278382,-11547.212695,1036.288319,1149.143247
3771.278712,-12139.377449,740.205942,-306.438199
3771.279042,-11769.274478,518.144159,-995.924147
3771.279372,-10955.047942,222.061783,229.828649
3771.279702,-10584.944971,-74.020594,1225.752797
3771.280031,-9622.677246,0.000000,1838.629195
3771.280361,-9474.636058,0.000000,919.314598
3771.280691,-9030.512492,-74.020594,-383.047749
3771.281021,-9696.697840,0.000000,-383.047749
3771.281351,-11177.109724,518.144159,919.314598
3771.281681,-10955.047942,-444.123565,1838.629195
3771.282010,-8808.450710,-518.144159,1991.848295
3771.282340,-8364.327145,-814.226536,1532.190996
3771.282670,-8438.347739,-740.205942,0.000000
3771.283000,-9104.533087,-962.267725,-1149.143247
3771.283330,-9474.636058,-444.123565,-842.705048
3771.283660,-9400.615463,-148.041188,0.000000
3771.283990,-9548.656652,148.041188,689.485948
3771.284319,-9252.574275,0.000000,-536.266849
3771.284649,-7994.224174,-666.185348,-2221.676944
3771.284979,-8068.244768,0.000000,-2834.553343
3771.285309,-8808.450710,-148.041188,-2068.457845
3771.285639,-9030.512492,0.000000,-459.657299
3771.285969,-8512.368333,296.082377,1532.190996
3771.286298,-8882.471304,1036.288319,766.095498
3771.286628,-10955.047942,962.267725,306.438199
3771.286958,-11399.171507,666.185348,-1225.752797
3771.287288,-11991.336260,666.185348,-1378.971896
3771.287618,-10807.006753,1110.308913,536.266849
3771.287948,-10881.027347,1332.370696,1685.410096
3771.288277,-10658.965565,740.205942,919.314598
3771.288607,-10214.842000,1036.288319,-612.876398
3771.288937,-9844.739029,148.041188,-1378.971896
3771.289267,-10362.883188,296.082377,-612.876398
3771.289597,-10955.047942,444.123565,689.485948
3771.289927,-11029.068536,592.164754,1302.362347
3771.290256,-9178.553681,0.000000,1608.800546
3771.290586,-8956.491898,74.020594,1608.800546
3771.290916,-9696.697840,666.185348,153.219100
3771.291246,-11103.089130,74.020594,0.000000
3771.291576,-10066.800811,222.061783,1378.971896
3771.291906,-9844.739029,296.082377,2221.676944
3771.292235,-9696.697840,0.000000,1378.971896
3771.292565,-9548.656652,0.000000,459.657299
3771.292895,-8956.491898,-518.144159,-383.047749
3771.293225,-8586.388927,-814.226536,-842.705048
3771.293555,-7846.182985,-666.185348,0.000000
3771.293885,-8660.409521,0.000000,1302.362347
3771.294214,-8438.347739,148.041188,536.266849
3771.294544,-8660.409521,666.185348,-919.314598
3771.294874,-9400.615463,296.082377,-1915.238745
3771.295204,-11029.068536,0.000000,-995.924147
3771.295534,-10584.944971,0.000000,1072.533697
3771.295864,-10288.862594,296.082377,1915.238745
3771.296193,-8956.491898,74.020594,689.485948
3771.296523,-8438.347739,222.061783,-689.485948
3771.296853,-9400.615463,444.123565,-1608.800546
3771.297183,-11029.068536,296.082377,-842.705048
3771.297513,-10214.842000,1110.308913,1685.410096
3771.297843,-10658.965565,518.144159,1608.800546
3771.298173,-11029.068536,444.123565,383.047749
3771.298502,-10584.944971,0.000000,0.000000
3771.298832,-10732.986159,592.164754,-689.485948
3771.299162,-10732.986159,-592.164754,-919.314598
3771.299492,-9696.697840,-518.144159,1072.533697
3771.299822,-10288.862594,-592.164754,2987.772442
3771.300152,-10140.821405,-444.123565,3217.601092
3771.300481,-9918.759623,-370.102971,2528.115143
3771.300811,-10807.006753,-148.041188,76.609550
3771.301141,-10584.944971,-740.205942,-612.876398
3771.301471,-9474.636058,-370.102971,842.705048
3771.301801,-8660.409521,-518.144159,2298.286494
3771.302131,-9178.553681,-370.102971,1225.752797
3771.302460,-9104.533087,0.000000,383.047749
3771.302790,-9326.594869,-518.144159,-1685.410096
3771.303120,-10140.821405,-370.102971,-2528.115143
3771.303450,-9104.533087,-962.267725,-1302.362347
3771.303780,-9474.636058,-222.061783,306.438199
3771.304110,-8882.471304,-666.185348,842.705048
3771.304439,-8438.347739,-740.205942,229.828649
3771.304769,-9474.636058,-888.247130,-306.438199
3771.305099,-9178.553681,-814.226536,-1149.143247
3771.305429,-9178.553681,-74.020594,459.657299
3771.305759,-10510.924376,296.082377,689.485948
3771.306089,-9918.759623,0.000000,536.266849
3771.306418,-9474.636058,74.020594,-459.657299
3771.306748,-9696.697840,518.144159,-2298.286494
3771.307078,-10214.842000,-296.082377,-2145.067394
3771.307408,-10658.965565,0.000000,-153.219100
3771.307738,-11177.109724,0.000000,1608.800546
3771.308068,-10584.944971,-74.020594,1225.752797
3771.308397,-9992.780217,0.000000,306.438199
3771.308727,-10955.047942,0.000000,-536.266849
3771.309057,-10807.006753,-518.144159,-612.876398
3771.309387,-9622.677246,0.000000,1378.971896
3771.309717,-10066.800811,666.185348,2298.286494
3771.310047,-10140.821405,222.061783,1302.362347
3771.310376,-9474.636058,296.082377,229.828649
3771.310706,-9548.656652,0.000000,-1225.752797
3771.311036,-10140.821405,-222.061783,-1072.533697
3771.311366,-9844.739029,-148.041188,689.485948
3771.311696,-9474.636058,-666.185348,1915.238745
3771.312026,-8068.244768,-296.082377,1072.533697
3771.312355,-8068.244768,222.061783,-459.657299
3771.312685,-9400.615463,148.041188,-1608.800546
3771.313015,-9992.780217,-444.123565,-1532.190996
3771.313345,-9252.574275,0.000000,153.219100
3771.313675,-9326.594869,370.102971,1072.533697
3771.314005,-9030.512492,296.082377,1149.143247
3771.314335,-8956.491898,0.000000,1149.143247
3771.314664,-8882.471304,-518.144159,76.609550
3771.314994,-9548.656652,0.000000,-689.485948
3771.315324,-9770.718434,148.041188,76.609550
3771.315654,-9252.574275,666.185348,766.095498
3771.315984,-8660.409521,592.164754,76.609550
3771.316314,-9548.656652,888.247130,536.266849
3771.316643,-10955.047942,814.226536,229.828649
3771.316973,-11399.171507,370.102971,-536.266849
3771.317303,-9844.739029,814.226536,0.000000
3771.317633,-10510.924376,1850.514855,689.485948
3771.317963,-10732.986159,1110.308913,766.095498
3771.318293,-10140.821405,962.267725,459.657299
3771.318622,-11029.068536,1406.391290,0.000000
3771.318952,-11547.212695,814.226536,-612.876398
3771.319282,-10510.924376,1110.308913,229.828649
3771.319612,-9400.615463,370.102971,919.314598
3771.319942,-9252.574275,888.247130,1302.362347
3771.320272,-10732.986159,444.123565,1762.019645
3771.320601,-11251.130318,148.041188,383.047749
3771.320931,-9844.739029,-814.226536,0.000000
3771.321261,-8808.450710,0.000000,842.705048
3771.321591,-9918.759623,296.082377,2145.067394
3771.321921,-9992.780217,222.061783,1455.581446
3771.322251,-9104.533087,74.020594,0.000000
3771.322580,-9030.512492,148.041188,-1455.581446
3771.322910,-9400.615463,-370.102971,-2221.676944
3771.323240,-9252.574275,-74.020594,-995.924147
3771.323570,-9030.512492,-518.144159,766.095498
3771.323900,-7846.182985,-444.123565,919.314598
3771.324230,-8142.265362,-444.123565,0.000000
3771.324559,-9178.553681,-666.185348,-995.924147
3771.324889,-9770.718434,-740.205942,-1838.629195
3771.325219,-9992.780217,-222.061783,919.314598
3771.325549,-10066.800811,0.000000,1991.848295
3771.325879,-9918.759623,222.061783,3217.601092
3771.326209,-10584.944971,148.041188,1532.190996
3771.326538,-10658.965565,-222.061783,-689.485948
3771.326868,-9770.718434,-370.102971,-1532.190996
3771.327198,-10881.027347,666.185348,-612.876398
3771.327528,-11843.295072,222.061783,612.876398
3771.327858,-10510.924376,148.041188,995.924147
3771.328188,-9104.533087,0.000000,153.219100
3771.328518,-10066.800811,222.061783,-1072.533697
3771.328847,-10658.965565,-740.205942,-1149.143247
3771.329177,-10881.027347,-222.061783,306.438199
3771.329507,-10214.842000,-592.164754,1532.190996
3771.329837,-9178.553681,0.000000,2068.457845
3771.330167,-8808.450710,-296.082377,689.485948
3771.330497,-10955.047942,-444.123565,-459.657299
3771.330826,-10140.821405,-518.144159,-536.266849
3771.331156,-9770.718434,-888.247130,536.266849
3771.331486,-9474.636058,-296.082377,-383.047749
3771.331816,-8808.450710,-1036.288319,306.438199
3771.332146,-8142.265362,0.000000,-306.438199
3771.332476,-7994.224174,-814.226536,-1378.971896
3771.332805,-9030.512492,-370.102971,-1378.971896
3771.333135,-9992.780217,-370.102971,-1225.752797
3771.333465,-10066.800811,-444.123565,-919.314598
3771.333795,-8956.491898,-592.164754,-383.047749
3771.334125,-8882.471304,-148.041188,0.000000
3771.334455,-9844.739029,-592.164754,76.609550
3771.334784,-9548.656652,-962.267725,612.876398
3771.335114,-9252.574275,-148.041188,153.219100
3771.335444,-9030.512492,-222.061783,0.000000
3771.335774,-9548.656652,592.164754,842.705048
3771.336104,-10807.006753,888.247130,1455.581446
3771.336434,-11547.212695,592.164754,1149.143247
3771.336763,-10881.027347,0.000000,0.000000
3771.337093,-11621.233289,444.123565,306.438199
3771.337423,-11325.150913,592.164754,766.095498
3771.337753,-10510.924376,888.247130,1072.533697
3771.338083,-9622.677246,518.144159,0.000000
3771.338413,-9696.697840,74.020594,-76.609550
3771.338742,-10510.924376,222.061783,1072.533697
3771.339072,-10807.006753,74.020594,1685.410096
3771.339402,-10288.862594,0.000000,1149.143247
3771.339732,-8882.471304,-222.061783,1762.019645
3771.340062,-8734.430116,222.061783,1532.190996
3771.340392,-10066.800811,-222.061783,1302.362347
3771.340721,-9326.594869,-444.123565,1225.752797
3771.341051,-9178.553681,-444.123565,1532.190996
3771.341381,-8586.388927,0.000000,995.924147
3771.341711,-8068.244768,0.000000,459.657299
3771.342041,-9400.615463,222.061783,0.000000
3771.342371,-9696.697840,0.000000,-995.924147
3771.342701,-9104.533087,518.144159,-766.095498
3771.343030,-9548.656652,296.082377,-1149.143247
3771.343360,-8808.450710,370.102971,-383.047749
3771.343690,-7994.224174,592.164754,0.000000
3771.344020,-9252.574275,814.226536,229.828649
3771.344350,-9696.697840,296.082377,-919.314598
3771.344680,-9104.533087,148.041188,0.000000
3771.345009,-9844.739029,1036.288319,76.609550
3771.345339,-10288.862594,814.226536,1302.362347
3771.345669,-10510.924376,1332.370696,1838.629195
3771.345999,-11029.068536,1184.329507,1225.752797
3771.346329,-11029.068536,1406.391290,229.828649
3771.346659,-10732.986159,814.226536,306.438199
3771.346988,-11621.233289,1184.329507,229.828649
3771.347318,-10881.027347,518.144159,1072.533697
3771.347648,-9548.656652,1110.308913,1225.752797
3771.347978,-10288.862594,1702.473667,1149.143247
3771.348308,-10584.944971,888.247130,-459.657299
3771.348638,-9548.656652,370.102971,-229.828649
3771.348967,-10066.800811,1036.288319,383.047749
3771.349297,-10584.944971,444.123565,1762.019645
3771.349627,-10288.862594,814.226536,2528.115143
3771.349957,-10214.842000,592.164754,2068.457845
3771.350287,-9622.677246,-74.020594,459.657299
3771.350617,-9252.574275,148.041188,995.924147
3771.350946,-10362.883188,296.082377,1302.362347
3771.351276,-9548.656652,370.102971,995.924147
3771.351606,-8438.347739,592.164754,919.314598
3771.351936,-8956.491898,592.164754,0.000000
3771.352266,-9770.718434,74.020594,-1302.362347
3771.352596,-8882.471304,-222.061783,-2221.676944
3771.352925,-8364.327145,74.020594,-2298.286494
3771.353255,-7994.224174,-222.061783,-1072.533697
3771.353585,-8290.306550,222.061783,0.000000
3771.353915,-8734.430116,148.041188,153.219100
3771.354244,-9548.656652,0.000000,-995.924147
3771.354574,-9770.718434,-74.020594,-1302.362347
3771.354904,-10140.821405,444.123565,-842.705048
3771.355234,-9992.780217,-518.144159,0.000000
3771.355564,-10584.944971,0.000000,1685.410096
3771.355893,-10436.903782,0.000000,1991.848295
3771.356223,-10436.903782,-1036.288319,306.438199
3771.356553,-9844.739029,-296.082377,-306.438199
3771.356883,-10584.944971,-296.082377,-1072.533697
3771.357212,-10288.862594,0.000000,-459.657299
3771.357542,-10066.800811,0.000000,842.705048
3771.357872,-10584.944971,370.102971,306.438199
3771.358202,-11029.068536,-444.123565,-842.705048
3771.358531,-11325.150913,-592.164754,-536.266849
3771.358861,-10658.965565,-1184.329507,0.000000
3771.359191,-9104.533087,-1406.391290,383.047749
3771.359521,-8068.244768,-1406.391290,1378.971896
3771.359851,-9474.636058,-814.226536,1991.848295
3771.360180,-9992.780217,-1110.308913,766.095498
3771.360510,-10288.862594,-444.123565,0.000000
3771.360840,-9770.718434,-888.247130,-1072.533697
3771.361170,-10066.800811,-1184.329507,-766.095498
3771.361499,-9474.636058,-666.185348,0.000000
3771.361829,-9104.533087,-1258.350101,306.438199
3771.362159,-7846.182985,-1850.514855,-612.876398
3771.362489,-7624.121203,-1184.329507,-919.314598
3771.362818,-9474.636058,-1184.329507,-1455.581446
3771.363148,-9030.512492,-962.267725,-919.314598
3771.363478,-8734.430116,-518.144159,306.438199
3771.363808,-9474.636058,-148.041188,1149.143247
3771.364138,-9252.574275,-888.247130,536.266849
3771.364467,-9622.677246,-518.144159,842.705048
3771.364797,-10584.944971,0.000000,919.314598
3771.365127,-10066.800811,0.000000,1149.143247
3771.365457,-10362.883188,296.082377,995.924147
3771.365786,-10955.047942,592.164754,1225.752797
3771.366116,-10436.903782,-370.102971,76.609550
3771.366446,-10732.986159,1184.329507,383.047749
3771.366776,-11399.171507,740.205942,-383.047749
3771.367105,-11177.109724,518.144159,-766.095498
3771.367435,-9326.594869,518.144159,-766.095498
3771.367765,-9696.697840,666.185348,612.876398
3771.368095,-10510.924376,740.205942,1455.581446
3771.368425,-11029.068536,888.247130,2604.724693
3771.368754,-10881.027347,74.020594,1608.800546
3771.369084,-9252.574275,148.041188,919.314598
3771.369414,-9178.553681,666.185348,1378.971896
3771.369744,-10881.027347,740.205942,1838.629195
3771.370073,-10436.903782,370.102971,1149.143247
3771.370403,-9252.574275,1110.308913,612.876398
3771.370733,-8660.409521,518.144159,-612.876398
3771.371063,-8290.306550,222.061783,-1149.143247
3771.371393,-8438.347739,888.247130,-689.485948
3771.371722,-8808.450710,1036.288319,-459.657299
3771.372052,-8734.430116,148.041188,-1302.362347
3771.372382,-8216.285956,740.205942,-919.314598
3771.372712,-9474.636058,370.102971,-459.657299
3771.373041,-10066.800811,666.185348,229.828649
3771.373371,-9622.677246,296.082377,1072.533697
3771.373701,-9548.656652,222.061783,1762.019645
3771.374031,-8660.409521,222.061783,842.705048
3771.374360,-9622.677246,814.226536,-229.828649
3771.374690,-10658.965565,962.267725,-689.485948
3771.375020,-10362.883188,1184.329507,0.000000
3771.375350,-10362.883188,1258.350101,-76.609550
3771.375680,-10140.821405,666.185348,459.657299
3771.376009,-9548.656652,666.185348,1072.533697
3771.376339,-9548.656652,296.082377,1532.190996
3771.376669,-10881.027347,592.164754,919.314598
3771.376999,-11251.130318,518.144159,306.438199
3771.377328,-11399.171507,1332.370696,-153.219100
3771.377658,-10881.027347,222.061783,76.609550
3771.377988,-11103.089130,148.041188,1072.533697
3771.378318,-10362.883188,444.123565,1838.629195
3771.378647,-9992.780217,148.041188,612.876398
3771.378977,-9400.615463,74.020594,689.485948
3771.379307,-9548.656652,0.000000,459.657299
3771.379637,-9548.656652,0.000000,306.438199
3771.379967,-8956.491898,-370.102971,995.924147
3771.380296,-9918.759623,296.082377,306.438199
3771.380626,-9474.636058,-296.082377,-383.047749
3771.380956,-8882.471304,-592.164754,-1838.629195
3771.381286,-8586.388927,-592.164754,-1532.190996
3771.381615,-9548.656652,-888.247130,-306.438199
3771.381945,-9548.656652,-666.185348,1455.581446
3771.382275,-9770.718434,0.000000,919.314598
3771.382605,-8512.368333,-592.164754,-1378.971896
3771.382934,-7846.182985,-1110.308913,-2068.457845
3771.383264,-8956.491898,-444.123565,-612.876398
3771.383594,-10066.800811,-888.247130,919.314598
3771.383924,-10214.842000,-666.185348,1302.362347
3771.384254,-9548.656652,-518.144159,229.828649
3771.384583,-9400.615463,-296.082377,153.219100
3771.384913,-10140.821405,-148.041188,459.657299
3771.385243,-11029.068536,0.000000,919.314598
3771.385573,-11621.233289,-518.144159,1455.581446
3771.385902,-10658.965565,74.020594,1532.190996
3771.386232,-10510.924376,444.123565,1685.410096
3771.386562,-11325.150913,148.041188,0.000000
3771.386892,-10955.047942,-296.082377,-689.485948
3771.387221,-10955.047942,0.000000,-612.876398
3771.387551,-9770.718434,-666.185348,0.000000
3771.387881,-8956.491898,-296.082377,1378.971896
3771.388211,-9252.574275,-444.123565,1608.800546
3771.388541,-9918.759623,-888.247130,919.314598
3771.388870,-10288.862594,-592.164754,1532.190996
3771.389200,-10807.006753,-592.164754,1532.190996
3771.389530,-10732.986159,-1036.288319,1072.533697
3771.389860,-8734.430116,-1184.329507,1685.410096
3771.390189,-8364.327145,-740.205942,995.924147
3771.390519,-8956.491898,0.000000,-689.485948
3771.390849,-8438.347739,-888.247130,-1991.848295
3771.391179,-9400.615463,-740.205942,-1915.238745
3771.391508,-8956.491898,-592.164754,-1838.629195
3771.391838,-7920.203579,-888.247130,-689.485948
3771.392168,-8882.471304,-296.082377,-306.438199
3771.392498,-8364.327145,-1110.308913,-459.657299
3771.392828,-7846.182985,-1184.329507,76.609550
3771.393157,-9474.636058,-148.041188,0.000000
3771.393487,-10362.883188,-814.226536,76.609550
3771.393817,-9770.718434,-148.041188,842.705048
3771.394147,-9770.718434,962.267725,842.705048
3771.394476,-10955.047942,888.247130,229.828649
3771.394806,-11029.068536,740.205942,0.000000
3771.395136,-9992.780217,1036.288319,-1608.800546
3771.395466,-9918.759623,592.164754,-1072.533697
3771.395795,-9844.739029,888.247130,536.266849
3771.396125,-11547.212695,1776.494261,1915.238745
3771.396455,-11695.253884,1036.288319,612.876398
3771.396785,-10510.924376,1332.370696,-919.314598
3771.397115,-11029.068536,1184.329507,-1302.362347
3771.397444,-11029.068536,222.061783,0.000000
3771.397774,-10288.862594,592.164754,2604.724693
3771.398104,-10584.944971,1184.329507,3370.820191
3771.398434,-10584.944971,518.144159,2374.896044
3771.398763,-9400.615463,518.144159,0.000000
3771.399093,-9400.615463,296.082377,-229.828649
3771.399423,-9252.574275,222.061783,76.609550
3771.399753,-8660.409521,148.041188,1532.190996
3771.400082,-9252.574275,666.185348,1685.410096
3771.400412,-9326.594869,296.082377,153.219100
3771.400742,-8734.430116,370.102971,-1072.533697
3771.401072,-9030.512492,222.061783,-1378.971896
3771.401402,-9252.574275,-148.041188,-1225.752797
3771.401731,-9030.512492,-296.082377,919.314598
3771.402061,-9474.636058,518.144159,1302.362347
3771.402391,-8364.327145,0.000000,229.828649
3771.402721,-8068.244768,-148.041188,-459.657299
3771.403050,-8438.347739,1036.288319,-1302.362347
3771.403380,-9178.553681,-148.041188,-612.876398
3771.403710,-9696.697840,962.267725,1455.581446
3771.404040,-10436.903782,1184.329507,1685.410096
3771.404370,-10807.006753,592.164754,689.485948
3771.404699,-10436.903782,222.061783,0.000000
3771.405029,-10288.862594,666.185348,-306.438199
3771.405359,-10140.821405,222.061783,-383.047749
3771.405689,-10140.821405,1110.308913,536.266849
3771.406018,-11473.192101,1110.308913,1915.238745
3771.406348,-11843.295072,370.102971,1302.362347
3771.406678,-10732.986159,518.144159,1149.143247
3771.407008,-10807.006753,148.041188,689.485948
3771.407337,-10807.006753,74.020594,459.657299
3771.407667,-9548.656652,0.000000,1838.629195
3771.407997,-9696.697840,-222.061783,1838.629195
3771.408327,-9178.553681,-370.102971,842.705048
3771.408657,-9548.656652,-592.164754,306.438199
3771.408986,-9844.739029,-222.061783,-229.828649
3771.409316,-10066.800811,-1110.308913,-459.657299
3771.409646,-9474.636058,-592.164754,229.828649
3771.409976,-8660.409521,-666.185348,0.000000
3771.410305,-8808.450710,-962.267725,0.000000
3771.410635,-8586.388927,-740.205942,-842.705048
3771.410965,-9178.553681,-888.247130,-1225.752797
3771.411295,-9178.553681,-1036.288319,-1072.533697
3771.411624,-9400.615463,-888.247130,-612.876398
3771.411954,-9548.656652,-888.247130,0.000000
3771.412284,-8586.388927,-1702.473667,-383.047749
3771.412614,-8142.265362,-1332.370696,-612.876398
3771.412944,-8512.368333,-1406.391290,-229.828649
3771.413273,-9918.759623,-1702.473667,76.609550
3771.413603,-10362.883188,-148.041188,536.266849
3771.413933,-10214.842000,-148.041188,0.000000
3771.414263,-10510.924376,74.020594,153.219100
3771.414592,-10658.965565,814.226536,-612.876398
3771.414922,-10881.027347,148.041188,-995.924147
3771.415252,-10436.903782,-74.020594,-1532.190996
3771.415582,-10140.821405,74.020594,0.000000
3771.415911,-10955.047942,0.000000,1149.143247
3771.416241,-10732.986159,0.000000,1455.581446
3771.416571,-9992.780217,592.164754,383.047749
3771.416901,-11325.150913,148.041188,-306.438199
3771.417231,-11029.068536,-740.205942,-689.485948
3771.417560,-10288.862594,-444.123565,1685.410096
3771.417890,-10214.842000,-222.061783,2298.286494
3771.418220,-9548.656652,-444.123565,2451.505594
3771.418550,-9030.512492,-814.226536,766.095498
3771.418879,-9252.574275,-814.226536,76.609550
3771.419209,-8438.347739,-1036.288319,-766.095498
3771.419539,-9252.574275,148.041188,536.266849
3771.419869,-9104.533087,-370.102971,919.314598
3771.420198,-8956.491898,370.102971,842.705048
3771.420528,-8956.491898,222.061783,229.828649
3771.420858,-9992.780217,0.000000,-1225.752797
3771.421188,-8956.491898,-222.061783,-1378.971896
3771.421518,-8808.450710,74.020594,-306.438199
3771.421847,-8956.491898,0.000000,0.000000
3771.422177,-9400.615463,444.123565,306.438199
3771.422507,-9104.533087,222.061783,153.219100
3771.422837,-9178.553681,74.020594,-842.705048
3771.423166,-8660.409521,0.000000,-1149.143247
3771.423496,-9918.759623,1554.432478,612.876398
3771.423826,-10140.821405,1332.370696,1838.629195
3771.424156,-10214.842000,1184.329507,2528.115143
3771.424485,-10288.862594,1036.288319,919.314598
3771.424815,-11843.295072,1480.411884,-536.266849
3771.425145,-11843.295072,814.226536,-1302.362347
3771.425475,-10584.944971,814.226536,306.438199
3771.425805,-10066.800811,1036.288319,1762.019645
3771.426134,-9474.636058,814.226536,1838.629195
3771.426464,-9474.636058,1258.350101,1225.752797
3771.426794,-10658.965565,1628.453072,0.000000
3771.427124,-9992.780217,592.164754,-766.095498
3771.427453,-10066.800811,888.247130,919.314598
3771.427783,-9992.780217,740.205942,1455.581446
3771.428113,-9844.739029,740.205942,2221.676944
3771.428443,-9548.656652,370.102971,919.314598
3771.428772,-9252.574275,370.102971,-383.047749
3771.429102,-9326.594869,-222.061783,-459.657299
3771.429432,-10288.862594,962.267725,0.000000
3771.429762,-9992.780217,518.144159,1072.533697
3771.430092,-8808.450710,518.144159,1225.752797
3771.430421,-8364.327145,444.123565,-383.047749
3771.430751,-9178.553681,-370.102971,-1762.019645
3771.431081,-8882.471304,-370.102971,-1455.581446
3771.431411,-9252.574275,0.000000,-153.219100
3771.431740,-9548.656652,0.000000,1149.143247
3771.432070,-9474.636058,0.000000,1838.629195
3771.432400,-9548.656652,518.144159,766.095498
3771.432730,-9474.636058,74.020594,-1149.143247
3771.433059,-9474.636058,0.000000,-1608.800546
3771.433389,-10214.842000,0.000000,153.219100
3771.433719,-10584.944971,-296.082377,1532.190996
3771.434049,-9770.718434,148.041188,2451.505594
3771.434379,-10288.862594,592.164754,1225.752797
3771.434708,-10362.883188,-370.102971,-1072.533697
3771.435038,-9844.739029,74.020594,-229.828649
3771.435368,-11029.068536,962.267725,1225.752797
3771.435698,-12139.377449,814.226536,1455.581446
3771.436027,-10955.047942,0.000000,766.095498
3771.436357,-9844.739029,740.205942,459.657299
3771.436687,-10658.965565,-222.061783,-76.609550
3771.437017,-10732.986159,-296.082377,0.000000
3771.437347,-10140.821405,-296.082377,229.828649
3771.437676,-9030.512492,-370.102971,153.219100
3771.438006,-7994.224174,-296.082377,766.095498
3771.438336,-9548.656652,74.020594,1149.143247
3771.438666,-10658.965565,-444.123565,383.047749
3771.438995,-9548.656652,-444.123565,-229.828649
3771.439325,-9326.594869,-370.102971,-536.266849
3771.439655,-9178.553681,-1332.370696,-76.609550
3771.439985,-8586.388927,-1036.288319,995.924147
3771.440314,-9104.533087,-1110.308913,1072.533697
3771.440644,-9104.533087,-1332.370696,-689.485948
3771.440974,-7920.203579,-1184.329507,-1762.019645
3771.441304,-9030.512492,-740.205942,-1838.629195
3771.441634,-8882.471304,-814.226536,-536.266849
3771.441963,-8956.491898,-518.144159,919.314598
3771.442293,-9474.636058,148.041188,-306.438199
3771.442623,-9474.636058,-666.185348,-1378.971896
3771.442953,-9400.615463,0.000000,-919.314598
3771.443282,-10362.883188,-222.061783,-766.095498
3771.443612,-11325.150913,0.000000,-153.219100
3771.443942,-10214.842000,0.000000,1072.533697
3771.444272,-10510.924376,0.000000,689.485948
3771.444601,-10510.924376,-444.123565,-306.438199
3771.444931,-10510.924376,74.020594,0.000000
3771.445261,-10881.027347,222.061783,-229.828649
3771.445591,-10362.883188,-222.061783,-842.705048
3771.445921,-9844.739029,296.082377,536.266849
3771.446250,-10288.862594,518.144159,1608.800546
3771.446580,-10881.027347,0.000000,229.828649
3771.446910,-9474.636058,0.000000,0.000000
3771.447240,-9770.718434,-444.123565,0.000000
3771.447569,-10955.047942,444.123565,1685.410096
3771.447899,-10881.027347,0.000000,1991.848295
3771.448229,-10584.944971,0.000000,1149.143247
3771.448559,-8364.327145,-666.185348,0.000000
3771.448888,-7846.182985,-148.041188,306.438199
3771.449218,-9178.553681,-518.144159,153.219100
3771.449548,-9474.636058,-370.102971,612.876398
3771.449878,-8882.471304,-296.082377,612.876398
3771.450208,-8438.347739,-296.082377,-306.438199
3771.450537,-8808.450710,-888.247130,-459.657299
3771.450867,-8142.265362,-444.123565,306.438199
3771.451197,-9178.553681,-296.082377,689.485948
3771.451527,-9104.533087,0.000000,919.314598
3771.451856,-8956.491898,74.020594,1149.143247
3771.452186,-10066.800811,666.185348,842.705048
3771.452516,-10214.842000,740.205942,612.876398
3771.452846,-10140.821405,1184.329507,842.705048
3771.453175,-10066.800811,444.123565,459.657299
3771.453505,-10584.944971,518.144159,76.609550
3771.453835,-10140.821405,888.247130,536.266849
3771.454165,-10288.862594,1110.308913,1072.533697
3771.454495,-10362.883188,1258.350101,153.219100
3771.454824,-10658.965565,1184.329507,153.219100
3771.455154,-11399.171507,1554.432478,459.657299
3771.455484,-11251.130318,740.205942,919.314598
3771.455814,-10214.842000,1258.350101,1072.533697
3771.456144,-10732.986159,1406.391290,766.095498
3771.456473,-10288.862594,518.144159,306.438199
3771.456803,-9992.780217,518.144159,1149.143247
3771.457133,-9918.759623,296.082377,1378.971896
3771.457463,-10288.862594,740.205942,1838.629195
3771.457793,-9104.533087,0.000000,536.266849
3771.458122,-9104.533087,296.082377,0.000000
3771.458452,-7994.224174,296.082377,-306.438199
3771.458782,-8808.450710,518.144159,0.000000
3771.459112,-10436.903782,1110.308913,-383.047749
3771.459442,-10436.903782,148.041188,-1302.362347
3771.459771,-9474.636058,370.102971,-1225.752797
3771.460101,-8216.285956,0.000000,-1072.533697
3771.460431,-9400.615463,-444.123565,0.000000
3771.460761,-10140.821405,-148.041188,612.876398
3771.461091,-9474.636058,-222.061783,0.000000
3771.461421,-8364.327145,-444.123565,-383.047749
3771.461750,-8068.244768,-148.041188,536.266849
3771.462080,-9400.615463,518.144159,536.266849
3771.462410,-10140.821405,444.123565,0.000000
3771.462740,-10436.903782,740.205942,-766.095498
3771.463070,-10658.965565,148.041188,-995.924147
3771.463399,-10658.965565,148.041188,-1225.752797
3771.463729,-10362.883188,-296.082377,0.000000
3771.464059,-10807.006753,0.000000,153.219100
3771.464389,-10066.800811,0.000000,0.000000
3771.464719,-10214.842000,-296.082377,536.266849
3771.465048,-10436.903782,0.000000,689.485948
3771.465378,-10288.862594,0.000000,383.047749
3771.465708,-10955.047942,370.102971,1072.533697
3771.466038,-10807.006753,-74.020594,1378.971896
3771.466368,-10288.862594,-518.144159,1455.581446
3771.466698,-10362.883188,-666.185348,919.314598
3771.467027,-10362.883188,-666.185348,229.828649
3771.467357,-9622.677246,-1258.350101,459.657299
3771.467687,-8808.450710,-1110.308913,229.828649
3771.468017,-8808.450710,-888.247130,842.705048
3771.468347,-9326.594869,-888.247130,1225.752797
3771.468676,-9178.553681,-370.102971,383.047749
3771.469006,-9030.512492,-666.185348,-842.705048
3771.469336,-8142.265362,-1110.308913,-1302.362347
3771.469666,-9474.636058,-740.205942,229.828649
3771.469996,-9992.780217,-370.102971,919.314598
3771.470325,-8882.471304,-1332.370696,153.219100
3771.470655,-8660.409521,0.000000,-536.266849
3771.470985,-9474.636058,-296.082377,-153.219100
3771.471315,-10436.903782,-518.144159,-153.219100
3771.471645,-10362.883188,-740.205942,0.000000
3771.471975,-10066.800811,-444.123565,76.609550
3771.472304,-9104.533087,-222.061783,995.924147
3771.472634,-9252.574275,-222.061783,919.314598
3771.472964,-9992.780217,592.164754,842.705048
3771.473294,-10584.944971,592.164754,153.219100
3771.473624,-10955.047942,666.185348,0.000000
3771.473953,-11695.253884,518.144159,-306.438199
3771.474283,-11695.253884,592.164754,306.438199
3771.474613,-10658.965565,370.102971,459.657299
3771.474943,-10362.883188,222.061783,-306.438199
3771.475273,-9696.697840,-74.020594,-689.485948
3771.475602,-9696.697840,222.061783,-766.095498
3771.475932,-10140.821405,592.164754,536.266849
3771.476262,-10140.821405,444.123565,1149.143247
3771.476592,-10066.800811,222.061783,1762.019645
3771.476922,-9696.697840,296.082377,1608.800546
3771.477252,-9844.739029,74.020594,1225.752797
3771.477581,-10214.842000,-370.102971,536.266849
3771.477911,-9696.697840,-814.226536,612.876398
3771.478241,-8142.265362,-888.247130,1378.971896
3771.478571,-8808.450710,518.144159,1072.533697
3771.478901,-9104.533087,370.102971,0.000000
3771.479230,-8808.450710,-222.061783,-1225.752797
3771.479560,-9104.533087,148.041188,-1915.238745
3771.479890,-8586.388927,-370.102971,-2145.067394
3771.480220,-8216.285956,-518.144159,-383.047749
3771.480550,-8808.450710,74.020594,689.485948
3771.480879,-8586.388927,148.041188,842.705048
3771.481209,-8660.409521,148.041188,-842.705048
3771.481539,-9548.656652,814.226536,-1378.971896
3771.481869,-10362.883188,0.000000,-1149.143247
3771.482199,-9696.697840,370.102971,1685.410096
3771.482529,-10584.944971,888.247130,2451.505594
3771.482858,-11103.089130,518.144159,766.095498
3771.483188,-9770.718434,222.061783,-612.876398
3771.483518,-9918.759623,518.144159,-689.485948
3771.483848,-10066.800811,666.185348,0.000000
3771.484178,-9918.759623,814.226536,842.705048
3771.484507,-10510.924376,740.205942,1072.533697
3771.484837,-10584.944971,888.247130,383.047749
3771.485167,-10658.965565,814.226536,-229.828649
3771.485497,-12287.418637,962.267725,-689.485948
3771.485827,-12287.418637,370.102971,0.000000
3771.486156,-10510.924376,-444.123565,2298.286494
3771.486486,-9474.636058,0.000000,2528.115143
3771.486816,-8956.491898,-592.164754,1302.362347
3771.487146,-8364.327145,-370.102971,536.266849
3771.487476,-8956.491898,370.102971,0.000000
3771.487806,-9474.636058,222.061783,-459.657299
3771.488135,-9474.636058,444.123565,1225.752797
3771.488465,-10214.842000,666.185348,2221.676944
3771.488795,-9844.739029,370.102971,0.000000
3771.489125,-8882.471304,-148.041188,-1685.410096
3771.489455,-8586.388927,-740.205942,-2681.334243
3771.489784,-9844.739029,-814.226536,-842.705048
3771.490114,-9400.615463,-444.123565,612.876398
3771.490444,-8660.409521,0.000000,1608.800546
3771.490774,-8438.347739,0.000000,536.266849
3771.491104,-8808.450710,74.020594,-766.095498
3771.491433,-10658.965565,740.205942,-2221.676944
3771.491763,-10510.924376,-370.102971,-689.485948
3771.492093,-9696.697840,0.000000,1685.410096
3771.492423,-10214.842000,518.144159,2068.457845
3771.492753,-10658.965565,0.000000,1225.752797
3771.493083,-10214.842000,296.082377,0.000000
3771.493412,-9992.780217,592.164754,-995.924147
3771.493742,-10362.883188,0.000000,-1378.971896
3771.494072,-11547.212695,592.164754,919.314598
3771.494402,-11769.274478,1110.308913,1532.190996
3771.494732,-10436.903782,370.102971,76.609550
3771.495061,-9696.697840,296.082377,-1378.971896
3771.495391,-11177.109724,0.000000,-2221.676944
3771.495721,-10807.006753,-666.185348,-1762.019645
3771.496051,-8438.347739,-518.144159,0.000000
3771.496381,-9030.512492,74.020594,1762.019645
3771.496710,-9326.594869,-370.102971,1455.581446
3771.497040,-8882.471304,-148.041188,919.314598
3771.497370,-10214.842000,444.123565,76.609550
3771.497700,-10362.883188,-74.020594,0.000000
3771.498030,-10214.842000,-296.082377,1149.143247
3771.498359,-9104.533087,-370.102971,1072.533697
3771.498689,-7994.224174,-740.205942,0.000000
3771.499019,-7698.141797,-814.226536,0.000000
3771.499349,-9326.594869,-592.164754,-1378.971896
3771.499679,-8956.491898,-814.226536,-1838.629195
3771.500009,-7328.038826,-962.267725,-459.657299
3771.500338,-7698.141797,444.123565,766.095498
3771.500668,-9770.718434,370.102971,1608.800546
3771.500998,-9770.718434,296.082377,76.609550
3771.501328,-9548.656652,148.041188,-1532.190996
3771.501658,-9844.739029,74.020594,-995.924147
3771.501987,-10362.883188,0.000000,1072.533697
3771.502317,-11177.109724,518.144159,2681.334243
3771.502647,-10732.986159,0.000000,2374.896044
3771.502977,-9918.759623,518.144159,689.485948
3771.503307,-10584.944971,666.185348,-459.657299
3771.503636,-10807.006753,0.000000,-919.314598
3771.503966,-10362.883188,740.205942,689.485948
3771.504296,-11029.068536,1480.411884,1532.190996
3771.504626,-11769.274478,962.267725,1455.581446
3771.504956,-11621.233289,444.123565,0.000000
3771.505286,-10881.027347,-370.102971,-1149.143247
3771.505615,-9918.759623,-444.123565,0.000000
3771.505945,-9474.636058,0.000000,1378.971896
3771.506275,-9326.594869,-370.102971,2911.162892
3771.506605,-8882.471304,74.020594,2298.286494
3771.506935,-8734.430116,222.061783,689.485948
3771.507264,-10362.883188,296.082377,0.000000
3771.507594,-11399.171507,-296.082377,-306.438199
3771.507924,-10214.842000,-296.082377,1302.362347
3771.508254,-8586.388927,0.000000,1991.848295
3771.508584,-7179.997637,-296.082377,306.438199
3771.508913,-6809.894666,370.102971,-1302.362347
3771.509243,-8512.368333,0.000000,-2834.553343
3771.509573,-9400.615463,74.020594,-2221.676944
3771.509903,-9770.718434,444.123565,919.314598
3771.510233,-10436.903782,1036.288319,1225.752797
3771.510563,-9622.677246,370.102971,995.924147
3771.510892,-9030.512492,814.226536,-1302.362347
3771.511222,-9696.697840,296.082377,-2298.286494
3771.511552,-9696.697840,814.226536,-995.924147
3771.511882,-9992.780217,740.205942,612.876398
3771.512212,-10955.047942,962.267725,1072.533697
3771.512541,-10288.862594,666.185348,306.438199
3771.512871,-9696.697840,370.102971,-766.095498
3771.513201,-9844.739029,444.123565,-1915.238745
3771.513531,-9622.677246,222.061783,-1532.190996
3771.513861,-10362.883188,444.123565,383.047749
3771.514190,-10881.027347,222.061783,1378.971896
3771.514520,-10658.965565,518.144159,1838.629195
3771.514850,-11029.068536,74.020594,306.438199
3771.515180,-10658.965565,-740.205942,-995.924147
3771.515510,-9474.636058,-666.185348,-153.219100
3771.515840,-8438.347739,-740.205942,1378.971896
3771.516169,-9474.636058,-296.082377,1991.848295
3771.516499,-9918.759623,0.000000,2298.286494
3771.516829,-9918.759623,-74.020594,459.657299
3771.517159,-9474.636058,-370.102971,-1378.971896
3771.517489,-9104.533087,-962.267725,-2221.676944
3771.517818,-9400.615463,-888.247130,-689.485948
3771.518148,-8956.491898,-592.164754,919.314598
3771.518478,-8068.244768,-888.247130,1072.533697
3771.518808,-8142.265362,-222.061783,-383.047749
3771.519138,-9474.636058,-148.041188,-1302.362347
3771.519467,-9770.718434,-740.205942,-842.705048
3771.519797,-9992.780217,-592.164754,76.609550
3771.520127,-9770.718434,-370.102971,1838.629195
3771.520457,-9326.594869,-740.205942,1302.362347
3771.520787,-9104.533087,0.000000,1608.800546
3771.521117,-9548.656652,-1110.308913,76.609550
3771.521446,-8882.471304,-74.020594,0.000000
3771.521776,-9548.656652,814.226536,383.047749
3771.522106,-11473.192101,962.267725,995.924147
3771.522436,-11473.192101,740.205942,1378.971896
3771.522766,-11029.068536,296.082377,766.095498
3771.523095,-11399.171507,-222.061783,-306.438199
3771.523425,-9770.718434,0.000000,-306.438199
3771.523755,-9844.739029,74.020594,459.657299
3771.524085,-9918.759623,74.020594,919.314598
3771.524415,-10066.800811,296.082377,1915.238745
3771.524744,-10436.903782,592.164754,995.924147
3771.525074,-10807.006753,444.123565,153.219100
3771.525404,-10362.883188,148.041188,919.314598
3771.525734,-10658.965565,296.082377,1915.238745
3771.526064,-10066.800811,0.000000,1225.752797
3771.526394,-8734.430116,74.020594,995.924147
3771.526723,-9474.636058,74.020594,459.657299
3771.527053,-10362.883188,74.020594,-306.438199
3771.527383,-9548.656652,-296.082377,612.876398
3771.527713,-9474.636058,518.144159,306.438199
3771.528043,-8068.244768,74.020594,-306.438199
3771.528372,-7624.121203,444.123565,-306.438199
3771.528702,-8660.409521,962.267725,-1455.581446
3771.529032,-9178.553681,0.000000,-1685.410096
3771.529362,-9030.512492,0.000000,-1378.971896
3771.529692,-9474.636058,518.144159,0.000000
3771.530021,-9770.718434,740.205942,536.266849
3771.530351,-9622.677246,592.164754,766.095498
3771.530681,-9548.656652,444.123565,-612.876398
3771.531011,-9770.718434,518.144159,-1302.362347
3771.531341,-9252.574275,740.205942,0.000000
3771.531671,-10362.883188,1332.370696,1149.143247
3771.532000,-10658.965565,740.205942,1302.362347
3771.532330,-9104.533087,740.205942,536.266849
3771.532660,-9548.656652,1184.329507,-153.219100
3771.532990,-11325.150913,444.123565,-1532.190996
3771.533320,-10807.006753,222.061783,-919.314598
3771.533649,-10214.842000,740.205942,536.266849
3771.533979,-10288.862594,814.226536,1378.971896
3771.534309,-10362.883188,1110.308913,1532.190996
3771.534639,-10881.027347,1110.308913,229.828649
3771.534969,-10510.924376,74.020594,-1149.143247
3771.535298,-9548.656652,74.020594,0.000000
3771.535628,-11177.109724,296.082377,842.705048
3771.535958,-9622.677246,-592.164754,919.314598
3771.536288,-8068.244768,0.000000,1991.848295
3771.536618,-8734.430116,222.061783,0.000000
3771.536948,-10066.800811,-148.041188,-1225.752797
3771.537277,-10362.883188,74.020594,-383.047749
3771.537607,-9844.739029,74.020594,689.485948
3771.537937,-9918.759623,-370.102971,1838.629195
3771.538267,-9326.594869,0.000000,1072.533697
3771.538597,-9844.739029,-740.205942,-842.705048
3771.538926,-8290.306550,-888.247130,-2911.162892
3771.539256,-7624.121203,-962.267725,-2221.676944
3771.539586,-8660.409521,148.041188,-229.828649
3771.539916,-10140.821405,-592.164754,459.657299
3771.540246,-9474.636058,148.041188,1608.800546
3771.540575,-9844.739029,0.000000,1302.362347
3771.540905,-10584.944971,-592.164754,-612.876398
3771.541235,-9548.656652,-1110.308913,0.000000
3771.541565,-9252.574275,-740.205942,1225.752797
3771.541895,-9104.533087,-962.267725,2451.505594
3771.542224,-9844.739029,-296.082377,2681.334243
3771.542554,-11177.109724,-74.020594,1685.410096
3771.542884,-10362.883188,-518.144159,-536.266849
3771.543214,-10584.944971,222.061783,-459.657299
3771.543544,-10658.965565,370.102971,-306.438199
3771.543874,-10510.924376,-148.041188,153.219100
3771.544203,-9400.615463,222.061783,689.485948
3771.544533,-9844.739029,444.123565,76.609550
3771.544863,-10732.986159,-296.082377,-459.657299
3771.545193,-10510.924376,0.000000,306.438199
3771.545523,-9992.780217,-222.061783,76.609550
3771.545852,-9548.656652,-518.144159,1685.410096
3771.546182,-10066.800811,-148.041188,2068.457845
3771.546512,-10584.944971,-518.144159,1149.143247
3771.546842,-9474.636058,-370.102971,-612.876398
3771.547172,-8734.430116,222.061783,-689.485948
3771.547501,-9474.636058,0.000000,0.000000
3771.547831,-9474.636058,0.000000,612.876398
3771.548161,-8882.471304,0.000000,0.000000
3771.548491,-8956.491898,-222.061783,-689.485948
3771.548821,-8734.430116,-740.205942,-1685.410096
3771.549151,-9326.594869,0.000000,-383.047749
3771.549480,-9178.553681,-296.082377,0.000000
3771.549810,-9252.574275,222.061783,459.657299
3771.550140,-8956.491898,444.123565,995.924147
3771.550470,-10140.821405,444.123565,766.095498
3771.550800,-9770.718434,0.000000,-306.438199
3771.551129,-9992.780217,0.000000,-229.828649
3771.551459,-10288.862594,518.144159,153.219100
3771.551789,-9178.553681,0.000000,766.095498
3771.552119,-8660.409521,740.205942,459.657299
3771.552449,-9770.718434,1036.288319,229.828649
3771.552778,-10436.903782,1258.350101,-229.828649
3771.553108,-11103.089130,1776.494261,383.047749
3771.553438,-11769.274478,1110.308913,-689.485948
3771.553768,-10955.047942,962.267725,536.266849
3771.554098,-10140.821405,888.247130,1225.752797
3771.554428,-10214.842000,1036.288319,229.828649
3771.554757,-9548.656652,370.102971,-1072.533697
3771.555087,-9326.594869,518.144159,-383.047749
3771.555417,-10214.842000,222.061783,0.000000
3771.555747,-10362.883188,814.226536,919.314598
3771.556077,-9474.636058,666.185348,1608.800546
3771.556406,-9770.718434,592.164754,306.438199
3771.556736,-9474.636058,0.000000,-153.219100
3771.557066,-9548.656652,-296.082377,0.000000
3771.557396,-9844.739029,-518.144159,0.000000
3771.557726,-9326.594869,-592.164754,536.266849
3771.558056,-9104.533087,-296.082377,459.657299
3771.558386,-9474.636058,74.020594,229.828649
3771.558716,-8512.368333,0.000000,-1149.143247
3771.559045,-9252.574275,296.082377,-1762.019645
3771.559375,-9770.718434,370.102971,-1838.629195
3771.559705,-9474.636058,0.000000,-306.438199
3771.560035,-9104.533087,222.061783,689.485948
3771.560365,-9696.697840,74.020594,459.657299
3771.560695,-9992.780217,-592.164754,0.000000
3771.561024,-9696.697840,0.000000,-153.219100
3771.561354,-9326.594869,-518.144159,-536.266849
3771.561684,-9252.574275,444.123565,536.266849
3771.562014,-10510.924376,814.226536,2221.676944
3771.562344,-11473.192101,740.205942,2221.676944
3771.562673,-10510.924376,814.226536,1378.971896
3771.563003,-11621.233289,592.164754,0.000000
3771.563333,-11695.253884,0.000000,-689.485948
3771.563663,-10362.883188,-296.082377,153.219100
3771.563993,-10066.800811,0.000000,766.095498
3771.564323,-9696.697840,-592.164754,1532.190996
3771.564652,-9770.718434,0.000000,1225.752797
3771.564982,-10214.842000,74.020594,1072.533697
3771.565312,-9548.656652,-592.164754,995.924147
3771.565642,-10288.862594,-222.061783,1455.581446
3771.565972,-10955.047942,0.000000,1762.019645
3771.566301,-10362.883188,-1332.370696,1149.143247
3771.566631,-8586.388927,-1036.288319,842.705048
3771.566961,-8438.347739,-1036.288319,459.657299
3771.567291,-9178.553681,-592.164754,-229.828649
3771.567621,-9178.553681,-222.061783,-689.485948
3771.567951,-8882.471304,-444.123565,0.000000
3771.568280,-8882.471304,-296.082377,0.000000
3771.568610,-9770.718434,0.000000,-459.657299
3771.568940,-10066.800811,0.000000,-229.828649
3771.569270,-9770.718434,-518.144159,-1225.752797
3771.569600,-8216.285956,-296.082377,-689.485948
3771.569930,-8882.471304,0.000000,766.095498
3771.570259,-10658.965565,0.000000,306.438199
3771.570589,-9548.656652,0.000000,689.485948
3771.570919,-8956.491898,592.164754,229.828649
3771.571249,-9474.636058,888.247130,0.000000
3771.571579,-10436.903782,814.226536,995.924147
3771.571908,-11399.171507,1110.308913,536.266849
3771.572238,-10807.006753,666.185348,0.000000
3771.572568,-10214.842000,222.061783,-689.485948
3771.572898,-11029.068536,666.185348,-842.705048
3771.573228,-10955.047942,148.041188,-1532.190996
3771.573558,-9548.656652,0.000000,-689.485948
3771.573887,-8808.450710,814.226536,-383.047749
3771.574217,-9474.636058,0.000000,995.924147
3771.574547,-9548.656652,814.226536,1608.800546
3771.574877,-11029.068536,592.164754,1455.581446
3771.575207,-11473.192101,296.082377,536.266849
3771.575536,-10066.800811,-370.102971,842.705048
3771.575866,-10584.944971,74.020594,1762.019645
3771.576196,-9844.739029,-666.185348,1532.190996
3771.576526,-9178.553681,-296.082377,1302.362347
3771.576856,-9400.615463,296.082377,-76.609550
3771.577186,-9030.512492,0.000000,-1225.752797
3771.577515,-8438.347739,444.123565,-612.876398
3771.577845,-9548.656652,222.061783,0.000000
3771.578175,-10807.006753,444.123565,612.876398
3771.578505,-9992.780217,148.041188,0.000000
3771.578835,-8586.388927,-518.144159,-2145.067394
3771.579164,-8142.265362,-814.226536,-1915.238745
3771.579494,-9400.615463,-814.226536,76.609550
3771.579824,-9770.718434,-296.082377,1225.752797
3771.580154,-8438.347739,-296.082377,459.657299
3771.580484,-7624.121203,296.082377,536.266849
3771.580814,-9326.594869,370.102971,536.266849
3771.581143,-11325.150913,222.061783,306.438199
3771.581473,-10362.883188,0.000000,0.000000
3771.581803,-10066.800811,370.102971,383.047749
3771.582133,-10214.842000,148.041188,919.314598
3771.582463,-10066.800811,296.082377,1072.533697
3771.582793,-10140.821405,518.144159,-842.705048
3771.583122,-9770.718434,444.123565,-1991.848295
3771.583452,-9992.780217,1036.288319,-1378.971896
3771.583782,-11621.233289,888.247130,-612.876398
3771.584112,-10881.027347,0.000000,383.047749
3771.584442,-9918.759623,74.020594,1991.848295
3771.584771,-10732.986159,370.102971,1991.848295
3771.585101,-10881.027347,-1036.288319,842.705048
3771.585431,-9178.553681,-74.020594,229.828649
3771.585761,-9104.533087,0.000000,766.095498
3771.586091,-9992.780217,74.020594,1915.238745
3771.586421,-10732.986159,370.102971,3140.991542
3771.586750,-11843.295072,296.082377,1762.019645
3771.587080,-9992.780217,0.000000,-229.828649
3771.587410,-9400.615463,444.123565,-1532.190996
3771.587740,-10214.842000,0.000000,-1225.752797
3771.588070,-9178.553681,-814.226536,-536.266849
3771.588399,-8142.265362,0.000000,1149.143247
3771.588729,-9104.533087,0.000000,919.314598
3771.589059,-10214.842000,0.000000,-306.438199
3771.589389,-9326.594869,0.000000,-1378.971896
3771.589719,-9030.512492,0.000000,-1532.190996
3771.590049,-9326.594869,-592.164754,76.609550
3771.590378,-9622.677246,-148.041188,2681.334243
3771.590708,-10362.883188,0.000000,2451.505594
3771.591038,-10214.842000,-518.144159,459.657299
3771.591368,-9326.594869,-592.164754,-383.047749
3771.591698,-9770.718434,0.000000,-612.876398
3771.592027,-9400.615463,-592.164754,-229.828649
3771.592357,-8290.306550,-222.061783,536.266849
3771.592687,-8956.491898,370.102971,459.657299
3771.593017,-9696.697840,444.123565,0.000000
3771.593347,-9918.759623,740.205942,-842.705048
3771.593677,-10658.965565,518.144159,-1608.800546
3771.594006,-10584.944971,0.000000,-919.314598
3771.594336,-9992.780217,0.000000,612.876398
3771.594666,-10214.842000,0.000000,1378.971896
3771.594996,-9770.718434,-666.185348,689.485948
3771.595326,-9548.656652,592.164754,1225.752797
3771.595656,-9696.697840,370.102971,1225.752797
3771.595985,-9918.759623,740.205942,1225.752797
3771.596315,-10288.862594,1332.370696,2681.334243
3771.596645,-11251.130318,1554.432478,1225.752797
3771.596975,-10510.924376,1110.308913,-766.095498
3771.597305,-9992.780217,1406.391290,-1072.533697
3771.597634,-10288.862594,1036.288319,-995.924147
3771.597964,-10066.800811,518.144159,0.000000
3771.598294,-9548.656652,1258.350101,1532.190996
3771.598624,-8660.409521,666.185348,1685.410096
3771.598954,-8734.430116,814.226536,842.705048
3771.599284,-9030.512492,1184.329507,766.095498
3771.599613,-9992.780217,1184.329507,1608.800546
3771.599943,-9992.780217,962.267725,1532.190996
3771.600273,-9696.697840,1702.473667,2374.896044
3771.600603,-10732.986159,888.247130,2528.115143
3771.600933,-10510.924376,518.144159,2451.505594
3771.601262,-9696.697840,666.185348,2221.676944
3771.601592,-9548.656652,1036.288319,1838.629195
3771.601922,-8364.327145,666.185348,842.705048
3771.602252,-7476.080014,888.247130,2451.505594
3771.602582,-8290.306550,1628.453072,3907.087040
3771.602912,-10362.883188,2368.659014,4366.744339
3771.603241,-11325.150913,2664.741391,3370.820191
3771.603571,-11325.150913,2146.597232,2374.896044
3771.603901,-10732.986159,1924.535449,1685.410096
3771.604231,-10807.006753,1998.556043,2834.553343
3771.604561,-10436.903782,1702.473667,2987.772442
3771.604890,-9770.718434,2072.576638,2681.334243
3771.605220,-8808.450710,1924.535449,1838.629195
3771.605550,-8956.491898,1998.556043,1455.581446
3771.605880,-8882.471304,2442.679609,1838.629195
3771.606210,-9696.697840,2442.679609,2987.772442
3771.606540,-8956.491898,1776.494261,3677.258390
3771.606869,-9030.512492,1554.432478,3753.867940
3771.607199,-10288.862594,2442.679609,4213.525239
3771.607529,-10881.027347,2072.576638,1915.238745
3771.607859,-9548.656652,2664.741391,-459.657299
3771.608189,-8808.450710,2738.761985,76.609550
3771.608518,-10214.842000,3478.967927,1685.410096
3771.608848,-10584.944971,3997.112087,3907.087040
3771.609178,-10066.800811,3182.885551,3907.087040
3771.609508,-9918.759623,3478.967927,2374.896044
3771.609838,-9622.677246,2738.761985,1302.362347
3771.610168,-9548.656652,3108.864956,1762.019645
3771.610497,-10436.903782,2664.741391,2298.286494
3771.610827,-10732.986159,3849.070898,2681.334243
3771.611157,-9400.615463,3775.050304,2145.067394
3771.611487,-9992.780217,4663.297435,1762.019645
3771.611817,-10140.821405,3923.091493,1762.019645
3771.612147,-11103.089130,4219.173869,3447.429741
3771.612476,-11177.109724,4071.132681,4290.134789
3771.612806,-9992.780217,3627.009116,3600.648841
3771.613136,-8808.450710,2368.659014,3677.258390
3771.613466,-9696.697840,1998.556043,4136.915689
3771.613796,-10510.924376,2590.720797,3600.648841
3771.614125,-10214.842000,2072.576638,1762.019645
3771.614455,-8512.368333,2664.741391,229.828649
3771.614785,-7402.059420,3034.844362,1302.362347
3771.615115,-9474.636058,3775.050304,2528.115143
3771.615445,-11621.233289,3552.988522,3064.381992
3771.615775,-10436.903782,2368.659014,1378.971896
3771.616104,-9252.574275,1110.308913,1302.362347
3771.616434,-8734.430116,1184.329507,1149.143247
3771.616764,-9918.759623,148.041188,1915.238745
3771.617094,-8512.368333,148.041188,2757.943793
3771.617424,-9696.697840,-1184.329507,2528.115143
3771.617753,-6957.935855,666.185348,1455.581446
3771.618083,-7698.141797,1406.391290,766.095498
3771.618413,-10584.944971,2294.638420,689.485948
3771.618743,-9548.656652,2368.659014,0.000000
3771.619073,-10362.883188,2516.700203,995.924147
3771.619403,-10584.944971,2368.659014,2604.724693
3771.619732,-11991.336260,222.061783,2681.334243
3771.620062,-10955.047942,888.247130,1762.019645
3771.620392,-9474.636058,0.000000,459.657299
3771.620722,-8364.327145,74.020594,536.266849
3771.621052,-8290.306550,1110.308913,1532.190996
3771.621381,-8512.368333,1924.535449,4136.915689
3771.621711,-10362.883188,2886.803174,4366.744339
3771.622041,-10362.883188,3182.885551,1838.629195
3771.622371,-9844.739029,2738.761985,1378.971896
3771.622701,-11917.315666,2294.638420,2604.724693
3771.623031,-12583.501014,2368.659014,4979.620737
3771.623360,-12287.418637,444.123565,5209.449386
3771.623690,-10510.924376,1184.329507,2834.553343
3771.624020,-8438.347739,592.164754,1838.629195
3771.624350,-10510.924376,962.267725,3140.991542
3771.624680,-9992.780217,1924.535449,2681.334243
3771.625010,-8882.471304,1776.494261,3677.258390
3771.625339,-8956.491898,2738.761985,3907.087040
3771.625669,-9918.759623,2960.823768,3677.258390
3771.625999,-10881.027347,1480.411884,3447.429741
3771.626329,-10732.986159,1554.432478,2528.115143
3771.626659,-10288.862594,296.082377,1532.190996
3771.626988,-9400.615463,-592.164754,3677.258390
3771.627318,-8216.285956,1258.350101,4903.011187
3771.627648,-8956.491898,1850.514855,5132.839837
3771.627978,-9474.636058,2220.617826,3064.381992
3771.628308,-9548.656652,2812.782580,153.219100
3771.628638,-10140.821405,2664.741391,76.609550
3771.628967,-9992.780217,2812.782580,995.924147
3771.629297,-9030.512492,2220.617826,2298.286494
3771.629627,-8216.285956,2294.638420,3907.087040
3771.629957,-9252.574275,2664.741391,3217.601092
3771.630287,-10362.883188,2812.782580,612.876398
3771.630616,-10881.027347,2590.720797,-1225.752797
3771.630946,-11325.150913,2886.803174,-689.485948
3771.631276,-9326.594869,1850.514855,1455.581446
3771.631606,-8364.327145,2368.659014,2757.943793
3771.631936,-9178.553681,2738.761985,3294.210641
3771.632266,-9178.553681,2516.700203,2911.162892
3771.632595,-8438.347739,3182.885551,2374.896044
3771.632925,-8660.409521,3256.906145,612.876398
3771.633255,-10732.986159,3997.112087,1455.581446
3771.633585,-12435.459826,4663.297435,2757.943793
3771.633915,-12435.459826,3478.967927,1915.238745
3771.634244,-11103.089130,3034.844362,842.705048
3771.634574,-11251.130318,2812.782580,-459.657299
3771.634904,-11251.130318,1998.556043,612.876398
3771.635234,-9474.636058,2516.700203,2221.676944
3771.635564,-7254.018232,2590.720797,4136.915689
3771.635894,-6513.812290,2516.700203,2528.115143
3771.636223,-7698.141797,3330.926739,2757.943793
3771.636553,-9622.677246,3923.091493,3140.991542
3771.636883,-10881.027347,4293.194464,3907.087040
3771.637213,-12139.377449,4293.194464,2528.115143
3771.637543,-13101.645173,3034.844362,766.095498
3771.637873,-12509.480420,2220.617826,383.047749
3771.638202,-10881.027347,1998.556043,0.000000
3771.638532,-8808.450710,740.205942,1149.143247
3771.638862,-6735.874072,444.123565,2298.286494
3771.639192,-6217.729913,1332.370696,2834.553343
3771.639522,-5107.421000,1406.391290,2987.772442
3771.639851,-6661.853478,2516.700203,2451.505594
3771.640181,-8882.471304,2812.782580,2145.067394
3771.640511,-10955.047942,3552.988522,3064.381992
3771.640841,-11843.295072,3182.885551,4136.915689
3771.641171,-12805.562797,2664.741391,4673.182538
3771.641501,-12509.480420,2220.617826,3907.087040
3771.641830,-11473.192101,2072.576638,2528.115143
3771.642160,-10881.027347,1850.514855,995.924147
3771.642490,-9622.677246,1332.370696,2145.067394
3771.642820,-7846.182985,1702.473667,3830.477490
3771.643150,-7105.977043,2368.659014,4366.744339
3771.643479,-7698.141797,2220.617826,2221.676944
3771.643809,-8808.450710,1924.535449,76.609550
3771.644139,-9992.780217,1850.514855,612.876398
3771.644469,-11621.233289,1776.494261,2374.896044
3771.644799,-11547.212695,740.205942,3983.696590
3771.645129,-10584.944971,1258.350101,4596.572988
3771.645458,-10658.965565,666.185348,3677.258390
3771.645788,-10807.006753,1036.288319,3217.601092
3771.646118,-10732.986159,1628.453072,2451.505594
3771.646448,-10066.800811,1628.453072,2757.943793
3771.646778,-9770.718434,1850.514855,2451.505594
3771.647107,-9770.718434,2294.638420,2451.505594
3771.647437,-9622.677246,1554.432478,1685.410096
3771.647767,-9178.553681,1110.308913,0.000000
3771.648097,-8882.471304,666.185348,-1608.800546
3771.648427,-9770.718434,444.123565,-1225.752797
3771.648757,-10140.821405,444.123565,612.876398
3771.649086,-9992.780217,370.102971,2757.943793
3771.649416,-9918.759623,222.061783,3677.258390
3771.649746,-9474.636058,518.144159,3600.648841
3771.650076,-9104.533087,0.000000,1455.581446
3771.650406,-9178.553681,74.020594,1149.143247
3771.650736,-9622.677246,370.102971,2451.505594
3771.651065,-9474.636058,444.123565,2681.334243
3771.651395,-8882.471304,592.164754,2451.505594
3771.651725,-8660.409521,592.164754,1072.533697
3771.652055,-9474.636058,1258.350101,-383.047749
3771.652385,-10140.821405,1332.370696,-383.047749
3771.652714,-10288.862594,1554.432478,-689.485948
3771.653044,-9622.677246,1332.370696,919.314598
3771.653374,-9474.636058,962.267725,995.924147
3771.653704,-9844.739029,592.164754,1991.848295
3771.654034,-9178.553681,148.041188,2145.067394
3771.654364,-9030.512492,74.020594,2221.676944
3771.654693,-8290.306550,222.061783,2068.457845
3771.655023,-8660.409521,1110.308913,3140.991542
3771.655353,-9696.697840,1702.473667,4366.744339
3771.655683,-10584.944971,2368.659014,4366.744339
3771.656013,-11547.212695,2886.803174,3294.210641
3771.656342,-11843.295072,3404.947333,1455.581446
3771.656672,-11843.295072,3108.864956,919.314598
3771.657002,-11399.171507,2738.761985,306.438199
3771.657332,-10214.842000,2220.617826,1532.190996
3771.657662,-9030.512492,1702.473667,2298.286494
3771.657992,-8142.265362,1924.535449,2681.334243
3771.658322,-7920.203579,1702.473667,3830.477490
3771.658651,-8142.265362,2442.679609,4213.525239
3771.658981,-9104.533087,3404.947333,4749.792088
3771.659311,-10658.965565,3997.112087,4519.963438
3771.659641,-11843.295072,4663.297435,4443.353888
3771.659971,-12287.418637,3923.091493,3677.258390
3771.660301,-12509.480420,3701.029710,3600.648841
3771.660630,-11843.295072,3182.885551,3677.258390
3771.660960,-10214.842000,2664.741391,3217.601092
3771.661290,-8438.347739,2442.679609,3294.210641
3771.661620,-7254.018232,2590.720797,2451.505594
3771.661950,-7550.100608,3256.906145,2911.162892
3771.662280,-7846.182985,3701.029710,4060.306139
3771.662609,-8216.285956,3552.988522,4290.134789
3771.662939,-9548.656652,4515.256246,4519.963438
3771.663269,-10584.944971,4663.297435,3983.696590
3771.663599,-11547.212695,5255.462188,3753.867940
3771.663929,-11473.192101,4441.235652,3140.991542
3771.664259,-11621.233289,4367.215058,3370.820191
3771.664588,-10510.924376,3923.091493,2604.724693
3771.664918,-9400.615463,3627.009116,3370.820191
3771.665248,-8882.471304,3701.029710,3677.258390
3771.665578,-9030.512492,3849.070898,3370.820191
3771.665908,-8142.265362,4145.153275,2911.162892
3771.666238,-7846.182985,4071.132681,2145.067394
3771.666568,-8216.285956,4885.359217,2374.896044
3771.666897,-9400.615463,4885.359217,2221.676944
3771.667227,-11103.089130,5329.482782,2221.676944
3771.667557,-10881.027347,4737.318029,1225.752797
3771.667887,-11473.192101,4589.276840,-76.609550
3771.668217,-11177.109724,4589.276840,459.657299
3771.668547,-11547.212695,3404.947333,1838.629195
3771.668876,-10584.944971,3108.864956,3294.210641
3771.669206,-8364.327145,2442.679609,3370.820191
3771.669536,-7772.162391,2960.823768,2528.115143
3771.669866,-7846.182985,3108.864956,1991.848295
3771.670196,-8586.388927,3701.029710,1225.752797
3771.670526,-9696.697840,4219.173869,1225.752797
3771.670855,-9844.739029,4145.153275,919.314598
3771.671185,-10658.965565,3923.091493,1455.581446
3771.671515,-11029.068536,3182.885551,459.657299
3771.671845,-11399.171507,2738.761985,-612.876398
3771.672175,-10436.903782,1702.473667,-229.828649
3771.672505,-8586.388927,888.247130,459.657299
3771.672834,-8068.244768,888.247130,2221.676944
3771.673164,-8734.430116,1480.411884,3907.087040
3771.673494,-8808.450710,1628.453072,3217.601092
3771.673824,-8290.306550,1850.514855,2757.943793
3771.674154,-9252.574275,1998.556043,1225.752797
3771.674484,-10140.821405,1554.432478,1608.800546
3771.674814,-11325.150913,2072.576638,1838.629195
3771.675143,-10881.027347,1184.329507,2987.772442
3771.675473,-9770.718434,740.205942,1685.410096
3771.675803,-9844.739029,0.000000,766.095498
3771.676133,-10214.842000,296.082377,1685.410096
3771.676463,-10732.986159,-888.247130,2068.457845
3771.676793,-9178.553681,-592.164754,3064.381992
3771.677122,-8808.450710,-666.185348,2681.334243
3771.677452,-8290.306550,-814.226536,2451.505594
3771.677782,-8882.471304,-370.102971,1302.362347
3771.678112,-9030.512492,-592.164754,995.924147
3771.678442,-10362.883188,0.000000,1072.533697
3771.678772,-10584.944971,-444.123565,842.705048
3771.679101,-9992.780217,-1036.288319,1991.848295
3771.679431,-10436.903782,-1258.350101,3447.429741
3771.679761,-10362.883188,-1332.370696,3830.477490
3771.680091,-9918.759623,-1628.453072,2911.162892
3771.680421,-8660.409521,-1110.308913,2451.505594
3771.680751,-7698.141797,-814.226536,2451.505594
3771.681080,-8364.327145,222.061783,3677.258390
3771.681410,-10881.027347,1406.391290,3600.648841
3771.681740,-10807.006753,1110.308913,2068.457845
3771.682070,-9992.780217,1184.329507,919.314598
3771.682400,-9844.739029,1110.308913,1762.019645
3771.682730,-10066.800811,444.123565,2451.505594
3771.683059,-10066.800811,296.082377,3064.381992
3771.683389,-9252.574275,666.185348,3370.820191
3771.683719,-8364.327145,518.144159,3447.429741
3771.684049,-9622.677246,1332.370696,3217.601092
3771.684379,-9844.739029,1998.556043,3600.648841
3771.684709,-9326.594869,2072.576638,4136.915689
3771.685039,-9400.615463,3478.967927,3830.477490
3771.685368,-9548.656652,3478.967927,4443.353888
3771.685698,-10732.986159,3478.967927,4979.620737
3771.686028,-11399.171507,4071.132681,3677.258390
3771.686358,-11029.068536,4293.194464,2681.334243
3771.686688,-11029.068536,4737.318029,2528.115143
3771.687018,-10510.924376,4515.256246,919.314598
3771.687347,-9770.718434,4071.132681,2145.067394
3771.687677,-9474.636058,4441.235652,2987.772442
3771.688007,-8364.327145,3997.112087,3064.381992
3771.688337,-8660.409521,3849.070898,3677.258390
3771.688667,-8364.327145,4145.153275,3217.601092
3771.688997,-8808.450710,4441.235652,2987.772442
3771.689326,-9770.718434,4885.359217,3753.867940
3771.689656,-10881.027347,4293.194464,3677.258390
3771.689986,-11991.336260,4959.379811,3370.820191
3771.690316,-11547.212695,4589.276840,1378.971896
3771.690646,-11695.253884,4663.297435,0.000000
3771.690976,-10362.883188,4441.235652,-1378.971896
3771.691305,-9104.533087,3775.050304,-1532.190996
3771.691635,-8512.368333,3404.947333,-995.924147
3771.691965,-8068.244768,3034.844362,306.438199
3771.692295,-7402.059420,3404.947333,1302.362347
3771.692625,-7476.080014,2368.659014,612.876398
3771.692955,-7920.203579,2738.761985,-383.047749
3771.693285,-9326.594869,1702.473667,-842.705048
3771.693614,-9326.594869,2294.638420,-766.095498
3771.693944,-8364.327145,1998.556043,995.924147
3771.694274,-9030.512492,2146.597232,2221.676944
3771.694604,-10362.883188,2590.720797,2911.162892
3771.694934,-11917.315666,2368.659014,1225.752797
3771.695264,-10807.006753,2812.782580,-1149.143247
3771.695593,-10140.821405,2294.638420,-2451.505594
3771.695923,-9326.594869,2516.700203,-1149.143247
3771.696253,-9770.718434,1184.329507,1072.533697
3771.696583,-9104.533087,2368.659014,1378.971896
3771.696913,-7105.977043,1406.391290,383.047749
3771.697243,-8586.388927,2072.576638,-1225.752797
3771.697572,-11325.150913,2368.659014,-1149.143247
3771.697902,-11473.192101,2368.659014,-842.705048
3771.698232,-10881.027347,1998.556043,153.219100
3771.698562,-11177.109724,1258.350101,1762.019645
3771.698892,-12361.439231,888.247130,2987.772442
3771.699222,-12139.377449,-592.164754,1838.629195
3771.699551,-10436.903782,-1332.370696,919.314598
3771.699881,-8956.491898,-2664.741391,919.314598
3771.700211,-9696.697840,-2220.617826,1838.629195
3771.700541,-10140.821405,-2738.761985,2604.724693
3771.700871,-7550.100608,-2294.638420,842.705048
3771.701201,-7698.141797,-1702.473667,-459.657299
3771.701531,-9178.553681,-1110.308913,-1532.190996
3771.701860,-10955.047942,-2220.617826,-1455.581446
3771.702190,-10436.903782,-1628.453072,-995.924147
3771.702520,-10658.965565,-3478.967927,1838.629195
3771.702850,-10955.047942,-3849.070898,4060.306139
3771.703180,-10584.944971,-4145.153275,4749.792088
3771.703510,-9030.512492,-4293.194464,2451.505594
3771.703839,-7328.038826,-4219.173869,995.924147
3771.704169,-7179.997637,-3256.906145,1149.143247
3771.704499,-7846.182985,-2220.617826,1302.362347
3771.704829,-7772.162391,-1628.453072,2145.067394
3771.705159,-9252.574275,-296.082377,1915.238745
3771.705489,-12139.377449,-518.144159,1149.143247
3771.705818,-13027.624579,-592.164754,-383.047749
3771.706148,-11917.315666,-1776.494261,-1991.848295
3771.706478,-9844.739029,-2072.576638,-2068.457845
3771.706808,-8956.491898,-2442.679609,383.047749
3771.707138,-8512.368333,-2072.576638,1685.410096
