#time,accel_x,accel_y,accel_z
3604.122916,-11251.130318,-2072.576638,-689.485948
3604.123246,-11103.089130,-2886.803174,459.657299
3604.123576,-10436.903782,-2368.659014,612.876398
3604.123907,-9918.759623,-2294.638420,-459.657299
3604.124237,-9104.533087,-1258.350101,-1378.971896
3604.124567,-8808.450710,74.020594,-1685.410096
3604.124897,-9770.718434,592.164754,-1378.971896
3604.125227,-9474.636058,1110.308913,-459.657299
3604.125557,-9252.574275,740.205942,-612.876398
3604.125888,-8956.491898,1628.453072,-2068.457845
3604.126218,-10214.842000,814.226536,-2298.286494
3604.126548,-11177.109724,1480.411884,-1149.143247
3604.126878,-10732.986159,666.185348,229.828649
3604.127208,-10510.924376,1258.350101,536.266849
3604.127538,-7846.182985,1036.288319,612.876398
3604.127868,-9548.656652,222.061783,-1072.533697
3604.128199,-10066.800811,296.082377,-1302.362347
3604.128529,-7994.224174,592.164754,536.266849
3604.128859,-9474.636058,1998.556043,-306.438199
3604.129189,-9696.697840,1850.514855,-842.705048
3604.129519,-8364.327145,2886.803174,-766.095498
3604.129849,-9178.553681,2146.597232,-1378.971896
3604.130180,-10288.862594,1776.494261,-2911.162892
3604.130510,-10140.821405,1406.391290,-2145.067394
3604.130840,-9252.574275,962.267725,-1685.410096
3604.131170,-9400.615463,1110.308913,-306.438199
3604.131500,-9992.780217,518.144159,-842.705048
3604.131830,-10584.944971,740.205942,-689.485948
3604.132161,-10066.800811,444.123565,-2451.505594
3604.132491,-9178.553681,518.144159,-3907.087040
3604.132821,-9178.553681,444.123565,-4366.744339
3604.133151,-9622.677246,296.082377,-2987.772442
3604.133481,-9844.739029,-74.020594,-1149.143247
3604.133811,-8882.471304,-1110.308913,153.219100
3604.134141,-8956.491898,-1110.308913,459.657299
3604.134472,-8956.491898,-1406.391290,-919.314598
3604.134802,-9770.718434,-1258.350101,-2145.067394
3604.135132,-10658.965565,-888.247130,-2681.334243
3604.135462,-10732.986159,-666.185348,-2757.943793
3604.135792,-11177.109724,-1184.329507,-2374.896044
3604.136122,-10658.965565,-1406.391290,-2681.334243
3604.136453,-10436.903782,-1702.473667,-2681.334243
3604.136783,-10288.862594,-2072.576638,-2374.896044
3604.137113,-9474.636058,-2664.741391,-2221.676944
3604.137443,-9326.594869,-2664.741391,-1838.629195
3604.137773,-9252.574275,-2368.659014,-1608.800546
3604.138103,-9918.759623,-2442.679609,-1685.410096
3604.138434,-10214.842000,-2738.761985,-2068.457845
3604.138764,-9474.636058,-3182.885551,-1532.190996
3604.139094,-8956.491898,-3552.988522,-229.828649
3604.139424,-9252.574275,-3552.988522,1302.362347
3604.139754,-10140.821405,-2516.700203,842.705048
3604.140084,-10140.821405,-2664.741391,459.657299
3604.140414,-10732.986159,-2368.659014,-459.657299
3604.140745,-10807.006753,-2294.638420,-919.314598
3604.141075,-9770.718434,-1998.556043,-766.095498
3604.141405,-9992.780217,-2220.617826,536.266849
3604.141735,-9770.718434,-1776.494261,1762.019645
3604.142065,-9252.574275,-1036.288319,1915.238745
3604.142395,-10362.883188,-888.247130,229.828649
3604.142726,-11399.171507,-148.041188,-1378.971896
3604.143056,-11547.212695,-740.205942,-2374.896044
3604.143386,-11029.068536,-888.247130,-2528.115143
3604.143716,-9622.677246,-1184.329507,-1149.143247
3604.144046,-8512.368333,-1332.370696,919.314598
3604.144376,-8512.368333,-1554.432478,2528.115143
3604.144707,-8956.491898,-1258.350101,2604.724693
3604.145037,-8808.450710,-1036.288319,2374.896044
3604.145367,-9030.512492,-370.102971,1532.190996
3604.145697,-9474.636058,-296.082377,2834.553343
3604.146027,-10658.965565,74.020594,4443.353888
3604.146357,-10732.986159,222.061783,3600.648841
3604.146687,-10881.027347,370.102971,1302.362347
3604.147017,-10436.903782,518.144159,-1225.752797
3604.147347,-10510.924376,0.000000,-2451.505594
3604.147678,-10066.800811,-296.082377,-1455.581446
3604.148008,-8734.430116,-666.185348,612.876398
3604.148338,-7772.162391,-592.164754,2145.067394
3604.148668,-7624.121203,-518.144159,2451.505594
3604.148998,-7550.100608,0.000000,1378.971896
3604.149328,-8512.368333,-222.061783,153.219100
3604.149658,-9400.615463,0.000000,0.000000
3604.149988,-10658.965565,74.020594,1838.629195
3604.150318,-11177.109724,0.000000,3677.258390
3604.150648,-11547.212695,0.000000,3140.991542
3604.150978,-11621.233289,-518.144159,689.485948
3604.151308,-11177.109724,-1258.350101,-1991.848295
3604.151638,-10288.862594,-1998.556043,-3830.477490
3604.151968,-8956.491898,-2368.659014,-2911.162892
3604.152298,-7624.121203,-2516.700203,0.000000
3604.152629,-7328.038826,-1850.514855,1225.752797
3604.152959,-6809.894666,-1554.432478,0.000000
3604.153289,-7254.018232,-1258.350101,-2068.457845
3604.153619,-9104.533087,-1184.329507,-2528.115143
3604.153949,-11473.192101,-370.102971,-1685.410096
3604.154279,-12361.439231,-740.205942,1225.752797
3604.154609,-11991.336260,-1406.391290,2528.115143
3604.154939,-12065.356855,-1628.453072,1378.971896
3604.155269,-11621.233289,-2368.659014,-459.657299
3604.155599,-10732.986159,-3330.926739,-2911.162892
3604.155929,-9474.636058,-3034.844362,-3447.429741
3604.156259,-7328.038826,-2738.761985,-1685.410096
3604.156589,-6735.874072,-1406.391290,1072.533697
3604.156919,-7254.018232,-814.226536,1685.410096
3604.157250,-8734.430116,370.102971,-612.876398
3604.157580,-10362.883188,444.123565,-2757.943793
3604.157910,-11769.274478,222.061783,-2221.676944
3604.158240,-12065.356855,-444.123565,612.876398
3604.158570,-11991.336260,-592.164754,4060.306139
3604.158900,-11325.150913,-888.247130,4979.620737
3604.159230,-11177.109724,-592.164754,2604.724693
3604.159560,-11251.130318,-74.020594,-1378.971896
3604.159890,-10658.965565,0.000000,-3677.258390
3604.160220,-9252.574275,666.185348,-2298.286494
3604.160550,-8438.347739,1332.370696,842.705048
3604.160880,-8364.327145,2368.659014,2757.943793
3604.161210,-8068.244768,2738.761985,1608.800546
3604.161540,-8586.388927,2442.679609,-919.314598
3604.161871,-9844.739029,2368.659014,-1838.629195
3604.162201,-11399.171507,2294.638420,-612.876398
3604.162531,-11843.295072,1628.453072,2528.115143
3604.162861,-11769.274478,1776.494261,4903.011187
3604.163191,-10955.047942,1998.556043,4290.134789
3604.163521,-10658.965565,1702.473667,1072.533697
3604.163851,-9696.697840,1554.432478,-1838.629195
3604.164181,-8586.388927,1628.453072,-1991.848295
3604.164511,-7402.059420,1850.514855,153.219100
3604.164841,-7105.977043,2812.782580,3217.601092
3604.165171,-7624.121203,3627.009116,3140.991542
3604.165501,-8142.265362,3701.029710,0.000000
3604.165831,-9474.636058,3404.947333,-2834.553343
3604.166161,-11399.171507,3256.906145,-3064.381992
3604.166492,-11769.274478,2368.659014,-689.485948
3604.166822,-10510.924376,1998.556043,1608.800546
3604.167152,-9844.739029,1628.453072,3370.820191
3604.167482,-9252.574275,1332.370696,1532.190996
3604.167812,-9622.677246,1702.473667,-1991.848295
3604.168142,-9326.594869,1184.329507,-3140.991542
3604.168472,-9326.594869,1628.453072,-2221.676944
3604.168802,-8808.450710,1702.473667,1149.143247
3604.169132,-8956.491898,1776.494261,3370.820191
3604.169462,-9178.553681,2146.597232,1838.629195
3604.169792,-9178.553681,1332.370696,-1532.190996
3604.170122,-9622.677246,888.247130,-3753.867940
3604.170452,-10140.821405,222.061783,-2911.162892
3604.170782,-10807.006753,-296.082377,76.609550
3604.171113,-10362.883188,-962.267725,2987.772442
3604.171443,-10288.862594,-1036.288319,3600.648841
3604.171773,-10510.924376,-1110.308913,1072.533697
3604.172103,-10214.842000,-1554.432478,-2451.505594
3604.172433,-10066.800811,-1998.556043,-2834.553343
3604.172763,-9104.533087,-1554.432478,0.000000
3604.173093,-8586.388927,-1184.329507,3294.210641
3604.173423,-8660.409521,-1184.329507,3600.648841
3604.173753,-9474.636058,-666.185348,1455.581446
3604.174083,-11029.068536,-962.267725,-1608.800546
3604.174413,-11695.253884,-1480.411884,-2834.553343
3604.174743,-11029.068536,-2590.720797,-1532.190996
3604.175073,-10584.944971,-2886.803174,2604.724693
3604.175403,-10214.842000,-2590.720797,5132.839837
3604.175734,-9770.718434,-2294.638420,4060.306139
3604.176064,-9548.656652,-2590.720797,-995.924147
3604.176394,-9918.759623,-1998.556043,-4826.401637
3604.176724,-10510.924376,-1998.556043,-3830.477490
3604.177054,-9844.739029,-1628.453072,0.000000
3604.177384,-9400.615463,-1628.453072,2757.943793
3604.177714,-8438.347739,-1702.473667,2374.896044
3604.178044,-8734.430116,-1850.514855,383.047749
3604.178374,-10214.842000,-1332.370696,-2221.676944
3604.178704,-10584.944971,-1480.411884,-2068.457845
3604.179034,-10955.047942,-1258.350101,919.314598
3604.179364,-11103.089130,-962.267725,4749.792088
3604.179694,-11177.109724,-444.123565,4596.572988
3604.180024,-10510.924376,-518.144159,1225.752797
3604.180355,-9770.718434,-666.185348,-3217.601092
3604.180685,-9400.615463,-962.267725,-4903.011187
3604.181015,-8438.347739,-1036.288319,-2374.896044
3604.181345,-7772.162391,-148.041188,1991.848295
3604.181675,-7772.162391,370.102971,3677.258390
3604.182005,-8216.285956,1184.329507,2068.457845
3604.182335,-9474.636058,1258.350101,-1608.800546
3604.182665,-9992.780217,666.185348,-2681.334243
3604.182995,-10881.027347,1036.288319,-995.924147
3604.183325,-10658.965565,962.267725,2834.553343
3604.183655,-10510.924376,1406.391290,5362.668486
3604.183985,-9622.677246,1924.535449,3907.087040
3604.184315,-9474.636058,1702.473667,-689.485948
3604.184645,-9844.739029,1776.494261,-4290.134789
3604.184976,-10214.842000,1332.370696,-4213.525239
3604.185306,-9474.636058,1702.473667,-995.924147
3604.185636,-8438.347739,1998.556043,2298.286494
3604.185966,-8216.285956,1850.514855,3370.820191
3604.186296,-8290.306550,2220.617826,842.705048
3604.186626,-8734.430116,1924.535449,-2068.457845
3604.186956,-9844.739029,2220.617826,-3064.381992
3604.187286,-10288.862594,1628.453072,306.438199
3604.187616,-11029.068536,2368.659014,4519.963438
3604.187946,-11177.109724,2220.617826,5592.497135
3604.188276,-11029.068536,2072.576638,2987.772442
3604.188606,-11177.109724,1184.329507,-2298.286494
3604.188936,-10732.986159,666.185348,-4213.525239
3604.189266,-9548.656652,370.102971,-2528.115143
3604.189597,-8142.265362,740.205942,1532.190996
3604.189927,-7772.162391,1184.329507,3907.087040
3604.190257,-8290.306550,1776.494261,2145.067394
3604.190587,-8808.450710,1702.473667,-1532.190996
3604.190917,-10066.800811,1628.453072,-3830.477490
3604.191247,-11177.109724,1184.329507,-2987.772442
3604.191577,-11547.212695,814.226536,1072.533697
3604.191907,-10658.965565,222.061783,4213.525239
3604.192237,-10066.800811,0.000000,3600.648841
3604.192567,-9844.739029,0.000000,306.438199
3604.192897,-10807.006753,-222.061783,-3447.429741
3604.193227,-10658.965565,-814.226536,-4366.744339
3604.193557,-9770.718434,-518.144159,-2221.676944
3604.193887,-8734.430116,-444.123565,1608.800546
3604.194217,-8364.327145,-148.041188,2604.724693
3604.194548,-8216.285956,-74.020594,1225.752797
3604.194878,-8808.450710,-222.061783,-1991.848295
3604.195208,-9696.697840,-666.185348,-3064.381992
3604.195538,-10288.862594,-740.205942,-536.266849
3604.195868,-11473.192101,-444.123565,3600.648841
3604.196198,-11695.253884,-518.144159,5056.230287
3604.196528,-11769.274478,-740.205942,3753.867940
3604.196858,-10955.047942,-1554.432478,-766.095498
3604.197188,-10584.944971,-1702.473667,-3217.601092
3604.197518,-9474.636058,-1628.453072,-2911.162892
3604.197848,-8142.265362,-1184.329507,0.000000
3604.198178,-7476.080014,-814.226536,3140.991542
3604.198508,-7772.162391,148.041188,2374.896044
3604.198838,-8364.327145,0.000000,-383.047749
3604.199169,-9992.780217,0.000000,-2221.676944
3604.199499,-11621.233289,-740.205942,-1302.362347
3604.199829,-11843.295072,-888.247130,1838.629195
3604.200159,-11029.068536,-1332.370696,5209.449386
3604.200489,-10510.924376,-1480.411884,5362.668486
3604.200819,-9992.780217,-1184.329507,2451.505594
3604.201149,-9696.697840,-1406.391290,-2221.676944
3604.201479,-9474.636058,-666.185348,-4443.353888
3604.201809,-8734.430116,-592.164754,-2757.943793
3604.202139,-8364.327145,-296.082377,459.657299
3604.202469,-7846.182985,-740.205942,2145.067394
3604.202799,-7550.100608,0.000000,995.924147
3604.203129,-7624.121203,-222.061783,-2145.067394
3604.203459,-8956.491898,-518.144159,-3217.601092
3604.203790,-10066.800811,-296.082377,-1532.190996
3604.204120,-10955.047942,-296.082377,2834.553343
3604.204450,-11547.212695,0.000000,4749.792088
3604.204780,-11399.171507,-148.041188,3370.820191
3604.205110,-11473.192101,0.000000,-383.047749
3604.205440,-10214.842000,-666.185348,-3677.258390
3604.205770,-9474.636058,-740.205942,-4060.306139
3604.206100,-7994.224174,-444.123565,-842.705048
3604.206430,-7476.080014,0.000000,1762.019645
3604.206760,-7476.080014,814.226536,2298.286494
3604.207090,-8734.430116,1110.308913,-229.828649
3604.207420,-10362.883188,888.247130,-2757.943793
3604.207750,-11473.192101,666.185348,-2987.772442
3604.208080,-11621.233289,370.102971,0.000000
3604.208411,-11547.212695,-296.082377,3983.696590
3604.208741,-10955.047942,0.000000,5515.887586
3604.209071,-10881.027347,-222.061783,3217.601092
3604.209401,-10584.944971,-148.041188,-1608.800546
3604.209731,-9844.739029,-222.061783,-4519.963438
3604.210061,-9622.677246,0.000000,-3370.820191
3604.210391,-9104.533087,222.061783,0.000000
3604.210721,-8512.368333,444.123565,2374.896044
3604.211051,-8216.285956,518.144159,1378.971896
3604.211381,-8290.306550,444.123565,-1302.362347
3604.211711,-9474.636058,0.000000,-2987.772442
3604.212041,-10510.924376,0.000000,-2145.067394
3604.212371,-10881.027347,-296.082377,1991.848295
3604.212701,-11029.068536,222.061783,3983.696590
3604.213032,-10658.965565,148.041188,4060.306139
3604.213362,-11029.068536,0.000000,1149.143247
3604.213692,-10658.965565,0.000000,-3907.087040
3604.214022,-9918.759623,-370.102971,-4290.134789
3604.214352,-8438.347739,-296.082377,-1915.238745
3604.214682,-7476.080014,148.041188,1685.410096
3604.215012,-7254.018232,740.205942,3140.991542
3604.215342,-8216.285956,1332.370696,1149.143247
3604.215672,-9326.594869,1332.370696,-1762.019645
3604.216002,-11029.068536,1332.370696,-2911.162892
3604.216332,-11769.274478,888.247130,-459.657299
3604.216662,-11325.150913,0.000000,3064.381992
3604.216992,-11177.109724,370.102971,6128.763984
3604.217322,-10881.027347,370.102971,4826.401637
3604.217653,-10436.903782,296.082377,76.609550
3604.217983,-10140.821405,222.061783,-3983.696590
3604.218313,-10288.862594,592.164754,-3600.648841
3604.218643,-9400.615463,814.226536,-689.485948
3604.218973,-8290.306550,740.205942,2604.724693
3604.219303,-8142.265362,962.267725,2834.553343
3604.219633,-8068.244768,592.164754,76.609550
3604.219963,-9178.553681,592.164754,-2374.896044
3604.220293,-10214.842000,370.102971,-2451.505594
3604.220623,-11029.068536,148.041188,383.047749
3604.220953,-11177.109724,0.000000,4136.915689
3604.221283,-11473.192101,0.000000,5056.230287
3604.221613,-10732.986159,0.000000,2451.505594
3604.221943,-10214.842000,-296.082377,-2145.067394
3604.222274,-9474.636058,-1332.370696,-4060.306139
3604.222604,-8512.368333,-740.205942,-2068.457845
3604.222934,-7328.038826,-296.082377,1532.190996
3604.223264,-7772.162391,444.123565,3217.601092
3604.223594,-7994.224174,1036.288319,1455.581446
3604.223924,-9178.553681,814.226536,-2145.067394
3604.224254,-10510.924376,296.082377,-4060.306139
3604.224584,-11251.130318,0.000000,-2068.457845
3604.224914,-11621.233289,-148.041188,2374.896044
3604.225244,-11029.068536,-666.185348,5286.058936
3604.225574,-10807.006753,-296.082377,5209.449386
3604.225904,-10955.047942,-444.123565,842.705048
3604.226234,-10807.006753,-518.144159,-3294.210641
3604.226564,-9992.780217,-1036.288319,-3983.696590
3604.226895,-9474.636058,-296.082377,-1378.971896
3604.227225,-8364.327145,-222.061783,2604.724693
3604.227555,-8216.285956,0.000000,3447.429741
3604.227885,-8438.347739,74.020594,1302.362347
3604.228215,-9326.594869,0.000000,-1991.848295
3604.228545,-10436.903782,-222.061783,-2757.943793
3604.228875,-10881.027347,-666.185348,0.000000
3604.229205,-11547.212695,-740.205942,4060.306139
3604.229535,-11251.130318,-370.102971,6052.154434
3604.229865,-11029.068536,-518.144159,3370.820191
3604.230195,-10807.006753,-888.247130,-1149.143247
3604.230525,-9992.780217,-1184.329507,-4213.525239
3604.230855,-9326.594869,-1036.288319,-3370.820191
3604.231185,-7698.141797,-148.041188,153.219100
3604.231516,-7550.100608,0.000000,2757.943793
3604.231846,-7328.038826,740.205942,2374.896044
3604.232176,-8512.368333,592.164754,-383.047749
3604.232506,-10214.842000,592.164754,-3524.039291
3604.232836,-11621.233289,0.000000,-3064.381992
3604.233166,-11695.253884,0.000000,919.314598
3604.233496,-10955.047942,-74.020594,4903.011187
3604.233826,-10140.821405,-296.082377,4979.620737
3604.234156,-9918.759623,74.020594,1455.581446
3604.234486,-10140.821405,444.123565,-3217.601092
3604.234816,-10214.842000,296.082377,-5209.449386
3604.235146,-9770.718434,444.123565,-3524.039291
3604.235476,-8438.347739,592.164754,383.047749
3604.235806,-8512.368333,1406.391290,2681.334243
3604.236136,-8216.285956,962.267725,1455.581446
3604.236467,-8956.491898,370.102971,-2604.724693
3604.236797,-9548.656652,370.102971,-4136.915689
3604.237127,-9992.780217,0.000000,-2145.067394
3604.237457,-11325.150913,592.164754,2451.505594
3604.237787,-11547.212695,0.000000,5209.449386
3604.238117,-10732.986159,148.041188,3907.087040
3604.238447,-10436.903782,0.000000,-229.828649
3604.238777,-9918.759623,-592.164754,-3753.867940
3604.239107,-9400.615463,-1036.288319,-3524.039291
3604.239437,-7624.121203,-444.123565,-153.219100
3604.239767,-7105.977043,74.020594,3064.381992
3604.240097,-7328.038826,962.267725,3447.429741
3604.240427,-8364.327145,1554.432478,306.438199
3604.240757,-9770.718434,1258.350101,-2681.334243
3604.241088,-11251.130318,740.205942,-2911.162892
3604.241418,-11621.233289,148.041188,76.609550
3604.241748,-11177.109724,-370.102971,4136.915689
3604.242078,-10584.944971,-592.164754,5592.497135
3604.242408,-10140.821405,-592.164754,3217.601092
3604.242738,-10140.821405,-444.123565,-1532.190996
3604.243068,-10066.800811,-222.061783,-4136.915689
3604.243398,-9400.615463,-148.041188,-2911.162892
3604.243728,-8734.430116,222.061783,689.485948
3604.244058,-8438.347739,370.102971,3370.820191
3604.244388,-8364.327145,814.226536,2757.943793
3604.244718,-8956.491898,518.144159,0.000000
3604.245048,-10362.883188,518.144159,-2221.676944
3604.245378,-11399.171507,518.144159,-1608.800546
3604.245709,-11695.253884,148.041188,1838.629195
3604.246039,-11621.233289,74.020594,4290.134789
3604.246369,-11251.130318,0.000000,4136.915689
3604.246699,-11251.130318,0.000000,0.000000
3604.247029,-10436.903782,-222.061783,-3753.867940
3604.247359,-9622.677246,-518.144159,-4443.353888
3604.247689,-8438.347739,-296.082377,-1762.019645
3604.248019,-7698.141797,148.041188,1991.848295
3604.248349,-7772.162391,666.185348,2911.162892
3604.248679,-8290.306550,740.205942,689.485948
3604.249009,-9622.677246,814.226536,-2374.896044
3604.249339,-11177.109724,222.061783,-3677.258390
3604.249669,-11991.336260,-74.020594,-536.266849
3604.249999,-11695.253884,-444.123565,3677.258390
3604.250329,-10732.986159,-888.247130,5439.278036
3604.250659,-10362.883188,-296.082377,3983.696590
3604.250989,-9770.718434,-296.082377,-766.095498
3604.251319,-9474.636058,0.000000,-4749.792088
3604.251649,-9252.574275,0.000000,-4290.134789
3604.251979,-8586.388927,592.164754,0.000000
3604.252309,-8068.244768,370.102971,2451.505594
3604.252639,-8216.285956,592.164754,2374.896044
3604.252969,-8512.368333,370.102971,-229.828649
3604.253299,-9252.574275,0.000000,-2757.943793
3604.253629,-10807.006753,0.000000,-2451.505594
3604.253959,-11029.068536,-370.102971,1149.143247
3604.254289,-11325.150913,-222.061783,4519.963438
3604.254619,-11251.130318,0.000000,5132.839837
3604.254949,-11695.253884,222.061783,1685.410096
3604.255279,-10732.986159,-592.164754,-2528.115143
3604.255609,-9548.656652,-888.247130,-4903.011187
3604.255939,-8438.347739,-814.226536,-2528.115143
3604.256269,-7550.100608,-148.041188,2374.896044
3604.256599,-7105.977043,222.061783,3677.258390
3604.256929,-8068.244768,1110.308913,1685.410096
3604.257259,-9400.615463,1036.288319,-1762.019645
3604.257589,-11103.089130,814.226536,-3370.820191
3604.257919,-11695.253884,0.000000,-2145.067394
3604.258249,-11843.295072,-444.123565,2221.676944
3604.258579,-10881.027347,-814.226536,5592.497135
3604.258909,-10214.842000,-444.123565,4826.401637
3604.259239,-9992.780217,-370.102971,536.266849
3604.259569,-9844.739029,-370.102971,-3753.867940
3604.259899,-9696.697840,-296.082377,-4366.744339
3604.260229,-8956.491898,148.041188,-1532.190996
3604.260559,-8290.306550,0.000000,2757.943793
3604.260889,-8068.244768,148.041188,3524.039291
3604.261219,-8216.285956,444.123565,995.924147
3604.261549,-9326.594869,222.061783,-2451.505594
3604.261879,-10732.986159,296.082377,-3217.601092
3604.262209,-11177.109724,0.000000,-536.266849
3604.262539,-11695.253884,0.000000,3447.429741
3604.262869,-11843.295072,222.061783,5132.839837
3604.263199,-10807.006753,-222.061783,2757.943793
3604.263529,-10658.965565,-444.123565,-1455.581446
3604.263859,-9696.697840,-1110.308913,-3983.696590
3604.264189,-8956.491898,-444.123565,-2528.115143
3604.264519,-7698.141797,0.000000,1225.752797
3604.264849,-7476.080014,592.164754,4060.306139
3604.265179,-7920.203579,1332.370696,2911.162892
3604.265509,-9548.656652,1184.329507,-153.219100
3604.265839,-11029.068536,1110.308913,-2528.115143
3604.266169,-12213.398043,148.041188,-1608.800546
3604.266499,-12287.418637,148.041188,1991.848295
3604.266829,-11473.192101,0.000000,5132.839837
3604.267159,-10732.986159,-148.041188,5286.058936
3604.267489,-9844.739029,-148.041188,1378.971896
3604.267819,-9992.780217,74.020594,-3140.991542
3604.268149,-9770.718434,0.000000,-4136.915689
3604.268479,-9178.553681,222.061783,-2068.457845
3604.268809,-8290.306550,518.144159,2221.676944
3604.269139,-8142.265362,666.185348,4136.915689
3604.269469,-8586.388927,814.226536,2068.457845
3604.269799,-9030.512492,370.102971,-1455.581446
3604.270129,-9992.780217,222.061783,-2834.553343
3604.270459,-10881.027347,74.020594,0.000000
3604.270789,-11251.130318,148.041188,2911.162892
3604.271119,-11251.130318,370.102971,4826.401637
3604.271449,-10881.027347,444.123565,2834.553343
3604.271779,-10214.842000,222.061783,-1991.848295
3604.272109,-9474.636058,-222.061783,-4979.620737
3604.272438,-8438.347739,-518.144159,-4443.353888
3604.272768,-7179.997637,0.000000,-919.314598
3604.273098,-7476.080014,666.185348,2681.334243
3604.273428,-8364.327145,1258.350101,2451.505594
3604.273758,-8808.450710,888.247130,-229.828649
3604.274088,-10362.883188,1036.288319,-3447.429741
3604.274418,-11473.192101,74.020594,-2604.724693
3604.274748,-11769.274478,-518.144159,842.705048
3604.275078,-11325.150913,-666.185348,4673.182538
3604.275408,-10362.883188,-444.123565,5439.278036
3604.275738,-10066.800811,-444.123565,2145.067394
3604.276068,-9696.697840,-296.082377,-2604.724693
3604.276398,-9918.759623,-370.102971,-4826.401637
3604.276728,-9400.615463,74.020594,-2834.553343
3604.277058,-9030.512492,148.041188,689.485948
3604.277388,-8512.368333,444.123565,3217.601092
3604.277718,-8586.388927,148.041188,2145.067394
3604.278048,-9252.574275,444.123565,-766.095498
3604.278378,-10362.883188,0.000000,-2987.772442
3604.278708,-11251.130318,-592.164754,-995.924147
3604.279038,-11843.295072,-814.226536,2221.676944
3604.279368,-11399.171507,-962.267725,4903.011187
3604.279698,-10881.027347,-814.226536,3983.696590
3604.280028,-10436.903782,-1110.308913,306.438199
3604.280358,-9770.718434,-1480.411884,-3600.648841
3604.280688,-8956.491898,-1480.411884,-4290.134789
3604.281018,-7624.121203,-962.267725,-1302.362347
3604.281348,-7254.018232,-518.144159,2221.676944
3604.281678,-7698.141797,296.082377,3064.381992
3604.282008,-8512.368333,888.247130,766.095498
3604.282338,-10436.903782,814.226536,-2451.505594
3604.282668,-11769.274478,296.082377,-2987.772442
3604.282998,-12361.439231,-222.061783,-383.047749
3604.283328,-11695.253884,-962.267725,3983.696590
3604.283658,-10658.965565,-814.226536,5745.716235
3604.283988,-10066.800811,-740.205942,2987.772442
3604.284318,-9400.615463,-740.205942,-1685.410096
3604.284648,-9474.636058,-814.226536,-5132.839837
3604.284978,-9178.553681,0.000000,-3677.258390
3604.285308,-8512.368333,592.164754,-76.609550
3604.285638,-8512.368333,444.123565,3294.210641
3604.285968,-8734.430116,888.247130,3140.991542
3604.286298,-9030.512492,444.123565,306.438199
3604.286628,-10140.821405,518.144159,-2374.896044
3604.286958,-11103.089130,0.000000,-1608.800546
3604.287288,-11547.212695,148.041188,1838.629195
3604.287618,-11547.212695,0.000000,4903.011187
3604.287948,-10955.047942,222.061783,4596.572988
3604.288278,-10510.924376,74.020594,689.485948
3604.288608,-9918.759623,-148.041188,-3600.648841
3604.288938,-9104.533087,-666.185348,-4213.525239
3604.289268,-7994.224174,0.000000,-2068.457845
3604.289598,-7179.997637,296.082377,1915.238745
3604.289928,-7328.038826,888.247130,3753.867940
3604.290258,-8364.327145,1406.391290,2451.505594
3604.290588,-10214.842000,1628.453072,-2068.457845
3604.290918,-11399.171507,962.267725,-3370.820191
3604.291248,-11991.336260,222.061783,-1072.533697
3604.291578,-11547.212695,0.000000,3370.820191
3604.291908,-10436.903782,-592.164754,5669.106685
3604.292238,-9696.697840,-222.061783,3983.696590
3604.292568,-9252.574275,0.000000,-612.876398
3604.292898,-9696.697840,296.082377,-4673.182538
3604.293228,-9918.759623,740.205942,-4213.525239
3604.293558,-8808.450710,1036.288319,-1378.971896
3604.293888,-8364.327145,888.247130,2604.724693
3604.294218,-8364.327145,1036.288319,3294.210641
3604.294548,-8586.388927,740.205942,1072.533697
3604.294878,-9548.656652,296.082377,-2681.334243
3604.295208,-10584.944971,148.041188,-3217.601092
3604.295538,-11177.109724,222.061783,0.000000
3604.295868,-11399.171507,0.000000,3907.087040
3604.296198,-11251.130318,74.020594,4903.011187
3604.296528,-10881.027347,0.000000,1838.629195
3604.296858,-10140.821405,-444.123565,-2604.724693
3604.297188,-9622.677246,-518.144159,-4979.620737
3604.297518,-9178.553681,-444.123565,-3447.429741
3604.297848,-7624.121203,0.000000,689.485948
3604.298178,-7772.162391,370.102971,3677.258390
3604.298508,-8290.306550,666.185348,2681.334243
3604.298838,-9474.636058,666.185348,-306.438199
3604.299168,-11325.150913,518.144159,-3370.820191
3604.299498,-11843.295072,-296.082377,-1915.238745
3604.299828,-11621.233289,-592.164754,2221.676944
3604.300158,-10955.047942,-740.205942,6052.154434
3604.300488,-9918.759623,-814.226536,5056.230287
3604.300818,-9622.677246,-740.205942,842.705048
3604.301148,-9474.636058,-666.185348,-4213.525239
3604.301478,-9770.718434,-592.164754,-4749.792088
3604.301808,-8734.430116,0.000000,-2221.676944
3604.302138,-8438.347739,222.061783,2068.457845
3604.302468,-8586.388927,222.061783,4136.915689
3604.302798,-8734.430116,74.020594,2221.676944
3604.303128,-9548.656652,-222.061783,-995.924147
3604.303458,-10955.047942,-444.123565,-2757.943793
3604.303788,-11473.192101,-814.226536,0.000000
3604.304118,-11473.192101,-444.123565,3907.087040
3604.304448,-10955.047942,-814.226536,5745.716235
3604.304778,-10584.944971,-296.082377,3140.991542
3604.305108,-9918.759623,-592.164754,-1762.019645
3604.305438,-9474.636058,-444.123565,-5056.230287
3604.305768,-8734.430116,-444.123565,-3677.258390
3604.306098,-7624.121203,-148.041188,153.219100
3604.306428,-7476.080014,814.226536,3600.648841
3604.306758,-8216.285956,1110.308913,3140.991542
3604.307088,-9474.636058,1258.350101,-153.219100
3604.307418,-10807.006753,222.061783,-2528.115143
3604.307748,-11843.295072,222.061783,-2298.286494
3604.308078,-12139.377449,0.000000,1685.410096
3604.308408,-11177.109724,0.000000,5515.887586
3604.308738,-9918.759623,-222.061783,5822.325785
3604.309068,-9770.718434,444.123565,1838.629195
3604.309398,-9696.697840,518.144159,-2987.772442
3604.309728,-9696.697840,518.144159,-4903.011187
3604.310058,-9178.553681,592.164754,-2757.943793
3604.310388,-8512.368333,888.247130,1225.752797
3604.310718,-8586.388927,814.226536,3753.867940
3604.311047,-8660.409521,962.267725,1915.238745
3604.311377,-9326.594869,814.226536,-1991.848295
3604.311707,-10066.800811,222.061783,-3753.867940
3604.312037,-11103.089130,296.082377,-1685.410096
3604.312367,-11473.192101,370.102971,2987.772442
3604.312697,-10955.047942,222.061783,5515.887586
3604.313027,-10362.883188,148.041188,4519.963438
3604.313357,-10140.821405,0.000000,-459.657299
3604.313687,-9696.697840,-222.061783,-4290.134789
3604.314017,-9400.615463,-666.185348,-3983.696590
3604.314347,-7772.162391,-296.082377,-459.657299
3604.314677,-7402.059420,444.123565,2987.772442
3604.315007,-7920.203579,592.164754,3140.991542
3604.315337,-9030.512492,962.267725,0.000000
3604.315667,-10658.965565,814.226536,-3217.601092
3604.315997,-11695.253884,0.000000,-3447.429741
3604.316327,-11547.212695,-296.082377,-229.828649
3604.316657,-10732.986159,-740.205942,3907.087040
3604.316987,-10362.883188,-592.164754,5439.278036
3604.317317,-9474.636058,-518.144159,2374.896044
3604.317647,-9844.739029,0.000000,-2834.553343
3604.317977,-9622.677246,74.020594,-5286.058936
3604.318307,-9474.636058,222.061783,-3600.648841
3604.318637,-8956.491898,222.061783,995.924147
3604.318967,-9030.512492,518.144159,3447.429741
3604.319297,-8734.430116,370.102971,2681.334243
3604.319627,-9326.594869,148.041188,-766.095498
3604.319957,-10362.883188,0.000000,-2987.772442
3604.320287,-11103.089130,0.000000,-1762.019645
3604.320617,-11103.089130,-296.082377,1838.629195
3604.320947,-11177.109724,74.020594,4903.011187
3604.321277,-10584.944971,0.000000,4290.134789
3604.321607,-10658.965565,0.000000,383.047749
3604.321937,-10140.821405,-518.144159,-3907.087040
3604.322267,-9474.636058,-666.185348,-4366.744339
3604.322597,-8290.306550,-222.061783,-1532.190996
3604.322927,-7476.080014,-518.144159,2911.162892
3604.323257,-8142.265362,814.226536,4213.525239
3604.323587,-8882.471304,740.205942,1762.019645
3604.323917,-10214.842000,592.164754,-1378.971896
3604.324247,-11473.192101,148.041188,-2834.553343
3604.324577,-11843.295072,-148.041188,-383.047749
3604.324907,-11029.068536,-518.144159,3830.477490
3604.325237,-10214.842000,-740.205942,5822.325785
3604.325567,-9696.697840,-296.082377,3753.867940
3604.325897,-9474.636058,-148.041188,-1225.752797
3604.326227,-9548.656652,0.000000,-4443.353888
3604.326557,-9548.656652,0.000000,-4060.306139
3604.326887,-8808.450710,148.041188,0.000000
3604.327217,-8068.244768,74.020594,3064.381992
3604.327547,-7994.224174,370.102971,2681.334243
3604.327877,-8512.368333,222.061783,-229.828649
3604.328207,-9918.759623,370.102971,-2757.943793
3604.328537,-10881.027347,-148.041188,-2374.896044
3604.328867,-11103.089130,-74.020594,842.705048
3604.329197,-11399.171507,222.061783,4596.572988
3604.329527,-11177.109724,0.000000,4596.572988
3604.329857,-10955.047942,-74.020594,1225.752797
3604.330187,-10140.821405,-296.082377,-2911.162892
3604.330517,-9696.697840,-888.247130,-4903.011187
3604.330847,-8586.388927,-814.226536,-2298.286494
3604.331177,-7698.141797,-370.102971,1608.800546
3604.331507,-7624.121203,0.000000,3907.087040
3604.331837,-8068.244768,296.082377,1762.019645
3604.332167,-9622.677246,370.102971,-1838.629195
3604.332497,-10732.986159,148.041188,-3370.820191
3604.332827,-11177.109724,-222.061783,-1532.190996
3604.333157,-11325.150913,-592.164754,2604.724693
3604.333487,-10510.924376,-666.185348,5745.716235
3604.333817,-10066.800811,-740.205942,4136.915689
3604.334147,-10066.800811,-222.061783,-76.609550
3604.334477,-9844.739029,0.000000,-3600.648841
3604.334807,-9844.739029,-148.041188,-4519.963438
3604.335137,-9030.512492,148.041188,-1532.190996
3604.335467,-8216.285956,74.020594,2528.115143
3604.335797,-8290.306550,370.102971,3677.258390
3604.336127,-8956.491898,148.041188,919.314598
3604.336457,-9918.759623,148.041188,-2374.896044
3604.336787,-10658.965565,0.000000,-2528.115143
3604.337117,-11103.089130,148.041188,-306.438199
3604.337447,-11547.212695,74.020594,3907.087040
3604.337777,-11177.109724,74.020594,5056.230287
3604.338107,-10584.944971,0.000000,2374.896044
3604.338437,-10140.821405,-296.082377,-2528.115143
3604.338767,-9770.718434,-444.123565,-4826.401637
3604.339097,-8808.450710,-444.123565,-3217.601092
3604.339427,-7772.162391,222.061783,306.438199
3604.339757,-7772.162391,222.061783,3370.820191
3604.340087,-7994.224174,962.267725,2528.115143
3604.340417,-9400.615463,1036.288319,-995.924147
3604.340747,-10807.006753,740.205942,-3600.648841
3604.341077,-11325.150913,74.020594,-2374.896044
3604.341407,-11251.130318,74.020594,1608.800546
3604.341737,-10658.965565,-296.082377,4903.011187
3604.342067,-9696.697840,-370.102971,4979.620737
3604.342397,-9548.656652,-222.061783,1532.190996
3604.342727,-9400.615463,0.000000,-3294.210641
3604.343057,-9918.759623,0.000000,-4826.401637
3604.343387,-9474.636058,74.020594,-2298.286494
3604.343717,-8660.409521,222.061783,1991.848295
3604.344047,-8364.327145,370.102971,3830.477490
3604.344377,-8142.265362,222.061783,1838.629195
3604.344707,-8808.450710,222.061783,-1532.190996
3604.345037,-9696.697840,74.020594,-2911.162892
3604.345367,-10955.047942,74.020594,-689.485948
3604.345697,-11399.171507,-370.102971,3064.381992
3604.346027,-11399.171507,74.020594,4903.011187
3604.346357,-10955.047942,148.041188,3447.429741
3604.346687,-10436.903782,-444.123565,-995.924147
3604.347017,-9622.677246,-592.164754,-4443.353888
3604.347347,-9178.553681,-666.185348,-3217.601092
3604.347677,-8216.285956,-296.082377,76.609550
3604.348007,-7772.162391,0.000000,3524.039291
3604.348337,-8290.306550,518.144159,3447.429741
3604.348667,-9252.574275,740.205942,306.438199
3604.348997,-10510.924376,592.164754,-2681.334243
3604.349327,-11103.089130,-74.020594,-3064.381992
3604.349656,-11251.130318,-592.164754,612.876398
3604.349986,-10510.924376,-592.164754,4749.792088
3604.350316,-9992.780217,0.000000,5669.106685
3604.350646,-9992.780217,0.000000,2451.505594
3604.350976,-10214.842000,296.082377,-2757.943793
3604.351306,-10362.883188,222.061783,-5132.839837
3604.351636,-10066.800811,0.000000,-2987.772442
3604.351965,-8586.388927,0.000000,1455.581446
3604.352295,-8364.327145,148.041188,4060.306139
3604.352625,-8216.285956,444.123565,2451.505594
3604.352954,-8290.306550,222.061783,-1685.410096
3604.353284,-10066.800811,0.000000,-2987.772442
3604.353614,-11399.171507,0.000000,-1378.971896
3604.353944,-11769.274478,222.061783,2221.676944
3604.354273,-11325.150913,370.102971,5286.058936
3604.354603,-10658.965565,296.082377,3907.087040
3604.354933,-10288.862594,148.041188,-383.047749
3604.355262,-9400.615463,-444.123565,-3907.087040
3604.355592,-9178.553681,-296.082377,-3983.696590
3604.355922,-8364.327145,74.020594,-1149.143247
3604.356252,-8216.285956,444.123565,2451.505594
3604.356581,-7994.224174,814.226536,2911.162892
3604.356911,-8956.491898,1036.288319,383.047749
3604.357241,-9918.759623,962.267725,-3140.991542
3604.357570,-10955.047942,518.144159,-3524.039291
3604.357900,-11399.171507,0.000000,-383.047749
3604.358230,-10658.965565,0.000000,3983.696590
3604.358560,-9918.759623,444.123565,5286.058936
3604.358889,-9992.780217,74.020594,2911.162892
3604.359219,-9992.780217,0.000000,-1838.629195
3604.359549,-9992.780217,74.020594,-4213.525239
3604.359878,-9844.739029,444.123565,-3600.648841
3604.360208,-8956.491898,444.123565,153.219100
3604.360538,-8364.327145,592.164754,2834.553343
3604.360868,-8068.244768,592.164754,2298.286494
3604.361197,-8808.450710,518.144159,-842.705048
3604.361527,-9844.739029,296.082377,-3294.210641
3604.361857,-10214.842000,0.000000,-2911.162892
3604.362187,-10584.944971,0.000000,612.876398
3604.362516,-10955.047942,74.020594,4290.134789
3604.362846,-10807.006753,296.082377,4596.572988
3604.363176,-10807.006753,0.000000,842.705048
3604.363505,-10288.862594,-592.164754,-2987.772442
3604.363835,-9622.677246,-814.226536,-4136.915689
3604.364165,-8660.409521,-222.061783,-1532.190996
3604.364495,-8216.285956,-74.020594,2221.676944
3604.364824,-8142.265362,518.144159,3524.039291
3604.365154,-8438.347739,814.226536,1608.800546
3604.365484,-9622.677246,518.144159,-2145.067394
3604.365813,-10510.924376,296.082377,-3447.429741
3604.366143,-11103.089130,-370.102971,-1378.971896
3604.366473,-10658.965565,-444.123565,2681.334243
3604.366803,-10436.903782,-518.144159,5515.887586
3604.367132,-9696.697840,-148.041188,3677.258390
3604.367462,-10140.821405,-148.041188,-383.047749
3604.367792,-10362.883188,0.000000,-3907.087040
3604.368121,-10362.883188,-222.061783,-3294.210641
3604.368451,-9474.636058,148.041188,-1072.533697
3604.368781,-8586.388927,74.020594,3064.381992
3604.369111,-8586.388927,74.020594,3524.039291
3604.369440,-8808.450710,148.041188,689.485948
3604.369770,-9326.594869,0.000000,-1991.848295
3604.370100,-10066.800811,-370.102971,-2528.115143
3604.370429,-10584.944971,-148.041188,229.828649
3604.370759,-11399.171507,74.020594,4060.306139
3604.371089,-11029.068536,148.041188,4673.182538
3604.371419,-10732.986159,0.000000,1532.190996
3604.371748,-10658.965565,-74.020594,-2451.505594
3604.372078,-9992.780217,-962.267725,-4136.915689
3604.372408,-9030.512492,-444.123565,-2757.943793
3604.372737,-7624.121203,-296.082377,1455.581446
3604.373067,-7402.059420,0.000000,3217.601092
3604.373397,-8142.265362,370.102971,2221.676944
3604.373727,-8956.491898,666.185348,-919.314598
3604.374056,-9918.759623,518.144159,-3140.991542
3604.374386,-11103.089130,0.000000,-1991.848295
3604.374716,-11547.212695,0.000000,1838.629195
3604.375045,-10807.006753,-518.144159,4673.182538
3604.375375,-10362.883188,-148.041188,4136.915689
3604.375705,-10140.821405,0.000000,306.438199
3604.376035,-10288.862594,0.000000,-3524.039291
3604.376364,-9918.759623,-296.082377,-4443.353888
3604.376694,-9326.594869,0.000000,-2068.457845
3604.377024,-8586.388927,148.041188,2604.724693
3604.377353,-8512.368333,296.082377,3830.477490
3604.377683,-7994.224174,222.061783,1378.971896
3604.378013,-8660.409521,0.000000,-1991.848295
3604.378343,-9474.636058,444.123565,-2757.943793
3604.378672,-10807.006753,444.123565,-842.705048
3604.379002,-11325.150913,370.102971,2834.553343
3604.379332,-11325.150913,296.082377,4826.401637
3604.379661,-11399.171507,444.123565,2834.553343
3604.379991,-11103.089130,0.000000,-1149.143247
3604.380321,-10288.862594,-222.061783,-4136.915689
3604.380651,-9178.553681,-666.185348,-3370.820191
3604.380980,-7846.182985,-518.144159,-536.266849
3604.381310,-7328.038826,444.123565,2451.505594
3604.381640,-7846.182985,962.267725,2604.724693
3604.381969,-8808.450710,1036.288319,-536.266849
3604.382299,-10288.862594,592.164754,-3064.381992
3604.382629,-11399.171507,740.205942,-3140.991542
3604.382959,-11547.212695,-222.061783,536.266849
3604.383288,-10881.027347,-444.123565,4366.744339
3604.383618,-10140.821405,-592.164754,4903.011187
3604.383948,-9844.739029,-814.226536,1685.410096
3604.384277,-9696.697840,-740.205942,-1915.238745
3604.384607,-9548.656652,-444.123565,-3983.696590
3604.384937,-9400.615463,0.000000,-2221.676944
3604.385267,-8734.430116,148.041188,1302.362347
3604.385596,-8142.265362,370.102971,3217.601092
3604.385926,-7846.182985,296.082377,2145.067394
3604.386256,-8734.430116,666.185348,-1685.410096
3604.386585,-10066.800811,370.102971,-3294.210641
3604.386915,-11029.068536,370.102971,-2221.676944
3604.387245,-11251.130318,222.061783,1455.581446
3604.387575,-11547.212695,222.061783,4366.744339
3604.387904,-10955.047942,-148.041188,3830.477490
3604.388234,-10658.965565,0.000000,-383.047749
3604.388564,-10140.821405,-740.205942,-2911.162892
3604.388893,-9548.656652,-962.267725,-3217.601092
3604.389223,-8512.368333,-370.102971,0.000000
3604.389553,-8216.285956,74.020594,3370.820191
3604.389883,-8068.244768,1036.288319,3370.820191
3604.390212,-8586.388927,814.226536,383.047749
3604.390542,-10214.842000,666.185348,-2681.334243
3604.390872,-11177.109724,74.020594,-2834.553343
3604.391201,-11621.233289,74.020594,-383.047749
3604.391531,-11103.089130,-518.144159,4060.306139
3604.391861,-9992.780217,-740.205942,5515.887586
3604.392191,-9844.739029,-74.020594,3447.429741
3604.392520,-9770.718434,0.000000,-919.314598
3604.392850,-9844.739029,-296.082377,-4136.915689
3604.393180,-9548.656652,0.000000,-2604.724693
3604.393509,-8808.450710,222.061783,1149.143247
3604.393839,-8364.327145,296.082377,3983.696590
3604.394169,-8216.285956,740.205942,2911.162892
3604.394499,-8512.368333,444.123565,-689.485948
3604.394828,-9474.636058,370.102971,-3064.381992
3604.395158,-10732.986159,592.164754,-2221.676944
3604.395488,-10955.047942,592.164754,1762.019645
3604.395817,-11399.171507,518.144159,4596.572988
3604.396147,-10732.986159,370.102971,4060.306139
3604.396477,-10436.903782,0.000000,612.876398
3604.396807,-9696.697840,148.041188,-2834.553343
3604.397136,-9548.656652,-444.123565,-4519.963438
3604.397466,-8438.347739,0.000000,-1455.581446
3604.397796,-7698.141797,444.123565,2298.286494
3604.398125,-7624.121203,888.247130,3370.820191
3604.398455,-8586.388927,962.267725,536.266849
3604.398785,-9696.697840,1110.308913,-2757.943793
3604.399115,-10881.027347,592.164754,-3907.087040
3604.399444,-11325.150913,0.000000,-1072.533697
3604.399774,-10955.047942,0.000000,2451.505594
3604.400104,-10288.862594,-148.041188,4903.011187
3604.400433,-9696.697840,0.000000,2604.724693
3604.400763,-9918.759623,0.000000,-1455.581446
3604.401093,-9918.759623,0.000000,-4673.182538
3604.401423,-9992.780217,-74.020594,-3753.867940
3604.401752,-9030.512492,222.061783,-153.219100
3604.402082,-8734.430116,296.082377,2834.553343
3604.402412,-8290.306550,148.041188,2298.286494
3604.402741,-8734.430116,0.000000,-153.219100
3604.403071,-9622.677246,0.000000,-2604.724693
3604.403401,-10510.924376,-296.082377,-2298.286494
3604.403731,-10807.006753,-296.082377,995.924147
3604.404060,-11029.068536,0.000000,4136.915689
3604.404390,-11029.068536,-148.041188,4749.792088
3604.404720,-10955.047942,-148.041188,1608.800546
3604.405049,-10362.883188,-444.123565,-2374.896044
3604.405379,-9770.718434,-1332.370696,-3524.039291
3604.405709,-8734.430116,-814.226536,-1838.629195
3604.406039,-7772.162391,-518.144159,1532.190996
3604.406368,-7920.203579,296.082377,3753.867940
3604.406698,-8068.244768,666.185348,1915.238745
3604.407028,-9326.594869,370.102971,-1532.190996
3604.407357,-10584.944971,222.061783,-3294.210641
3604.407687,-11399.171507,0.000000,-1149.143247
3604.408017,-11103.089130,-296.082377,2757.943793
3604.408347,-10658.965565,-370.102971,4903.011187
3604.408676,-10140.821405,0.000000,4060.306139
3604.409006,-10362.883188,0.000000,0.000000
3604.409336,-10362.883188,0.000000,-3447.429741
3604.409666,-9992.780217,0.000000,-3753.867940
3604.409995,-9178.553681,296.082377,-1149.143247
3604.410325,-8660.409521,74.020594,2374.896044
3604.410655,-8364.327145,814.226536,3064.381992
3604.410984,-8068.244768,740.205942,1072.533697
3604.411314,-9474.636058,518.144159,-2298.286494
3604.411644,-10214.842000,148.041188,-2528.115143
3604.411974,-10881.027347,444.123565,76.609550
3604.412303,-11251.130318,0.000000,3830.477490
3604.412633,-11325.150913,444.123565,4903.011187
3604.412963,-11177.109724,592.164754,2528.115143
3604.413292,-10881.027347,0.000000,-2145.067394
3604.413622,-9992.780217,-222.061783,-4136.915689
3604.413952,-9400.615463,-296.082377,-2528.115143
3604.414282,-7772.162391,0.000000,536.266849
3604.414611,-7476.080014,296.082377,2987.772442
3604.414941,-7846.182985,888.247130,1685.410096
3604.415271,-8882.471304,814.226536,-612.876398
3604.415600,-10510.924376,888.247130,-3447.429741
3604.415930,-11177.109724,296.082377,-2757.943793
3604.416260,-11103.089130,-296.082377,612.876398
3604.416590,-10807.006753,-740.205942,4443.353888
3604.416919,-10436.903782,-592.164754,5132.839837
3604.417249,-10214.842000,-370.102971,1762.019645
3604.417579,-10066.800811,-296.082377,-2604.724693
3604.417908,-9844.739029,-444.123565,-4673.182538
3604.418238,-9474.636058,0.000000,-2068.457845
3604.418568,-9030.512492,296.082377,2221.676944
3604.418898,-8438.347739,296.082377,3753.867940
3604.419227,-8364.327145,592.164754,2068.457845
3604.419557,-8660.409521,0.000000,-1532.190996
3604.419887,-10066.800811,0.000000,-3600.648841
3604.420216,-10584.944971,-296.082377,-1991.848295
3604.420546,-11029.068536,0.000000,1762.019645
3604.420876,-10362.883188,-666.185348,4519.963438
3604.421206,-10807.006753,-296.082377,3217.601092
3604.421535,-10955.047942,-444.123565,-383.047749
3604.421865,-10436.903782,-592.164754,-3370.820191
3604.422195,-9622.677246,-740.205942,-2987.772442
3604.422524,-8438.347739,-740.205942,-459.657299
3604.422854,-8142.265362,-74.020594,2757.943793
3604.423184,-7920.203579,296.082377,2987.772442
3604.423514,-8586.388927,592.164754,0.000000
3604.423843,-9844.739029,296.082377,-3524.039291
3604.424173,-10955.047942,148.041188,-3907.087040
3604.424503,-11251.130318,-370.102971,-612.876398
3604.424832,-11029.068536,-444.123565,3217.601092
3604.425162,-10436.903782,-740.205942,5286.058936
3604.425492,-9844.739029,-518.144159,2451.505594
3604.425822,-10288.862594,-222.061783,-2145.067394
3604.426151,-10066.800811,-740.205942,-4290.134789
3604.426481,-9326.594869,-888.247130,-2451.505594
3604.426811,-8438.347739,-148.041188,459.657299
3604.427140,-8068.244768,74.020594,3447.429741
3604.427470,-8290.306550,370.102971,2911.162892
3604.427800,-8882.471304,296.082377,0.000000
3604.428130,-9696.697840,0.000000,-2451.505594
3604.428459,-10807.006753,74.020594,-1838.629195
3604.428789,-11547.212695,0.000000,2068.457845
3604.429119,-11177.109724,222.061783,4749.792088
3604.429448,-11325.150913,74.020594,4366.744339
3604.429778,-10807.006753,0.000000,76.609550
3604.430108,-10288.862594,-296.082377,-3677.258390
3604.430438,-9622.677246,-444.123565,-3907.087040
3604.430767,-8438.347739,-296.082377,-919.314598
3604.431097,-7624.121203,296.082377,2681.334243
3604.431427,-7624.121203,666.185348,3370.820191
3604.431756,-7920.203579,1036.288319,995.924147
3604.432086,-9770.718434,1332.370696,-1991.848295
3604.432416,-11251.130318,1110.308913,-2834.553343
3604.432746,-12361.439231,962.267725,0.000000
3604.433075,-11917.315666,370.102971,3677.258390
3604.433405,-10732.986159,148.041188,5286.058936
3604.433735,-10436.903782,74.020594,2987.772442
3604.434064,-9918.759623,0.000000,-1532.190996
3604.434394,-9696.697840,-148.041188,-4366.744339
3604.434724,-8956.491898,0.000000,-3524.039291
3604.435054,-8142.265362,518.144159,459.657299
3604.435383,-7772.162391,666.185348,3140.991542
3604.435713,-7994.224174,1036.288319,2911.162892
3604.436043,-8808.450710,740.205942,-153.219100
3604.436372,-9844.739029,740.205942,-2451.505594
3604.436702,-10807.006753,666.185348,-2528.115143
3604.437032,-11473.192101,592.164754,1685.410096
3604.437362,-11769.274478,444.123565,4979.620737
3604.437691,-11103.089130,592.164754,4826.401637
3604.438021,-10955.047942,370.102971,1149.143247
3604.438351,-10584.944971,296.082377,-3064.381992
3604.438680,-9696.697840,-370.102971,-4443.353888
3604.439010,-8364.327145,0.000000,-1838.629195
3604.439340,-7624.121203,148.041188,1915.238745
3604.439670,-7179.997637,1036.288319,2451.505594
3604.439999,-7920.203579,888.247130,919.314598
3604.440329,-9622.677246,1332.370696,-1991.848295
3604.440659,-11177.109724,888.247130,-3217.601092
3604.440988,-11695.253884,518.144159,-1838.629195
3604.441318,-11695.253884,-296.082377,2987.772442
3604.441648,-11103.089130,-592.164754,5745.716235
3604.441978,-10584.944971,-370.102971,3907.087040
3604.442307,-10214.842000,-666.185348,-689.485948
3604.442637,-9770.718434,-518.144159,-4366.744339
3604.442967,-9326.594869,-888.247130,-4366.744339
3604.443296,-8438.347739,0.000000,-1072.533697
3604.443626,-7920.203579,74.020594,2604.724693
3604.443956,-7994.224174,370.102971,2834.553343
3604.444286,-8142.265362,296.082377,-306.438199
3604.444615,-9474.636058,148.041188,-3140.991542
3604.444945,-11029.068536,0.000000,-2911.162892
3604.445275,-11251.130318,0.000000,766.095498
3604.445604,-11473.192101,-666.185348,3983.696590
3604.445934,-11029.068536,-444.123565,4749.792088
3604.446264,-10807.006753,-666.185348,1991.848295
3604.446594,-10510.924376,-666.185348,-2298.286494
3604.446923,-9844.739029,-1036.288319,-4443.353888
3604.447253,-8808.450710,-740.205942,-2681.334243
3604.447583,-7402.059420,-296.082377,1149.143247
3604.447912,-7624.121203,296.082377,3447.429741
3604.448242,-7920.203579,296.082377,1762.019645
3604.448572,-9548.656652,740.205942,-1072.533697
3604.448902,-10881.027347,148.041188,-3064.381992
3604.449231,-11843.295072,-370.102971,-1915.238745
3604.449561,-11621.233289,-666.185348,2068.457845
3604.449892,-11251.130318,-666.185348,5822.325785
3604.450222,-10362.883188,-666.185348,4903.011187
3604.450551,-10362.883188,-296.082377,689.485948
3604.450881,-9918.759623,-148.041188,-3830.477490
3604.451211,-9918.759623,0.000000,-4366.744339
3604.451540,-9178.553681,148.041188,-1915.238745
3604.451870,-8290.306550,0.000000,1762.019645
3604.452200,-7846.182985,74.020594,3064.381992
3604.452529,-7846.182985,148.041188,919.314598
3604.452859,-8882.471304,74.020594,-1685.410096
3604.453188,-10066.800811,-370.102971,-2374.896044
3604.453518,-11251.130318,-296.082377,153.219100
3604.453848,-11399.171507,0.000000,3370.820191
3604.454177,-11473.192101,0.000000,5439.278036
3604.454507,-10807.006753,222.061783,3064.381992
3604.454837,-10807.006753,0.000000,-1455.581446
3604.455166,-9622.677246,-518.144159,-4903.011187
3604.455496,-8586.388927,-740.205942,-3983.696590
3604.455825,-7476.080014,-74.020594,229.828649
3604.456155,-7402.059420,740.205942,2757.943793
3604.456485,-7772.162391,1110.308913,1532.190996
3604.456814,-9178.553681,1258.350101,-1225.752797
3604.457144,-10807.006753,1036.288319,-3753.867940
3604.457474,-11621.233289,296.082377,-2911.162892
3604.457803,-11843.295072,0.000000,1225.752797
3604.458133,-11325.150913,-370.102971,4903.011187
3604.458463,-10510.924376,-592.164754,4979.620737
3604.458792,-9992.780217,-370.102971,1608.800546
3604.459122,-9918.759623,0.000000,-3140.991542
3604.459451,-9474.636058,-74.020594,-4826.401637
3604.459781,-8808.450710,0.000000,-2604.724693
3604.460111,-7846.182985,296.082377,919.314598
3604.460440,-7624.121203,370.102971,3294.210641
3604.460770,-7550.100608,666.185348,2068.457845
3604.461100,-9178.553681,888.247130,-1072.533697
3604.461429,-10214.842000,370.102971,-2834.553343
3604.461759,-11473.192101,296.082377,-1149.143247
3604.462088,-11769.274478,74.020594,2604.724693
3604.462418,-11473.192101,0.000000,5209.449386
3604.462748,-11473.192101,222.061783,3753.867940
3604.463077,-10658.965565,0.000000,-612.876398
3604.463407,-9844.739029,-222.061783,-4366.744339
3604.463737,-8808.450710,-296.082377,-3983.696590
3604.464066,-7698.141797,74.020594,-919.314598
3604.464396,-7550.100608,814.226536,2834.553343
3604.464726,-7550.100608,1184.329507,3064.381992
3604.465055,-8586.388927,1332.370696,0.000000
3604.465385,-10732.986159,1406.391290,-2528.115143
3604.465714,-11843.295072,370.102971,-2911.162892
3604.466044,-12213.398043,0.000000,153.219100
3604.466374,-11621.233289,-666.185348,4749.792088
3604.466703,-10436.903782,-592.164754,5975.544884
3604.467033,-9918.759623,-740.205942,3140.991542
3604.467363,-9770.718434,-592.164754,-1608.800546
3604.467692,-9252.574275,-592.164754,-4290.134789
3604.468022,-8734.430116,-814.226536,-3064.381992
3604.468351,-8142.265362,0.000000,919.314598
3604.468681,-7846.182985,296.082377,3677.258390
3604.469011,-8068.244768,444.123565,2451.505594
3604.469340,-8660.409521,222.061783,-612.876398
3604.469670,-10066.800811,0.000000,-2911.162892
3604.470000,-11251.130318,-148.041188,-1838.629195
3604.470329,-11769.274478,-222.061783,1762.019645
3604.470659,-11843.295072,-148.041188,4596.572988
3604.470989,-10881.027347,-370.102971,4290.134789
3604.471318,-10288.862594,-740.205942,536.266849
3604.471648,-9622.677246,-962.267725,-3140.991542
3604.471977,-8882.471304,-1406.391290,-3983.696590
3604.472307,-7772.162391,-518.144159,-1455.581446
3604.472637,-7550.100608,74.020594,2604.724693
3604.472966,-7846.182985,592.164754,3600.648841
3604.473296,-8660.409521,814.226536,919.314598
3604.473626,-10436.903782,370.102971,-2528.115143
3604.473955,-11325.150913,0.000000,-3294.210641
3604.474285,-12287.418637,0.000000,-919.314598
3604.474614,-11843.295072,-222.061783,3447.429741
3604.474944,-10436.903782,-444.123565,5822.325785
3604.475274,-9770.718434,0.000000,3600.648841
3604.475603,-9918.759623,-74.020594,-1532.190996
3604.475933,-9770.718434,0.000000,-4903.011187
3604.476263,-9400.615463,-74.020594,-4136.915689
3604.476592,-8512.368333,592.164754,0.000000
3604.476922,-8068.244768,444.123565,3600.648841
3604.477252,-8216.285956,666.185348,3370.820191
3604.477581,-8882.471304,444.123565,459.657299
3604.477911,-10288.862594,148.041188,-2374.896044
3604.478240,-11251.130318,0.000000,-1991.848295
3604.478570,-11621.233289,0.000000,1532.190996
3604.478900,-11695.253884,222.061783,5439.278036
3604.479229,-11103.089130,518.144159,5439.278036
3604.479559,-10658.965565,444.123565,1149.143247
3604.479889,-9918.759623,0.000000,-3217.601092
3604.480218,-9400.615463,-444.123565,-4519.963438
3604.480548,-8142.265362,-222.061783,-2068.457845
3604.480877,-7105.977043,444.123565,2068.457845
3604.481207,-7624.121203,1184.329507,3753.867940
3604.481537,-8216.285956,1480.411884,1915.238745
3604.481866,-9992.780217,1110.308913,-1838.629195
3604.482196,-11473.192101,740.205942,-3753.867940
3604.482526,-11843.295072,148.041188,-1378.971896
3604.482855,-11695.253884,-296.082377,2757.943793
3604.483185,-10510.924376,-444.123565,5515.887586
3604.483515,-9622.677246,-222.061783,4213.525239
3604.483844,-9400.615463,0.000000,-689.485948
3604.484174,-9252.574275,0.000000,-4979.620737
3604.484503,-9474.636058,0.000000,-4979.620737
3604.484833,-9030.512492,444.123565,-1685.410096
3604.485163,-8068.244768,888.247130,2604.724693
3604.485492,-8216.285956,740.205942,3064.381992
3604.485822,-8512.368333,740.205942,229.828649
3604.486152,-9622.677246,148.041188,-3140.991542
3604.486481,-10955.047942,-222.061783,-3217.601092
3604.486811,-11547.212695,-74.020594,0.000000
3604.487141,-11695.253884,74.020594,4443.353888
3604.487470,-11399.171507,148.041188,5669.106685
3604.487800,-11177.109724,296.082377,2374.896044
3604.488129,-9992.780217,0.000000,-2834.553343
3604.488459,-9696.697840,-814.226536,-4826.401637
3604.488789,-8660.409521,-518.144159,-2911.162892
3604.489118,-7772.162391,0.000000,1072.533697
3604.489448,-7254.018232,148.041188,2834.553343
3604.489778,-8142.265362,592.164754,2451.505594
3604.490107,-9548.656652,814.226536,-919.314598
3604.490437,-11473.192101,370.102971,-3217.601092
3604.490766,-12139.377449,74.020594,-2068.457845
3604.491096,-11769.274478,-444.123565,2298.286494
3604.491426,-11103.089130,-962.267725,5592.497135
3604.491755,-10288.862594,-592.164754,4979.620737
3604.492085,-9918.759623,-444.123565,766.095498
3604.492415,-9474.636058,-222.061783,-3830.477490
3604.492744,-9844.739029,-444.123565,-4673.182538
3604.493074,-8586.388927,0.000000,-1685.410096
3604.493404,-7772.162391,-296.082377,2528.115143
3604.493733,-7772.162391,296.082377,3907.087040
3604.494063,-8364.327145,222.061783,1838.629195
3604.494392,-9474.636058,148.041188,-1608.800546
3604.494722,-10584.944971,-148.041188,-2681.334243
3604.495052,-10955.047942,-148.041188,-536.266849
3604.495381,-11251.130318,0.000000,3524.039291
3604.495711,-11399.171507,74.020594,5362.668486
3604.496041,-11177.109724,296.082377,2834.553343
3604.496370,-10362.883188,0.000000,-2298.286494
3604.496700,-9918.759623,-370.102971,-4596.572988
3604.497029,-9326.594869,-370.102971,-3600.648841
3604.497359,-7920.203579,74.020594,459.657299
3604.497689,-7476.080014,222.061783,3600.648841
3604.498018,-7772.162391,740.205942,2528.115143
3604.498348,-9326.594869,962.267725,-383.047749
3604.498678,-11029.068536,666.185348,-3600.648841
3604.499007,-11843.295072,222.061783,-2681.334243
3604.499337,-11547.212695,296.082377,1302.362347
3604.499667,-11029.068536,-444.123565,4903.011187
3604.499996,-10362.883188,-296.082377,5209.449386
3604.500326,-9696.697840,-148.041188,1149.143247
3604.500655,-9474.636058,0.000000,-3753.867940
3604.500985,-9474.636058,0.000000,-5132.839837
3604.501315,-9178.553681,370.102971,-3447.429741
3604.501644,-8290.306550,296.082377,612.876398
3604.501974,-8068.244768,592.164754,2757.943793
3604.502304,-8142.265362,518.144159,1302.362347
3604.502633,-9030.512492,592.164754,-1762.019645
3604.502963,-10288.862594,148.041188,-3447.429741
3604.503292,-11325.150913,0.000000,-1072.533697
3604.503622,-11547.212695,296.082377,1685.410096
3604.503952,-11621.233289,148.041188,5286.058936
3604.504281,-11103.089130,0.000000,3217.601092
3604.504611,-10510.924376,-296.082377,-612.876398
3604.504941,-9696.697840,0.000000,-3907.087040
3604.505270,-9178.553681,-592.164754,-3677.258390
3604.505600,-7698.141797,-592.164754,-383.047749
3604.505930,-7328.038826,74.020594,3217.601092
3604.506259,-8068.244768,888.247130,3600.648841
3604.506589,-9178.553681,962.267725,612.876398
3604.506918,-10807.006753,814.226536,-3140.991542
3604.507248,-11547.212695,370.102971,-3294.210641
3604.507578,-12139.377449,-148.041188,76.609550
3604.507907,-11473.192101,-296.082377,4673.182538
3604.508237,-10658.965565,-888.247130,5745.716235
3604.508567,-9622.677246,-518.144159,2681.334243
3604.508896,-9178.553681,-222.061783,-2068.457845
3604.509226,-9400.615463,222.061783,-4903.011187
3604.509555,-9326.594869,0.000000,-2987.772442
3604.509885,-8660.409521,0.000000,612.876398
3604.510215,-8364.327145,148.041188,3753.867940
3604.510544,-8290.306550,814.226536,3217.601092
3604.510874,-8882.471304,222.061783,0.000000
3604.511204,-9918.759623,222.061783,-2528.115143
3604.511533,-11029.068536,0.000000,-2451.505594
3604.511863,-11695.253884,0.000000,1532.190996
3604.512193,-11547.212695,-222.061783,4749.792088
3604.512522,-10881.027347,148.041188,4673.182538
3604.512852,-10288.862594,-148.041188,766.095498
3604.513181,-9400.615463,-444.123565,-3370.820191
3604.513511,-8142.265362,-962.267725,-4060.306139
3604.513841,-7772.162391,-518.144159,-1225.752797
3604.514170,-7772.162391,148.041188,2757.943793
3604.514500,-7624.121203,666.185348,3753.867940
3604.514830,-8808.450710,1110.308913,1915.238745
3604.515159,-10140.821405,1184.329507,-1991.848295
3604.515489,-11917.315666,518.144159,-3524.039291
3604.515818,-11843.295072,0.000000,-842.705048
3604.516148,-11399.171507,-296.082377,3447.429741
3604.516478,-10584.944971,0.000000,6052.154434
3604.516807,-9918.759623,0.000000,3677.258390
3604.517137,-9992.780217,296.082377,-995.924147
3604.517467,-9696.697840,370.102971,-4903.011187
3604.517796,-9400.615463,0.000000,-4596.572988
3604.518126,-8882.471304,296.082377,-383.047749
3604.518456,-8438.347739,518.144159,3370.820191
3604.518785,-8290.306550,666.185348,3830.477490
3604.519115,-8808.450710,666.185348,229.828649
3604.519444,-9844.739029,0.000000,-2374.896044
3604.519774,-11103.089130,0.000000,-2221.676944
3604.520104,-11399.171507,-74.020594,1302.362347
3604.520433,-11399.171507,0.000000,4979.620737
3604.520763,-10436.903782,222.061783,5286.058936
3604.521093,-10288.862594,148.041188,1991.848295
3604.521422,-9992.780217,148.041188,-2834.553343
3604.521752,-9844.739029,-148.041188,-4903.011187
3604.522081,-8438.347739,74.020594,-2528.115143
3604.522411,-7476.080014,296.082377,1685.410096
3604.522741,-7550.100608,444.123565,3600.648841
3604.523070,-8142.265362,1110.308913,1532.190996
3604.523400,-9252.574275,592.164754,-2298.286494
3604.523730,-11103.089130,444.123565,-3983.696590
3604.524059,-11843.295072,74.020594,-1915.238745
3604.524389,-11621.233289,-148.041188,2298.286494
3604.524719,-10807.006753,-444.123565,5745.716235
3604.525048,-9770.718434,-222.061783,4749.792088
3604.525378,-9696.697840,0.000000,0.000000
3604.525707,-10066.800811,74.020594,-4060.306139
3604.526037,-9844.739029,0.000000,-4979.620737
3604.526367,-9030.512492,74.020594,-1838.629195
3604.526696,-8068.244768,74.020594,2068.457845
3604.527026,-8364.327145,296.082377,2911.162892
3604.527356,-8512.368333,0.000000,612.876398
3604.527685,-9326.594869,148.041188,-2604.724693
3604.528015,-10288.862594,0.000000,-3294.210641
3604.528344,-11325.150913,-148.041188,-306.438199
3604.528674,-11473.192101,0.000000,3524.039291
3604.529004,-10955.047942,0.000000,4596.572988
3604.529333,-10584.944971,0.000000,2451.505594
3604.529663,-10214.842000,0.000000,-2221.676944
3604.529993,-9696.697840,-888.247130,-4519.963438
3604.530322,-8956.491898,-592.164754,-2757.943793
3604.530652,-8216.285956,-74.020594,689.485948
3604.530982,-7846.182985,296.082377,3753.867940
3604.531311,-8364.327145,740.205942,2681.334243
3604.531641,-9400.615463,666.185348,-1072.533697
3604.531970,-10807.006753,0.000000,-3830.477490
3604.532300,-11399.171507,0.000000,-2757.943793
3604.532630,-11177.109724,-666.185348,1455.581446
3604.532959,-10436.903782,-666.185348,4826.401637
3604.533289,-10140.821405,-148.041188,4443.353888
3604.533619,-9770.718434,-148.041188,919.314598
3604.533948,-9992.780217,-518.144159,-3140.991542
3604.534278,-10214.842000,-370.102971,-4136.915689
3604.534608,-9400.615463,0.000000,-1455.581446
3604.534937,-8068.244768,0.000000,2145.067394
3604.535267,-8438.347739,0.000000,4136.915689
3604.535596,-8512.368333,-148.041188,2221.676944
3604.535926,-9548.656652,-296.082377,-1378.971896
3604.536256,-10584.944971,0.000000,-2987.772442
3604.536585,-11029.068536,-370.102971,-766.095498
3604.536915,-11547.212695,0.000000,3140.991542
3604.537245,-11251.130318,0.000000,4903.011187
3604.537574,-10732.986159,148.041188,3370.820191
3604.537904,-10510.924376,-222.061783,-995.924147
3604.538233,-9844.739029,-814.226536,-4060.306139
3604.538563,-8956.491898,-814.226536,-3370.820191
3604.538893,-7772.162391,-518.144159,153.219100
3604.539222,-7254.018232,0.000000,3294.210641
3604.539552,-7624.121203,370.102971,3064.381992
3604.539882,-8882.471304,814.226536,0.000000
3604.540211,-10584.944971,740.205942,-2834.553343
3604.540541,-11103.089130,370.102971,-3217.601092
3604.540871,-11843.295072,0.000000,229.828649
3604.541200,-11399.171507,-370.102971,3677.258390
3604.541530,-10436.903782,-74.020594,4290.134789
3604.541859,-9474.636058,222.061783,1225.752797
3604.542189,-9918.759623,148.041188,-2528.115143
3604.542519,-9918.759623,148.041188,-4903.011187
3604.542848,-9400.615463,148.041188,-3140.991542
3604.543178,-8068.244768,0.000000,153.219100
3604.543508,-8438.347739,518.144159,3447.429741
3604.543837,-8586.388927,666.185348,2298.286494
3604.544167,-8956.491898,0.000000,-1072.533697
3604.544496,-10066.800811,74.020594,-3064.381992
3604.544826,-10658.965565,74.020594,-1762.019645
3604.545156,-11177.109724,0.000000,2068.457845
3604.545485,-11029.068536,222.061783,4903.011187
3604.545815,-10732.986159,0.000000,4060.306139
3604.546145,-10362.883188,222.061783,76.609550
3604.546474,-10066.800811,0.000000,-3294.210641
3604.546804,-9548.656652,-592.164754,-3677.258390
3604.547134,-8734.430116,-222.061783,-612.876398
3604.547463,-8068.244768,-296.082377,2451.505594
3604.547793,-8142.265362,888.247130,3370.820191
3604.548122,-8438.347739,1036.288319,612.876398
3604.548452,-10066.800811,1036.288319,-3064.381992
3604.548782,-11103.089130,222.061783,-3830.477490
3604.549112,-11325.150913,0.000000,-689.485948
3604.549441,-11103.089130,-518.144159,3600.648841
3604.549771,-10066.800811,0.000000,5669.106685
3604.550101,-9622.677246,0.000000,3447.429741
3604.550431,-9548.656652,-370.102971,-1378.971896
3604.550761,-9770.718434,0.000000,-3983.696590
3604.551091,-9770.718434,74.020594,-3370.820191
3604.551420,-8882.471304,296.082377,153.219100
3604.551750,-8068.244768,74.020594,2911.162892
3604.552080,-8068.244768,296.082377,2451.505594
3604.552410,-8734.430116,444.123565,-919.314598
3604.552740,-9918.759623,296.082377,-2681.334243
3604.553069,-10807.006753,0.000000,-2604.724693
3604.553399,-10732.986159,0.000000,919.314598
3604.553729,-10807.006753,444.123565,4366.744339
3604.554059,-10732.986159,296.082377,4826.401637
3604.554389,-10732.986159,444.123565,1455.581446
3604.554718,-10584.944971,0.000000,-2757.943793
3604.555048,-9992.780217,-296.082377,-3447.429741
3604.555378,-9178.553681,-444.123565,-995.924147
3604.555708,-7846.182985,-222.061783,2528.115143
3604.556038,-8068.244768,0.000000,3907.087040
3604.556367,-8512.368333,888.247130,1762.019645
3604.556697,-9696.697840,666.185348,-1915.238745
3604.557027,-11177.109724,444.123565,-3524.039291
3604.557357,-11843.295072,222.061783,-1149.143247
3604.557687,-11251.130318,-222.061783,3370.820191
3604.558017,-10732.986159,-296.082377,5822.325785
3604.558346,-10140.821405,-370.102971,4519.963438
3604.558676,-10288.862594,-148.041188,229.828649
3604.559006,-9992.780217,-222.061783,-3677.258390
3604.559336,-9918.759623,-592.164754,-3830.477490
3604.559666,-8882.471304,-370.102971,-766.095498
3604.559995,-8216.285956,74.020594,2834.553343
3604.560325,-8586.388927,444.123565,3140.991542
3604.560655,-8364.327145,296.082377,536.266849
3604.560985,-9474.636058,0.000000,-2681.334243
3604.561315,-10214.842000,-296.082377,-2987.772442
3604.561644,-10807.006753,0.000000,995.924147
3604.561974,-10955.047942,222.061783,4060.306139
3604.562304,-10807.006753,0.000000,4749.792088
3604.562634,-10510.924376,0.000000,1455.581446
3604.562964,-10510.924376,0.000000,-2681.334243
3604.563294,-9918.759623,-222.061783,-4826.401637
3604.563623,-9622.677246,-296.082377,-2987.772442
3604.563953,-8438.347739,296.082377,1149.143247
3604.564283,-7846.182985,444.123565,3064.381992
3604.564613,-8290.306550,666.185348,1762.019645
3604.564943,-9400.615463,962.267725,-1838.629195
3604.565272,-10584.944971,592.164754,-3677.258390
3604.565602,-11103.089130,444.123565,-2451.505594
3604.565932,-11399.171507,0.000000,1149.143247
3604.566262,-11251.130318,148.041188,4749.792088
3604.566592,-10214.842000,0.000000,4290.134789
3604.566921,-10140.821405,0.000000,459.657299
3604.567251,-10140.821405,-148.041188,-3370.820191
3604.567581,-10066.800811,148.041188,-4596.572988
3604.567911,-9474.636058,296.082377,-1762.019645
3604.568241,-8734.430116,222.061783,1762.019645
3604.568570,-8216.285956,518.144159,3294.210641
3604.568900,-8216.285956,444.123565,1072.533697
3604.569230,-8808.450710,148.041188,-2374.896044
3604.569560,-10214.842000,0.000000,-3140.991542
3604.569890,-10807.006753,0.000000,-459.657299
3604.570220,-10584.944971,-74.020594,3370.820191
3604.570549,-10807.006753,370.102971,5209.449386
3604.570879,-10658.965565,222.061783,3064.381992
3604.571209,-10807.006753,0.000000,-842.705048
3604.571539,-10140.821405,-888.247130,-3677.258390
3604.571869,-9474.636058,-814.226536,-3140.991542
3604.572198,-8364.327145,-518.144159,842.705048
3604.572528,-7846.182985,0.000000,3907.087040
3604.572858,-7772.162391,370.102971,3064.381992
3604.573188,-8290.306550,148.041188,-229.828649
3604.573518,-9474.636058,74.020594,-3370.820191
3604.573847,-10881.027347,296.082377,-2987.772442
3604.574177,-11399.171507,0.000000,919.314598
3604.574507,-11695.253884,74.020594,4749.792088
3604.574837,-10658.965565,-222.061783,5209.449386
3604.575167,-10436.903782,-74.020594,1915.238745
3604.575496,-10584.944971,-296.082377,-2681.334243
3604.575826,-10066.800811,0.000000,-3983.696590
3604.576156,-9696.697840,-222.061783,-2528.115143
3604.576486,-8734.430116,0.000000,1762.019645
3604.576816,-8216.285956,0.000000,3677.258390
3604.577146,-8216.285956,222.061783,2068.457845
3604.577475,-8808.450710,0.000000,-1762.019645
3604.577805,-10066.800811,-222.061783,-3370.820191
3604.578135,-10436.903782,-222.061783,-1455.581446
3604.578465,-11103.089130,-74.020594,2451.505594
3604.578795,-11325.150913,0.000000,5132.839837
3604.579124,-11251.130318,148.041188,3983.696590
3604.579454,-10955.047942,0.000000,153.219100
3604.579784,-10732.986159,-592.164754,-3677.258390
3604.580114,-9548.656652,-1036.288319,-3753.867940
3604.580444,-8512.368333,-370.102971,0.000000
3604.580773,-7920.203579,74.020594,2834.553343
3604.581103,-7772.162391,444.123565,3064.381992
3604.581433,-8142.265362,740.205942,-153.219100
3604.581763,-9622.677246,1036.288319,-2911.162892
3604.582093,-10807.006753,370.102971,-3140.991542
3604.582423,-11473.192101,148.041188,0.000000
3604.582752,-11103.089130,0.000000,4290.134789
3604.583082,-10066.800811,-592.164754,5362.668486
3604.583412,-9844.739029,-518.144159,2911.162892
3604.583742,-9918.759623,0.000000,-1455.581446
3604.584072,-10584.944971,0.000000,-4519.963438
3604.584401,-9474.636058,74.020594,-3600.648841
3604.584731,-9030.512492,222.061783,0.000000
3604.585061,-8216.285956,296.082377,2834.553343
3604.585391,-7920.203579,370.102971,1685.410096
3604.585721,-7994.224174,148.041188,-1532.190996
3604.586050,-9178.553681,0.000000,-3830.477490
3604.586380,-10140.821405,296.082377,-2987.772442
3604.586710,-10732.986159,296.082377,459.657299
3604.587040,-11103.089130,296.082377,4290.134789
3604.587370,-10732.986159,592.164754,3370.820191
3604.587699,-10955.047942,222.061783,306.438199
3604.588029,-10807.006753,-148.041188,-2911.162892
3604.588359,-9844.739029,-888.247130,-3677.258390
3604.588689,-8586.388927,-740.205942,-1149.143247
3604.589019,-7772.162391,0.000000,2604.724693
3604.589349,-7994.224174,592.164754,3294.210641
3604.589678,-8438.347739,962.267725,1302.362347
3604.590008,-9918.759623,962.267725,-2068.457845
3604.590338,-10955.047942,740.205942,-3524.039291
3604.590668,-11695.253884,222.061783,-1225.752797
3604.590998,-11103.089130,-148.041188,2834.553343
3604.591327,-10362.883188,-370.102971,5592.497135
3604.591657,-9992.780217,-740.205942,3753.867940
3604.591987,-9770.718434,-666.185348,-459.657299
3604.592317,-9844.739029,-518.144159,-3830.477490
3604.592647,-9770.718434,-444.123565,-3370.820191
3604.592976,-9326.594869,-296.082377,0.000000
3604.593306,-8586.388927,0.000000,3370.820191
3604.593636,-8364.327145,0.000000,3217.601092
3604.593966,-8364.327145,0.000000,459.657299
3604.594296,-9400.615463,-148.041188,-2374.896044
3604.594626,-10066.800811,-518.144159,-2604.724693
3604.594955,-10732.986159,-370.102971,612.876398
3604.595285,-11251.130318,-148.041188,4136.915689
3604.595615,-10807.006753,0.000000,5439.278036
3604.595945,-11103.089130,74.020594,1991.848295
3604.596275,-10807.006753,-370.102971,-2374.896044
3604.596604,-10436.903782,-888.247130,-3753.867940
3604.596934,-8882.471304,-1184.329507,-1532.190996
3604.597264,-7698.141797,-740.205942,1991.848295
3604.597594,-7624.121203,0.000000,4060.306139
3604.597924,-8438.347739,666.185348,2298.286494
3604.598253,-9104.533087,888.247130,-1838.629195
3604.598583,-10732.986159,1110.308913,-3524.039291
3604.598913,-11325.150913,444.123565,-1455.581446
3604.599243,-11695.253884,0.000000,2911.162892
3604.599573,-11177.109724,148.041188,5592.497135
3604.599902,-10955.047942,518.144159,4749.792088
3604.600232,-10214.842000,296.082377,153.219100
3604.600562,-10584.944971,444.123565,-3447.429741
3604.600892,-10288.862594,222.061783,-4290.134789
3604.601222,-9400.615463,666.185348,-612.876398
3604.601552,-8290.306550,888.247130,2145.067394
3604.601881,-7994.224174,592.164754,3140.991542
3604.602211,-8438.347739,444.123565,842.705048
3604.602541,-9326.594869,444.123565,-2298.286494
3604.602871,-9918.759623,666.185348,-2681.334243
3604.603201,-10288.862594,444.123565,-459.657299
3604.603530,-10807.006753,592.164754,3677.258390
3604.603860,-11177.109724,740.205942,4979.620737
3604.604190,-11695.253884,1184.329507,2757.943793
3604.604520,-11251.130318,222.061783,-1915.238745
3604.604850,-10807.006753,-296.082377,-4060.306139
3604.605179,-9770.718434,-148.041188,-2145.067394
3604.605509,-8438.347739,0.000000,1762.019645
3604.605839,-7846.182985,444.123565,3524.039291
3604.606169,-7698.141797,814.226536,1991.848295
3604.606499,-8734.430116,1406.391290,-1762.019645
3604.606828,-10066.800811,962.267725,-3677.258390
3604.607158,-10807.006753,444.123565,-2834.553343
3604.607488,-10732.986159,74.020594,1225.752797
3604.607818,-10658.965565,0.000000,4290.134789
3604.608148,-10140.821405,-222.061783,4136.915689
3604.608478,-10510.924376,0.000000,919.314598
3604.608807,-10288.862594,-444.123565,-2834.553343
3604.609137,-10436.903782,-444.123565,-4366.744339
3604.609467,-9622.677246,-444.123565,-2221.676944
3604.609797,-8660.409521,0.000000,2298.286494
3604.610127,-8364.327145,0.000000,2987.772442
3604.610456,-8068.244768,74.020594,995.924147
3604.610786,-8512.368333,148.041188,-2604.724693
3604.611116,-9474.636058,0.000000,-3983.696590
3604.611446,-10658.965565,0.000000,-1455.581446
3604.611776,-11547.212695,74.020594,2604.724693
3604.612105,-11325.150913,0.000000,4903.011187
3604.612435,-11325.150913,-592.164754,3217.601092
3604.612765,-11547.212695,-444.123565,-842.705048
3604.613095,-10584.944971,-1406.391290,-3447.429741
3604.613425,-9400.615463,-1702.473667,-2528.115143
3604.613755,-8290.306550,-962.267725,153.219100
3604.614084,-7254.018232,0.000000,3983.696590
3604.614414,-7846.182985,518.144159,3600.648841
3604.614744,-8734.430116,740.205942,383.047749
3604.615074,-9992.780217,518.144159,-2834.553343
3604.615404,-11177.109724,518.144159,-2604.724693
3604.615733,-11843.295072,-148.041188,229.828649
3604.616063,-11325.150913,-518.144159,4519.963438
3604.616393,-10732.986159,-444.123565,5592.497135
3604.616723,-10362.883188,-370.102971,2451.505594
3604.617053,-10436.903782,-740.205942,-1915.238745
3604.617382,-10066.800811,-518.144159,-4213.525239
3604.617712,-9474.636058,-444.123565,-2757.943793
3604.618042,-8512.368333,0.000000,1149.143247
3604.618372,-8068.244768,0.000000,3370.820191
3604.618702,-7920.203579,296.082377,2528.115143
3604.619031,-8586.388927,222.061783,-919.314598
3604.619361,-9474.636058,0.000000,-3217.601092
3604.619691,-10807.006753,0.000000,-1225.752797
3604.620021,-11399.171507,74.020594,1991.848295
3604.620351,-11399.171507,148.041188,4826.401637
3604.620681,-11325.150913,370.102971,3983.696590
3604.621010,-11251.130318,0.000000,229.828649
3604.621340,-10658.965565,-296.082377,-3600.648841
3604.621670,-9622.677246,-666.185348,-3983.696590
3604.622000,-8216.285956,-370.102971,-1225.752797
3604.622330,-7624.121203,0.000000,2068.457845
3604.622659,-7550.100608,1036.288319,2451.505594
3604.622989,-8068.244768,1036.288319,0.000000
3604.623319,-9474.636058,1110.308913,-3140.991542
3604.623649,-11029.068536,740.205942,-3524.039291
3604.623979,-11399.171507,222.061783,76.609550
3604.624308,-11621.233289,222.061783,3907.087040
3604.624638,-10955.047942,-148.041188,5439.278036
3604.624968,-10214.842000,-370.102971,3447.429741
3604.625298,-10288.862594,-74.020594,-1225.752797
3604.625628,-10214.842000,-222.061783,-4136.915689
3604.625957,-9474.636058,-222.061783,-3140.991542
3604.626287,-8364.327145,0.000000,-153.219100
3604.626617,-7846.182985,370.102971,2528.115143
3604.626947,-7476.080014,592.164754,1991.848295
3604.627277,-8438.347739,592.164754,-689.485948
3604.627607,-9548.656652,296.082377,-2911.162892
3604.627936,-10732.986159,222.061783,-2298.286494
3604.628266,-11103.089130,-222.061783,536.266849
3604.628596,-11473.192101,148.041188,4290.134789
3604.628926,-11251.130318,222.061783,4443.353888
3604.629256,-10881.027347,-370.102971,1072.533697
3604.629585,-10584.944971,-222.061783,-3140.991542
3604.629915,-9844.739029,-740.205942,-3677.258390
3604.630245,-8660.409521,-370.102971,-1532.190996
3604.630575,-7698.141797,74.020594,1915.238745
3604.630905,-7698.141797,518.144159,3064.381992
3604.631234,-8512.368333,1184.329507,536.266849
3604.631564,-9696.697840,962.267725,-2221.676944
3604.631894,-11029.068536,814.226536,-3294.210641
3604.632224,-11621.233289,222.061783,-1225.752797
3604.632554,-11399.171507,-888.247130,3370.820191
3604.632884,-11103.089130,-444.123565,6205.373534
3604.633213,-10214.842000,-518.144159,4673.182538
3604.633543,-10214.842000,-370.102971,229.828649
3604.633873,-10066.800811,-666.185348,-3370.820191
3604.634203,-9770.718434,0.000000,-3677.258390
3604.634533,-9400.615463,444.123565,-919.314598
3604.634862,-8586.388927,370.102971,2834.553343
3604.635192,-8068.244768,222.061783,2911.162892
3604.635522,-8290.306550,370.102971,0.000000
3604.635852,-9178.553681,148.041188,-2987.772442
3604.636182,-9844.739029,0.000000,-3140.991542
3604.636511,-10732.986159,222.061783,536.266849
3604.636841,-10955.047942,0.000000,4366.744339
3604.637171,-11473.192101,222.061783,5515.887586
3604.637501,-11177.109724,296.082377,2528.115143
3604.637831,-10584.944971,-518.144159,-1915.238745
3604.638160,-9770.718434,-1036.288319,-3983.696590
3604.638490,-9326.594869,-444.123565,-2298.286494
3604.638820,-7624.121203,0.000000,1762.019645
3604.639150,-7476.080014,222.061783,3370.820191
3604.639480,-7846.182985,962.267725,1838.629195
3604.639810,-9252.574275,1184.329507,-1149.143247
3604.640139,-10881.027347,888.247130,-3064.381992
3604.640469,-11769.274478,370.102971,-1532.190996
3604.640799,-11473.192101,0.000000,2451.505594
3604.641129,-10807.006753,74.020594,5592.497135
3604.641459,-10288.862594,-74.020594,4443.353888
3604.641788,-10066.800811,222.061783,229.828649
3604.642118,-9844.739029,0.000000,-3677.258390
3604.642448,-9622.677246,-296.082377,-4290.134789
3604.642778,-9030.512492,370.102971,-1685.410096
3604.643108,-8216.285956,444.123565,2528.115143
3604.643437,-8216.285956,444.123565,3294.210641
3604.643767,-8364.327145,444.123565,612.876398
3604.644097,-8882.471304,0.000000,-1762.019645
3604.644427,-9844.739029,0.000000,-2757.943793
3604.644757,-10955.047942,0.000000,0.000000
3604.645087,-11473.192101,74.020594,3600.648841
3604.645416,-11473.192101,296.082377,4903.011187
3604.645746,-11029.068536,148.041188,2298.286494
3604.646076,-10732.986159,0.000000,-1838.629195
3604.646406,-10066.800811,-666.185348,-4596.572988
3604.646736,-8956.491898,-1036.288319,-2987.772442
3604.647065,-7550.100608,-370.102971,229.828649
3604.647395,-7179.997637,222.061783,2451.505594
3604.647725,-7624.121203,666.185348,1915.238745
3604.648055,-8216.285956,814.226536,-1455.581446
3604.648385,-10362.883188,666.185348,-3600.648841
3604.648714,-11547.212695,518.144159,-2451.505594
3604.649044,-11991.336260,0.000000,1608.800546
3604.649374,-11769.274478,-370.102971,4596.572988
3604.649704,-10584.944971,-518.144159,4903.011187
3604.650034,-10436.903782,-296.082377,1149.143247
3604.650363,-9918.759623,-370.102971,-3217.601092
3604.650693,-9918.759623,-370.102971,-4903.011187
3604.651023,-9474.636058,0.000000,-2374.896044
3604.651353,-8438.347739,74.020594,1149.143247
3604.651683,-8216.285956,0.000000,2834.553343
3604.652013,-7772.162391,0.000000,1072.533697
3604.652343,-8438.347739,-370.102971,-1915.238745
3604.652673,-9770.718434,-74.020594,-2451.505594
3604.653003,-10955.047942,-296.082377,-689.485948
3604.653333,-11399.171507,-370.102971,3217.601092
3604.653662,-11695.253884,-148.041188,4366.744339
3604.653992,-11473.192101,-370.102971,3294.210641
3604.654322,-10807.006753,-592.164754,-612.876398
3604.654652,-9918.759623,-1036.288319,-3677.258390
3604.654982,-8882.471304,-1258.350101,-2987.772442
3604.655312,-7476.080014,-814.226536,229.828649
3604.655642,-6809.894666,-444.123565,2834.553343
3604.655972,-7550.100608,444.123565,2987.772442
3604.656302,-8290.306550,666.185348,0.000000
3604.656632,-9548.656652,148.041188,-2451.505594
3604.656961,-11177.109724,370.102971,-2757.943793
3604.657291,-11769.274478,0.000000,919.314598
3604.657621,-11473.192101,-148.041188,4519.963438
3604.657951,-10510.924376,-222.061783,5822.325785
3604.658281,-10436.903782,0.000000,2681.334243
3604.658611,-10288.862594,0.000000,-1685.410096
3604.658941,-10066.800811,148.041188,-4443.353888
3604.659271,-9548.656652,0.000000,-2757.943793
3604.659601,-8438.347739,0.000000,766.095498
3604.659931,-8068.244768,296.082377,2757.943793
3604.660260,-7772.162391,222.061783,1838.629195
3604.660590,-8438.347739,0.000000,-766.095498
3604.660920,-9622.677246,0.000000,-2374.896044
3604.661250,-10807.006753,444.123565,-1302.362347
3604.661580,-11843.295072,370.102971,2068.457845
3604.661910,-11843.295072,444.123565,4673.182538
3604.662240,-11621.233289,370.102971,4366.744339
3604.662570,-11769.274478,370.102971,76.609550
3604.662900,-10881.027347,-296.082377,-3370.820191
3604.663230,-9252.574275,-666.185348,-3830.477490
3604.663560,-7846.182985,-444.123565,-919.314598
3604.663889,-7402.059420,74.020594,2451.505594
3604.664219,-7994.224174,1036.288319,2987.772442
3604.664549,-8290.306550,1036.288319,612.876398
3604.664879,-9696.697840,888.247130,-2604.724693
3604.665209,-10732.986159,296.082377,-2911.162892
3604.665539,-11843.295072,0.000000,-383.047749
3604.665869,-11695.253884,-222.061783,3447.429741
3604.666199,-10362.883188,-518.144159,5209.449386
3604.666529,-9770.718434,-740.205942,3370.820191
3604.666859,-9918.759623,-518.144159,-1532.190996
3604.667188,-10066.800811,0.000000,-4749.792088
3604.667518,-9474.636058,0.000000,-4060.306139
3604.667848,-8142.265362,148.041188,-766.095498
3604.668178,-7624.121203,296.082377,2451.505594
3604.668508,-7846.182985,222.061783,2145.067394
3604.668838,-8290.306550,222.061783,-995.924147
3604.669168,-9474.636058,222.061783,-3370.820191
3604.669498,-10436.903782,-296.082377,-2451.505594
3604.669828,-11177.109724,148.041188,1149.143247
3604.670158,-11547.212695,0.000000,4136.915689
3604.670487,-11473.192101,0.000000,4443.353888
3604.670817,-11473.192101,-296.082377,919.314598
3604.671147,-10510.924376,-444.123565,-2681.334243
3604.671477,-9696.697840,-740.205942,-4060.306139
3604.671807,-8808.450710,-592.164754,-1762.019645
3604.672137,-7476.080014,-222.061783,1915.238745
3604.672467,-7402.059420,370.102971,3064.381992
3604.672797,-8290.306550,962.267725,1455.581446
3604.673127,-9622.677246,888.247130,-1915.238745
3604.673457,-11251.130318,666.185348,-3064.381992
3604.673787,-11695.253884,74.020594,-1225.752797
3604.674116,-11843.295072,0.000000,2911.162892
3604.674446,-11103.089130,-370.102971,5592.497135
3604.674776,-10362.883188,-666.185348,4749.792088
3604.675106,-9918.759623,-296.082377,229.828649
3604.675436,-9696.697840,-370.102971,-4060.306139
3604.675766,-9474.636058,-148.041188,-3753.867940
3604.676096,-8734.430116,74.020594,-612.876398
3604.676426,-8068.244768,148.041188,3064.381992
3604.676756,-8142.265362,518.144159,3370.820191
3604.677086,-8142.265362,222.061783,766.095498
3604.677415,-9400.615463,0.000000,-2068.457845
3604.677745,-10584.944971,-444.123565,-2374.896044
3604.678075,-11399.171507,148.041188,689.485948
3604.678405,-11769.274478,0.000000,4290.134789
3604.678735,-11473.192101,0.000000,4903.011187
3604.679065,-11103.089130,0.000000,2298.286494
3604.679395,-10510.924376,-370.102971,-2374.896044
3604.679725,-9474.636058,-592.164754,-3907.087040
3604.680055,-8586.388927,-740.205942,-2068.457845
3604.680385,-7624.121203,-296.082377,1762.019645
3604.680715,-7698.141797,0.000000,4443.353888
3604.681044,-7994.224174,740.205942,2681.334243
3604.681374,-9104.533087,740.205942,-919.314598
3604.681704,-11103.089130,444.123565,-3217.601092
3604.682034,-11843.295072,0.000000,-1991.848295
3604.682364,-11991.336260,0.000000,2068.457845
3604.682694,-11251.130318,0.000000,5132.839837
3604.683024,-10436.903782,0.000000,4749.792088
3604.683354,-9770.718434,222.061783,306.438199
3604.683684,-9844.739029,148.041188,-4290.134789
3604.684014,-9548.656652,-148.041188,-4826.401637
3604.684343,-8660.409521,0.000000,-2374.896044
3604.684673,-7920.203579,148.041188,1762.019645
3604.685003,-7846.182985,592.164754,2604.724693
3604.685333,-8216.285956,518.144159,1225.752797
3604.685663,-9030.512492,148.041188,-1991.848295
3604.685993,-10510.924376,0.000000,-2911.162892
3604.686323,-11547.212695,222.061783,-842.705048
3604.686653,-11769.274478,-148.041188,4136.915689
3604.686983,-11843.295072,148.041188,5439.278036
3604.687313,-11103.089130,74.020594,3064.381992
3604.687642,-10658.965565,296.082377,-1302.362347
3604.687972,-9622.677246,-148.041188,-4673.182538
3604.688302,-8734.430116,-444.123565,-3830.477490
3604.688632,-7772.162391,0.000000,0.000000
3604.688962,-7254.018232,444.123565,2911.162892
3604.689292,-7994.224174,1184.329507,1838.629195
3604.689622,-8808.450710,1258.350101,-766.095498
3604.689952,-10510.924376,814.226536,-3600.648841
3604.690282,-11843.295072,518.144159,-3217.601092
3604.690612,-11621.233289,0.000000,919.314598
3604.690942,-11177.109724,-592.164754,4290.134789
3604.691271,-10214.842000,-370.102971,4903.011187
3604.691601,-9696.697840,0.000000,1608.800546
3604.691931,-9474.636058,148.041188,-2757.943793
3604.692261,-9474.636058,74.020594,-4903.011187
3604.692591,-8956.491898,296.082377,-2681.334243
3604.692921,-8290.306550,444.123565,919.314598
3604.693251,-8290.306550,666.185348,3140.991542
3604.693581,-8364.327145,666.185348,1532.190996
3604.693911,-9178.553681,222.061783,-2068.457845
3604.694241,-10436.903782,74.020594,-2911.162892
3604.694570,-11325.150913,0.000000,-1762.019645
3604.694900,-11695.253884,148.041188,2987.772442
3604.695230,-11473.192101,296.082377,4903.011187
3604.695560,-11251.130318,0.000000,3600.648841
3604.695890,-11251.130318,148.041188,-383.047749
3604.696220,-10140.821405,0.000000,-3830.477490
3604.696550,-9400.615463,-814.226536,-3447.429741
3604.696880,-7846.182985,-518.144159,-306.438199
3604.697210,-7476.080014,-74.020594,2987.772442
3604.697540,-7920.203579,0.000000,4213.525239
3604.697869,-8438.347739,222.061783,919.314598
3604.698199,-10140.821405,148.041188,-1991.848295
3604.698529,-11251.130318,-148.041188,-2451.505594
3604.698859,-11769.274478,-370.102971,383.047749
3604.699189,-11399.171507,-666.185348,4903.011187
3604.699519,-10510.924376,-740.205942,5745.716235
3604.699849,-9844.739029,-740.205942,3217.601092
3604.700179,-9622.677246,-740.205942,-1762.019645
3604.700509,-9400.615463,-518.144159,-4290.134789
3604.700839,-9326.594869,-370.102971,-3370.820191
3604.701169,-8438.347739,-222.061783,0.000000
3604.701498,-7994.224174,296.082377,2681.334243
3604.701828,-7624.121203,-148.041188,2528.115143
3604.702158,-8956.491898,0.000000,0.000000
3604.702488,-10066.800811,-296.082377,-2681.334243
3604.702818,-10732.986159,-518.144159,-1762.019645
3604.703148,-11251.130318,-296.082377,1608.800546
3604.703478,-11325.150913,0.000000,4596.572988
3604.703808,-10881.027347,222.061783,3830.477490
3604.704138,-10807.006753,0.000000,383.047749
3604.704468,-10288.862594,-296.082377,-3447.429741
3604.704797,-9030.512492,-814.226536,-4290.134789
3604.705127,-7994.224174,-444.123565,-1685.410096
3604.705457,-7402.059420,0.000000,2068.457845
3604.705787,-7624.121203,666.185348,2987.772442
3604.706117,-8364.327145,592.164754,766.095498
3604.706447,-9844.739029,888.247130,-2221.676944
3604.706777,-11473.192101,666.185348,-2757.943793
3604.707107,-12287.418637,444.123565,-1072.533697
3604.707437,-11843.295072,0.000000,3140.991542
3604.707767,-11251.130318,0.000000,5209.449386
3604.708097,-10214.842000,148.041188,2987.772442
3604.708426,-9918.759623,296.082377,-1149.143247
3604.708756,-9770.718434,296.082377,-3983.696590
3604.709086,-9400.615463,0.000000,-4136.915689
3604.709416,-8586.388927,370.102971,-229.828649
3604.709746,-8216.285956,370.102971,2834.553343
3604.710076,-8290.306550,518.144159,2451.505594
3604.710406,-8882.471304,444.123565,0.000000
3604.710736,-9548.656652,222.061783,-2604.724693
3604.711066,-10732.986159,0.000000,-2145.067394
3604.711396,-11399.171507,-296.082377,612.876398
3604.711725,-11399.171507,0.000000,3600.648841
3604.712055,-10955.047942,74.020594,4366.744339
3604.712385,-10288.862594,148.041188,919.314598
3604.712715,-10214.842000,0.000000,-2911.162892
3604.713045,-9252.574275,-444.123565,-4519.963438
3604.713375,-8364.327145,-370.102971,-2681.334243
3604.713705,-7624.121203,0.000000,1225.752797
3604.714035,-7328.038826,444.123565,2757.943793
3604.714365,-7920.203579,888.247130,1608.800546
3604.714695,-9474.636058,1258.350101,-1915.238745
3604.715024,-11177.109724,444.123565,-3524.039291
3604.715354,-11621.233289,0.000000,-2068.457845
3604.715684,-11547.212695,-222.061783,1915.238745
3604.716014,-11103.089130,-222.061783,4903.011187
3604.716344,-10214.842000,-148.041188,4136.915689
3604.716674,-9992.780217,148.041188,0.000000
3604.717004,-9992.780217,74.020594,-3983.696590
3604.717334,-9622.677246,0.000000,-4443.353888
3604.717664,-9178.553681,74.020594,-1149.143247
3604.717994,-8512.368333,74.020594,2911.162892
3604.718324,-8216.285956,74.020594,4136.915689
3604.718653,-8364.327145,74.020594,1149.143247
3604.718983,-9104.533087,518.144159,-2298.286494
3604.719313,-10584.944971,0.000000,-2451.505594
3604.719643,-11399.171507,148.041188,383.047749
3604.719973,-11695.253884,370.102971,4290.134789
3604.720303,-11399.171507,592.164754,5132.839837
3604.720633,-11103.089130,222.061783,2451.505594
3604.720963,-10362.883188,-296.082377,-1455.581446
3604.721293,-9622.677246,-888.247130,-4060.306139
3604.721623,-8808.450710,-1110.308913,-2604.724693
3604.721952,-7476.080014,-518.144159,1455.581446
3604.722282,-6957.935855,0.000000,4290.134789
3604.722612,-7698.141797,592.164754,2911.162892
3604.722942,-9030.512492,592.164754,-842.705048
3604.723272,-10436.903782,444.123565,-3294.210641
3604.723602,-11695.253884,0.000000,-2374.896044
3604.723932,-11621.233289,-592.164754,1991.848295
3604.724262,-11029.068536,-74.020594,5362.668486
3604.724592,-10214.842000,148.041188,5362.668486
3604.724922,-9622.677246,0.000000,1225.752797
3604.725251,-9918.759623,0.000000,-3600.648841
3604.725581,-9844.739029,148.041188,-4979.620737
3604.725911,-9400.615463,222.061783,-2068.457845
3604.726241,-8216.285956,74.020594,2374.896044
3604.726571,-7920.203579,296.082377,3524.039291
3604.726901,-7994.224174,444.123565,1532.190996
3604.727231,-9252.574275,0.000000,-1762.019645
3604.727561,-10658.965565,222.061783,-3677.258390
3604.727891,-11473.192101,0.000000,-1225.752797
3604.728221,-11621.233289,296.082377,3064.381992
3604.728551,-11325.150913,296.082377,5209.449386
3604.728880,-10658.965565,222.061783,2911.162892
3604.729210,-10881.027347,222.061783,-1838.629195
3604.729540,-10066.800811,0.000000,-4366.744339
3604.729870,-8808.450710,-370.102971,-4290.134789
3604.730200,-7772.162391,148.041188,0.000000
3604.730530,-7476.080014,370.102971,3370.820191
3604.730860,-8068.244768,740.205942,2987.772442
3604.731190,-8956.491898,962.267725,-536.266849
3604.731520,-10436.903782,814.226536,-3524.039291
3604.731850,-11473.192101,518.144159,-3217.601092
3604.732179,-11843.295072,0.000000,536.266849
3604.732509,-11029.068536,0.000000,4443.353888
3604.732839,-10362.883188,0.000000,5132.839837
3604.733169,-9696.697840,0.000000,1915.238745
3604.733499,-9992.780217,148.041188,-2681.334243
3604.733829,-9844.739029,0.000000,-4903.011187
3604.734159,-9400.615463,148.041188,-2604.724693
3604.734489,-7994.224174,222.061783,1532.190996
3604.734819,-7698.141797,740.205942,3753.867940
3604.735149,-7920.203579,74.020594,2374.896044
3604.735479,-8808.450710,296.082377,-1532.190996
3604.735808,-9770.718434,74.020594,-3524.039291
3604.736138,-10658.965565,74.020594,-1838.629195
3604.736468,-11251.130318,370.102971,2298.286494
3604.736798,-11399.171507,296.082377,4903.011187
3604.737128,-10955.047942,444.123565,3907.087040
3604.737458,-10584.944971,370.102971,0.000000
3604.737788,-10362.883188,-444.123565,-4366.744339
3604.738118,-9474.636058,-814.226536,-4213.525239
3604.738448,-8512.368333,-370.102971,-689.485948
3604.738778,-7624.121203,0.000000,3064.381992
3604.739107,-7624.121203,222.061783,3600.648841
3604.739437,-8660.409521,518.144159,689.485948
3604.739767,-9918.759623,148.041188,-2528.115143
3604.740097,-11399.171507,0.000000,-3064.381992
3604.740427,-11547.212695,-592.164754,0.000000
3604.740757,-11103.089130,-814.226536,4596.572988
3604.741087,-10658.965565,-518.144159,6128.763984
3604.741417,-10288.862594,-74.020594,3447.429741
3604.741747,-9992.780217,-444.123565,-1838.629195
3604.742077,-9992.780217,-148.041188,-4519.963438
3604.742406,-9770.718434,-148.041188,-3294.210641
3604.742736,-8956.491898,74.020594,842.705048
3604.743066,-8290.306550,0.000000,3370.820191
3604.743396,-8290.306550,0.000000,2681.334243
3604.743726,-8734.430116,0.000000,-383.047749
3604.744056,-9992.780217,-370.102971,-2834.553343
3604.744386,-10955.047942,-962.267725,-2221.676944
3604.744716,-11103.089130,-444.123565,1762.019645
3604.745046,-10955.047942,-370.102971,5209.449386
3604.745376,-10732.986159,0.000000,4673.182538
3604.745706,-10658.965565,0.000000,689.485948
3604.746035,-10288.862594,-370.102971,-3600.648841
3604.746365,-9696.697840,-592.164754,-4136.915689
3604.746695,-8364.327145,-592.164754,-1915.238745
3604.747025,-7476.080014,-370.102971,2298.286494
3604.747355,-7550.100608,0.000000,3447.429741
3604.747685,-8586.388927,592.164754,1302.362347
3604.748015,-9770.718434,740.205942,-2528.115143
3604.748345,-11029.068536,296.082377,-3830.477490
3604.748675,-11695.253884,74.020594,-842.705048
3604.749005,-11769.274478,0.000000,2834.553343
3604.749334,-10881.027347,0.000000,5669.106685
3604.749664,-10288.862594,0.000000,3600.648841
3604.749994,-9844.739029,0.000000,-919.314598
3604.750324,-9918.759623,0.000000,-4596.572988
3604.750654,-9844.739029,-296.082377,-3753.867940
3604.750984,-8882.471304,0.000000,-306.438199
3604.751314,-7846.182985,74.020594,2834.553343
3604.751644,-8290.306550,370.102971,2528.115143
3604.751974,-8512.368333,296.082377,-536.266849
3604.752304,-9474.636058,222.061783,-3447.429741
3604.752634,-10510.924376,0.000000,-2987.772442
3604.752963,-11251.130318,518.144159,1225.752797
3604.753293,-11547.212695,518.144159,3753.867940
3604.753623,-11029.068536,148.041188,4366.744339
3604.753953,-10658.965565,0.000000,1455.581446
3604.754283,-10214.842000,-296.082377,-3140.991542
3604.754613,-9474.636058,-518.144159,-4903.011187
3604.754943,-8586.388927,-370.102971,-2221.676944
3604.755273,-7624.121203,-74.020594,2068.457845
3604.755603,-7846.182985,740.205942,3907.087040
3604.755933,-8068.244768,888.247130,2145.067394
3604.756262,-9548.656652,1110.308913,-1762.019645
3604.756592,-11177.109724,666.185348,-3677.258390
3604.756922,-11695.253884,296.082377,-1762.019645
3604.757252,-11251.130318,-370.102971,2451.505594
3604.757582,-10881.027347,-148.041188,5515.887586
3604.757912,-10140.821405,0.000000,4749.792088
3604.758242,-9844.739029,-148.041188,459.657299
3604.758572,-10140.821405,222.061783,-2757.943793
3604.758902,-9918.759623,0.000000,-3753.867940
3604.759232,-9474.636058,370.102971,-842.705048
3604.759562,-8586.388927,148.041188,3294.210641
3604.759891,-8586.388927,370.102971,3907.087040
3604.760221,-8660.409521,148.041188,1915.238745
3604.760551,-9104.533087,0.000000,-1685.410096
3604.760881,-10288.862594,0.000000,-2451.505594
3604.761211,-11029.068536,0.000000,0.000000
3604.761541,-11251.130318,74.020594,3983.696590
3604.761871,-10955.047942,370.102971,5286.058936
3604.762201,-10807.006753,222.061783,3140.991542
3604.762531,-10214.842000,0.000000,-766.095498
3604.762861,-9918.759623,-592.164754,-3064.381992
3604.763190,-9252.574275,-444.123565,-2451.505594
3604.763520,-8068.244768,-444.123565,1149.143247
3604.763850,-7624.121203,0.000000,4060.306139
3604.764180,-7920.203579,74.020594,3370.820191
3604.764510,-8882.471304,666.185348,-919.314598
3604.764840,-10510.924376,518.144159,-3677.258390
3604.765170,-11399.171507,296.082377,-2604.724693
3604.765500,-11399.171507,148.041188,1225.752797
3604.765830,-10658.965565,0.000000,4903.011187
3604.766160,-10436.903782,222.061783,5439.278036
3604.766490,-10066.800811,518.144159,1608.800546
3604.766819,-10214.842000,296.082377,-2604.724693
3604.767149,-10362.883188,148.041188,-4673.182538
3604.767479,-9844.739029,148.041188,-2068.457845
3604.767809,-9104.533087,296.082377,1991.848295
3604.768139,-8512.368333,370.102971,3677.258390
3604.768469,-8512.368333,444.123565,1532.190996
3604.768799,-9030.512492,370.102971,-1838.629195
3604.769129,-9770.718434,0.000000,-3524.039291
3604.769459,-10807.006753,222.061783,-1685.410096
3604.769789,-11103.089130,222.061783,2374.896044
3604.770118,-11029.068536,296.082377,4596.572988
3604.770448,-10658.965565,222.061783,2681.334243
3604.770778,-10584.944971,0.000000,-1072.533697
3604.771108,-10214.842000,-518.144159,-4213.525239
3604.771438,-9400.615463,-888.247130,-3907.087040
3604.771768,-8660.409521,-74.020594,0.000000
3604.772098,-8068.244768,74.020594,3217.601092
3604.772428,-7994.224174,370.102971,2757.943793
3604.772758,-8734.430116,518.144159,-612.876398
3604.773088,-9548.656652,222.061783,-3983.696590
3604.773418,-10955.047942,0.000000,-4060.306139
3604.773747,-10362.883188,-518.144159,-306.438199
3604.774077,-10140.821405,-370.102971,3677.258390
3604.774407,-9992.780217,-444.123565,4596.572988
3604.774737,-9992.780217,-74.020594,2068.457845
3604.775067,-10140.821405,-148.041188,-2451.505594
3604.775397,-10066.800811,-74.020594,-4443.353888
3604.775727,-10066.800811,0.000000,-2834.553343
3604.776057,-9400.615463,-148.041188,1302.362347
3604.776387,-8882.471304,0.000000,3600.648841
3604.776717,-8512.368333,0.000000,2374.896044
3604.777046,-8808.450710,148.041188,-536.266849
3604.777376,-9622.677246,-444.123565,-2528.115143
3604.777706,-10436.903782,-370.102971,-1532.190996
3604.778036,-10732.986159,0.000000,1532.190996
3604.778366,-10955.047942,222.061783,5132.839837
3604.778696,-11103.089130,592.164754,4060.306139
3604.779026,-10955.047942,0.000000,383.047749
3604.779356,-10955.047942,-148.041188,-2911.162892
3604.779686,-10214.842000,-666.185348,-3064.381992
3604.780016,-9178.553681,-740.205942,-612.876398
3604.780346,-8216.285956,-444.123565,3064.381992
3604.780675,-8142.265362,148.041188,4366.744339
3604.781005,-8216.285956,296.082377,1455.581446
3604.781335,-8956.491898,74.020594,-2068.457845
3604.781665,-10436.903782,222.061783,-3294.210641
3604.781995,-10807.006753,0.000000,-766.095498
3604.782325,-11029.068536,222.061783,3600.648841
3604.782655,-11029.068536,148.041188,5669.106685
3604.782985,-10288.862594,296.082377,3217.601092
3604.783315,-10066.800811,0.000000,-1455.581446
3604.783645,-10436.903782,0.000000,-3983.696590
3604.783974,-10288.862594,-370.102971,-3217.601092
3604.784304,-9178.553681,-148.041188,536.266849
3604.784634,-8068.244768,0.000000,3677.258390
3604.784964,-7476.080014,-370.102971,3370.820191
3604.785294,-8142.265362,0.000000,459.657299
3604.785624,-8808.450710,-222.061783,-2298.286494
3604.785954,-10288.862594,74.020594,-2145.067394
3604.786284,-10362.883188,296.082377,842.705048
3604.786614,-11177.109724,518.144159,4443.353888
3604.786944,-11399.171507,518.144159,4979.620737
3604.787274,-11769.274478,888.247130,1302.362347
3604.787603,-11103.089130,74.020594,-2757.943793
3604.787933,-10362.883188,-370.102971,-4903.011187
3604.788263,-9252.574275,-592.164754,-2451.505594
3604.788593,-8216.285956,-296.082377,1455.581446
3604.788923,-7550.100608,296.082377,3140.991542
3604.789253,-7698.141797,518.144159,1149.143247
3604.789583,-8882.471304,666.185348,-2604.724693
3604.789913,-10510.924376,666.185348,-4366.744339
3604.790243,-11177.109724,0.000000,-2221.676944
3604.790573,-10955.047942,0.000000,2145.067394
3604.790902,-10732.986159,-148.041188,4903.011187
3604.791232,-10807.006753,0.000000,3907.087040
3604.791562,-10288.862594,0.000000,-76.609550
3604.791892,-10140.821405,-296.082377,-3677.258390
3604.792222,-10140.821405,-592.164754,-4213.525239
3604.792552,-9548.656652,296.082377,-689.485948
3604.792882,-8512.368333,296.082377,2451.505594
3604.793212,-8290.306550,444.123565,2911.162892
3604.793542,-8290.306550,370.102971,0.000000
3604.793872,-8660.409521,0.000000,-3524.039291
3604.794202,-9622.677246,0.000000,-3983.696590
3604.794531,-10214.842000,148.041188,-612.876398
3604.794861,-11251.130318,592.164754,3600.648841
3604.795191,-11325.150913,370.102971,5132.839837
3604.795521,-11843.295072,222.061783,2068.457845
3604.795851,-11177.109724,0.000000,-1915.238745
3604.796181,-10658.965565,-814.226536,-3753.867940
3604.796511,-9400.615463,-1184.329507,-2451.505594
3604.796841,-7994.224174,-814.226536,1685.410096
3604.797171,-7550.100608,0.000000,3907.087040
3604.797501,-7624.121203,222.061783,2757.943793
3604.797830,-8734.430116,518.144159,-1302.362347
3604.798160,-10140.821405,296.082377,-3677.258390
3604.798490,-11029.068536,74.020594,-3064.381992
3604.798820,-11029.068536,0.000000,1149.143247
3604.799150,-11177.109724,0.000000,5132.839837
3604.799480,-10807.006753,-222.061783,5132.839837
3604.799810,-10658.965565,-222.061783,1225.752797
3604.800140,-10288.862594,-444.123565,-2757.943793
3604.800470,-10288.862594,-370.102971,-4060.306139
3604.800800,-9844.739029,-148.041188,-1378.971896
3604.801130,-8956.491898,74.020594,2681.334243
3604.801459,-8068.244768,74.020594,3907.087040
3604.801789,-7994.224174,74.020594,1225.752797
3604.802119,-8586.388927,74.020594,-1991.848295
3604.802449,-9770.718434,74.020594,-2451.505594
3604.802779,-10510.924376,0.000000,-842.705048
3604.803109,-10955.047942,296.082377,2757.943793
3604.803439,-11103.089130,296.082377,5209.449386
3604.803769,-11103.089130,148.041188,3524.039291
3604.804099,-11177.109724,0.000000,-76.609550
3604.804429,-10510.924376,-222.061783,-2911.162892
3604.804758,-9770.718434,-666.185348,-2604.724693
3604.805088,-8512.368333,-296.082377,459.657299
3604.805418,-8438.347739,0.000000,4290.134789
3604.805748,-8068.244768,518.144159,3370.820191
3604.806078,-8660.409521,814.226536,0.000000
3604.806408,-9844.739029,518.144159,-3600.648841
3604.806738,-11103.089130,370.102971,-2987.772442
3604.807068,-11399.171507,148.041188,536.266849
3604.807398,-10881.027347,-222.061783,4596.572988
3604.807728,-10362.883188,0.000000,5056.230287
3604.808058,-10140.821405,148.041188,1991.848295
3604.808387,-10066.800811,-74.020594,-2528.115143
3604.808717,-9770.718434,0.000000,-4519.963438
3604.809047,-9696.697840,0.000000,-2604.724693
3604.809377,-8512.368333,0.000000,1608.800546
3604.809707,-8068.244768,222.061783,3524.039291
3604.810037,-7920.203579,444.123565,1762.019645
3604.810367,-8660.409521,518.144159,-2145.067394
3604.810697,-9696.697840,444.123565,-3753.867940
3604.811027,-10288.862594,296.082377,-2681.334243
3604.811357,-10881.027347,444.123565,1762.019645
3604.811687,-10955.047942,740.205942,4596.572988
3604.812016,-11103.089130,888.247130,3677.258390
3604.812346,-10881.027347,814.226536,-383.047749
3604.812676,-10584.944971,0.000000,-4596.572988
3604.813006,-10140.821405,-296.082377,-4596.572988
3604.813336,-8734.430116,-444.123565,-1302.362347
3604.813666,-7920.203579,-148.041188,2681.334243
3604.813996,-7920.203579,296.082377,2987.772442
3604.814326,-8142.265362,370.102971,229.828649
3604.814656,-9474.636058,222.061783,-2987.772442
3604.814986,-10584.944971,296.082377,-3294.210641
3604.815315,-11251.130318,296.082377,-1225.752797
3604.815645,-11103.089130,0.000000,3524.039291
3604.815975,-10658.965565,-370.102971,5056.230287
3604.816305,-10362.883188,74.020594,2604.724693
3604.816635,-10362.883188,222.061783,-1455.581446
3604.816965,-10436.903782,-518.144159,-4290.134789
3604.817295,-9992.780217,-740.205942,-3600.648841
3604.817625,-9104.533087,-592.164754,153.219100
3604.817955,-8438.347739,-148.041188,3217.601092
3604.818285,-8068.244768,0.000000,2604.724693
3604.818615,-8290.306550,-148.041188,-383.047749
3604.818944,-9178.553681,-148.041188,-2757.943793
3604.819274,-10066.800811,-444.123565,-1838.629195
3604.819604,-10955.047942,0.000000,2068.457845
3604.819934,-11399.171507,-148.041188,4903.011187
3604.820264,-11399.171507,370.102971,4979.620737
3604.820594,-11621.233289,296.082377,842.705048
3604.820924,-11621.233289,148.041188,-2834.553343
3604.821254,-10214.842000,-666.185348,-4290.134789
3604.821584,-8956.491898,-814.226536,-1838.629195
3604.821914,-7624.121203,-518.144159,2068.457845
3604.822243,-7402.059420,296.082377,3447.429741
3604.822573,-7920.203579,370.102971,1532.190996
3604.822903,-8882.471304,592.164754,-1762.019645
3604.823233,-10362.883188,444.123565,-3064.381992
3604.823563,-11029.068536,148.041188,-919.314598
3604.823893,-11399.171507,222.061783,3600.648841
3604.824223,-11177.109724,0.000000,5745.716235
3604.824553,-11325.150913,222.061783,3830.477490
3604.824883,-11103.089130,0.000000,-306.438199
3604.825213,-10732.986159,0.000000,-3294.210641
3604.825543,-9844.739029,-444.123565,-3524.039291
3604.825872,-8734.430116,-296.082377,-383.047749
3604.826202,-8068.244768,148.041188,2757.943793
3604.826532,-7476.080014,148.041188,2834.553343
3604.826862,-7846.182985,444.123565,306.438199
3604.827192,-8660.409521,222.061783,-2681.334243
3604.827522,-9622.677246,222.061783,-2757.943793
3604.827852,-10362.883188,296.082377,76.609550
3604.828182,-11177.109724,888.247130,4366.744339
3604.828512,-11325.150913,370.102971,5056.230287
3604.828842,-11473.192101,666.185348,2221.676944
3604.829171,-11251.130318,370.102971,-1991.848295
3604.829501,-10807.006753,74.020594,-3983.696590
3604.829831,-9474.636058,-370.102971,-2757.943793
3604.830161,-8290.306550,148.041188,995.924147
3604.830491,-7698.141797,444.123565,3140.991542
3604.830821,-7994.224174,962.267725,1608.800546
3604.831151,-8364.327145,1036.288319,-1991.848295
3604.831481,-9770.718434,370.102971,-4290.134789
3604.831811,-10658.965565,148.041188,-2604.724693
3604.832141,-11103.089130,74.020594,1532.190996
3604.832471,-11177.109724,0.000000,4366.744339
3604.832800,-10807.006753,-296.082377,3907.087040
3604.833130,-10732.986159,-148.041188,536.266849
3604.833460,-10732.986159,-222.061783,-3217.601092
3604.833790,-10362.883188,-370.102971,-3983.696590
3604.834120,-9104.533087,-592.164754,-2068.457845
3604.834450,-8068.244768,0.000000,1685.410096
3604.834780,-7698.141797,0.000000,2528.115143
3604.835110,-8216.285956,740.205942,919.314598
3604.835440,-8364.327145,74.020594,-2451.505594
3604.835770,-9770.718434,222.061783,-3370.820191
3604.836099,-11177.109724,0.000000,-842.705048
3604.836429,-11843.295072,222.061783,3064.381992
3604.836759,-11843.295072,74.020594,4979.620737
3604.837089,-11621.233289,0.000000,2987.772442
3604.837419,-11029.068536,-592.164754,-612.876398
3604.837749,-10584.944971,-666.185348,-3753.867940
3604.838079,-9548.656652,-1258.350101,-2681.334243
3604.838409,-7994.224174,-962.267725,612.876398
3604.838739,-7476.080014,-296.082377,3370.820191
3604.839069,-7402.059420,74.020594,3140.991542
3604.839399,-8364.327145,370.102971,383.047749
3604.839728,-9770.718434,222.061783,-2987.772442
3604.840058,-10955.047942,0.000000,-2528.115143
3604.840388,-11473.192101,-148.041188,1072.533697
3604.840718,-11103.089130,-518.144159,4673.182538
3604.841048,-10881.027347,-370.102971,4903.011187
3604.841378,-10881.027347,-222.061783,1991.848295
3604.841708,-10732.986159,-444.123565,-2374.896044
3604.842038,-10288.862594,-592.164754,-3983.696590
3604.842368,-9696.697840,-518.144159,-2374.896044
3604.842698,-8290.306550,-222.061783,1378.971896
3604.843027,-7698.141797,-148.041188,3524.039291
3604.843357,-7624.121203,296.082377,1685.410096
3604.843687,-8068.244768,296.082377,-1378.971896
3604.844017,-9622.677246,444.123565,-2681.334243
3604.844347,-10807.006753,74.020594,-1302.362347
3604.844677,-11695.253884,222.061783,2834.553343
3604.845007,-11917.315666,740.205942,5209.449386
3604.845337,-11325.150913,592.164754,3447.429741
3604.845667,-11029.068536,222.061783,-383.047749
3604.845997,-10362.883188,-148.041188,-3983.696590
3604.846327,-9326.594869,-962.267725,-3677.258390
3604.846656,-8364.327145,-296.082377,-536.266849
3604.846986,-7402.059420,296.082377,3140.991542
3604.847316,-7031.956449,444.123565,3370.820191
3604.847646,-8068.244768,740.205942,766.095498
3604.847976,-9548.656652,962.267725,-2221.676944
3604.848306,-11473.192101,1036.288319,-2451.505594
3604.848636,-12065.356855,518.144159,306.438199
3604.848966,-11991.336260,518.144159,4443.353888
3604.849296,-11621.233289,370.102971,5822.325785
3604.849626,-10955.047942,370.102971,2604.724693
3604.849956,-10732.986159,222.061783,-1991.848295
3604.850285,-10288.862594,148.041188,-4673.182538
3604.850615,-8882.471304,148.041188,-3370.820191
3604.850945,-7994.224174,222.061783,919.314598
3604.851275,-7994.224174,592.164754,3447.429741
3604.851605,-7920.203579,518.144159,2451.505594
3604.851935,-8216.285956,370.102971,-766.095498
3604.852265,-9696.697840,296.082377,-2911.162892
3604.852595,-11177.109724,740.205942,-1608.800546
3604.852925,-11769.274478,666.185348,2528.115143
3604.853255,-11769.274478,962.267725,5056.230287
3604.853585,-11695.253884,888.247130,4290.134789
3604.853914,-10955.047942,740.205942,0.000000
3604.854244,-10658.965565,148.041188,-3753.867940
3604.854574,-9696.697840,0.000000,-4519.963438
3604.854904,-8216.285956,0.000000,-1608.800546
3604.855234,-6957.935855,370.102971,1455.581446
3604.855564,-6883.915261,592.164754,2451.505594
3604.855894,-7772.162391,962.267725,0.000000
3604.856224,-9326.594869,1110.308913,-2987.772442
3604.856554,-10510.924376,666.185348,-3600.648841
3604.856884,-11621.233289,74.020594,-766.095498
3604.857214,-11843.295072,148.041188,3830.477490
3604.857543,-11399.171507,0.000000,5362.668486
3604.857873,-10732.986159,0.000000,3217.601092
3604.858203,-10362.883188,0.000000,-1532.190996
3604.858533,-10584.944971,-222.061783,-4596.572988
3604.858863,-9622.677246,-592.164754,-3907.087040
3604.859193,-8290.306550,-222.061783,0.000000
3604.859523,-7624.121203,0.000000,2604.724693
3604.859853,-7772.162391,0.000000,2451.505594
3604.860183,-7994.224174,-296.082377,-459.657299
3604.860513,-9326.594869,-444.123565,-2987.772442
3604.860843,-9918.759623,-370.102971,-1915.238745
3604.861173,-11399.171507,-296.082377,1838.629195
3604.861502,-11843.295072,0.000000,5209.449386
3604.861832,-11843.295072,-148.041188,5132.839837
3604.862162,-11251.130318,-148.041188,1532.190996
3604.862492,-11029.068536,-666.185348,-2681.334243
3604.862822,-10214.842000,-1258.350101,-4060.306139
3604.863152,-8808.450710,-1184.329507,-1455.581446
3604.863482,-7402.059420,-740.205942,2145.067394
3604.863812,-6809.894666,-444.123565,3677.258390
3604.864142,-7550.100608,-296.082377,1608.800546
3604.864472,-8956.491898,-74.020594,-1608.800546
3604.864802,-10510.924376,-370.102971,-2604.724693
3604.865131,-11547.212695,-740.205942,-842.705048
3604.865461,-11843.295072,-666.185348,3447.429741
3604.865791,-11177.109724,-888.247130,5898.935335
3604.866121,-10732.986159,-666.185348,3983.696590
3604.866451,-10140.821405,-370.102971,-153.219100
3604.866781,-10362.883188,-370.102971,-4136.915689
3604.867111,-9770.718434,-740.205942,-4366.744339
3604.867441,-8438.347739,-370.102971,-1378.971896
3604.867771,-7476.080014,-370.102971,2068.457845
3604.868101,-7402.059420,-148.041188,2451.505594
3604.868431,-7698.141797,0.000000,0.000000
3604.868761,-8808.450710,0.000000,-3064.381992
3604.869090,-10288.862594,0.000000,-2451.505594
3604.869420,-11103.089130,296.082377,919.314598
3604.869750,-11621.233289,444.123565,4443.353888
3604.870080,-11621.233289,518.144159,4903.011187
3604.870410,-11473.192101,296.082377,2298.286494
3604.870740,-11177.109724,222.061783,-1838.629195
3604.871070,-10362.883188,148.041188,-4519.963438
3604.871400,-8734.430116,-148.041188,-3064.381992
3604.871730,-7624.121203,74.020594,766.095498
3604.872060,-7328.038826,444.123565,2987.772442
3604.872390,-7550.100608,1110.308913,1762.019645
3604.872719,-8438.347739,1036.288319,-1762.019645
3604.873049,-10066.800811,888.247130,-3753.867940
3604.873379,-11399.171507,666.185348,-2374.896044
3604.873709,-11843.295072,296.082377,1608.800546
3604.874039,-11843.295072,148.041188,5286.058936
3604.874369,-11177.109724,222.061783,4749.792088
3604.874699,-10732.986159,0.000000,919.314598
3604.875029,-10362.883188,0.000000,-3447.429741
3604.875359,-10066.800811,0.000000,-3907.087040
3604.875689,-8956.491898,444.123565,-1455.581446
3604.876019,-7772.162391,296.082377,1762.019645
3604.876349,-7698.141797,814.226536,2757.943793
3604.876678,-7550.100608,1110.308913,689.485948
3604.877008,-8586.388927,518.144159,-2681.334243
3604.877338,-9992.780217,370.102971,-3753.867940
3604.877668,-10881.027347,74.020594,-612.876398
3604.877998,-11177.109724,222.061783,2681.334243
3604.878328,-11251.130318,444.123565,4979.620737
3604.878658,-11029.068536,74.020594,3294.210641
3604.878988,-10955.047942,0.000000,-536.266849
3604.879318,-10140.821405,-444.123565,-4060.306139
3604.879648,-9252.574275,-444.123565,-3140.991542
3604.879978,-8142.265362,0.000000,153.219100
3604.880307,-7179.997637,296.082377,3217.601092
3604.880637,-7624.121203,666.185348,3064.381992
3604.880967,-8512.368333,888.247130,-689.485948
3604.881297,-9992.780217,962.267725,-3447.429741
3604.881627,-11325.150913,666.185348,-2834.553343
3604.881957,-11621.233289,222.061783,459.657299
3604.882287,-11621.233289,-148.041188,4290.134789
3604.882617,-11473.192101,-222.061783,4979.620737
3604.882947,-10658.965565,-370.102971,1685.410096
3604.883277,-10288.862594,-592.164754,-2451.505594
3604.883607,-9696.697840,-1184.329507,-3753.867940
3604.883936,-8956.491898,-592.164754,-1991.848295
3604.884266,-8142.265362,-592.164754,2145.067394
3604.884596,-7772.162391,-296.082377,4136.915689
3604.884926,-7624.121203,-370.102971,2451.505594
3604.885256,-8438.347739,-222.061783,-919.314598
3604.885586,-10066.800811,-222.061783,-2604.724693
3604.885916,-11325.150913,-592.164754,-919.314598
3604.886246,-11251.130318,-370.102971,2681.334243
3604.886576,-11325.150913,0.000000,5745.716235
3604.886906,-10955.047942,148.041188,4366.744339
3604.887236,-11103.089130,-370.102971,-306.438199
3604.887566,-10658.965565,-148.041188,-3753.867940
3604.887895,-9770.718434,-814.226536,-4060.306139
3604.888225,-8068.244768,-666.185348,-995.924147
3604.888555,-7328.038826,-370.102971,3217.601092
3604.888885,-7328.038826,222.061783,3983.696590
3604.889215,-7994.224174,222.061783,1225.752797
3604.889545,-9918.759623,592.164754,-2451.505594
3604.889875,-11695.253884,148.041188,-2528.115143
3604.890205,-11991.336260,0.000000,383.047749
3604.890535,-11843.295072,0.000000,4749.792088
3604.890865,-11399.171507,0.000000,5592.497135
3604.891195,-10362.883188,0.000000,2681.334243
3604.891524,-10066.800811,0.000000,-1915.238745
3604.891854,-9918.759623,-222.061783,-4979.620737
3604.892184,-9178.553681,-296.082377,-3983.696590
3604.892514,-7846.182985,0.000000,383.047749
3604.892844,-7402.059420,518.144159,3140.991542
3604.893174,-8068.244768,740.205942,2528.115143
3604.893504,-9030.512492,962.267725,-919.314598
3604.893834,-9622.677246,444.123565,-3140.991542
3604.894164,-10881.027347,296.082377,-1915.238745
3604.894494,-11547.212695,148.041188,1762.019645
3604.894824,-11547.212695,74.020594,5362.668486
3604.895154,-11325.150913,370.102971,4596.572988
3604.895483,-10807.006753,370.102971,306.438199
3604.895813,-10066.800811,0.000000,-4060.306139
3604.896143,-9474.636058,-370.102971,-4366.744339
3604.896473,-8438.347739,0.000000,-1762.019645
3604.896803,-7105.977043,222.061783,2221.676944
3604.897133,-7254.018232,1184.329507,3447.429741
3604.897463,-7920.203579,1406.391290,612.876398
3604.897793,-9622.677246,1702.473667,-2987.772442
3604.898123,-11251.130318,1036.288319,-4060.306139
3604.898453,-12139.377449,592.164754,-1838.629195
3604.898783,-11917.315666,74.020594,2528.115143
3604.899112,-11251.130318,0.000000,5439.278036
3604.899442,-10362.883188,-222.061783,3524.039291
3604.899772,-10214.842000,-148.041188,-536.266849
3604.900102,-9992.780217,0.000000,-4060.306139
3604.900432,-9400.615463,0.000000,-3907.087040
3604.900762,-8068.244768,222.061783,-919.314598
3604.901092,-7920.203579,444.123565,2757.943793
3604.901422,-8364.327145,888.247130,2911.162892
3604.901752,-8734.430116,666.185348,306.438199
3604.902082,-9770.718434,444.123565,-2681.334243
3604.902412,-11177.109724,0.000000,-2987.772442
3604.902742,-11399.171507,0.000000,766.095498
3604.903071,-11473.192101,0.000000,4443.353888
3604.903401,-11473.192101,0.000000,4903.011187
3604.903731,-10510.924376,0.000000,2528.115143
3604.904061,-10214.842000,-370.102971,-1455.581446
3604.904391,-9770.718434,-370.102971,-2681.334243
3604.904721,-8882.471304,-370.102971,-1685.410096
3604.905051,-7846.182985,-74.020594,1991.848295
3604.905381,-7772.162391,74.020594,4060.306139
3604.905711,-8142.265362,370.102971,2298.286494
3604.906041,-9178.553681,370.102971,-842.705048
3604.906371,-10436.903782,74.020594,-2757.943793
3604.906700,-11769.274478,0.000000,-1685.410096
3604.907030,-11473.192101,-370.102971,1225.752797
3604.907360,-11029.068536,-592.164754,4903.011187
3604.907690,-10584.944971,-222.061783,4673.182538
3604.908020,-10288.862594,0.000000,1302.362347
3604.908350,-9770.718434,-296.082377,-3524.039291
3604.908680,-9400.615463,-592.164754,-4443.353888
3604.909010,-8660.409521,-148.041188,-995.924147
3604.909340,-8512.368333,0.000000,2451.505594
3604.909670,-7920.203579,0.000000,3294.210641
3604.910000,-8290.306550,370.102971,689.485948
3604.910329,-9030.512492,0.000000,-2298.286494
3604.910659,-10362.883188,0.000000,-3140.991542
3604.910989,-11325.150913,0.000000,-536.266849
3604.911319,-11473.192101,0.000000,2757.943793
3604.911649,-11251.130318,0.000000,4213.525239
3604.911979,-10732.986159,74.020594,1762.019645
3604.912309,-10807.006753,74.020594,-1608.800546
3604.912639,-9918.759623,-370.102971,-4290.134789
3604.912969,-9178.553681,-592.164754,-3064.381992
3604.913299,-7772.162391,-148.041188,306.438199
3604.913629,-7476.080014,814.226536,3370.820191
3604.913959,-7772.162391,518.144159,2834.553343
3604.914288,-9030.512492,814.226536,-612.876398
3604.914618,-10807.006753,740.205942,-3370.820191
3604.914948,-11547.212695,148.041188,-3217.601092
3604.915278,-12065.356855,0.000000,766.095498
3604.915608,-11547.212695,-296.082377,4290.134789
3604.915938,-10362.883188,-518.144159,4749.792088
3604.916268,-9622.677246,-444.123565,1302.362347
3604.916598,-9622.677246,-296.082377,-3140.991542
3604.916928,-9400.615463,-666.185348,-4673.182538
3604.917258,-9030.512492,-370.102971,-2528.115143
3604.917588,-8216.285956,74.020594,1762.019645
3604.917917,-8216.285956,592.164754,3600.648841
3604.918247,-8216.285956,148.041188,1762.019645
3604.918577,-9178.553681,0.000000,-1378.971896
3604.918907,-10214.842000,-222.061783,-2911.162892
3604.919237,-11029.068536,-518.144159,-842.705048
3604.919567,-11103.089130,-296.082377,2451.505594
3604.919897,-11029.068536,0.000000,5132.839837
3604.920227,-10807.006753,0.000000,3370.820191
3604.920557,-10658.965565,0.000000,-612.876398
3604.920887,-10140.821405,-370.102971,-4443.353888
3604.921217,-9326.594869,-444.123565,-4673.182538
3604.921547,-7920.203579,-74.020594,-842.705048
3604.921876,-7624.121203,148.041188,2604.724693
3604.922206,-8216.285956,740.205942,3370.820191
3604.922536,-8808.450710,666.185348,459.657299
3604.922866,-10140.821405,740.205942,-3064.381992
3604.923196,-11695.253884,296.082377,-2911.162892
3604.923526,-12287.418637,0.000000,459.657299
3604.923856,-11769.274478,-296.082377,4213.525239
3604.924186,-11103.089130,148.041188,5209.449386
3604.924516,-10066.800811,0.000000,2451.505594
3604.924846,-9918.759623,0.000000,-2221.676944
3604.925176,-9548.656652,-74.020594,-4443.353888
3604.925505,-9400.615463,0.000000,-2528.115143
3604.925835,-8364.327145,296.082377,1608.800546
3604.926165,-7846.182985,444.123565,3983.696590
3604.926495,-8216.285956,518.144159,2757.943793
3604.926825,-9178.553681,740.205942,-536.266849
3604.927155,-10214.842000,0.000000,-2298.286494
3604.927485,-11251.130318,296.082377,-1378.971896
3604.927815,-11103.089130,518.144159,2221.676944
3604.928145,-11399.171507,222.061783,4979.620737
3604.928475,-10807.006753,222.061783,4749.792088
3604.928805,-10658.965565,296.082377,536.266849
3604.929134,-9992.780217,0.000000,-3140.991542
3604.929464,-9548.656652,-518.144159,-3217.601092
3604.929794,-8142.265362,-296.082377,-459.657299
3604.930124,-7402.059420,0.000000,3217.601092
3604.930454,-7179.997637,222.061783,4136.915689
3604.930784,-8438.347739,518.144159,1149.143247
3604.931114,-9770.718434,592.164754,-1991.848295
3604.931444,-11325.150913,222.061783,-3064.381992
3604.931774,-11843.295072,148.041188,-229.828649
3604.932104,-11103.089130,-222.061783,3447.429741
3604.932434,-10584.944971,0.000000,5439.278036
3604.932764,-9992.780217,0.000000,3140.991542
3604.933093,-9844.739029,222.061783,-1455.581446
3604.933423,-9622.677246,0.000000,-4136.915689
3604.933753,-9474.636058,0.000000,-3983.696590
3604.934083,-8808.450710,444.123565,-612.876398
3604.934413,-7994.224174,370.102971,2374.896044
