#time,accel_x,accel_y,accel_z
4131.338216,-10066.800811,0.000000,153.219100
4131.338546,-9770.718434,296.082377,306.438199
4131.338876,-9918.759623,0.000000,383.047749
4131.339205,-9992.780217,0.000000,536.266849
4131.339535,-9548.656652,0.000000,153.219100
4131.339865,-10066.800811,0.000000,0.000000
4131.340195,-10066.800811,148.041188,76.609550
4131.340525,-9992.780217,0.000000,229.828649
4131.340854,-9770.718434,0.000000,153.219100
4131.341184,-9770.718434,0.000000,459.657299
4131.341514,-9696.697840,-74.020594,536.266849
4131.341844,-9548.656652,-370.102971,229.828649
4131.342174,-9696.697840,74.020594,306.438199
4131.342504,-9696.697840,148.041188,612.876398
4131.342833,-9918.759623,0.000000,536.266849
4131.343163,-9844.739029,74.020594,229.828649
4131.343493,-10288.862594,0.000000,766.095498
4131.343823,-9622.677246,-222.061783,766.095498
4131.344153,-9548.656652,-222.061783,919.314598
4131.344482,-9770.718434,-148.041188,1762.019645
4131.344812,-9844.739029,-444.123565,1838.629195
4131.345142,-9844.739029,-518.144159,995.924147
4131.345472,-10214.842000,-148.041188,229.828649
4131.345802,-9622.677246,-370.102971,-153.219100
4131.346131,-9622.677246,0.000000,306.438199
4131.346461,-10066.800811,-148.041188,1378.971896
4131.346791,-9770.718434,-370.102971,1838.629195
4131.347121,-9252.574275,-592.164754,2298.286494
4131.347451,-9400.615463,-814.226536,1762.019645
4131.347781,-9622.677246,-666.185348,2145.067394
4131.348110,-10066.800811,-1184.329507,1991.848295
4131.348440,-9992.780217,-1332.370696,2528.115143
4131.348770,-9992.780217,-1406.391290,2911.162892
4131.349100,-10658.965565,-814.226536,3830.477490
4131.349430,-10436.903782,-1110.308913,3370.820191
4131.349759,-10288.862594,-1110.308913,2834.553343
4131.350089,-10214.842000,-592.164754,2221.676944
4131.350419,-10288.862594,-740.205942,1762.019645
4131.350749,-10510.924376,-888.247130,1608.800546
4131.351079,-9770.718434,-1406.391290,1685.410096
4131.351409,-9844.739029,-2146.597232,2604.724693
4131.351738,-9918.759623,-2738.761985,3217.601092
4131.352068,-9918.759623,-3182.885551,3064.381992
4131.352398,-8734.430116,-3552.988522,2604.724693
4131.352728,-8216.285956,-3701.029710,2757.943793
4131.353058,-8438.347739,-3627.009116,3753.867940
4131.353387,-9474.636058,-2738.761985,4596.572988
4131.353717,-9918.759623,-3034.844362,4213.525239
4131.354047,-10584.944971,-2442.679609,4290.134789
4131.354377,-11325.150913,-2960.823768,2987.772442
4131.354707,-11177.109724,-2590.720797,1991.848295
4131.355037,-10584.944971,-2960.823768,995.924147
4131.355366,-9770.718434,-2516.700203,689.485948
4131.355696,-8808.450710,-2886.803174,919.314598
4131.356026,-8734.430116,-2738.761985,1762.019645
4131.356356,-8882.471304,-3182.885551,1991.848295
4131.356686,-9326.594869,-3552.988522,2681.334243
4131.357015,-9992.780217,-3923.091493,3753.867940
4131.357345,-10140.821405,-4441.235652,3447.429741
4131.357675,-9992.780217,-4737.318029,3600.648841
4131.358005,-9474.636058,-4515.256246,3830.477490
4131.358335,-9844.739029,-3478.967927,4290.134789
4131.358664,-10288.862594,-2516.700203,3600.648841
4131.358994,-10288.862594,-1850.514855,2451.505594
4131.359324,-10658.965565,-1924.535449,766.095498
4131.359654,-10658.965565,-1776.494261,766.095498
4131.359984,-10732.986159,-2368.659014,1378.971896
4131.360314,-9844.739029,-2960.823768,2221.676944
4131.360643,-9548.656652,-3478.967927,1685.410096
4131.360973,-8882.471304,-3330.926739,1149.143247
4131.361303,-8734.430116,-3701.029710,1149.143247
4131.361633,-8660.409521,-3182.885551,2374.896044
4131.361963,-10066.800811,-2220.617826,3983.696590
4131.362292,-11325.150913,-1480.411884,4443.353888
4131.362622,-10807.006753,-1332.370696,3217.601092
4131.362952,-9844.739029,-1776.494261,1915.238745
4131.363282,-9030.512492,-1924.535449,2604.724693
4131.363612,-10214.842000,-2368.659014,2145.067394
4131.363942,-10140.821405,-2368.659014,2987.772442
4131.364271,-9696.697840,-1850.514855,3447.429741
4131.364601,-9104.533087,-1628.453072,2604.724693
4131.364931,-9474.636058,-1258.350101,1685.410096
4131.365261,-10658.965565,-1480.411884,842.705048
4131.365591,-10584.944971,-1036.288319,842.705048
4131.365920,-9548.656652,-1110.308913,1915.238745
4131.366250,-8882.471304,-962.267725,2681.334243
4131.366580,-9104.533087,-1332.370696,4136.915689
4131.366910,-9992.780217,-1110.308913,3907.087040
4131.367240,-10436.903782,-666.185348,2298.286494
4131.367569,-11103.089130,-888.247130,2145.067394
4131.367899,-10362.883188,-814.226536,1838.629195
4131.368229,-9696.697840,-814.226536,3370.820191
4131.368559,-9474.636058,-962.267725,3370.820191
4131.368889,-9326.594869,-444.123565,3294.210641
4131.369219,-9622.677246,-370.102971,919.314598
4131.369548,-9474.636058,-444.123565,-306.438199
4131.369878,-9326.594869,-962.267725,383.047749
4131.370208,-9474.636058,-814.226536,1302.362347
4131.370538,-9474.636058,-888.247130,2221.676944
4131.370868,-9326.594869,-1036.288319,2528.115143
4131.371197,-9992.780217,-1258.350101,2298.286494
4131.371527,-10436.903782,-1480.411884,1608.800546
4131.371857,-9474.636058,-1036.288319,1762.019645
4131.372187,-9770.718434,-888.247130,1685.410096
4131.372517,-10066.800811,-888.247130,2834.553343
4131.372847,-10510.924376,-1110.308913,3907.087040
4131.373176,-10436.903782,-1332.370696,3294.210641
4131.373506,-9992.780217,-1258.350101,1225.752797
4131.373836,-9474.636058,-2072.576638,383.047749
4131.374166,-10066.800811,-1776.494261,1762.019645
4131.374496,-10362.883188,-1850.514855,2681.334243
4131.374825,-9622.677246,-2072.576638,3217.601092
4131.375155,-9474.636058,-2220.617826,2298.286494
4131.375485,-9992.780217,-2368.659014,1608.800546
4131.375815,-9844.739029,-2738.761985,1838.629195
4131.376145,-9918.759623,-2960.823768,3064.381992
4131.376474,-9844.739029,-2812.782580,2987.772442
4131.376804,-9918.759623,-3034.844362,4136.915689
4131.377134,-9326.594869,-2960.823768,3677.258390
4131.377464,-9548.656652,-2738.761985,3294.210641
4131.377794,-11325.150913,-2442.679609,2987.772442
4131.378124,-11029.068536,-2664.741391,1838.629195
4131.378453,-9918.759623,-3108.864956,1608.800546
4131.378783,-8660.409521,-3330.926739,1838.629195
4131.379113,-9178.553681,-3034.844362,2681.334243
4131.379443,-10066.800811,-2886.803174,4213.525239
4131.379773,-9400.615463,-3849.070898,2451.505594
4131.380102,-8734.430116,-3552.988522,1608.800546
4131.380432,-8734.430116,-3552.988522,2451.505594
4131.380762,-11251.130318,-3552.988522,3677.258390
4131.381092,-10881.027347,-3478.967927,4903.011187
4131.381422,-10066.800811,-3627.009116,4519.963438
4131.381752,-8956.491898,-4071.132681,3677.258390
4131.382081,-9770.718434,-2812.782580,2757.943793
4131.382411,-9844.739029,-2738.761985,1838.629195
4131.382741,-10140.821405,-2442.679609,1685.410096
4131.383071,-9992.780217,-1776.494261,2374.896044
4131.383401,-10436.903782,-2516.700203,2298.286494
4131.383730,-10066.800811,-2516.700203,1532.190996
4131.384060,-9474.636058,-2664.741391,1991.848295
4131.384390,-9030.512492,-2960.823768,2145.067394
4131.384720,-9030.512492,-2960.823768,2987.772442
4131.385050,-9400.615463,-2368.659014,3447.429741
4131.385380,-9844.739029,-2072.576638,3524.039291
4131.385709,-10732.986159,-1184.329507,3600.648841
4131.386039,-10807.006753,-1924.535449,2681.334243
4131.386369,-11029.068536,-1776.494261,2068.457845
4131.386699,-9992.780217,-1406.391290,1685.410096
4131.387029,-9474.636058,-1554.432478,1149.143247
4131.387358,-8660.409521,-1332.370696,2451.505594
4131.387688,-8290.306550,-1628.453072,1378.971896
4131.388018,-8734.430116,-666.185348,842.705048
4131.388348,-10288.862594,-962.267725,536.266849
4131.388678,-11029.068536,-592.164754,919.314598
4131.389007,-9918.759623,-1184.329507,1685.410096
4131.389337,-9252.574275,-1628.453072,1685.410096
4131.389667,-8956.491898,-1184.329507,1762.019645
4131.389997,-9178.553681,-740.205942,1685.410096
4131.390327,-10288.862594,0.000000,995.924147
4131.390657,-9844.739029,-222.061783,229.828649
4131.390986,-10066.800811,-444.123565,153.219100
4131.391316,-9844.739029,0.000000,1149.143247
4131.391646,-9474.636058,0.000000,2298.286494
4131.391976,-9326.594869,-370.102971,2068.457845
4131.392305,-9474.636058,370.102971,689.485948
4131.392635,-10066.800811,222.061783,0.000000
4131.392965,-10214.842000,518.144159,-306.438199
4131.393295,-10362.883188,1110.308913,-766.095498
4131.393624,-11103.089130,1702.473667,-995.924147
4131.393954,-10955.047942,1184.329507,-919.314598
4131.394284,-9844.739029,814.226536,-995.924147
4131.394614,-9400.615463,1184.329507,-766.095498
4131.394943,-9030.512492,666.185348,-536.266849
4131.395273,-8438.347739,1110.308913,-459.657299
4131.395603,-9326.594869,1702.473667,0.000000
4131.395933,-10066.800811,1702.473667,0.000000
4131.396262,-10658.965565,1036.288319,-766.095498
4131.396592,-11029.068536,814.226536,-306.438199
4131.396922,-10955.047942,444.123565,0.000000
4131.397251,-9548.656652,740.205942,689.485948
4131.397581,-8290.306550,0.000000,76.609550
4131.397911,-8956.491898,888.247130,536.266849
4131.398241,-9548.656652,1110.308913,383.047749
4131.398570,-10510.924376,1480.411884,153.219100
4131.398900,-10510.924376,888.247130,153.219100
4131.399230,-9918.759623,962.267725,459.657299
4131.399560,-9548.656652,666.185348,842.705048
4131.399889,-9548.656652,148.041188,0.000000
4131.400219,-9918.759623,222.061783,-842.705048
4131.400549,-9770.718434,222.061783,-612.876398
4131.400879,-9474.636058,296.082377,0.000000
4131.401208,-9696.697840,74.020594,-229.828649
4131.401538,-8808.450710,592.164754,0.000000
4131.401868,-9474.636058,592.164754,76.609550
4131.402197,-9622.677246,666.185348,-459.657299
4131.402527,-9770.718434,740.205942,-153.219100
4131.402857,-9474.636058,518.144159,76.609550
4131.403187,-10140.821405,-666.185348,842.705048
4131.403516,-10510.924376,0.000000,306.438199
4131.403846,-10140.821405,-518.144159,459.657299
4131.404176,-9474.636058,-370.102971,-995.924147
4131.404506,-8438.347739,-296.082377,-919.314598
4131.404835,-8586.388927,-518.144159,383.047749
4131.405165,-9696.697840,370.102971,1608.800546
4131.405495,-9844.739029,148.041188,1532.190996
4131.405825,-9474.636058,444.123565,459.657299
4131.406154,-10140.821405,0.000000,-229.828649
4131.406484,-10955.047942,0.000000,-306.438199
4131.406814,-11177.109724,-148.041188,0.000000
4131.407143,-10066.800811,0.000000,536.266849
4131.407473,-9030.512492,-518.144159,536.266849
4131.407803,-9474.636058,-518.144159,383.047749
4131.408133,-9622.677246,-592.164754,689.485948
4131.408462,-10140.821405,-444.123565,612.876398
4131.408792,-9770.718434,-222.061783,689.485948
4131.409122,-9696.697840,-370.102971,919.314598
4131.409452,-9844.739029,-148.041188,1838.629195
4131.409781,-10140.821405,-296.082377,1915.238745
4131.410111,-10584.944971,148.041188,153.219100
4131.410441,-10732.986159,-222.061783,0.000000
4131.410771,-10288.862594,-444.123565,-229.828649
4131.411100,-9770.718434,-592.164754,612.876398
4131.411430,-9844.739029,-1110.308913,919.314598
4131.411760,-9474.636058,-1554.432478,1608.800546
4131.412090,-8216.285956,-1628.453072,1455.581446
4131.412419,-7772.162391,-1924.535449,689.485948
4131.412749,-8512.368333,-740.205942,229.828649
4131.413079,-9918.759623,0.000000,919.314598
4131.413408,-10436.903782,74.020594,919.314598
4131.413738,-11251.130318,148.041188,842.705048
4131.414068,-10955.047942,0.000000,0.000000
4131.414398,-9992.780217,-888.247130,-229.828649
4131.414727,-9696.697840,-592.164754,-536.266849
4131.415057,-8290.306550,-592.164754,-842.705048
4131.415387,-8364.327145,-518.144159,-766.095498
4131.415717,-8512.368333,0.000000,-229.828649
4131.416046,-9474.636058,-222.061783,229.828649
4131.416376,-9770.718434,370.102971,229.828649
4131.416706,-10955.047942,370.102971,0.000000
4131.417036,-10732.986159,-74.020594,-1378.971896
4131.417365,-8660.409521,148.041188,-689.485948
4131.417695,-8512.368333,518.144159,536.266849
4131.418025,-10140.821405,666.185348,229.828649
4131.418354,-10658.965565,888.247130,-689.485948
4131.418684,-9400.615463,74.020594,-1072.533697
4131.419014,-9770.718434,1184.329507,-919.314598
4131.419344,-10510.924376,740.205942,-689.485948
4131.419673,-9918.759623,148.041188,-612.876398
4131.420003,-9178.553681,518.144159,0.000000
4131.420333,-8438.347739,518.144159,766.095498
4131.420663,-9622.677246,1184.329507,612.876398
4131.420992,-11177.109724,1406.391290,76.609550
4131.421322,-10807.006753,1480.411884,-612.876398
4131.421652,-9918.759623,1554.432478,76.609550
4131.421982,-10732.986159,1406.391290,842.705048
4131.422311,-11029.068536,888.247130,919.314598
4131.422641,-10066.800811,814.226536,612.876398
4131.422971,-8438.347739,74.020594,-383.047749
4131.423300,-8882.471304,518.144159,-995.924147
4131.423630,-9622.677246,666.185348,-689.485948
4131.423960,-9474.636058,222.061783,153.219100
4131.424290,-9622.677246,1110.308913,383.047749
4131.424619,-9918.759623,962.267725,536.266849
4131.424949,-10140.821405,296.082377,153.219100
4131.425279,-10066.800811,444.123565,76.609550
4131.425609,-9622.677246,0.000000,-459.657299
4131.425938,-9474.636058,370.102971,0.000000
4131.426268,-9474.636058,370.102971,1072.533697
4131.426598,-9400.615463,148.041188,919.314598
4131.426928,-9104.533087,592.164754,0.000000
4131.427257,-9696.697840,740.205942,-383.047749
4131.427587,-10955.047942,444.123565,-1225.752797
4131.427917,-9918.759623,222.061783,-1762.019645
4131.428246,-8364.327145,74.020594,-842.705048
4131.428576,-9178.553681,0.000000,306.438199
4131.428906,-10214.842000,814.226536,1302.362347
4131.429236,-10807.006753,518.144159,842.705048
4131.429565,-10807.006753,814.226536,-1762.019645
4131.429895,-9474.636058,0.000000,-1149.143247
4131.430225,-9548.656652,0.000000,229.828649
4131.430555,-10510.924376,-666.185348,2298.286494
4131.430884,-10362.883188,-592.164754,2528.115143
4131.431214,-9252.574275,-1258.350101,1225.752797
4131.431544,-9400.615463,-962.267725,0.000000
4131.431874,-9918.759623,-1110.308913,-1225.752797
4131.432203,-10066.800811,-518.144159,-229.828649
4131.432533,-9844.739029,-962.267725,1685.410096
4131.432863,-9622.677246,-592.164754,2298.286494
4131.433192,-9548.656652,-518.144159,1838.629195
4131.433522,-9992.780217,-1036.288319,612.876398
4131.433852,-10510.924376,-592.164754,-383.047749
4131.434182,-10510.924376,-518.144159,-766.095498
4131.434511,-9992.780217,-962.267725,766.095498
4131.434841,-9770.718434,-1258.350101,1991.848295
4131.435171,-8956.491898,-666.185348,1685.410096
4131.435501,-8512.368333,-740.205942,-919.314598
4131.435830,-9548.656652,-370.102971,-1991.848295
4131.436160,-10214.842000,-888.247130,-1915.238745
4131.436490,-9696.697840,-444.123565,0.000000
4131.436820,-9474.636058,-444.123565,2298.286494
4131.437149,-9696.697840,-814.226536,2757.943793
4131.437479,-9622.677246,-444.123565,1532.190996
4131.437809,-9918.759623,-444.123565,-383.047749
4131.438138,-10658.965565,-666.185348,-1378.971896
4131.438468,-9474.636058,-370.102971,-919.314598
4131.438798,-9104.533087,-370.102971,1072.533697
4131.439128,-9696.697840,0.000000,2145.067394
4131.439457,-9474.636058,222.061783,1072.533697
4131.439787,-9474.636058,592.164754,0.000000
4131.440117,-10214.842000,740.205942,-2068.457845
4131.440447,-9918.759623,592.164754,-2145.067394
4131.440776,-9844.739029,592.164754,-306.438199
4131.441106,-10066.800811,666.185348,1072.533697
4131.441436,-10362.883188,814.226536,1532.190996
4131.441766,-10140.821405,740.205942,306.438199
4131.442095,-10140.821405,518.144159,-1608.800546
4131.442425,-9622.677246,444.123565,-1685.410096
4131.442755,-9104.533087,592.164754,0.000000
4131.443085,-9548.656652,888.247130,2068.457845
4131.443414,-11029.068536,962.267725,2145.067394
4131.443744,-10288.862594,740.205942,536.266849
4131.444074,-9918.759623,518.144159,0.000000
4131.444403,-9696.697840,592.164754,-612.876398
4131.444733,-10362.883188,222.061783,0.000000
4131.445063,-9622.677246,592.164754,1378.971896
4131.445393,-8956.491898,222.061783,1838.629195
4131.445722,-9252.574275,814.226536,842.705048
4131.446052,-9178.553681,666.185348,-766.095498
4131.446382,-10362.883188,814.226536,-1685.410096
4131.446712,-9696.697840,0.000000,-1225.752797
4131.447041,-8068.244768,0.000000,306.438199
4131.447371,-8216.285956,74.020594,1149.143247
4131.447701,-9474.636058,518.144159,1532.190996
4131.448031,-9918.759623,370.102971,536.266849
4131.448360,-9474.636058,740.205942,-459.657299
4131.448690,-9918.759623,962.267725,-1532.190996
4131.449020,-10584.944971,740.205942,-919.314598
4131.449349,-9844.739029,518.144159,229.828649
4131.449679,-9696.697840,74.020594,766.095498
4131.450009,-8734.430116,370.102971,1072.533697
4131.450339,-9548.656652,222.061783,0.000000
4131.450668,-10066.800811,740.205942,-1378.971896
4131.450998,-9622.677246,592.164754,-1608.800546
4131.451328,-9104.533087,1036.288319,-536.266849
4131.451658,-10658.965565,518.144159,842.705048
4131.451987,-11917.315666,518.144159,1302.362347
4131.452317,-10584.944971,148.041188,1072.533697
4131.452647,-9104.533087,370.102971,306.438199
4131.452977,-9918.759623,222.061783,-1149.143247
4131.453306,-11103.089130,74.020594,-919.314598
4131.453636,-10362.883188,0.000000,842.705048
4131.453966,-10140.821405,0.000000,2681.334243
4131.454295,-10214.842000,0.000000,1378.971896
4131.454625,-10288.862594,-740.205942,-306.438199
4131.454955,-9326.594869,-962.267725,-1072.533697
4131.455285,-8586.388927,-1554.432478,-766.095498
4131.455614,-8438.347739,-1184.329507,919.314598
4131.455944,-9696.697840,-1184.329507,2068.457845
4131.456274,-9844.739029,-814.226536,2145.067394
4131.456604,-9696.697840,-1258.350101,1608.800546
4131.456933,-10807.006753,-222.061783,229.828649
4131.457263,-9918.759623,-1554.432478,0.000000
4131.457593,-9474.636058,-1554.432478,689.485948
4131.457923,-8956.491898,-1184.329507,1838.629195
4131.458252,-9474.636058,-666.185348,2681.334243
4131.458582,-9548.656652,-444.123565,919.314598
4131.458912,-9030.512492,-888.247130,-842.705048
4131.459241,-9770.718434,-148.041188,-1532.190996
4131.459571,-9400.615463,-666.185348,-459.657299
4131.459901,-9918.759623,-592.164754,459.657299
4131.460231,-9844.739029,-814.226536,1608.800546
4131.460560,-9622.677246,-666.185348,1225.752797
4131.460890,-9622.677246,-740.205942,459.657299
4131.461220,-9992.780217,-444.123565,-919.314598
4131.461550,-10362.883188,-518.144159,0.000000
4131.461879,-10066.800811,148.041188,1072.533697
4131.462209,-10584.944971,0.000000,1915.238745
4131.462539,-10214.842000,148.041188,1838.629195
4131.462869,-9844.739029,148.041188,1225.752797
4131.463198,-10584.944971,296.082377,-76.609550
4131.463528,-10436.903782,0.000000,-919.314598
4131.463858,-9400.615463,74.020594,-766.095498
4131.464187,-8512.368333,74.020594,0.000000
4131.464517,-9326.594869,0.000000,153.219100
4131.464847,-9992.780217,518.144159,919.314598
4131.465177,-9622.677246,0.000000,76.609550
4131.465506,-9548.656652,592.164754,-612.876398
4131.465836,-9770.718434,74.020594,-842.705048
4131.466166,-9474.636058,296.082377,766.095498
4131.466496,-9548.656652,0.000000,2068.457845
4131.466825,-9400.615463,0.000000,1915.238745
4131.467155,-9992.780217,592.164754,766.095498
4131.467485,-10658.965565,1036.288319,-229.828649
4131.467815,-10288.862594,592.164754,-1608.800546
4131.468144,-8956.491898,888.247130,-689.485948
4131.468474,-9252.574275,1184.329507,-153.219100
4131.468804,-9030.512492,1110.308913,153.219100
4131.469133,-9030.512492,1036.288319,-536.266849
4131.469463,-9178.553681,1036.288319,-1685.410096
4131.469793,-10066.800811,888.247130,-2298.286494
4131.470123,-10288.862594,1036.288319,-1302.362347
4131.470452,-9622.677246,1036.288319,-153.219100
4131.470782,-9326.594869,740.205942,306.438199
4131.471112,-9400.615463,962.267725,689.485948
4131.471442,-10288.862594,666.185348,536.266849
4131.471771,-11177.109724,1110.308913,0.000000
4131.472101,-10658.965565,740.205942,-459.657299
4131.472431,-9474.636058,740.205942,536.266849
4131.472761,-9548.656652,444.123565,1302.362347
4131.473090,-9622.677246,222.061783,1532.190996
4131.473420,-9326.594869,-148.041188,919.314598
4131.473750,-9992.780217,666.185348,383.047749
4131.474079,-11103.089130,962.267725,-536.266849
4131.474409,-9770.718434,592.164754,-1378.971896
4131.474739,-8734.430116,518.144159,-995.924147
4131.475069,-9400.615463,444.123565,76.609550
4131.475398,-10362.883188,592.164754,1225.752797
4131.475728,-10362.883188,-148.041188,689.485948
4131.476058,-9696.697840,-592.164754,-306.438199
4131.476388,-8956.491898,-740.205942,-306.438199
4131.476717,-9104.533087,-148.041188,995.924147
4131.477047,-9548.656652,-888.247130,1225.752797
4131.477377,-9474.636058,-740.205942,1532.190996
4131.477707,-9326.594869,-370.102971,1302.362347
4131.478036,-9622.677246,-222.061783,1072.533697
4131.478366,-10658.965565,-740.205942,-76.609550
4131.478696,-8956.491898,-740.205942,-536.266849
4131.479026,-9178.553681,-296.082377,76.609550
4131.479355,-10140.821405,-592.164754,536.266849
4131.479685,-10140.821405,-148.041188,842.705048
4131.480015,-9770.718434,-444.123565,306.438199
4131.480344,-9474.636058,-148.041188,-459.657299
4131.480674,-9918.759623,0.000000,-612.876398
4131.481004,-10288.862594,148.041188,-229.828649
4131.481334,-10140.821405,-444.123565,-229.828649
4131.481663,-9474.636058,-74.020594,-229.828649
4131.481993,-9992.780217,-518.144159,1225.752797
4131.482323,-10288.862594,0.000000,1225.752797
4131.482653,-10436.903782,-962.267725,1149.143247
4131.482982,-9326.594869,-592.164754,1072.533697
4131.483312,-9622.677246,-148.041188,612.876398
4131.483642,-10584.944971,-444.123565,842.705048
4131.483972,-10140.821405,-592.164754,1149.143247
4131.484301,-9622.677246,-592.164754,1608.800546
4131.484631,-9918.759623,0.000000,1762.019645
4131.484961,-9992.780217,-296.082377,306.438199
4131.485290,-10214.842000,74.020594,306.438199
4131.485620,-9548.656652,-740.205942,0.000000
4131.485950,-9400.615463,148.041188,306.438199
4131.486280,-9622.677246,-74.020594,229.828649
4131.486609,-10140.821405,0.000000,459.657299
4131.486939,-9474.636058,-296.082377,0.000000
4131.487269,-9326.594869,-148.041188,306.438199
4131.487599,-9992.780217,-74.020594,536.266849
4131.487928,-9474.636058,-148.041188,536.266849
4131.488258,-9326.594869,-296.082377,459.657299
4131.488588,-9178.553681,0.000000,229.828649
4131.488918,-9474.636058,-222.061783,229.828649
4131.489247,-9844.739029,296.082377,153.219100
4131.489577,-9844.739029,0.000000,0.000000
4131.489907,-9696.697840,0.000000,306.438199
4131.490236,-9770.718434,370.102971,76.609550
4131.490566,-9918.759623,666.185348,76.609550
4131.490896,-9252.574275,740.205942,-689.485948
4131.491226,-9400.615463,666.185348,-1455.581446
4131.491556,-9844.739029,888.247130,-995.924147
4131.491885,-10807.006753,666.185348,-383.047749
4131.492215,-9992.780217,1332.370696,229.828649
4131.492545,-9474.636058,0.000000,306.438199
4131.492875,-9326.594869,814.226536,0.000000
4131.493205,-9844.739029,370.102971,0.000000
4131.493534,-9548.656652,0.000000,0.000000
4131.493864,-9844.739029,74.020594,536.266849
4131.494194,-10658.965565,740.205942,1225.752797
4131.494524,-10288.862594,296.082377,995.924147
4131.494854,-9622.677246,222.061783,76.609550
4131.495183,-9474.636058,222.061783,-383.047749
4131.495513,-9622.677246,0.000000,-153.219100
4131.495843,-9992.780217,518.144159,76.609550
4131.496173,-9992.780217,148.041188,-153.219100
4131.496503,-9622.677246,740.205942,-689.485948
4131.496832,-9844.739029,444.123565,0.000000
4131.497162,-10436.903782,1036.288319,-383.047749
4131.497492,-10510.924376,222.061783,-1225.752797
4131.497822,-9992.780217,1036.288319,-842.705048
4131.498152,-10066.800811,370.102971,-536.266849
4131.498481,-9992.780217,444.123565,76.609550
4131.498811,-9326.594869,222.061783,306.438199
4131.499141,-9992.780217,814.226536,0.000000
4131.499471,-10066.800811,0.000000,-459.657299
4131.499801,-9474.636058,0.000000,-766.095498
4131.500130,-9252.574275,296.082377,0.000000
4131.500460,-9696.697840,0.000000,383.047749
4131.500790,-9104.533087,666.185348,612.876398
4131.501120,-9474.636058,148.041188,153.219100
4131.501450,-9548.656652,0.000000,-689.485948
4131.501779,-9474.636058,74.020594,-306.438199
4131.502109,-9696.697840,74.020594,0.000000
4131.502439,-10584.944971,0.000000,153.219100
4131.502769,-9252.574275,-370.102971,612.876398
4131.503099,-8956.491898,-222.061783,536.266849
4131.503428,-9548.656652,148.041188,536.266849
4131.503758,-10658.965565,74.020594,766.095498
4131.504088,-10658.965565,518.144159,536.266849
4131.504418,-11103.089130,518.144159,153.219100
4131.504747,-10807.006753,-370.102971,536.266849
4131.505077,-9474.636058,-296.082377,459.657299
4131.505407,-9252.574275,0.000000,689.485948
4131.505737,-9030.512492,-296.082377,306.438199
4131.506067,-9770.718434,-222.061783,0.000000
4131.506396,-9770.718434,0.000000,612.876398
4131.506726,-10066.800811,-666.185348,689.485948
4131.507056,-10362.883188,-74.020594,612.876398
4131.507386,-9696.697840,-1110.308913,995.924147
4131.507716,-9696.697840,-888.247130,1072.533697
4131.508045,-9252.574275,-1480.411884,995.924147
4131.508375,-8808.450710,-1406.391290,766.095498
4131.508705,-9104.533087,-1628.453072,919.314598
4131.509035,-8956.491898,-518.144159,842.705048
4131.509365,-9844.739029,0.000000,459.657299
4131.509694,-10362.883188,296.082377,0.000000
4131.510024,-10288.862594,0.000000,153.219100
4131.510354,-9548.656652,0.000000,-306.438199
4131.510684,-9548.656652,0.000000,306.438199
4131.511014,-9770.718434,0.000000,0.000000
4131.511343,-9104.533087,-740.205942,229.828649
4131.511673,-9400.615463,74.020594,536.266849
4131.512003,-10436.903782,-1184.329507,-689.485948
4131.512333,-9622.677246,-814.226536,-306.438199
4131.512663,-8882.471304,-592.164754,1302.362347
4131.512992,-10214.842000,74.020594,995.924147
4131.513322,-9918.759623,222.061783,1149.143247
4131.513652,-9918.759623,148.041188,536.266849
4131.513982,-9696.697840,74.020594,0.000000
4131.514312,-10140.821405,-222.061783,-153.219100
4131.514641,-10732.986159,148.041188,306.438199
4131.514971,-10362.883188,148.041188,306.438199
4131.515301,-9548.656652,0.000000,-76.609550
4131.515631,-8956.491898,-222.061783,-153.219100
4131.515961,-9918.759623,296.082377,-229.828649
4131.516290,-10881.027347,1406.391290,0.000000
4131.516620,-10584.944971,592.164754,-306.438199
4131.516950,-9622.677246,592.164754,0.000000
4131.517280,-9844.739029,592.164754,-229.828649
4131.517610,-10362.883188,888.247130,-229.828649
4131.517939,-9844.739029,0.000000,0.000000
4131.518269,-9770.718434,444.123565,0.000000
4131.518599,-9844.739029,0.000000,536.266849
4131.518929,-9844.739029,148.041188,689.485948
4131.519259,-9548.656652,0.000000,0.000000
4131.519588,-8586.388927,0.000000,0.000000
4131.519918,-8512.368333,296.082377,-536.266849
4131.520248,-9548.656652,518.144159,-459.657299
4131.520578,-9474.636058,962.267725,0.000000
4131.520908,-8512.368333,296.082377,-153.219100
4131.521237,-9474.636058,1110.308913,0.000000
4131.521567,-10658.965565,666.185348,-229.828649
4131.521897,-10362.883188,740.205942,-842.705048
4131.522227,-9474.636058,518.144159,0.000000
4131.522557,-9770.718434,814.226536,76.609550
4131.522886,-9474.636058,666.185348,153.219100
4131.523216,-8956.491898,814.226536,0.000000
4131.523546,-9474.636058,1036.288319,-383.047749
4131.523876,-9548.656652,1924.535449,-612.876398
4131.524206,-11029.068536,666.185348,153.219100
4131.524535,-11177.109724,1406.391290,0.000000
4131.524865,-9918.759623,296.082377,76.609550
4131.525195,-9548.656652,666.185348,995.924147
4131.525525,-9696.697840,222.061783,842.705048
4131.525855,-9696.697840,518.144159,612.876398
4131.526184,-9104.533087,148.041188,536.266849
4131.526514,-9844.739029,740.205942,536.266849
4131.526844,-11177.109724,666.185348,766.095498
4131.527174,-10881.027347,296.082377,995.924147
4131.527504,-9548.656652,74.020594,995.924147
4131.527833,-9474.636058,0.000000,229.828649
4131.528163,-10066.800811,444.123565,0.000000
4131.528493,-10362.883188,-222.061783,0.000000
4131.528823,-9696.697840,-222.061783,0.000000
4131.529153,-9178.553681,0.000000,0.000000
4131.529482,-9918.759623,74.020594,153.219100
4131.529812,-10436.903782,-370.102971,919.314598
4131.530142,-9400.615463,-592.164754,229.828649
4131.530472,-9030.512492,-592.164754,306.438199
4131.530801,-9400.615463,-592.164754,-153.219100
4131.531131,-9696.697840,-1258.350101,612.876398
4131.531461,-9400.615463,-148.041188,842.705048
4131.531791,-9844.739029,-518.144159,995.924147
4131.532121,-10658.965565,-444.123565,383.047749
4131.532450,-9992.780217,-888.247130,76.609550
4131.532780,-9548.656652,-962.267725,0.000000
4131.533110,-9326.594869,-444.123565,0.000000
4131.533440,-8882.471304,-962.267725,0.000000
4131.533770,-9030.512492,-666.185348,536.266849
4131.534099,-9548.656652,-518.144159,919.314598
4131.534429,-10066.800811,0.000000,0.000000
4131.534759,-9992.780217,-370.102971,-459.657299
4131.535089,-11029.068536,-296.082377,153.219100
4131.535419,-10510.924376,-666.185348,995.924147
4131.535748,-9696.697840,-370.102971,1608.800546
4131.536078,-10066.800811,0.000000,1225.752797
4131.536408,-9918.759623,-148.041188,536.266849
4131.536738,-9992.780217,74.020594,306.438199
4131.537068,-10362.883188,444.123565,0.000000
4131.537397,-10510.924376,222.061783,0.000000
4131.537727,-9770.718434,-296.082377,306.438199
4131.538057,-9400.615463,-666.185348,1072.533697
4131.538387,-9326.594869,-814.226536,1072.533697
4131.538717,-9326.594869,-666.185348,229.828649
4131.539046,-9104.533087,-148.041188,0.000000
4131.539376,-9770.718434,222.061783,842.705048
4131.539706,-10214.842000,0.000000,229.828649
4131.540036,-10510.924376,444.123565,229.828649
4131.540366,-10140.821405,148.041188,612.876398
4131.540695,-9400.615463,444.123565,-383.047749
4131.541025,-9474.636058,-296.082377,-689.485948
4131.541355,-9252.574275,0.000000,-919.314598
4131.541685,-9178.553681,-222.061783,-612.876398
4131.542015,-8438.347739,444.123565,306.438199
4131.542344,-8734.430116,0.000000,612.876398
4131.542674,-10584.944971,518.144159,76.609550
4131.543004,-10658.965565,296.082377,-229.828649
4131.543334,-9104.533087,-296.082377,-766.095498
4131.543664,-9548.656652,0.000000,0.000000
4131.543993,-9104.533087,444.123565,995.924147
4131.544323,-9104.533087,888.247130,842.705048
4131.544653,-9400.615463,740.205942,995.924147
4131.544983,-10436.903782,740.205942,-459.657299
4131.545313,-10807.006753,740.205942,-689.485948
4131.545642,-10510.924376,444.123565,-153.219100
4131.545972,-9844.739029,222.061783,229.828649
4131.546302,-9030.512492,0.000000,995.924147
4131.546632,-9178.553681,518.144159,995.924147
4131.546962,-9548.656652,222.061783,383.047749
4131.547291,-9770.718434,814.226536,-689.485948
4131.547621,-10510.924376,740.205942,-383.047749
4131.547951,-11399.171507,962.267725,459.657299
4131.548281,-10510.924376,814.226536,1072.533697
4131.548611,-9992.780217,666.185348,1455.581446
4131.548940,-10140.821405,-148.041188,383.047749
4131.549270,-9844.739029,148.041188,-306.438199
4131.549600,-9400.615463,-148.041188,-689.485948
4131.549930,-9326.594869,296.082377,-612.876398
4131.550260,-9770.718434,518.144159,1455.581446
4131.550589,-10362.883188,222.061783,1455.581446
4131.550919,-10436.903782,0.000000,536.266849
4131.551249,-9844.739029,-370.102971,-766.095498
4131.551579,-8882.471304,-296.082377,-1225.752797
4131.551909,-8808.450710,-518.144159,-612.876398
4131.552238,-9030.512492,0.000000,612.876398
4131.552568,-9326.594869,-444.123565,689.485948
4131.552898,-9548.656652,0.000000,919.314598
4131.553228,-10732.986159,-814.226536,153.219100
4131.553558,-10362.883188,-148.041188,-536.266849
4131.553887,-9178.553681,-888.247130,-459.657299
4131.554217,-8438.347739,0.000000,153.219100
4131.554547,-8290.306550,-666.185348,612.876398
4131.554877,-9252.574275,148.041188,689.485948
4131.555207,-10362.883188,222.061783,-306.438199
4131.555536,-10214.842000,222.061783,-842.705048
4131.555866,-9696.697840,666.185348,-459.657299
4131.556196,-10658.965565,296.082377,229.828649
4131.556526,-10807.006753,-296.082377,153.219100
4131.556855,-9400.615463,-666.185348,-153.219100
4131.557185,-9474.636058,74.020594,0.000000
4131.557515,-9844.739029,-148.041188,0.000000
4131.557845,-10658.965565,370.102971,383.047749
4131.558175,-9474.636058,370.102971,229.828649
4131.558504,-9844.739029,518.144159,-229.828649
4131.558834,-10066.800811,740.205942,306.438199
4131.559164,-11399.171507,0.000000,536.266849
4131.559494,-10881.027347,-222.061783,229.828649
4131.559824,-8660.409521,-666.185348,306.438199
4131.560153,-8364.327145,-740.205942,76.609550
4131.560483,-9844.739029,-592.164754,153.219100
4131.560813,-10066.800811,-666.185348,0.000000
4131.561143,-8956.491898,-740.205942,306.438199
4131.561473,-9770.718434,-518.144159,536.266849
4131.561802,-9548.656652,-222.061783,919.314598
4131.562132,-9400.615463,-592.164754,1149.143247
4131.562462,-8882.471304,-370.102971,229.828649
4131.562792,-9104.533087,-296.082377,0.000000
4131.563122,-10140.821405,0.000000,-306.438199
4131.563451,-10066.800811,-296.082377,0.000000
4131.563781,-9844.739029,-518.144159,229.828649
4131.564111,-9178.553681,-370.102971,0.000000
4131.564441,-8956.491898,-296.082377,-229.828649
4131.564771,-9326.594869,-444.123565,-536.266849
4131.565100,-9252.574275,-666.185348,-383.047749
4131.565430,-9548.656652,0.000000,0.000000
4131.565760,-10881.027347,370.102971,1072.533697
4131.566090,-10732.986159,592.164754,995.924147
4131.566420,-9622.677246,148.041188,459.657299
4131.566749,-9844.739029,222.061783,229.828649
4131.567079,-11029.068536,222.061783,76.609550
4131.567409,-10584.944971,0.000000,459.657299
4131.567739,-9622.677246,148.041188,842.705048
4131.568069,-9326.594869,296.082377,842.705048
4131.568398,-9844.739029,444.123565,766.095498
4131.568728,-10362.883188,222.061783,306.438199
4131.569058,-10288.862594,222.061783,0.000000
4131.569388,-9844.739029,814.226536,-306.438199
4131.569718,-9622.677246,444.123565,383.047749
4131.570047,-9992.780217,148.041188,919.314598
4131.570377,-10066.800811,592.164754,306.438199
4131.570707,-10140.821405,0.000000,0.000000
4131.571037,-9918.759623,0.000000,229.828649
4131.571367,-9696.697840,0.000000,536.266849
4131.571696,-9252.574275,-148.041188,1455.581446
4131.572026,-9696.697840,-370.102971,1149.143247
4131.572356,-9178.553681,-666.185348,1149.143247
4131.572686,-9252.574275,-222.061783,76.609550
4131.573016,-9326.594869,-370.102971,0.000000
4131.573345,-9770.718434,-444.123565,229.828649
4131.573675,-9770.718434,0.000000,1072.533697
4131.574005,-9622.677246,148.041188,1149.143247
4131.574335,-9918.759623,444.123565,76.609550
4131.574665,-9474.636058,444.123565,-1149.143247
4131.574994,-9992.780217,222.061783,-1455.581446
4131.575324,-9918.759623,0.000000,-919.314598
4131.575654,-9696.697840,0.000000,0.000000
4131.575984,-9104.533087,-222.061783,383.047749
4131.576314,-9770.718434,-296.082377,689.485948
4131.576643,-9548.656652,-444.123565,229.828649
4131.576973,-9400.615463,-296.082377,76.609550
4131.577303,-10584.944971,222.061783,229.828649
4131.577633,-11103.089130,444.123565,1455.581446
4131.577963,-10436.903782,444.123565,1685.410096
4131.578292,-10584.944971,518.144159,842.705048
4131.578622,-9844.739029,222.061783,-536.266849
4131.578952,-9548.656652,148.041188,-383.047749
4131.579282,-10436.903782,0.000000,383.047749
4131.579612,-9992.780217,-370.102971,459.657299
4131.579941,-8808.450710,0.000000,0.000000
4131.580271,-8956.491898,-74.020594,76.609550
4131.580601,-9992.780217,-296.082377,153.219100
4131.580931,-9992.780217,74.020594,0.000000
4131.581261,-9844.739029,-296.082377,76.609550
4131.581590,-9992.780217,74.020594,459.657299
4131.581920,-9622.677246,0.000000,995.924147
4131.582250,-9992.780217,-74.020594,1149.143247
4131.582580,-10436.903782,-444.123565,306.438199
4131.582910,-9622.677246,-148.041188,-766.095498
4131.583239,-9474.636058,-444.123565,76.609550
4131.583569,-10066.800811,-518.144159,0.000000
4131.583899,-9326.594869,-814.226536,383.047749
4131.584229,-8808.450710,-518.144159,1225.752797
4131.584558,-9400.615463,-222.061783,995.924147
4131.584888,-9622.677246,-518.144159,459.657299
4131.585218,-10140.821405,148.041188,76.609550
4131.585548,-10140.821405,1110.308913,-383.047749
4131.585878,-10066.800811,666.185348,-1149.143247
4131.586207,-9844.739029,-370.102971,-689.485948
4131.586537,-9696.697840,-592.164754,-536.266849
4131.586867,-9548.656652,592.164754,0.000000
4131.587197,-8660.409521,148.041188,-383.047749
4131.587527,-9548.656652,222.061783,-383.047749
4131.587856,-9400.615463,370.102971,536.266849
4131.588186,-10214.842000,296.082377,1149.143247
4131.588516,-10881.027347,814.226536,1149.143247
4131.588846,-10658.965565,0.000000,1378.971896
4131.589176,-9474.636058,0.000000,306.438199
4131.589505,-9326.594869,296.082377,306.438199
4131.589835,-10140.821405,222.061783,995.924147
4131.590165,-10881.027347,888.247130,1302.362347
4131.590495,-10066.800811,1406.391290,459.657299
4131.590825,-9622.677246,444.123565,153.219100
4131.591154,-9770.718434,444.123565,-1072.533697
4131.591484,-9992.780217,444.123565,-1608.800546
4131.591814,-9030.512492,-148.041188,-1378.971896
4131.592144,-8660.409521,0.000000,-1378.971896
4131.592474,-8882.471304,0.000000,-536.266849
4131.592803,-9252.574275,-222.061783,0.000000
4131.593133,-10066.800811,592.164754,383.047749
4131.593463,-9548.656652,0.000000,76.609550
4131.593793,-9252.574275,-296.082377,0.000000
4131.594123,-9844.739029,74.020594,919.314598
4131.594452,-10436.903782,-148.041188,1378.971896
4131.594782,-9548.656652,-370.102971,1378.971896
4131.595112,-9178.553681,-518.144159,842.705048
4131.595442,-9252.574275,0.000000,383.047749
4131.595772,-9104.533087,148.041188,-459.657299
4131.596102,-9252.574275,148.041188,-1072.533697
4131.596431,-9474.636058,518.144159,-766.095498
4131.596761,-10881.027347,518.144159,76.609550
4131.597091,-10362.883188,1110.308913,0.000000
4131.597421,-10510.924376,592.164754,229.828649
4131.597751,-9252.574275,592.164754,-306.438199
4131.598080,-9770.718434,148.041188,229.828649
4131.598410,-10658.965565,444.123565,689.485948
4131.598740,-10140.821405,0.000000,459.657299
4131.599070,-9918.759623,296.082377,1072.533697
4131.599400,-9696.697840,518.144159,1608.800546
4131.599729,-10807.006753,296.082377,612.876398
4131.600059,-10288.862594,0.000000,-459.657299
4131.600389,-9252.574275,74.020594,-306.438199
4131.600719,-10214.842000,148.041188,153.219100
4131.601049,-10288.862594,518.144159,383.047749
4131.601379,-8956.491898,-814.226536,766.095498
4131.601708,-9104.533087,0.000000,766.095498
4131.602038,-9474.636058,74.020594,383.047749
4131.602368,-9992.780217,-296.082377,153.219100
4131.602698,-10066.800811,-592.164754,229.828649
4131.603028,-9696.697840,-740.205942,842.705048
4131.603357,-9104.533087,-740.205942,1455.581446
4131.603687,-9696.697840,-592.164754,1762.019645
4131.604017,-9030.512492,-222.061783,689.485948
4131.604347,-8660.409521,-518.144159,-153.219100
4131.604677,-9400.615463,74.020594,-766.095498
4131.605006,-10658.965565,222.061783,-383.047749
4131.605336,-10955.047942,740.205942,0.000000
4131.605666,-10362.883188,296.082377,-383.047749
4131.605996,-9770.718434,-370.102971,-153.219100
4131.606326,-8586.388927,-148.041188,-689.485948
4131.606656,-8660.409521,-148.041188,-766.095498
4131.606985,-9252.574275,0.000000,-306.438199
4131.607315,-9548.656652,0.000000,383.047749
4131.607645,-9844.739029,74.020594,1149.143247
4131.607975,-10436.903782,-296.082377,1532.190996
4131.608305,-10362.883188,0.000000,1378.971896
4131.608634,-9548.656652,-444.123565,766.095498
4131.608964,-10214.842000,592.164754,0.000000
4131.609294,-10436.903782,0.000000,-459.657299
4131.609624,-9622.677246,296.082377,0.000000
4131.609954,-9474.636058,0.000000,76.609550
4131.610283,-9918.759623,222.061783,689.485948
4131.610613,-9844.739029,74.020594,306.438199
4131.610943,-9770.718434,74.020594,0.000000
4131.611273,-9326.594869,74.020594,-766.095498
4131.611603,-9474.636058,222.061783,-536.266849
4131.611933,-9992.780217,222.061783,229.828649
4131.612262,-11103.089130,222.061783,689.485948
4131.612592,-9400.615463,-148.041188,536.266849
4131.612922,-9400.615463,-222.061783,919.314598
4131.613252,-10362.883188,0.000000,536.266849
4131.613582,-10066.800811,-74.020594,306.438199
4131.613911,-9178.553681,0.000000,229.828649
4131.614241,-9548.656652,222.061783,612.876398
4131.614571,-9474.636058,148.041188,306.438199
4131.614901,-9030.512492,0.000000,229.828649
4131.615231,-8808.450710,370.102971,-383.047749
4131.615560,-10066.800811,740.205942,-306.438199
4131.615890,-10288.862594,518.144159,306.438199
4131.616220,-10362.883188,518.144159,229.828649
4131.616550,-10214.842000,518.144159,229.828649
4131.616880,-9992.780217,814.226536,1378.971896
4131.617210,-10807.006753,740.205942,0.000000
4131.617539,-10807.006753,592.164754,-612.876398
4131.617869,-9696.697840,444.123565,-612.876398
4131.618199,-9178.553681,740.205942,76.609550
4131.618529,-10658.965565,814.226536,229.828649
4131.618859,-9844.739029,666.185348,612.876398
4131.619188,-9844.739029,444.123565,0.000000
4131.619518,-9770.718434,0.000000,-306.438199
4131.619848,-10214.842000,296.082377,306.438199
4131.620178,-9696.697840,0.000000,842.705048
4131.620508,-9474.636058,444.123565,1072.533697
4131.620837,-9474.636058,74.020594,1149.143247
4131.621167,-10436.903782,740.205942,1072.533697
4131.621497,-11029.068536,592.164754,459.657299
4131.621827,-10066.800811,148.041188,76.609550
4131.622157,-8956.491898,74.020594,-153.219100
4131.622487,-9326.594869,74.020594,153.219100
4131.622816,-10288.862594,-444.123565,842.705048
4131.623146,-9104.533087,148.041188,229.828649
4131.623476,-8364.327145,-444.123565,-842.705048
4131.623806,-9548.656652,74.020594,-766.095498
4131.624136,-9918.759623,-148.041188,-229.828649
4131.624465,-10214.842000,-74.020594,459.657299
4131.624795,-10436.903782,-148.041188,689.485948
4131.625125,-9622.677246,-740.205942,459.657299
4131.625455,-8882.471304,-1406.391290,-536.266849
4131.625785,-8734.430116,-666.185348,-1302.362347
4131.626114,-8882.471304,-444.123565,-1072.533697
4131.626444,-9474.636058,-148.041188,-459.657299
4131.626774,-9696.697840,-444.123565,-229.828649
4131.627104,-9474.636058,-592.164754,-153.219100
4131.627434,-9548.656652,0.000000,0.000000
4131.627764,-10066.800811,-592.164754,0.000000
4131.628093,-11177.109724,-592.164754,-229.828649
4131.628423,-10066.800811,-962.267725,153.219100
4131.628753,-8956.491898,-592.164754,383.047749
4131.629083,-9030.512492,-74.020594,766.095498
4131.629413,-9696.697840,518.144159,842.705048
4131.629742,-10140.821405,370.102971,612.876398
4131.630072,-10510.924376,814.226536,-1225.752797
4131.630402,-10436.903782,296.082377,-1149.143247
4131.630732,-10658.965565,296.082377,229.828649
4131.631062,-10584.944971,148.041188,1532.190996
4131.631391,-9548.656652,-370.102971,689.485948
4131.631721,-9104.533087,0.000000,0.000000
4131.632051,-9252.574275,74.020594,229.828649
4131.632381,-10584.944971,518.144159,0.000000
4131.632711,-11473.192101,518.144159,153.219100
4131.633041,-10584.944971,888.247130,1455.581446
4131.633370,-9548.656652,222.061783,1762.019645
4131.633700,-9252.574275,370.102971,1072.533697
4131.634030,-9548.656652,-370.102971,-459.657299
4131.634360,-10362.883188,-74.020594,-842.705048
4131.634690,-9696.697840,-296.082377,-689.485948
4131.635019,-9104.533087,0.000000,536.266849
4131.635349,-9474.636058,296.082377,1532.190996
4131.635679,-9622.677246,518.144159,1302.362347
4131.636009,-10362.883188,370.102971,383.047749
4131.636339,-9622.677246,222.061783,-689.485948
4131.636668,-9474.636058,-148.041188,-995.924147
4131.636998,-9474.636058,518.144159,459.657299
4131.637328,-9178.553681,0.000000,1532.190996
4131.637658,-9400.615463,296.082377,1149.143247
4131.637988,-9030.512492,370.102971,0.000000
4131.638318,-9844.739029,296.082377,-995.924147
4131.638647,-10140.821405,0.000000,-1378.971896
4131.638977,-9474.636058,74.020594,-153.219100
4131.639307,-8956.491898,0.000000,1225.752797
4131.639637,-9400.615463,814.226536,1685.410096
4131.639967,-9770.718434,1406.391290,536.266849
4131.640296,-10140.821405,888.247130,-383.047749
4131.640626,-10140.821405,814.226536,-1991.848295
4131.640956,-10510.924376,962.267725,-1685.410096
4131.641286,-9992.780217,1110.308913,-153.219100
4131.641616,-9844.739029,148.041188,1302.362347
4131.641945,-9474.636058,148.041188,1378.971896
4131.642275,-9178.553681,0.000000,459.657299
4131.642605,-10288.862594,296.082377,-536.266849
4131.642935,-10362.883188,0.000000,-842.705048
4131.643265,-10214.842000,296.082377,229.828649
4131.643595,-10214.842000,444.123565,1838.629195
4131.643924,-10436.903782,0.000000,1915.238745
4131.644254,-10214.842000,222.061783,306.438199
4131.644584,-9474.636058,-370.102971,-383.047749
4131.644914,-9918.759623,-296.082377,-1225.752797
4131.645244,-10436.903782,-888.247130,-1225.752797
4131.645573,-9030.512492,74.020594,-306.438199
4131.645903,-9030.512492,-592.164754,1991.848295
4131.646233,-10140.821405,-666.185348,1608.800546
4131.646563,-9622.677246,-888.247130,459.657299
4131.646893,-9622.677246,-370.102971,-459.657299
4131.647222,-9400.615463,0.000000,-1149.143247
4131.647552,-9622.677246,0.000000,-536.266849
4131.647882,-9770.718434,-370.102971,306.438199
4131.648212,-9252.574275,-296.082377,919.314598
4131.648542,-9400.615463,-148.041188,76.609550
4131.648872,-10140.821405,0.000000,-383.047749
4131.649201,-10732.986159,-518.144159,-612.876398
4131.649531,-9548.656652,-740.205942,-383.047749
4131.649861,-8660.409521,148.041188,-306.438199
4131.650191,-9844.739029,370.102971,766.095498
4131.650521,-10658.965565,74.020594,842.705048
4131.650850,-10066.800811,0.000000,0.000000
4131.651180,-9770.718434,0.000000,-383.047749
4131.651510,-10214.842000,0.000000,-766.095498
4131.651840,-9474.636058,74.020594,0.000000
4131.652170,-9844.739029,0.000000,1378.971896
4131.652499,-9548.656652,0.000000,1838.629195
4131.652829,-9992.780217,222.061783,1072.533697
4131.653159,-10362.883188,0.000000,306.438199
4131.653489,-10584.944971,0.000000,0.000000
4131.653819,-9474.636058,0.000000,306.438199
4131.654149,-9104.533087,444.123565,229.828649
4131.654478,-9474.636058,0.000000,842.705048
4131.654808,-10066.800811,666.185348,842.705048
4131.655138,-10066.800811,592.164754,0.000000
4131.655468,-10436.903782,888.247130,-306.438199
4131.655798,-10362.883188,592.164754,-306.438199
4131.656127,-10140.821405,222.061783,842.705048
4131.656457,-10288.862594,0.000000,1302.362347
4131.656787,-9770.718434,-592.164754,1685.410096
4131.657117,-8882.471304,-518.144159,306.438199
4131.657447,-8216.285956,-444.123565,0.000000
4131.657776,-8956.491898,-592.164754,-459.657299
4131.658106,-9030.512492,0.000000,0.000000
4131.658436,-9696.697840,74.020594,842.705048
4131.658766,-10140.821405,148.041188,919.314598
4131.659096,-9696.697840,-148.041188,612.876398
4131.659425,-9326.594869,-74.020594,76.609550
4131.659755,-9770.718434,148.041188,76.609550
4131.660085,-9474.636058,-148.041188,-229.828649
4131.660415,-9178.553681,74.020594,153.219100
4131.660745,-9696.697840,148.041188,612.876398
4131.661075,-10066.800811,740.205942,536.266849
4131.661404,-10436.903782,518.144159,0.000000
4131.661734,-10362.883188,444.123565,-153.219100
4131.662064,-10584.944971,370.102971,-459.657299
4131.662394,-10288.862594,814.226536,-383.047749
4131.662724,-10584.944971,148.041188,536.266849
4131.663053,-10066.800811,370.102971,153.219100
4131.663383,-9252.574275,296.082377,766.095498
4131.663713,-9918.759623,296.082377,995.924147
4131.664043,-10584.944971,518.144159,-766.095498
4131.664373,-9696.697840,148.041188,-536.266849
4131.664702,-9252.574275,74.020594,0.000000
4131.665032,-10436.903782,296.082377,1072.533697
4131.665362,-10732.986159,592.164754,1838.629195
4131.665692,-10584.944971,370.102971,1149.143247
4131.666022,-9474.636058,-296.082377,-459.657299
4131.666352,-9104.533087,-296.082377,-689.485948
4131.666681,-9400.615463,148.041188,0.000000
4131.667011,-9696.697840,74.020594,459.657299
4131.667341,-9474.636058,0.000000,766.095498
4131.667671,-8660.409521,0.000000,306.438199
4131.668001,-9548.656652,296.082377,0.000000
4131.668330,-11177.109724,222.061783,0.000000
4131.668660,-10288.862594,0.000000,0.000000
4131.668990,-9030.512492,-814.226536,76.609550
4131.669320,-9178.553681,222.061783,689.485948
4131.669650,-9770.718434,666.185348,1149.143247
4131.669979,-9474.636058,222.061783,229.828649
4131.670309,-9474.636058,444.123565,-306.438199
4131.670639,-10140.821405,370.102971,-76.609550
4131.670969,-9770.718434,222.061783,229.828649
4131.671299,-9844.739029,74.020594,842.705048
4131.671629,-9326.594869,0.000000,459.657299
4131.671958,-9030.512492,74.020594,76.609550
4131.672288,-9844.739029,444.123565,-689.485948
4131.672618,-9992.780217,-148.041188,-612.876398
4131.672948,-9548.656652,444.123565,459.657299
4131.673278,-10288.862594,296.082377,1915.238745
4131.673607,-10584.944971,222.061783,1532.190996
4131.673937,-10214.842000,296.082377,1149.143247
4131.674267,-9696.697840,222.061783,-689.485948
4131.674597,-10362.883188,148.041188,-1225.752797
4131.674927,-10288.862594,444.123565,-995.924147
4131.675256,-9696.697840,-444.123565,0.000000
4131.675586,-9252.574275,148.041188,766.095498
4131.675916,-9030.512492,0.000000,919.314598
4131.676246,-9400.615463,-370.102971,536.266849
4131.676576,-9474.636058,-370.102971,-612.876398
4131.676906,-10214.842000,-74.020594,-383.047749
4131.677235,-10288.862594,0.000000,536.266849
4131.677565,-10807.006753,0.000000,1915.238745
4131.677895,-10362.883188,0.000000,1455.581446
4131.678225,-9548.656652,0.000000,766.095498
4131.678555,-9326.594869,0.000000,-536.266849
4131.678884,-9400.615463,-592.164754,-1072.533697
4131.679214,-9548.656652,296.082377,-459.657299
4131.679544,-9844.739029,-222.061783,766.095498
4131.679874,-10214.842000,-222.061783,1378.971896
4131.680204,-9030.512492,-74.020594,612.876398
4131.680533,-8808.450710,-296.082377,-306.438199
4131.680863,-9844.739029,0.000000,-842.705048
4131.681193,-10732.986159,0.000000,-766.095498
4131.681523,-10288.862594,0.000000,459.657299
4131.681853,-9474.636058,444.123565,612.876398
4131.682183,-9770.718434,222.061783,995.924147
4131.682512,-9696.697840,0.000000,459.657299
4131.682842,-10584.944971,74.020594,153.219100
4131.683172,-9696.697840,-370.102971,-536.266849
4131.683502,-9178.553681,-296.082377,0.000000
4131.683832,-9622.677246,0.000000,1915.238745
4131.684161,-9474.636058,0.000000,1455.581446
4131.684491,-9104.533087,0.000000,612.876398
4131.684821,-9400.615463,444.123565,-536.266849
4131.685151,-10510.924376,444.123565,-1302.362347
4131.685481,-10955.047942,814.226536,-536.266849
4131.685810,-10288.862594,222.061783,153.219100
4131.686140,-9548.656652,296.082377,229.828649
4131.686470,-9622.677246,296.082377,383.047749
4131.686800,-9622.677246,-222.061783,612.876398
4131.687130,-10140.821405,0.000000,612.876398
4131.687460,-9844.739029,296.082377,0.000000
4131.687789,-10214.842000,0.000000,76.609550
4131.688119,-10584.944971,370.102971,842.705048
4131.688449,-10214.842000,-222.061783,919.314598
4131.688779,-9696.697840,0.000000,1149.143247
4131.689109,-9770.718434,-370.102971,612.876398
4131.689438,-9696.697840,-444.123565,-383.047749
4131.689768,-8660.409521,-740.205942,-842.705048
4131.690098,-8808.450710,-518.144159,153.219100
4131.690428,-9622.677246,-518.144159,1149.143247
4131.690758,-10066.800811,0.000000,1685.410096
4131.691087,-9696.697840,0.000000,1072.533697
4131.691417,-9918.759623,-444.123565,612.876398
4131.691747,-10140.821405,-444.123565,383.047749
4131.692077,-9696.697840,-148.041188,-229.828649
4131.692407,-9252.574275,-518.144159,-229.828649
4131.692736,-8956.491898,-148.041188,229.828649
4131.693066,-9252.574275,0.000000,0.000000
4131.693396,-10214.842000,74.020594,229.828649
4131.693725,-9622.677246,74.020594,-536.266849
4131.694055,-9770.718434,222.061783,-536.266849
4131.694385,-10288.862594,0.000000,-153.219100
4131.694715,-9844.739029,-148.041188,306.438199
4131.695044,-9326.594869,-222.061783,1149.143247
4131.695374,-9400.615463,0.000000,1302.362347
4131.695704,-10214.842000,148.041188,229.828649
4131.696034,-10807.006753,814.226536,-995.924147
4131.696363,-9844.739029,370.102971,-1378.971896
4131.696693,-10066.800811,296.082377,-689.485948
4131.697023,-10066.800811,814.226536,536.266849
4131.697352,-10288.862594,296.082377,383.047749
4131.697682,-10288.862594,296.082377,-229.828649
4131.698012,-9474.636058,-296.082377,-995.924147
4131.698342,-8956.491898,-592.164754,-383.047749
4131.698671,-9252.574275,-518.144159,229.828649
4131.699001,-9696.697840,-370.102971,995.924147
4131.699331,-9400.615463,74.020594,995.924147
4131.699661,-9474.636058,74.020594,1225.752797
4131.699990,-10214.842000,222.061783,0.000000
4131.700320,-10066.800811,0.000000,0.000000
4131.700650,-9844.739029,0.000000,0.000000
4131.700979,-10066.800811,0.000000,919.314598
4131.701309,-9252.574275,0.000000,1378.971896
4131.701639,-9252.574275,74.020594,1608.800546
4131.701969,-9474.636058,592.164754,459.657299
4131.702298,-10140.821405,666.185348,-995.924147
4131.702628,-10362.883188,888.247130,-612.876398
4131.702958,-10436.903782,592.164754,-153.219100
4131.703288,-9474.636058,518.144159,-229.828649
4131.703617,-9178.553681,518.144159,153.219100
4131.703947,-9400.615463,592.164754,-306.438199
4131.704277,-10288.862594,592.164754,-689.485948
4131.704606,-9622.677246,148.041188,-919.314598
4131.704936,-9622.677246,0.000000,76.609550
4131.705266,-9400.615463,0.000000,1225.752797
4131.705596,-9474.636058,74.020594,1608.800546
4131.705925,-10066.800811,0.000000,995.924147
4131.706255,-10140.821405,74.020594,766.095498
4131.706585,-10214.842000,0.000000,-383.047749
4131.706915,-9844.739029,-296.082377,383.047749
4131.707244,-9622.677246,-148.041188,766.095498
4131.707574,-9400.615463,148.041188,1378.971896
4131.707904,-8808.450710,222.061783,383.047749
4131.708233,-9770.718434,518.144159,0.000000
4131.708563,-10510.924376,444.123565,-1149.143247
4131.708893,-10140.821405,814.226536,-842.705048
4131.709223,-10066.800811,740.205942,-306.438199
4131.709552,-9252.574275,592.164754,612.876398
4131.709882,-9918.759623,148.041188,842.705048
4131.710212,-10214.842000,0.000000,0.000000
4131.710542,-9992.780217,-592.164754,-383.047749
4131.710871,-9622.677246,-222.061783,-1072.533697
4131.711201,-9326.594869,-592.164754,306.438199
4131.711531,-9844.739029,-148.041188,1762.019645
4131.711860,-9474.636058,0.000000,2068.457845
4131.712190,-8956.491898,370.102971,1072.533697
4131.712520,-10140.821405,0.000000,-306.438199
4131.712850,-10140.821405,74.020594,-689.485948
4131.713179,-10066.800811,222.061783,0.000000
4131.713509,-10066.800811,74.020594,76.609550
4131.713839,-9474.636058,-222.061783,229.828649
4131.714169,-9030.512492,-592.164754,536.266849
4131.714498,-9548.656652,0.000000,76.609550
4131.714828,-9696.697840,-296.082377,0.000000
4131.715158,-9030.512492,0.000000,153.219100
4131.715487,-8734.430116,370.102971,-229.828649
4131.715817,-9474.636058,444.123565,-229.828649
4131.716147,-10584.944971,666.185348,153.219100
4131.716477,-10807.006753,888.247130,-153.219100
4131.716806,-10584.944971,370.102971,-383.047749
4131.717136,-9770.718434,444.123565,-612.876398
4131.717466,-9104.533087,148.041188,76.609550
4131.717796,-9622.677246,592.164754,229.828649
4131.718125,-9696.697840,370.102971,153.219100
4131.718455,-10288.862594,222.061783,0.000000
4131.718785,-10658.965565,148.041188,229.828649
4131.719114,-10362.883188,0.000000,76.609550
4131.719444,-9548.656652,-296.082377,229.828649
4131.719774,-10066.800811,-518.144159,919.314598
4131.720104,-9474.636058,-740.205942,689.485948
4131.720433,-9030.512492,-814.226536,536.266849
4131.720763,-9252.574275,-222.061783,459.657299
4131.721093,-10214.842000,-518.144159,919.314598
4131.721423,-9770.718434,-592.164754,1378.971896
4131.721752,-10140.821405,0.000000,1302.362347
4131.722082,-10658.965565,0.000000,1378.971896
4131.722412,-10214.842000,-1184.329507,612.876398
4131.722741,-8068.244768,-1406.391290,229.828649
4131.723071,-8364.327145,-740.205942,383.047749
4131.723401,-9252.574275,-148.041188,383.047749
4131.723731,-9474.636058,-296.082377,383.047749
4131.724060,-10214.842000,148.041188,0.000000
4131.724390,-9770.718434,592.164754,-612.876398
4131.724720,-10510.924376,518.144159,-995.924147
4131.725050,-9844.739029,0.000000,-689.485948
4131.725379,-9252.574275,0.000000,-229.828649
4131.725709,-9326.594869,0.000000,766.095498
4131.726039,-10140.821405,-444.123565,229.828649
4131.726368,-10288.862594,-222.061783,0.000000
4131.726698,-9622.677246,-1258.350101,-306.438199
4131.727028,-8512.368333,-666.185348,536.266849
4131.727358,-9178.553681,-370.102971,766.095498
4131.727687,-9918.759623,0.000000,1762.019645
4131.728017,-9622.677246,74.020594,1378.971896
4131.728347,-10436.903782,444.123565,612.876398
4131.728677,-10955.047942,814.226536,-689.485948
4131.729006,-10510.924376,0.000000,-1149.143247
4131.729336,-9844.739029,0.000000,-1072.533697
4131.729666,-9030.512492,-518.144159,0.000000
4131.729996,-9252.574275,74.020594,536.266849
4131.730325,-9844.739029,740.205942,536.266849
4131.730655,-10288.862594,962.267725,-229.828649
4131.730985,-9992.780217,666.185348,-919.314598
4131.731314,-10140.821405,888.247130,-153.219100
4131.731644,-10955.047942,0.000000,842.705048
4131.731974,-10436.903782,74.020594,2451.505594
4131.732304,-9400.615463,0.000000,2451.505594
4131.732633,-9400.615463,0.000000,1149.143247
4131.732963,-9252.574275,148.041188,0.000000
4131.733293,-9474.636058,518.144159,-536.266849
4131.733623,-9770.718434,888.247130,229.828649
4131.733952,-10214.842000,814.226536,842.705048
4131.734282,-9622.677246,740.205942,229.828649
4131.734612,-9400.615463,592.164754,-383.047749
4131.734941,-8586.388927,518.144159,-1378.971896
4131.735271,-9252.574275,666.185348,-1455.581446
4131.735601,-10362.883188,962.267725,-1378.971896
4131.735931,-10140.821405,444.123565,0.000000
4131.736260,-9622.677246,1332.370696,1608.800546
4131.736590,-9918.759623,222.061783,842.705048
4131.736920,-10140.821405,370.102971,689.485948
4131.737250,-9622.677246,370.102971,-229.828649
4131.737579,-9178.553681,296.082377,-306.438199
4131.737909,-9474.636058,592.164754,229.828649
4131.738239,-9992.780217,296.082377,689.485948
4131.738568,-10436.903782,962.267725,995.924147
4131.738898,-10140.821405,592.164754,76.609550
4131.739228,-9548.656652,518.144159,-1149.143247
4131.739558,-9474.636058,74.020594,-1302.362347
4131.739887,-9474.636058,370.102971,-919.314598
4131.740217,-9178.553681,222.061783,-153.219100
4131.740547,-9104.533087,888.247130,612.876398
4131.740877,-11029.068536,740.205942,612.876398
4131.741206,-10436.903782,222.061783,0.000000
4131.741536,-10288.862594,0.000000,-229.828649
4131.741866,-9770.718434,0.000000,76.609550
4131.742195,-9992.780217,-296.082377,536.266849
4131.742525,-9474.636058,-222.061783,1455.581446
4131.742855,-9104.533087,-296.082377,1455.581446
4131.743185,-9696.697840,0.000000,459.657299
4131.743514,-9770.718434,0.000000,-153.219100
4131.743844,-9992.780217,-296.082377,-689.485948
4131.744174,-10140.821405,-148.041188,459.657299
4131.744504,-9326.594869,-370.102971,1149.143247
4131.744833,-9178.553681,-888.247130,1608.800546
4131.745163,-9326.594869,-592.164754,766.095498
4131.745493,-9548.656652,-518.144159,-229.828649
4131.745822,-10362.883188,-592.164754,-459.657299
4131.746152,-10436.903782,-74.020594,536.266849
4131.746482,-10807.006753,-296.082377,1608.800546
4131.746812,-9844.739029,-296.082377,2145.067394
4131.747141,-9918.759623,-518.144159,1608.800546
4131.747471,-9474.636058,0.000000,459.657299
4131.747801,-9030.512492,-222.061783,-1532.190996
4131.748131,-9918.759623,-222.061783,-2068.457845
4131.748460,-10658.965565,-370.102971,-919.314598
4131.748790,-9992.780217,-444.123565,459.657299
4131.749120,-9252.574275,74.020594,689.485948
4131.749449,-8660.409521,-666.185348,76.609550
4131.749779,-9178.553681,-444.123565,0.000000
4131.750109,-10214.842000,74.020594,229.828649
4131.750439,-10362.883188,-222.061783,0.000000
4131.750768,-10732.986159,0.000000,919.314598
4131.751098,-10214.842000,148.041188,919.314598
4131.751428,-10288.862594,0.000000,919.314598
4131.751758,-10288.862594,-148.041188,0.000000
4131.752087,-10140.821405,-1036.288319,-306.438199
4131.752417,-9992.780217,-814.226536,76.609550
4131.752747,-9326.594869,-1036.288319,536.266849
4131.753076,-9696.697840,-518.144159,1608.800546
4131.753406,-10140.821405,-444.123565,2374.896044
4131.753736,-10510.924376,0.000000,1149.143247
4131.754066,-10066.800811,-592.164754,0.000000
4131.754395,-9178.553681,-592.164754,-459.657299
4131.754725,-9400.615463,-1110.308913,919.314598
4131.755055,-8586.388927,-666.185348,1225.752797
4131.755385,-8364.327145,-592.164754,1378.971896
4131.755714,-10066.800811,0.000000,459.657299
4131.756044,-10362.883188,370.102971,-459.657299
4131.756374,-9474.636058,-296.082377,-1532.190996
4131.756703,-9104.533087,222.061783,-1225.752797
4131.757033,-9030.512492,74.020594,612.876398
4131.757363,-9696.697840,296.082377,1532.190996
4131.757693,-10436.903782,370.102971,612.876398
4131.758022,-9992.780217,444.123565,-1455.581446
4131.758352,-9918.759623,888.247130,-1762.019645
4131.758682,-10288.862594,1110.308913,-1225.752797
4131.759012,-10362.883188,1258.350101,0.000000
4131.759341,-9770.718434,1184.329507,995.924147
4131.759671,-9844.739029,1332.370696,612.876398
4131.760001,-10214.842000,518.144159,0.000000
4131.760330,-10658.965565,962.267725,-229.828649
4131.760660,-9770.718434,148.041188,-383.047749
4131.760990,-9770.718434,148.041188,306.438199
4131.761320,-9030.512492,74.020594,536.266849
4131.761649,-9548.656652,148.041188,612.876398
4131.761979,-10140.821405,0.000000,383.047749
4131.762309,-9548.656652,148.041188,-306.438199
4131.762639,-9474.636058,444.123565,0.000000
4131.762968,-9622.677246,296.082377,766.095498
4131.763298,-10584.944971,814.226536,1378.971896
4131.763628,-10066.800811,0.000000,1838.629195
4131.763957,-9474.636058,592.164754,1072.533697
4131.764287,-9474.636058,0.000000,229.828649
4131.764617,-9622.677246,814.226536,153.219100
4131.764947,-9844.739029,444.123565,-229.828649
4131.765276,-10214.842000,592.164754,-306.438199
4131.765606,-10066.800811,1036.288319,0.000000
4131.765936,-9622.677246,296.082377,0.000000
4131.766266,-9696.697840,148.041188,-995.924147
4131.766595,-9252.574275,74.020594,-153.219100
4131.766925,-10214.842000,222.061783,229.828649
4131.767255,-10584.944971,74.020594,306.438199
4131.767584,-9992.780217,0.000000,76.609550
4131.767914,-8660.409521,-296.082377,842.705048
4131.768244,-9030.512492,222.061783,612.876398
4131.768574,-9918.759623,0.000000,612.876398
4131.768903,-9992.780217,148.041188,-76.609550
4131.769233,-9770.718434,0.000000,-1072.533697
4131.769563,-9844.739029,74.020594,-689.485948
4131.769893,-10288.862594,0.000000,76.609550
4131.770222,-10732.986159,592.164754,383.047749
4131.770552,-9474.636058,-148.041188,-766.095498
4131.770882,-9400.615463,-222.061783,-536.266849
4131.771211,-9474.636058,0.000000,-76.609550
4131.771541,-10362.883188,148.041188,0.000000
4131.771871,-10288.862594,-296.082377,766.095498
4131.772201,-10066.800811,-74.020594,842.705048
4131.772530,-10214.842000,-370.102971,1378.971896
4131.772860,-9696.697840,-592.164754,536.266849
4131.773190,-9548.656652,-740.205942,0.000000
4131.773520,-9252.574275,-814.226536,0.000000
4131.773849,-9474.636058,-962.267725,383.047749
4131.774179,-9770.718434,148.041188,689.485948
4131.774509,-10807.006753,-222.061783,1455.581446
4131.774838,-10658.965565,0.000000,766.095498
4131.775168,-9548.656652,0.000000,0.000000
4131.775498,-8956.491898,222.061783,-153.219100
4131.775828,-9252.574275,222.061783,-229.828649
4131.776157,-10140.821405,296.082377,0.000000
4131.776487,-9844.739029,0.000000,536.266849
4131.776817,-9252.574275,0.000000,229.828649
4131.777147,-9770.718434,296.082377,0.000000
4131.777476,-10658.965565,0.000000,76.609550
4131.777806,-10288.862594,222.061783,995.924147
4131.778136,-9770.718434,444.123565,1225.752797
4131.778465,-9104.533087,296.082377,1225.752797
4131.778795,-10510.924376,592.164754,689.485948
4131.779125,-10658.965565,518.144159,689.485948
4131.779455,-10436.903782,592.164754,153.219100
4131.779784,-10436.903782,0.000000,-842.705048
4131.780114,-10510.924376,444.123565,-153.219100
4131.780444,-9104.533087,-370.102971,0.000000
4131.780774,-8956.491898,0.000000,995.924147
4131.781103,-9918.759623,0.000000,1455.581446
4131.781433,-10807.006753,148.041188,766.095498
4131.781763,-10140.821405,296.082377,306.438199
4131.782092,-9400.615463,296.082377,-536.266849
4131.782422,-10214.842000,0.000000,-612.876398
4131.782752,-10140.821405,-592.164754,306.438199
4131.783082,-9252.574275,-740.205942,1532.190996
4131.783411,-8808.450710,-740.205942,766.095498
4131.783741,-8808.450710,-518.144159,-229.828649
4131.784071,-9696.697840,-592.164754,-459.657299
4131.784401,-9844.739029,74.020594,0.000000
4131.784730,-9400.615463,-296.082377,0.000000
4131.785060,-9696.697840,-518.144159,1455.581446
4131.785390,-10288.862594,-444.123565,1225.752797
4131.785719,-9770.718434,-814.226536,306.438199
4131.786049,-9030.512492,-370.102971,-459.657299
4131.786379,-9104.533087,0.000000,-1072.533697
4131.786709,-9474.636058,0.000000,-1072.533697
4131.787038,-9400.615463,592.164754,-766.095498
4131.787368,-10362.883188,518.144159,76.609550
4131.787698,-10658.965565,814.226536,-612.876398
4131.788028,-10436.903782,518.144159,-689.485948
4131.788357,-9770.718434,-518.144159,-995.924147
4131.788687,-8364.327145,-592.164754,-612.876398
4131.789017,-8438.347739,74.020594,995.924147
4131.789346,-10658.965565,222.061783,2374.896044
4131.789676,-11103.089130,148.041188,1838.629195
4131.790006,-10658.965565,740.205942,1149.143247
4131.790336,-10362.883188,592.164754,-536.266849
4131.790665,-10955.047942,592.164754,-383.047749
4131.790995,-10066.800811,0.000000,0.000000
4131.791325,-8364.327145,74.020594,1072.533697
4131.791655,-8956.491898,444.123565,1225.752797
4131.791985,-9770.718434,888.247130,689.485948
4131.792314,-10881.027347,444.123565,0.000000
4131.792644,-10658.965565,814.226536,-153.219100
4131.792974,-9474.636058,0.000000,-153.219100
4131.793304,-9622.677246,666.185348,306.438199
4131.793634,-10140.821405,0.000000,766.095498
4131.793963,-9252.574275,370.102971,153.219100
4131.794293,-8956.491898,518.144159,76.609550
4131.794623,-9548.656652,1110.308913,-1072.533697
4131.794953,-10584.944971,666.185348,-689.485948
4131.795283,-10436.903782,370.102971,0.000000
4131.795612,-9696.697840,-592.164754,1302.362347
4131.795942,-9326.594869,-444.123565,1302.362347
4131.796272,-8586.388927,-148.041188,536.266849
4131.796602,-8512.368333,-222.061783,-306.438199
4131.796931,-9770.718434,444.123565,-689.485948
4131.797261,-10955.047942,74.020594,-842.705048
4131.797591,-10584.944971,740.205942,536.266849
4131.797921,-10288.862594,518.144159,1302.362347
4131.798251,-10288.862594,666.185348,919.314598
4131.798580,-9992.780217,0.000000,0.000000
4131.798910,-9844.739029,148.041188,-766.095498
4131.799240,-9622.677246,-370.102971,-1072.533697
4131.799570,-9696.697840,0.000000,459.657299
4131.799900,-10584.944971,0.000000,2374.896044
4131.800229,-9992.780217,0.000000,1991.848295
4131.800559,-9548.656652,-444.123565,1149.143247
4131.800889,-9326.594869,-296.082377,0.000000
4131.801219,-10288.862594,-222.061783,0.000000
4131.801549,-10362.883188,0.000000,612.876398
4131.801878,-9474.636058,-370.102971,459.657299
4131.802208,-9622.677246,222.061783,612.876398
4131.802538,-10066.800811,296.082377,612.876398
4131.802868,-9918.759623,0.000000,-536.266849
4131.803198,-9992.780217,370.102971,-1991.848295
4131.803527,-9326.594869,-222.061783,-1685.410096
4131.803857,-9400.615463,-518.144159,0.000000
4131.804187,-9548.656652,-740.205942,1608.800546
4131.804517,-9178.553681,-444.123565,919.314598
4131.804847,-9474.636058,0.000000,-383.047749
4131.805176,-9696.697840,222.061783,-1532.190996
4131.805506,-10881.027347,-296.082377,-995.924147
4131.805836,-9992.780217,-592.164754,689.485948
4131.806166,-9770.718434,-740.205942,2374.896044
4131.806496,-9622.677246,-296.082377,2374.896044
4131.806825,-9252.574275,-296.082377,689.485948
4131.807155,-9178.553681,-370.102971,-766.095498
4131.807485,-9548.656652,-740.205942,-1378.971896
4131.807815,-10140.821405,-518.144159,-306.438199
4131.808144,-9844.739029,-370.102971,995.924147
4131.808474,-9474.636058,-666.185348,1455.581446
4131.808804,-8956.491898,-518.144159,919.314598
4131.809134,-9252.574275,-296.082377,0.000000
4131.809464,-10584.944971,444.123565,0.000000
4131.809793,-11547.212695,444.123565,0.000000
4131.810123,-10436.903782,148.041188,459.657299
4131.810453,-9696.697840,-296.082377,1838.629195
4131.810783,-9474.636058,0.000000,1225.752797
4131.811113,-9400.615463,-444.123565,229.828649
4131.811442,-9030.512492,-740.205942,-1225.752797
4131.811772,-9696.697840,-740.205942,-689.485948
4131.812102,-9918.759623,-222.061783,612.876398
4131.812432,-9474.636058,-74.020594,1685.410096
4131.812762,-9992.780217,-296.082377,1915.238745
4131.813091,-9844.739029,0.000000,842.705048
4131.813421,-10214.842000,-222.061783,229.828649
4131.813751,-10066.800811,0.000000,-689.485948
4131.814081,-9844.739029,-444.123565,-612.876398
4131.814411,-9770.718434,296.082377,842.705048
4131.814740,-10214.842000,296.082377,1149.143247
4131.815070,-10510.924376,0.000000,0.000000
4131.815400,-9770.718434,0.000000,-1455.581446
4131.815730,-8660.409521,-444.123565,-1302.362347
4131.816060,-9400.615463,148.041188,-919.314598
4131.816389,-9844.739029,74.020594,383.047749
4131.816719,-9844.739029,74.020594,1608.800546
4131.817049,-9326.594869,-444.123565,842.705048
4131.817379,-9696.697840,444.123565,0.000000
4131.817709,-10658.965565,444.123565,-1378.971896
4131.818038,-10436.903782,296.082377,-1302.362347
4131.818368,-9178.553681,222.061783,-306.438199
4131.818698,-9030.512492,296.082377,995.924147
4131.819028,-9844.739029,592.164754,689.485948
4131.819358,-9178.553681,0.000000,-919.314598
4131.819687,-9252.574275,222.061783,-1302.362347
4131.820017,-9918.759623,814.226536,-229.828649
4131.820347,-10436.903782,444.123565,1225.752797
4131.820677,-10288.862594,962.267725,995.924147
4131.821006,-9844.739029,370.102971,766.095498
4131.821336,-9548.656652,592.164754,-689.485948
4131.821666,-10214.842000,666.185348,-1072.533697
4131.821996,-10510.924376,1036.288319,-842.705048
4131.822326,-9400.615463,296.082377,0.000000
4131.822655,-9178.553681,518.144159,689.485948
4131.822985,-10066.800811,444.123565,919.314598
4131.823315,-10584.944971,592.164754,612.876398
4131.823645,-10140.821405,0.000000,76.609550
4131.823975,-9252.574275,0.000000,-153.219100
4131.824304,-9548.656652,444.123565,-229.828649
4131.824634,-10214.842000,444.123565,383.047749
4131.824964,-9548.656652,296.082377,689.485948
4131.825294,-9622.677246,0.000000,383.047749
4131.825624,-9400.615463,-222.061783,306.438199
4131.825953,-9622.677246,-222.061783,153.219100
4131.826283,-9622.677246,-74.020594,0.000000
4131.826613,-9030.512492,-370.102971,-459.657299
4131.826943,-9030.512492,74.020594,306.438199
4131.827273,-9992.780217,-518.144159,1225.752797
4131.827602,-10510.924376,74.020594,1072.533697
4131.827932,-9844.739029,-370.102971,76.609550
4131.828262,-8956.491898,-518.144159,-1072.533697
4131.828592,-8734.430116,74.020594,-1225.752797
4131.828922,-9548.656652,0.000000,-383.047749
4131.829251,-9622.677246,0.000000,536.266849
4131.829581,-9918.759623,-148.041188,766.095498
4131.829911,-9844.739029,370.102971,0.000000
4131.830241,-10066.800811,-592.164754,-842.705048
4131.830571,-10362.883188,-518.144159,-306.438199
4131.830900,-9548.656652,-222.061783,-76.609550
4131.831230,-9548.656652,0.000000,536.266849
4131.831560,-10140.821405,-148.041188,1225.752797
4131.831890,-9844.739029,0.000000,612.876398
4131.832219,-9548.656652,0.000000,153.219100
4131.832549,-9696.697840,0.000000,-229.828649
4131.832879,-10436.903782,0.000000,-306.438199
4131.833209,-10436.903782,-74.020594,-459.657299
4131.833539,-9474.636058,222.061783,0.000000
4131.833868,-10214.842000,-592.164754,842.705048
4131.834198,-10214.842000,-370.102971,919.314598
4131.834528,-9548.656652,-222.061783,153.219100
4131.834858,-9474.636058,74.020594,0.000000
4131.835188,-8956.491898,0.000000,-459.657299
4131.835517,-10066.800811,0.000000,76.609550
4131.835847,-10510.924376,222.061783,1378.971896
4131.836177,-10658.965565,444.123565,1072.533697
4131.836507,-10584.944971,0.000000,842.705048
4131.836837,-9844.739029,-296.082377,76.609550
4131.837166,-9474.636058,-444.123565,612.876398
4131.837496,-9326.594869,0.000000,766.095498
4131.837826,-9548.656652,148.041188,766.095498
4131.838156,-10140.821405,444.123565,0.000000
4131.838486,-9622.677246,296.082377,153.219100
4131.838815,-9696.697840,666.185348,-536.266849
4131.839145,-9622.677246,74.020594,-1149.143247
4131.839475,-9252.574275,0.000000,-459.657299
4131.839805,-9178.553681,0.000000,306.438199
4131.840135,-9104.533087,0.000000,766.095498
4131.840464,-8956.491898,0.000000,383.047749
4131.840794,-9992.780217,0.000000,306.438199
4131.841124,-9918.759623,592.164754,-612.876398
4131.841454,-10066.800811,222.061783,0.000000
4131.841784,-10066.800811,296.082377,306.438199
4131.842113,-10288.862594,148.041188,689.485948
4131.842443,-9992.780217,-222.061783,229.828649
4131.842773,-9030.512492,148.041188,0.000000
4131.843103,-8956.491898,0.000000,-766.095498
4131.843433,-9844.739029,148.041188,-1149.143247
4131.843762,-9918.759623,74.020594,-842.705048
4131.844092,-9770.718434,222.061783,-153.219100
4131.844422,-9252.574275,-222.061783,229.828649
4131.844752,-9548.656652,-222.061783,1225.752797
4131.845081,-10066.800811,74.020594,1072.533697
4131.845411,-9770.718434,-1036.288319,383.047749
4131.845741,-9992.780217,-370.102971,0.000000
4131.846071,-10140.821405,-370.102971,383.047749
4131.846401,-10288.862594,-148.041188,1532.190996
4131.846730,-10288.862594,0.000000,1225.752797
4131.847060,-9844.739029,0.000000,612.876398
4131.847390,-9178.553681,-518.144159,0.000000
4131.847720,-8956.491898,-592.164754,-536.266849
4131.848050,-9326.594869,296.082377,0.000000
4131.848379,-10807.006753,0.000000,536.266849
4131.848709,-10732.986159,-74.020594,842.705048
4131.849039,-9548.656652,-74.020594,229.828649
4131.849369,-9326.594869,-370.102971,0.000000
4131.849699,-9622.677246,-370.102971,-153.219100
4131.850028,-10436.903782,-222.061783,536.266849
4131.850358,-9770.718434,-148.041188,1455.581446
4131.850688,-9696.697840,296.082377,1455.581446
4131.851018,-9622.677246,444.123565,842.705048
4131.851348,-10732.986159,296.082377,76.609550
4131.851677,-9622.677246,74.020594,-919.314598
4131.852007,-9696.697840,0.000000,-995.924147
4131.852337,-9770.718434,296.082377,-919.314598
4131.852667,-10362.883188,0.000000,689.485948
4131.852997,-9992.780217,666.185348,-153.219100
4131.853326,-9400.615463,0.000000,-689.485948
4131.853656,-9918.759623,666.185348,-842.705048
4131.853986,-9548.656652,0.000000,-229.828649
4131.854316,-10066.800811,74.020594,229.828649
4131.854646,-9770.718434,0.000000,1532.190996
4131.854975,-9474.636058,0.000000,1455.581446
4131.855305,-9548.656652,740.205942,229.828649
4131.855635,-9844.739029,-148.041188,-306.438199
4131.855965,-9474.636058,222.061783,-995.924147
4131.856294,-9400.615463,444.123565,-1302.362347
4131.856624,-9178.553681,962.267725,-1072.533697
4131.856954,-9400.615463,148.041188,766.095498
4131.857284,-9696.697840,814.226536,1072.533697
4131.857614,-9992.780217,296.082377,76.609550
4131.857943,-10066.800811,666.185348,-1532.190996
4131.858273,-9622.677246,0.000000,-1608.800546
4131.858603,-9474.636058,370.102971,-306.438199
4131.858933,-9474.636058,0.000000,1225.752797
4131.859263,-9622.677246,0.000000,1532.190996
4131.859592,-9474.636058,518.144159,383.047749
4131.859922,-8956.491898,592.164754,-306.438199
4131.860252,-10140.821405,592.164754,-1378.971896
4131.860582,-10732.986159,518.144159,-766.095498
4131.860912,-9844.739029,1036.288319,0.000000
4131.861241,-9548.656652,222.061783,919.314598
4131.861571,-9474.636058,518.144159,76.609550
4131.861901,-9770.718434,0.000000,-459.657299
4131.862231,-9178.553681,0.000000,-1072.533697
4131.862561,-9844.739029,-74.020594,-229.828649
4131.862890,-9992.780217,148.041188,536.266849
4131.863220,-9992.780217,222.061783,1608.800546
4131.863550,-9770.718434,0.000000,1915.238745
4131.863880,-9474.636058,296.082377,1532.190996
4131.864210,-10214.842000,518.144159,0.000000
4131.864539,-10140.821405,592.164754,-536.266849
4131.864869,-9696.697840,370.102971,-536.266849
4131.865199,-10066.800811,814.226536,306.438199
4131.865529,-9918.759623,370.102971,229.828649
4131.865859,-9622.677246,74.020594,0.000000
4131.866188,-9178.553681,222.061783,-919.314598
4131.866518,-9400.615463,222.061783,-1225.752797
4131.866848,-9474.636058,-222.061783,-689.485948
4131.867178,-9548.656652,74.020594,536.266849
4131.867507,-10288.862594,296.082377,1225.752797
4131.867837,-10362.883188,0.000000,1225.752797
4131.868167,-10288.862594,0.000000,1225.752797
4131.868497,-9992.780217,-222.061783,766.095498
4131.868827,-9622.677246,-296.082377,153.219100
4131.869156,-9770.718434,296.082377,306.438199
4131.869486,-9696.697840,222.061783,229.828649
4131.869816,-10288.862594,0.000000,1149.143247
4131.870146,-9770.718434,74.020594,306.438199
4131.870476,-9400.615463,-222.061783,-306.438199
4131.870805,-9844.739029,74.020594,-306.438199
4131.871135,-9696.697840,-148.041188,-766.095498
4131.871465,-9918.759623,-148.041188,-153.219100
4131.871795,-9844.739029,-592.164754,612.876398
4131.872125,-9622.677246,0.000000,1455.581446
4131.872454,-9992.780217,-148.041188,1302.362347
4131.872784,-9770.718434,0.000000,153.219100
4131.873114,-9696.697840,-592.164754,-153.219100
4131.873444,-9992.780217,-296.082377,0.000000
4131.873774,-10214.842000,-592.164754,919.314598
4131.874103,-9400.615463,-666.185348,766.095498
4131.874433,-8882.471304,-370.102971,766.095498
4131.874763,-9178.553681,-444.123565,383.047749
4131.875093,-9770.718434,-518.144159,-76.609550
4131.875423,-9548.656652,0.000000,-1072.533697
4131.875752,-9844.739029,-666.185348,-383.047749
4131.876082,-9770.718434,-74.020594,842.705048
4131.876412,-9844.739029,0.000000,1149.143247
4131.876742,-10658.965565,222.061783,919.314598
4131.877072,-10066.800811,-888.247130,-919.314598
4131.877401,-9104.533087,-1036.288319,-1685.410096
4131.877731,-8808.450710,-444.123565,-459.657299
4131.878061,-9622.677246,-222.061783,536.266849
4131.878391,-9696.697840,444.123565,1915.238745
4131.878721,-9992.780217,-74.020594,1302.362347
4131.879050,-9622.677246,222.061783,0.000000
4131.879380,-9474.636058,0.000000,-1225.752797
4131.879710,-9992.780217,148.041188,-1072.533697
4131.880040,-9696.697840,-74.020594,842.705048
4131.880369,-9622.677246,0.000000,1685.410096
4131.880699,-9252.574275,370.102971,766.095498
4131.881029,-9992.780217,592.164754,-383.047749
4131.881359,-9918.759623,518.144159,-1378.971896
4131.881689,-10288.862594,962.267725,-1685.410096
4131.882018,-10362.883188,888.247130,-383.047749
4131.882348,-10288.862594,444.123565,1225.752797
4131.882678,-9770.718434,592.164754,2145.067394
4131.883008,-9770.718434,370.102971,1378.971896
4131.883338,-10214.842000,518.144159,-229.828649
4131.883667,-9622.677246,148.041188,-1532.190996
4131.883997,-9474.636058,518.144159,-1302.362347
4131.884327,-9400.615463,370.102971,919.314598
4131.884657,-9326.594869,370.102971,1225.752797
4131.884987,-9400.615463,0.000000,1762.019645
4131.885316,-9548.656652,444.123565,842.705048
4131.885646,-9918.759623,296.082377,-383.047749
4131.885976,-10288.862594,148.041188,-459.657299
4131.886306,-10584.944971,0.000000,459.657299
4131.886636,-9548.656652,-296.082377,1455.581446
4131.886965,-9104.533087,518.144159,1685.410096
4131.887295,-10140.821405,296.082377,1072.533697
4131.887625,-10214.842000,74.020594,-536.266849
4131.887955,-9548.656652,0.000000,-1608.800546
4131.888285,-9030.512492,74.020594,-689.485948
4131.888614,-9992.780217,-148.041188,689.485948
4131.888944,-9622.677246,-444.123565,1455.581446
4131.889274,-9178.553681,-740.205942,1532.190996
4131.889604,-9030.512492,-74.020594,383.047749
4131.889934,-9696.697840,-370.102971,-612.876398
4131.890263,-10362.883188,-222.061783,-229.828649
4131.890593,-10214.842000,-222.061783,689.485948
4131.890923,-9474.636058,148.041188,1991.848295
4131.891253,-9474.636058,-222.061783,1072.533697
4131.891582,-9770.718434,0.000000,0.000000
4131.891912,-9918.759623,-74.020594,-1302.362347
4131.892242,-10066.800811,0.000000,-1762.019645
4131.892572,-9844.739029,-592.164754,-1455.581446
4131.892902,-9400.615463,-666.185348,0.000000
4131.893230,-9030.512492,-740.205942,1532.190996
4131.893560,-9918.759623,-296.082377,1302.362347
4131.893890,-9622.677246,-814.226536,0.000000
4131.894220,-9992.780217,-666.185348,-1149.143247
4131.894549,-10288.862594,0.000000,0.000000
4131.894879,-10807.006753,-370.102971,1302.362347
4131.895209,-10510.924376,-222.061783,1685.410096
4131.895539,-9918.759623,0.000000,1225.752797
4131.895868,-9252.574275,296.082377,306.438199
4131.896198,-9622.677246,222.061783,-689.485948
4131.896528,-10510.924376,0.000000,-1608.800546
4131.896857,-10362.883188,0.000000,-306.438199
4131.897187,-9548.656652,0.000000,459.657299
4131.897517,-9252.574275,0.000000,612.876398
4131.897847,-9474.636058,-222.061783,153.219100
4131.898176,-9400.615463,-370.102971,-536.266849
4131.898506,-9770.718434,222.061783,-995.924147
4131.898836,-10510.924376,666.185348,0.000000
4131.899165,-10436.903782,148.041188,1608.800546
4131.899495,-10140.821405,444.123565,2374.896044
4131.899825,-10362.883188,222.061783,1838.629195
4131.900155,-9770.718434,0.000000,536.266849
4131.900484,-9696.697840,-296.082377,-689.485948
4131.900814,-8808.450710,296.082377,-612.876398
4131.901144,-9696.697840,0.000000,612.876398
4131.901473,-9622.677246,148.041188,995.924147
4131.901803,-9252.574275,518.144159,612.876398
4131.902133,-9474.636058,444.123565,-153.219100
4131.902463,-8882.471304,370.102971,-919.314598
4131.902792,-10510.924376,74.020594,-153.219100
4131.903122,-10807.006753,222.061783,153.219100
4131.903452,-9030.512492,0.000000,766.095498
4131.903782,-9104.533087,148.041188,919.314598
4131.904111,-9474.636058,296.082377,1149.143247
4131.904441,-9918.759623,74.020594,153.219100
4131.904771,-9474.636058,370.102971,-612.876398
4131.905100,-9474.636058,148.041188,-689.485948
4131.905430,-10584.944971,74.020594,229.828649
4131.905760,-9992.780217,0.000000,1072.533697
4131.906090,-9548.656652,0.000000,1072.533697
4131.906419,-9030.512492,0.000000,76.609550
4131.906749,-9104.533087,0.000000,-383.047749
4131.907079,-9400.615463,148.041188,0.000000
4131.907408,-9770.718434,592.164754,76.609550
4131.907738,-9770.718434,962.267725,153.219100
4131.908068,-10807.006753,740.205942,919.314598
4131.908398,-10658.965565,296.082377,536.266849
4131.908727,-10066.800811,-592.164754,0.000000
4131.909057,-9474.636058,-296.082377,0.000000
4131.909387,-10066.800811,518.144159,1072.533697
4131.909717,-10362.883188,148.041188,383.047749
4131.910046,-9622.677246,222.061783,459.657299
4131.910376,-9992.780217,592.164754,76.609550
4131.910706,-10881.027347,592.164754,383.047749
4131.911035,-10881.027347,518.144159,-689.485948
4131.911365,-10436.903782,148.041188,-995.924147
4131.911695,-10066.800811,74.020594,-536.266849
4131.912025,-9992.780217,0.000000,0.000000
4131.912354,-9918.759623,-444.123565,383.047749
4131.912684,-9104.533087,-370.102971,153.219100
4131.913014,-9400.615463,-222.061783,153.219100
4131.913343,-9400.615463,-148.041188,0.000000
4131.913673,-9474.636058,0.000000,1608.800546
4131.914003,-9696.697840,74.020594,1225.752797
4131.914333,-9474.636058,0.000000,1225.752797
4131.914662,-10288.862594,296.082377,612.876398
4131.914992,-10288.862594,0.000000,306.438199
4131.915322,-9104.533087,74.020594,-536.266849
4131.915652,-9104.533087,148.041188,-383.047749
4131.915981,-10288.862594,518.144159,0.000000
4131.916311,-9918.759623,-296.082377,383.047749
4131.916641,-9474.636058,-148.041188,0.000000
4131.916970,-8808.450710,0.000000,383.047749
4131.917300,-10066.800811,0.000000,229.828649
4131.917630,-10362.883188,444.123565,76.609550
4131.917960,-10214.842000,148.041188,842.705048
4131.918289,-9992.780217,74.020594,536.266849
4131.918619,-9400.615463,296.082377,0.000000
4131.918949,-9992.780217,148.041188,76.609550
4131.919278,-9474.636058,-148.041188,-612.876398
4131.919608,-8956.491898,-222.061783,-766.095498
4131.919938,-9770.718434,444.123565,0.000000
4131.920268,-10436.903782,0.000000,459.657299
4131.920597,-10362.883188,0.000000,459.657299
4131.920927,-9622.677246,74.020594,0.000000
4131.921257,-9992.780217,-148.041188,306.438199
4131.921586,-9844.739029,-74.020594,689.485948
4131.921916,-9622.677246,0.000000,766.095498
4131.922246,-9844.739029,0.000000,995.924147
4131.922576,-10510.924376,296.082377,536.266849
4131.922905,-9844.739029,370.102971,919.314598
4131.923235,-9770.718434,148.041188,306.438199
4131.923565,-9400.615463,0.000000,0.000000
4131.923895,-9770.718434,-222.061783,-229.828649
4131.924224,-9770.718434,-592.164754,536.266849
4131.924554,-9104.533087,-444.123565,0.000000
4131.924884,-9104.533087,-296.082377,0.000000
4131.925213,-9622.677246,0.000000,306.438199
4131.925543,-9622.677246,-222.061783,-383.047749
4131.925873,-9474.636058,-296.082377,-306.438199
4131.926203,-9474.636058,222.061783,153.219100
4131.926532,-9548.656652,74.020594,766.095498
4131.926862,-10066.800811,74.020594,153.219100
4131.927192,-9474.636058,0.000000,153.219100
4131.927521,-9696.697840,0.000000,306.438199
4131.927851,-9918.759623,-296.082377,229.828649
4131.928181,-10288.862594,0.000000,1302.362347
4131.928511,-9696.697840,-370.102971,1149.143247
4131.928840,-9104.533087,0.000000,153.219100
4131.929170,-9622.677246,592.164754,0.000000
4131.929500,-10658.965565,740.205942,-153.219100
4131.929830,-10288.862594,148.041188,-995.924147
4131.930159,-9326.594869,222.061783,-1378.971896
4131.930489,-9622.677246,666.185348,-612.876398
4131.930819,-10955.047942,592.164754,-306.438199
4131.931148,-10066.800811,0.000000,-306.438199
4131.931478,-9918.759623,0.000000,0.000000
4131.931808,-9992.780217,444.123565,76.609550
4131.932138,-10288.862594,296.082377,-459.657299
4131.932467,-10436.903782,222.061783,1149.143247
4131.932797,-10140.821405,296.082377,1608.800546
4131.933127,-8808.450710,0.000000,919.314598
4131.933456,-10140.821405,1110.308913,383.047749
4131.933786,-10214.842000,444.123565,-842.705048
4131.934116,-9696.697840,74.020594,-995.924147
4131.934446,-9474.636058,370.102971,-459.657299
4131.934775,-9770.718434,370.102971,306.438199
4131.935105,-9844.739029,74.020594,842.705048
4131.935435,-9104.533087,74.020594,-229.828649
4131.935765,-9474.636058,-74.020594,-306.438199
4131.936094,-9548.656652,-296.082377,76.609550
4131.936424,-9326.594869,0.000000,612.876398
4131.936754,-9030.512492,0.000000,1302.362347
4131.937083,-9104.533087,0.000000,1225.752797
4131.937413,-9474.636058,592.164754,1225.752797
4131.937743,-10658.965565,518.144159,459.657299
4131.938073,-10510.924376,296.082377,-689.485948
4131.938402,-9844.739029,0.000000,-76.609550
4131.938732,-9696.697840,296.082377,1072.533697
4131.939062,-9844.739029,0.000000,1072.533697
4131.939391,-9400.615463,0.000000,0.000000
4131.939721,-9030.512492,666.185348,-842.705048
4131.940051,-10140.821405,0.000000,-612.876398
4131.940381,-10436.903782,222.061783,-306.438199
4131.940710,-10214.842000,0.000000,919.314598
4131.941040,-9844.739029,222.061783,536.266849
4131.941370,-9844.739029,-148.041188,459.657299
4131.941699,-9178.553681,0.000000,0.000000
4131.942029,-9992.780217,-518.144159,-153.219100
4131.942359,-10066.800811,-148.041188,383.047749
4131.942689,-9918.759623,-814.226536,1302.362347
4131.943018,-9992.780217,-296.082377,1149.143247
4131.943348,-9474.636058,-370.102971,1378.971896
4131.943678,-9548.656652,-296.082377,1072.533697
4131.944008,-10066.800811,0.000000,-229.828649
4131.944337,-10140.821405,-296.082377,-612.876398
4131.944667,-9326.594869,-592.164754,-153.219100
4131.944997,-9252.574275,-222.061783,-153.219100
4131.945326,-9992.780217,0.000000,76.609550
4131.945656,-9992.780217,-444.123565,766.095498
4131.945986,-9474.636058,-222.061783,-612.876398
4131.946316,-9400.615463,-74.020594,-919.314598
4131.946645,-10288.862594,0.000000,-766.095498
4131.946975,-10140.821405,-444.123565,153.219100
4131.947305,-10140.821405,0.000000,459.657299
4131.947634,-9474.636058,0.000000,766.095498
4131.947964,-9548.656652,-814.226536,383.047749
4131.948294,-10066.800811,-296.082377,383.047749
4131.948624,-9252.574275,0.000000,459.657299
4131.948953,-10066.800811,0.000000,689.485948
4131.949283,-9918.759623,0.000000,383.047749
4131.949613,-10288.862594,0.000000,689.485948
4131.949943,-10584.944971,0.000000,842.705048
4131.950272,-9844.739029,0.000000,0.000000
4131.950602,-9770.718434,148.041188,459.657299
4131.950932,-8882.471304,148.041188,459.657299
4131.951261,-8882.471304,0.000000,229.828649
4131.951591,-9992.780217,444.123565,383.047749
4131.951921,-10510.924376,74.020594,1302.362347
4131.952251,-10214.842000,0.000000,842.705048
4131.952580,-9622.677246,-222.061783,766.095498
4131.952910,-9400.615463,74.020594,1378.971896
4131.953240,-9474.636058,0.000000,1149.143247
4131.953569,-9326.594869,296.082377,229.828649
4131.953899,-9770.718434,222.061783,383.047749
4131.954229,-9770.718434,518.144159,0.000000
4131.954559,-10362.883188,666.185348,0.000000
4131.954888,-10510.924376,1036.288319,76.609550
4131.955218,-9548.656652,222.061783,-306.438199
4131.955548,-9252.574275,222.061783,-766.095498
4131.955878,-9104.533087,592.164754,-383.047749
4131.956207,-10288.862594,444.123565,459.657299
4131.956537,-9474.636058,962.267725,-383.047749
4131.956867,-9400.615463,518.144159,-383.047749
4131.957196,-10066.800811,962.267725,-306.438199
4131.957526,-10584.944971,444.123565,-459.657299
4131.957856,-10584.944971,740.205942,153.219100
4131.958186,-9622.677246,444.123565,919.314598
4131.958515,-9474.636058,888.247130,536.266849
4131.958845,-9844.739029,518.144159,536.266849
4131.959175,-9918.759623,1110.308913,76.609550
4131.959504,-9992.780217,370.102971,76.609550
4131.959834,-9770.718434,370.102971,-536.266849
4131.960164,-10066.800811,222.061783,-612.876398
4131.960494,-9918.759623,370.102971,-153.219100
4131.960823,-9474.636058,444.123565,229.828649
4131.961153,-9474.636058,222.061783,0.000000
4131.961483,-10288.862594,0.000000,-306.438199
4131.961812,-9918.759623,0.000000,0.000000
4131.962142,-8808.450710,0.000000,76.609550
4131.962472,-9548.656652,0.000000,919.314598
4131.962802,-10288.862594,0.000000,1378.971896
4131.963131,-10807.006753,-518.144159,1378.971896
4131.963461,-9030.512492,-222.061783,0.000000
4131.963791,-8512.368333,-592.164754,-459.657299
4131.964121,-9104.533087,-370.102971,76.609550
4131.964450,-10140.821405,-222.061783,842.705048
4131.964780,-9992.780217,-148.041188,383.047749
4131.965110,-9548.656652,-444.123565,0.000000
4131.965439,-9326.594869,-740.205942,-153.219100
4131.965769,-9696.697840,-888.247130,-153.219100
4131.966099,-9844.739029,-518.144159,383.047749
4131.966429,-9918.759623,-740.205942,995.924147
4131.966758,-9252.574275,-666.185348,995.924147
4131.967088,-8882.471304,-370.102971,689.485948
4131.967418,-10362.883188,0.000000,0.000000
4131.967747,-10732.986159,-370.102971,-383.047749
4131.968077,-10066.800811,-888.247130,0.000000
4131.968407,-9548.656652,-370.102971,919.314598
4131.968737,-9918.759623,-370.102971,1378.971896
4131.969066,-10214.842000,-74.020594,229.828649
4131.969396,-9474.636058,-370.102971,-842.705048
4131.969726,-9178.553681,444.123565,-536.266849
4131.970056,-9622.677246,0.000000,-306.438199
4131.970385,-11621.233289,518.144159,306.438199
4131.970715,-10881.027347,0.000000,612.876398
4131.971045,-9548.656652,-888.247130,689.485948
4131.971374,-8808.450710,0.000000,0.000000
4131.971704,-9918.759623,-296.082377,76.609550
4131.972034,-9548.656652,-370.102971,536.266849
4131.972364,-9474.636058,-370.102971,689.485948
4131.972693,-10066.800811,296.082377,1455.581446
4131.973023,-10510.924376,0.000000,1455.581446
4131.973353,-11103.089130,888.247130,1149.143247
4131.973682,-10658.965565,-518.144159,-306.438199
4131.974012,-9696.697840,148.041188,-76.609550
4131.974342,-9252.574275,0.000000,306.438199
4131.974672,-9326.594869,148.041188,689.485948
4131.975001,-8882.471304,-222.061783,306.438199
4131.975331,-8808.450710,0.000000,0.000000
4131.975661,-9844.739029,222.061783,-1149.143247
4131.975991,-10510.924376,592.164754,-766.095498
4131.976320,-9474.636058,-370.102971,-842.705048
4131.976650,-8586.388927,0.000000,1072.533697
4131.976980,-9252.574275,148.041188,1915.238745
4131.977309,-10140.821405,222.061783,1302.362347
4131.977639,-9622.677246,444.123565,842.705048
4131.977969,-10140.821405,814.226536,-459.657299
4131.978299,-10140.821405,814.226536,-919.314598
4131.978628,-9992.780217,666.185348,-383.047749
4131.978958,-9548.656652,666.185348,306.438199
4131.979288,-9252.574275,296.082377,766.095498
4131.979617,-9400.615463,148.041188,76.609550
4131.979947,-9844.739029,592.164754,-842.705048
4131.980277,-9548.656652,518.144159,-1455.581446
4131.980607,-9844.739029,814.226536,-766.095498
4131.980936,-9770.718434,962.267725,383.047749
4131.981266,-10436.903782,444.123565,995.924147
4131.981596,-10288.862594,592.164754,842.705048
4131.981925,-9992.780217,518.144159,-612.876398
4131.982255,-10066.800811,0.000000,-689.485948
4131.982585,-9252.574275,-296.082377,0.000000
4131.982915,-9252.574275,-74.020594,919.314598
4131.983244,-9400.615463,296.082377,1302.362347
4131.983574,-9918.759623,222.061783,919.314598
4131.983904,-9918.759623,74.020594,0.000000
4131.984234,-9696.697840,74.020594,-842.705048
4131.984563,-9844.739029,444.123565,0.000000
4131.984893,-10436.903782,148.041188,229.828649
4131.985223,-9696.697840,370.102971,1302.362347
4131.985552,-9844.739029,0.000000,842.705048
4131.985882,-9400.615463,0.000000,0.000000
4131.986212,-9622.677246,0.000000,-1072.533697
4131.986542,-9696.697840,148.041188,-919.314598
4131.986871,-9622.677246,0.000000,0.000000
4131.987201,-9548.656652,0.000000,842.705048
4131.987531,-10066.800811,296.082377,1225.752797
4131.987860,-10140.821405,0.000000,1149.143247
4131.988190,-10214.842000,0.000000,229.828649
4131.988520,-10362.883188,0.000000,-459.657299
4131.988850,-10362.883188,222.061783,0.000000
4131.989179,-9326.594869,0.000000,383.047749
4131.989509,-9178.553681,148.041188,612.876398
4131.989839,-9696.697840,-296.082377,76.609550
4131.990169,-10658.965565,444.123565,0.000000
4131.990498,-9918.759623,222.061783,0.000000
4131.990828,-9178.553681,148.041188,153.219100
4131.991158,-9918.759623,296.082377,612.876398
4131.991487,-10732.986159,370.102971,1532.190996
4131.991817,-11029.068536,222.061783,842.705048
4131.992147,-9992.780217,222.061783,0.000000
4131.992477,-9474.636058,74.020594,-536.266849
4131.992806,-9548.656652,0.000000,-612.876398
4131.993136,-9696.697840,-296.082377,-459.657299
4131.993466,-9178.553681,-296.082377,306.438199
4131.993795,-9400.615463,148.041188,1225.752797
4131.994125,-9992.780217,-518.144159,1455.581446
4131.994455,-10288.862594,-592.164754,995.924147
4131.994785,-10214.842000,-888.247130,0.000000
4131.995114,-9252.574275,-518.144159,306.438199
4131.995444,-9030.512492,-666.185348,1149.143247
4131.995774,-9178.553681,-296.082377,1225.752797
4131.996103,-9548.656652,-222.061783,842.705048
4131.996433,-10140.821405,222.061783,306.438199
4131.996763,-9992.780217,444.123565,-766.095498
4131.997093,-9918.759623,0.000000,-766.095498
4131.997422,-9770.718434,-444.123565,0.000000
4131.997752,-8808.450710,-740.205942,153.219100
4131.998082,-9326.594869,-444.123565,383.047749
4131.998412,-9622.677246,-518.144159,153.219100
4131.998741,-10288.862594,-370.102971,229.828649
4131.999071,-9844.739029,-518.144159,0.000000
4131.999401,-9474.636058,74.020594,0.000000
4131.999730,-9844.739029,-74.020594,383.047749
4132.000060,-9918.759623,370.102971,1608.800546
4132.000390,-10584.944971,0.000000,766.095498
4132.000720,-10510.924376,74.020594,153.219100
4132.001049,-10436.903782,0.000000,-383.047749
4132.001379,-9548.656652,0.000000,-612.876398
4132.001709,-9474.636058,296.082377,0.000000
4132.002038,-9474.636058,222.061783,919.314598
4132.002368,-10436.903782,0.000000,919.314598
4132.002698,-10584.944971,518.144159,536.266849
4132.003028,-10807.006753,444.123565,-1149.143247
4132.003357,-10436.903782,222.061783,-1225.752797
4132.003687,-9992.780217,370.102971,0.000000
4132.004017,-9696.697840,0.000000,995.924147
4132.004346,-9252.574275,296.082377,1762.019645
4132.004676,-9326.594869,296.082377,1225.752797
4132.005006,-10140.821405,148.041188,229.828649
4132.005336,-10510.924376,74.020594,153.219100
4132.005665,-9770.718434,296.082377,0.000000
4132.005995,-9548.656652,-222.061783,306.438199
4132.006325,-9326.594869,0.000000,1072.533697
4132.006654,-9252.574275,0.000000,1685.410096
4132.006984,-9548.656652,0.000000,612.876398
4132.007314,-9178.553681,222.061783,-229.828649
4132.007644,-9474.636058,814.226536,-1378.971896
4132.007973,-9326.594869,592.164754,-842.705048
4132.008303,-9918.759623,1184.329507,153.219100
4132.008633,-10881.027347,592.164754,995.924147
4132.008962,-10140.821405,518.144159,0.000000
4132.009292,-9548.656652,222.061783,-612.876398
4132.009622,-9474.636058,148.041188,-766.095498
4132.009952,-8882.471304,0.000000,0.000000
4132.010281,-8438.347739,0.000000,306.438199
4132.010611,-8956.491898,592.164754,1225.752797
4132.010941,-10362.883188,222.061783,995.924147
4132.011270,-11029.068536,296.082377,1072.533697
4132.011600,-11029.068536,222.061783,306.438199
4132.011930,-10436.903782,296.082377,-306.438199
4132.012260,-9548.656652,-222.061783,-383.047749
4132.012589,-8882.471304,370.102971,229.828649
4132.012919,-9844.739029,222.061783,612.876398
4132.013249,-10140.821405,222.061783,383.047749
4132.013579,-10214.842000,370.102971,-306.438199
4132.013908,-10362.883188,74.020594,-689.485948
4132.014238,-9474.636058,0.000000,0.000000
4132.014568,-9178.553681,-518.144159,153.219100
4132.014897,-9770.718434,0.000000,1149.143247
4132.015227,-10584.944971,-518.144159,1378.971896
4132.015557,-10510.924376,-370.102971,612.876398
4132.015887,-9548.656652,-666.185348,76.609550
4132.016216,-9696.697840,-370.102971,0.000000
4132.016546,-9548.656652,-370.102971,383.047749
4132.016876,-9474.636058,148.041188,1072.533697
4132.017205,-10436.903782,-222.061783,306.438199
4132.017535,-10436.903782,-444.123565,383.047749
4132.017865,-9104.533087,-666.185348,0.000000
4132.018195,-9178.553681,-666.185348,0.000000
4132.018524,-9844.739029,-518.144159,0.000000
4132.018854,-9474.636058,-814.226536,919.314598
4132.019184,-9326.594869,-888.247130,1378.971896
4132.019513,-9992.780217,-296.082377,919.314598
4132.019843,-10584.944971,-296.082377,459.657299
4132.020173,-10881.027347,0.000000,153.219100
4132.020503,-9474.636058,222.061783,-229.828649
4132.020832,-9252.574275,0.000000,-536.266849
4132.021162,-9474.636058,444.123565,0.000000
4132.021492,-10214.842000,-296.082377,-229.828649
4132.021821,-9992.780217,74.020594,-536.266849
4132.022151,-9696.697840,74.020594,-689.485948
4132.022481,-10066.800811,0.000000,-306.438199
4132.022811,-9770.718434,0.000000,-306.438199
4132.023140,-9178.553681,444.123565,0.000000
4132.023470,-10066.800811,148.041188,229.828649
4132.023800,-10732.986159,222.061783,536.266849
4132.024129,-10362.883188,148.041188,153.219100
4132.024459,-10362.883188,296.082377,0.000000
4132.024789,-9104.533087,222.061783,-459.657299
4132.025119,-8956.491898,0.000000,76.609550
4132.025448,-9400.615463,370.102971,919.314598
4132.025778,-9844.739029,370.102971,1225.752797
4132.026108,-9770.718434,666.185348,0.000000
4132.026437,-9844.739029,0.000000,-459.657299
4132.026767,-9844.739029,518.144159,-612.876398
4132.027097,-9400.615463,296.082377,0.000000
4132.027427,-9844.739029,814.226536,612.876398
4132.027756,-9622.677246,592.164754,842.705048
4132.028086,-9474.636058,592.164754,383.047749
4132.028416,-10214.842000,1036.288319,306.438199
4132.028746,-10584.944971,444.123565,0.000000
4132.029075,-10140.821405,0.000000,76.609550
4132.029405,-9326.594869,296.082377,766.095498
4132.029735,-9252.574275,148.041188,612.876398
4132.030064,-9326.594869,222.061783,842.705048
4132.030394,-8956.491898,148.041188,459.657299
4132.030724,-9474.636058,370.102971,0.000000
4132.031054,-9326.594869,592.164754,-766.095498
4132.031383,-9992.780217,740.205942,-766.095498
4132.031713,-10732.986159,1184.329507,0.000000
4132.032043,-10066.800811,222.061783,612.876398
4132.032372,-9474.636058,296.082377,459.657299
4132.032702,-10066.800811,518.144159,0.000000
4132.033032,-9622.677246,0.000000,-229.828649
4132.033362,-9622.677246,-74.020594,0.000000
4132.033691,-9770.718434,0.000000,76.609550
4132.034021,-10066.800811,-370.102971,612.876398
4132.034351,-9770.718434,-444.123565,1685.410096
4132.034680,-9770.718434,-740.205942,919.314598
4132.035010,-9918.759623,0.000000,459.657299
4132.035340,-9696.697840,222.061783,0.000000
4132.035670,-9992.780217,0.000000,-1225.752797
4132.035999,-8438.347739,0.000000,-306.438199
4132.036329,-9548.656652,0.000000,1532.190996
4132.036659,-10807.006753,-296.082377,1302.362347
4132.036988,-10362.883188,-296.082377,153.219100
4132.037318,-9844.739029,-370.102971,-306.438199
4132.037648,-9252.574275,-370.102971,-689.485948
4132.037978,-10436.903782,0.000000,-229.828649
4132.038307,-11399.171507,-518.144159,1225.752797
4132.038637,-10214.842000,-148.041188,1838.629195
4132.038967,-9178.553681,-370.102971,1838.629195
4132.039296,-9770.718434,-518.144159,229.828649
4132.039626,-9770.718434,-1184.329507,-229.828649
4132.039956,-9844.739029,-222.061783,-383.047749
4132.040286,-10214.842000,-296.082377,536.266849
4132.040615,-9844.739029,-888.247130,1302.362347
4132.040945,-9474.636058,-814.226536,1685.410096
4132.041275,-9474.636058,-888.247130,1149.143247
4132.041604,-9178.553681,-666.185348,-306.438199
4132.041934,-9252.574275,-518.144159,-536.266849
4132.042264,-9474.636058,0.000000,766.095498
4132.042594,-10362.883188,-370.102971,1455.581446
4132.042923,-9844.739029,0.000000,766.095498
4132.043253,-9844.739029,0.000000,-76.609550
4132.043583,-9326.594869,0.000000,-1225.752797
4132.043913,-8956.491898,-74.020594,-1455.581446
4132.044242,-9252.574275,74.020594,-995.924147
4132.044572,-9696.697840,74.020594,306.438199
4132.044902,-9918.759623,0.000000,1225.752797
4132.045231,-9474.636058,0.000000,229.828649
4132.045561,-9696.697840,148.041188,-459.657299
4132.045891,-10807.006753,518.144159,-459.657299
4132.046221,-10362.883188,-592.164754,229.828649
4132.046550,-9030.512492,0.000000,1072.533697
4132.046880,-8734.430116,148.041188,1378.971896
4132.047210,-9622.677246,888.247130,1915.238745
4132.047539,-10362.883188,740.205942,612.876398
4132.047869,-10584.944971,962.267725,-1225.752797
4132.048199,-10288.862594,592.164754,-2451.505594
4132.048529,-9474.636058,444.123565,-1378.971896
4132.048858,-9400.615463,0.000000,459.657299
4132.049188,-9326.594869,296.082377,536.266849
4132.049518,-9622.677246,518.144159,459.657299
4132.049847,-10066.800811,296.082377,0.000000
4132.050177,-10066.800811,0.000000,229.828649
4132.050507,-10288.862594,444.123565,1072.533697
4132.050837,-10584.944971,370.102971,1838.629195
4132.051166,-10066.800811,74.020594,2298.286494
4132.051496,-9770.718434,0.000000,995.924147
4132.051826,-9696.697840,0.000000,-306.438199
4132.052155,-9474.636058,296.082377,-1302.362347
4132.052485,-9474.636058,518.144159,-1532.190996
4132.052815,-9252.574275,666.185348,-459.657299
4132.053145,-9400.615463,518.144159,1149.143247
4132.053474,-10140.821405,518.144159,1225.752797
4132.053804,-10214.842000,296.082377,306.438199
4132.054134,-10362.883188,222.061783,-383.047749
4132.054463,-9918.759623,-370.102971,-919.314598
4132.054793,-9104.533087,0.000000,153.219100
4132.055123,-9622.677246,74.020594,1378.971896
4132.055453,-9770.718434,444.123565,1608.800546
4132.055782,-9548.656652,0.000000,1072.533697
4132.056112,-10066.800811,666.185348,-459.657299
4132.056442,-9844.739029,-296.082377,-1149.143247
4132.056771,-10140.821405,0.000000,-612.876398
4132.057101,-9252.574275,370.102971,1225.752797
4132.057431,-9400.615463,0.000000,842.705048
4132.057761,-9474.636058,148.041188,536.266849
4132.058090,-9992.780217,-296.082377,-383.047749
4132.058420,-10436.903782,0.000000,0.000000
4132.058750,-10362.883188,0.000000,-229.828649
4132.059080,-10214.842000,-148.041188,76.609550
4132.059409,-10066.800811,-592.164754,1532.190996
4132.059739,-9696.697840,-296.082377,1762.019645
4132.060069,-9326.594869,0.000000,1225.752797
4132.060398,-9400.615463,0.000000,-536.266849
4132.060728,-9548.656652,0.000000,-919.314598
4132.061058,-9918.759623,0.000000,-842.705048
4132.061388,-10066.800811,0.000000,306.438199
4132.061717,-9992.780217,0.000000,842.705048
4132.062047,-9104.533087,0.000000,153.219100
4132.062377,-9252.574275,-370.102971,-536.266849
4132.062706,-10288.862594,-222.061783,-689.485948
4132.063036,-9622.677246,0.000000,-306.438199
4132.063366,-9474.636058,-222.061783,229.828649
4132.063696,-9400.615463,0.000000,766.095498
4132.064025,-9622.677246,-148.041188,536.266849
4132.064355,-9770.718434,-222.061783,229.828649
4132.064685,-9548.656652,-518.144159,0.000000
4132.065014,-10066.800811,0.000000,-76.609550
4132.065344,-10214.842000,0.000000,153.219100
4132.065674,-10140.821405,0.000000,1302.362347
4132.066004,-9548.656652,-296.082377,1762.019645
4132.066333,-9474.636058,74.020594,612.876398
4132.066663,-10807.006753,222.061783,-459.657299
4132.066993,-9548.656652,-296.082377,-1378.971896
4132.067322,-8290.306550,0.000000,-1225.752797
4132.067652,-9030.512492,0.000000,306.438199
4132.067982,-10362.883188,0.000000,1915.238745
4132.068312,-11473.192101,148.041188,1762.019645
4132.068641,-10288.862594,-444.123565,689.485948
4132.068971,-8956.491898,-296.082377,-383.047749
4132.069301,-9400.615463,222.061783,0.000000
4132.069630,-9770.718434,74.020594,459.657299
4132.069960,-9770.718434,0.000000,1991.848295
4132.070290,-9326.594869,370.102971,1455.581446
4132.070620,-9548.656652,148.041188,612.876398
4132.070949,-11177.109724,222.061783,76.609550
4132.071279,-10066.800811,222.061783,-229.828649
4132.071609,-8882.471304,-444.123565,-1072.533697
4132.071938,-9178.553681,370.102971,76.609550
4132.072268,-9992.780217,222.061783,995.924147
4132.072598,-10066.800811,74.020594,229.828649
4132.072928,-9474.636058,370.102971,-459.657299
4132.073257,-9474.636058,222.061783,-1225.752797
4132.073587,-10658.965565,518.144159,-995.924147
4132.073917,-10288.862594,444.123565,229.828649
4132.074247,-9474.636058,0.000000,612.876398
4132.074576,-8956.491898,222.061783,612.876398
4132.074906,-9992.780217,370.102971,0.000000
4132.075236,-10362.883188,74.020594,-842.705048
4132.075565,-9548.656652,-666.185348,-612.876398
4132.075895,-9696.697840,0.000000,0.000000
4132.076225,-10732.986159,0.000000,1072.533697
4132.076555,-9696.697840,0.000000,1072.533697
4132.076884,-8882.471304,296.082377,306.438199
4132.077214,-9030.512492,518.144159,0.000000
4132.077544,-10140.821405,592.164754,0.000000
4132.077873,-10807.006753,518.144159,-306.438199
4132.078203,-9918.759623,296.082377,0.000000
4132.078533,-9992.780217,-148.041188,919.314598
4132.078863,-9918.759623,-222.061783,1072.533697
4132.079192,-9696.697840,-666.185348,766.095498
4132.079522,-9030.512492,-666.185348,-306.438199
4132.079852,-8734.430116,0.000000,-612.876398
4132.080181,-9474.636058,296.082377,306.438199
4132.080511,-10584.944971,148.041188,1302.362347
4132.080841,-10436.903782,592.164754,1378.971896
4132.081171,-9844.739029,666.185348,995.924147
4132.081500,-10584.944971,592.164754,-76.609550
4132.081830,-10288.862594,296.082377,-1149.143247
4132.082160,-9474.636058,-296.082377,-995.924147
4132.082489,-8512.368333,0.000000,-229.828649
4132.082819,-8734.430116,0.000000,766.095498
4132.083149,-9252.574275,444.123565,689.485948
4132.083479,-9992.780217,296.082377,0.000000
4132.083808,-10807.006753,814.226536,-1072.533697
4132.084138,-11103.089130,74.020594,-1302.362347
4132.084468,-11177.109724,222.061783,76.609550
4132.084797,-10658.965565,-370.102971,1378.971896
4132.085127,-9104.533087,-222.061783,1915.238745
4132.085457,-8586.388927,-518.144159,1685.410096
4132.085787,-9104.533087,-296.082377,229.828649
4132.086116,-9474.636058,74.020594,-842.705048
4132.086446,-9696.697840,-74.020594,-689.485948
4132.086776,-10510.924376,148.041188,1149.143247
4132.087105,-10362.883188,222.061783,1838.629195
4132.087435,-10066.800811,0.000000,1225.752797
4132.087765,-9400.615463,-222.061783,-306.438199
4132.088095,-9622.677246,0.000000,-842.705048
4132.088424,-10436.903782,370.102971,-1608.800546
4132.088754,-10214.842000,222.061783,-1149.143247
4132.089084,-9252.574275,-296.082377,76.609550
4132.089414,-8438.347739,74.020594,919.314598
4132.089743,-9696.697840,370.102971,1149.143247
4132.090073,-9918.759623,222.061783,-612.876398
4132.090403,-9400.615463,-222.061783,-1532.190996
4132.090732,-9474.636058,222.061783,-1149.143247
4132.091062,-9474.636058,0.000000,-383.047749
4132.091392,-10214.842000,740.205942,842.705048
4132.091722,-9992.780217,740.205942,383.047749
4132.092051,-9622.677246,1332.370696,-995.924147
4132.092381,-10584.944971,888.247130,-1915.238745
4132.092711,-11103.089130,1184.329507,-2145.067394
4132.093040,-9992.780217,1110.308913,-1608.800546
4132.093370,-9030.512492,1258.350101,-995.924147
4132.093700,-9030.512492,1110.308913,-919.314598
4132.094030,-9104.533087,1554.432478,-766.095498
4132.094359,-9548.656652,1702.473667,-2374.896044
4132.094689,-10066.800811,1554.432478,-3370.820191
4132.095019,-10436.903782,2146.597232,-3140.991542
4132.095349,-9918.759623,1924.535449,-1608.800546
4132.095679,-9992.780217,2146.597232,-766.095498
4132.096008,-9918.759623,2072.576638,-459.657299
4132.096338,-9548.656652,1776.494261,-1991.848295
4132.096668,-9474.636058,1776.494261,-2757.943793
4132.096998,-8660.409521,1702.473667,-2604.724693
4132.097327,-9474.636058,1702.473667,-2068.457845
4132.097657,-9474.636058,1924.535449,-1302.362347
4132.097987,-9474.636058,2590.720797,-1072.533697
4132.098317,-8734.430116,2590.720797,-2298.286494
4132.098647,-9326.594869,3256.906145,-4596.572988
4132.098976,-9918.759623,3849.070898,-4136.915689
4132.099306,-10881.027347,3775.050304,-3447.429741
4132.099636,-11177.109724,3478.967927,-1302.362347
4132.099966,-10214.842000,2812.782580,-1302.362347
4132.100296,-9696.697840,2294.638420,-1225.752797
4132.100625,-8882.471304,2368.659014,-995.924147
4132.100955,-8364.327145,1850.514855,-1532.190996
4132.101285,-9178.553681,2516.700203,-1915.238745
4132.101615,-9104.533087,2590.720797,-1225.752797
4132.101945,-9696.697840,3108.864956,-919.314598
4132.102274,-9918.759623,3923.091493,-919.314598
4132.102604,-11251.130318,3330.926739,-3140.991542
4132.102934,-11473.192101,4071.132681,-4060.306139
4132.103264,-9918.759623,3256.906145,-3677.258390
4132.103593,-9400.615463,3108.864956,-2528.115143
4132.103923,-9326.594869,3108.864956,-2068.457845
4132.104253,-9770.718434,3627.009116,-1685.410096
4132.104583,-9326.594869,2960.823768,-2145.067394
4132.104913,-9104.533087,2590.720797,-2911.162892
4132.105242,-10362.883188,2516.700203,-2528.115143
4132.105572,-10658.965565,2590.720797,-2298.286494
4132.105902,-9548.656652,1924.535449,-2221.676944
4132.106232,-8438.347739,1702.473667,-1608.800546
4132.106562,-8882.471304,2220.617826,0.000000
4132.106891,-9622.677246,2738.761985,0.000000
4132.107221,-11103.089130,2738.761985,-995.924147
4132.107551,-10066.800811,3034.844362,-2068.457845
4132.107881,-9992.780217,2516.700203,-2068.457845
4132.108211,-10732.986159,3330.926739,-1991.848295
4132.108540,-10066.800811,2220.617826,-2298.286494
4132.108870,-9252.574275,1850.514855,-3830.477490
4132.109200,-7846.182985,1554.432478,-4673.182538
4132.109530,-8216.285956,1110.308913,-3294.210641
4132.109860,-9252.574275,1110.308913,-1225.752797
4132.110189,-9474.636058,1110.308913,-76.609550
4132.110519,-8586.388927,1184.329507,383.047749
4132.110849,-9252.574275,814.226536,-306.438199
4132.111179,-10510.924376,1776.494261,-766.095498
4132.111508,-11325.150913,1332.370696,536.266849
4132.111838,-10955.047942,3108.864956,-153.219100
4132.112168,-8364.327145,1554.432478,-2068.457845
4132.112498,-10807.006753,222.061783,-2221.676944
4132.112828,-9918.759623,1110.308913,-2451.505594
4132.113157,-9622.677246,1480.411884,-2374.896044
4132.113487,-10362.883188,814.226536,-2911.162892
4132.113817,-9252.574275,1258.350101,-3064.381992
4132.114147,-8882.471304,1406.391290,-3140.991542
4132.114477,-9252.574275,1184.329507,-2374.896044
4132.114806,-10362.883188,1998.556043,-919.314598
4132.115136,-10807.006753,1554.432478,-995.924147
4132.115466,-10732.986159,1480.411884,-2221.676944
4132.115796,-10510.924376,814.226536,-2221.676944
4132.116126,-10362.883188,888.247130,-536.266849
4132.116455,-9992.780217,1036.288319,-306.438199
4132.116785,-9030.512492,592.164754,-766.095498
4132.117115,-8438.347739,814.226536,-1608.800546
4132.117445,-8882.471304,1480.411884,-2604.724693
4132.117774,-9548.656652,1850.514855,-1762.019645
4132.118104,-9918.759623,2516.700203,-383.047749
4132.118434,-9918.759623,2516.700203,-1915.238745
4132.118764,-10140.821405,1998.556043,-3524.039291
4132.119094,-10214.842000,2220.617826,-4060.306139
4132.119423,-9400.615463,2590.720797,-2834.553343
4132.119753,-9030.512492,1702.473667,-1762.019645
4132.120083,-9178.553681,1406.391290,-1072.533697
4132.120413,-9326.594869,1406.391290,-383.047749
4132.120743,-9400.615463,1628.453072,-459.657299
4132.121072,-9622.677246,1924.535449,-842.705048
4132.121402,-9992.780217,2220.617826,-1302.362347
4132.121732,-10436.903782,2590.720797,-1455.581446
4132.122062,-9844.739029,2516.700203,-1532.190996
4132.122392,-9622.677246,3256.906145,-2528.115143
4132.122721,-10140.821405,3182.885551,-1838.629195
4132.123051,-10140.821405,2960.823768,-3370.820191
4132.123381,-9104.533087,2812.782580,-3753.867940
4132.123711,-8586.388927,2960.823768,-2911.162892
4132.124041,-9770.718434,2664.741391,-1455.581446
4132.124370,-10066.800811,2812.782580,0.000000
4132.124700,-9400.615463,2368.659014,-1378.971896
4132.125030,-9030.512492,2812.782580,-3140.991542
4132.125360,-9178.553681,3108.864956,-3524.039291
4132.125689,-10658.965565,3034.844362,-2528.115143
4132.126019,-10955.047942,3478.967927,-1532.190996
4132.126349,-9696.697840,3330.926739,-766.095498
4132.126679,-9548.656652,3034.844362,-1149.143247
4132.127009,-10436.903782,3256.906145,-2451.505594
4132.127338,-10362.883188,2886.803174,-2987.772442
4132.127668,-9474.636058,2812.782580,-2834.553343
4132.127998,-9178.553681,2738.761985,-1838.629195
4132.128328,-8660.409521,2294.638420,-1532.190996
4132.128658,-8290.306550,2368.659014,-1532.190996
4132.128987,-9400.615463,2442.679609,-1685.410096
4132.129317,-10362.883188,2812.782580,-3140.991542
4132.129647,-10066.800811,2738.761985,-3524.039291
4132.129977,-10140.821405,2812.782580,-2987.772442
4132.130307,-9844.739029,2664.741391,-2374.896044
4132.130636,-10140.821405,2664.741391,-1072.533697
4132.130966,-10214.842000,2220.617826,0.000000
4132.131296,-9992.780217,1924.535449,-1378.971896
4132.131626,-9622.677246,1406.391290,-2451.505594
4132.131955,-9326.594869,1554.432478,-2451.505594
4132.132285,-9696.697840,1924.535449,-1685.410096
4132.132615,-9252.574275,1332.370696,-1762.019645
4132.132945,-8364.327145,1406.391290,-1915.238745
4132.133275,-8808.450710,1702.473667,-1838.629195
4132.133604,-10288.862594,2368.659014,-1302.362347
4132.133934,-11103.089130,2442.679609,-1685.410096
4132.134264,-10658.965565,2294.638420,-2451.505594
4132.134594,-10214.842000,1924.535449,-1991.848295
4132.134924,-10066.800811,1628.453072,-995.924147
4132.135253,-10436.903782,1184.329507,-689.485948
4132.135583,-9696.697840,962.267725,-1455.581446
4132.135913,-8808.450710,666.185348,-2374.896044
4132.136243,-8512.368333,592.164754,-1915.238745
4132.136573,-9400.615463,1258.350101,-1072.533697
4132.136902,-9844.739029,1406.391290,-842.705048
4132.137232,-10362.883188,1554.432478,-1225.752797
4132.137562,-10955.047942,1332.370696,-1378.971896
4132.137892,-10510.924376,1258.350101,-842.705048
4132.138222,-10658.965565,1258.350101,306.438199
4132.138551,-10140.821405,962.267725,76.609550
4132.138881,-9696.697840,666.185348,-459.657299
4132.139211,-9252.574275,518.144159,-995.924147
4132.139541,-9696.697840,518.144159,-1378.971896
4132.139870,-9474.636058,740.205942,-1608.800546
4132.140200,-9474.636058,814.226536,-2451.505594
4132.140530,-9178.553681,1184.329507,-2681.334243
4132.140860,-9030.512492,1036.288319,-2451.505594
4132.141190,-9400.615463,962.267725,-1378.971896
4132.141519,-10436.903782,1184.329507,-459.657299
4132.141849,-10584.944971,1036.288319,-1225.752797
4132.142179,-9770.718434,814.226536,-2528.115143
4132.142509,-8882.471304,962.267725,-3447.429741
4132.142839,-9104.533087,740.205942,-2757.943793
4132.143168,-9326.594869,740.205942,-1225.752797
4132.143498,-9252.574275,1036.288319,-766.095498
4132.143828,-8808.450710,1406.391290,-1608.800546
4132.144158,-8808.450710,1480.411884,-2604.724693
4132.144488,-9770.718434,1702.473667,-2834.553343
4132.144817,-10658.965565,2368.659014,-2451.505594
4132.145147,-10658.965565,2294.638420,-3524.039291
4132.145477,-9918.759623,2664.741391,-2834.553343
4132.145807,-9992.780217,2442.679609,-1915.238745
4132.146136,-10288.862594,2368.659014,-1302.362347
4132.146466,-10584.944971,2368.659014,-1378.971896
4132.146796,-10288.862594,2220.617826,-2221.676944
4132.147126,-9548.656652,2516.700203,-2528.115143
4132.147456,-9326.594869,2738.761985,-2221.676944
4132.147785,-9400.615463,2738.761985,-2145.067394
4132.148115,-9326.594869,2960.823768,-2451.505594
4132.148445,-9548.656652,3034.844362,-2451.505594
4132.148775,-9844.739029,3256.906145,-2451.505594
4132.149105,-10436.903782,3552.988522,-1838.629195
4132.149434,-10732.986159,3627.009116,-1762.019645
4132.149764,-9844.739029,3849.070898,-1838.629195
4132.150094,-9844.739029,3627.009116,-2834.553343
4132.150424,-9844.739029,3478.967927,-3064.381992
4132.150754,-9770.718434,3330.926739,-1762.019645
4132.151083,-10066.800811,3552.988522,-1302.362347
4132.151413,-9474.636058,3552.988522,-2451.505594
4132.151743,-8290.306550,3478.967927,-3907.087040
4132.152073,-8512.368333,3552.988522,-3753.867940
4132.152403,-9844.739029,3923.091493,-2911.162892
4132.152732,-10584.944971,3923.091493,-1302.362347
4132.153062,-9844.739029,3701.029710,-1149.143247
4132.153392,-9326.594869,3182.885551,-1149.143247
4132.153722,-9474.636058,3182.885551,-995.924147
4132.154051,-10436.903782,3034.844362,-689.485948
4132.154381,-9918.759623,3034.844362,-1762.019645
4132.154711,-8956.491898,3108.864956,-2604.724693
4132.155041,-8512.368333,3256.906145,-3217.601092
4132.155371,-8956.491898,3034.844362,-2834.553343
4132.155700,-10288.862594,3849.070898,-2298.286494
4132.156030,-10066.800811,3404.947333,-2757.943793
4132.156360,-9326.594869,3108.864956,-2451.505594
4132.156690,-10066.800811,2886.803174,-1455.581446
4132.157020,-10584.944971,2442.679609,0.000000
4132.157349,-10584.944971,2368.659014,0.000000
4132.157679,-9474.636058,1702.473667,-1378.971896
4132.158009,-8364.327145,1258.350101,-2834.553343
4132.158339,-8734.430116,888.247130,-2145.067394
4132.158669,-9770.718434,1332.370696,-459.657299
4132.158998,-9252.574275,962.267725,0.000000
4132.159328,-9104.533087,1554.432478,-612.876398
4132.159658,-9400.615463,1480.411884,-2451.505594
4132.159988,-10362.883188,1628.453072,-2681.334243
4132.160317,-11325.150913,1702.473667,-2757.943793
4132.160647,-10066.800811,1258.350101,-1149.143247
4132.160977,-9474.636058,592.164754,-842.705048
4132.161307,-8956.491898,518.144159,-1838.629195
4132.161637,-9400.615463,148.041188,-3064.381992
4132.161966,-8586.388927,-518.144159,-3294.210641
4132.162296,-9030.512492,-296.082377,-2298.286494
4132.162626,-9474.636058,-370.102971,-995.924147
4132.162956,-9992.780217,-296.082377,536.266849
4132.163286,-10362.883188,0.000000,1149.143247
4132.163615,-10288.862594,592.164754,-536.266849
4132.163945,-10066.800811,666.185348,-2604.724693
4132.164275,-10732.986159,1036.288319,-2757.943793
4132.164605,-10288.862594,1036.288319,-1838.629195
4132.164935,-10658.965565,370.102971,-1072.533697
