#time,accel_x,accel_y,accel_z
3800.379572,-10140.821405,148.041188,919.314598
3800.379902,-9918.759623,0.000000,153.219100
3800.380232,-9696.697840,0.000000,153.219100
3800.380562,-9474.636058,148.041188,0.000000
3800.380892,-10066.800811,370.102971,383.047749
3800.381223,-9770.718434,222.061783,76.609550
3800.381553,-9844.739029,74.020594,0.000000
3800.381883,-9770.718434,-74.020594,383.047749
3800.382213,-9548.656652,-222.061783,612.876398
3800.382543,-10140.821405,-296.082377,229.828649
3800.382873,-10140.821405,-296.082377,459.657299
3800.383203,-9770.718434,-222.061783,-306.438199
3800.383533,-9622.677246,0.000000,-689.485948
3800.383863,-9918.759623,148.041188,-306.438199
3800.384194,-9770.718434,-296.082377,-612.876398
3800.384524,-9992.780217,-74.020594,-229.828649
3800.384854,-9696.697840,-444.123565,153.219100
3800.385184,-9992.780217,-444.123565,842.705048
3800.385514,-9474.636058,-814.226536,-383.047749
3800.385844,-9622.677246,-444.123565,-919.314598
3800.386174,-9474.636058,-518.144159,-536.266849
3800.386504,-9844.739029,-592.164754,-842.705048
3800.386835,-10510.924376,-370.102971,0.000000
3800.387165,-10288.862594,-370.102971,459.657299
3800.387495,-10362.883188,-370.102971,306.438199
3800.387825,-10066.800811,-444.123565,-536.266849
3800.388155,-10140.821405,-370.102971,-1532.190996
3800.388485,-10066.800811,-518.144159,-1915.238745
3800.388815,-9326.594869,-888.247130,-2374.896044
3800.389145,-9548.656652,-1258.350101,-1455.581446
3800.389476,-9252.574275,-370.102971,0.000000
3800.389806,-9326.594869,-1258.350101,0.000000
3800.390136,-9474.636058,-740.205942,-153.219100
3800.390466,-9918.759623,-666.185348,-766.095498
3800.390796,-10288.862594,-370.102971,-229.828649
3800.391126,-10436.903782,-444.123565,-1149.143247
3800.391456,-10510.924376,-592.164754,-1302.362347
3800.391786,-10658.965565,-666.185348,-1149.143247
3800.392117,-10436.903782,-592.164754,-1608.800546
3800.392447,-10436.903782,-1332.370696,-2451.505594
3800.392777,-9992.780217,-1480.411884,-2757.943793
3800.393107,-9548.656652,-1776.494261,-2451.505594
3800.393437,-9474.636058,-1998.556043,-2221.676944
3800.393767,-8586.388927,-2220.617826,-2298.286494
3800.394097,-8290.306550,-1776.494261,-1838.629195
3800.394427,-8882.471304,-1332.370696,-919.314598
3800.394757,-9844.739029,-1036.288319,-383.047749
3800.395088,-10584.944971,-888.247130,-76.609550
3800.395418,-11177.109724,-1184.329507,0.000000
3800.395748,-11695.253884,-1332.370696,-383.047749
3800.396078,-11917.315666,-1850.514855,-919.314598
3800.396408,-11547.212695,-2368.659014,-2757.943793
3800.396738,-10140.821405,-2664.741391,-4673.182538
3800.397068,-8216.285956,-3330.926739,-4673.182538
3800.397398,-6883.915261,-3404.947333,-3140.991542
3800.397729,-7698.141797,-2590.720797,-766.095498
3800.398059,-9030.512492,-1110.308913,-842.705048
3800.398389,-9918.759623,-1110.308913,-2145.067394
3800.398719,-10658.965565,-1110.308913,-3983.696590
3800.399049,-11621.233289,-2368.659014,-5056.230287
3800.399379,-11843.295072,-3849.070898,-3753.867940
3800.399709,-10732.986159,-5033.400406,-2604.724693
3800.400039,-8660.409521,-5995.668130,-1532.190996
3800.400370,-6957.935855,-5551.544565,-1685.410096
3800.400700,-6883.915261,-5181.441594,-2298.286494
3800.401030,-8142.265362,-3330.926739,-2604.724693
3800.401360,-9474.636058,-2368.659014,-1991.848295
3800.401690,-10732.986159,-1184.329507,-1225.752797
3800.402020,-11695.253884,-962.267725,-2221.676944
3800.402350,-11177.109724,-2220.617826,-3524.039291
3800.402680,-10807.006753,-3627.009116,-4979.620737
3800.403011,-9474.636058,-4737.318029,-5286.058936
3800.403341,-9474.636058,-5625.565159,-4060.306139
3800.403671,-8882.471304,-5625.565159,-2451.505594
3800.404001,-8438.347739,-4737.318029,0.000000
3800.404331,-7476.080014,-4219.173869,612.876398
3800.404661,-8882.471304,-2442.679609,612.876398
3800.404991,-11473.192101,-1924.535449,-536.266849
3800.405321,-12953.603985,-1776.494261,-2068.457845
3800.405652,-11843.295072,-2368.659014,-3064.381992
3800.405982,-10362.883188,-3701.029710,-2834.553343
3800.406312,-9474.636058,-4441.235652,-2221.676944
3800.406642,-9474.636058,-5107.421000,-1532.190996
3800.406972,-8808.450710,-4811.338623,-612.876398
3800.407302,-8364.327145,-3034.844362,-1685.410096
3800.407632,-7846.182985,-2220.617826,-2374.896044
3800.407962,-10955.047942,-1998.556043,-689.485948
3800.408292,-13027.624579,-888.247130,995.924147
3800.408623,-12213.398043,-666.185348,612.876398
3800.408953,-11177.109724,-2146.597232,-766.095498
3800.409283,-10288.862594,-2516.700203,-2221.676944
3800.409613,-9844.739029,-2664.741391,-2757.943793
3800.409943,-9696.697840,-2664.741391,-2068.457845
3800.410273,-10140.821405,-2294.638420,-1302.362347
3800.410603,-9622.677246,-2368.659014,-1608.800546
3800.410933,-8956.491898,-2590.720797,-1838.629195
3800.411264,-9104.533087,-2368.659014,-459.657299
3800.411594,-10362.883188,-1850.514855,459.657299
3800.411924,-9770.718434,-1628.453072,-1072.533697
3800.412254,-7846.182985,-2146.597232,-2451.505594
3800.412584,-7846.182985,-1184.329507,-2911.162892
3800.412914,-9696.697840,-1184.329507,-1915.238745
3800.413244,-10955.047942,-444.123565,0.000000
3800.413574,-11251.130318,-666.185348,-612.876398
3800.413905,-10436.903782,-296.082377,-2911.162892
3800.414235,-10140.821405,-1036.288319,-4443.353888
3800.414565,-10288.862594,-1406.391290,-5132.839837
3800.414895,-9918.759623,-1184.329507,-3370.820191
3800.415225,-9696.697840,-1036.288319,-1838.629195
3800.415555,-9770.718434,-666.185348,-2145.067394
3800.415885,-7994.224174,-666.185348,-3447.429741
3800.416215,-7105.977043,-740.205942,-4749.792088
3800.416546,-8364.327145,-222.061783,-2604.724693
3800.416876,-10362.883188,-444.123565,153.219100
3800.417206,-11103.089130,74.020594,459.657299
3800.417536,-11177.109724,-222.061783,-842.705048
3800.417866,-10510.924376,-740.205942,-2528.115143
3800.418196,-10510.924376,-740.205942,-3140.991542
3800.418526,-11399.171507,-1628.453072,-3447.429741
3800.418856,-10510.924376,-1554.432478,-2757.943793
3800.419186,-8808.450710,-1406.391290,-2911.162892
3800.419517,-7402.059420,-1776.494261,-1302.362347
3800.419847,-7994.224174,-1110.308913,-536.266849
3800.420177,-9844.739029,-1110.308913,-1149.143247
3800.420507,-10436.903782,-888.247130,-2145.067394
3800.420837,-9548.656652,-592.164754,-2145.067394
3800.421167,-9770.718434,-1332.370696,-306.438199
3800.421497,-11029.068536,-1480.411884,229.828649
3800.421827,-11769.274478,-1702.473667,-612.876398
3800.422158,-10955.047942,-2516.700203,-1991.848295
3800.422488,-9178.553681,-2738.761985,-2145.067394
3800.422818,-9844.739029,-2294.638420,-536.266849
3800.423148,-10881.027347,-2664.741391,0.000000
3800.423478,-9326.594869,-1850.514855,-689.485948
3800.423808,-7920.203579,-2146.597232,-2451.505594
3800.424138,-8438.347739,-2368.659014,-3447.429741
3800.424468,-10584.944971,-1998.556043,-2834.553343
3800.424799,-11029.068536,-2886.803174,-2145.067394
3800.425129,-8956.491898,-3404.947333,-1378.971896
3800.425459,-9178.553681,-3256.906145,-1685.410096
3800.425789,-9770.718434,-3330.926739,-1838.629195
3800.426119,-10732.986159,-3775.050304,-1225.752797
3800.426449,-11029.068536,-3552.988522,-689.485948
3800.426779,-9770.718434,-3404.947333,-1915.238745
3800.427109,-10436.903782,-3701.029710,-2757.943793
3800.427440,-9992.780217,-3552.988522,-2604.724693
3800.427770,-9104.533087,-3330.926739,-2528.115143
3800.428100,-9104.533087,-3552.988522,-3600.648841
3800.428430,-7846.182985,-3256.906145,-5209.449386
3800.428760,-8660.409521,-2886.803174,-4596.572988
3800.429090,-9992.780217,-2590.720797,-3140.991542
3800.429420,-11399.171507,-3108.864956,-1685.410096
3800.429750,-10436.903782,-3478.967927,-1838.629195
3800.430080,-9104.533087,-3923.091493,-2757.943793
3800.430411,-9918.759623,-4293.194464,-2298.286494
3800.430741,-10955.047942,-3330.926739,-612.876398
3800.431071,-10140.821405,-3849.070898,0.000000
3800.431401,-8512.368333,-2886.803174,-1532.190996
3800.431731,-7994.224174,-2590.720797,-3140.991542
3800.432061,-9474.636058,-2220.617826,-2451.505594
3800.432391,-11473.192101,-2220.617826,-1072.533697
3800.432721,-11399.171507,-1924.535449,-1149.143247
3800.433052,-9474.636058,-2442.679609,-2451.505594
3800.433382,-8882.471304,-2368.659014,-2987.772442
3800.433711,-8882.471304,-2738.761985,-2451.505594
3800.434041,-9770.718434,-2442.679609,-612.876398
3800.434371,-10140.821405,-2220.617826,306.438199
3800.434701,-11029.068536,-2146.597232,-153.219100
3800.435030,-10066.800811,-1702.473667,-689.485948
3800.435360,-9030.512492,-1702.473667,-1302.362347
3800.435690,-9548.656652,-1332.370696,-1225.752797
3800.436019,-9918.759623,-1036.288319,-1225.752797
3800.436349,-10214.842000,-1332.370696,-1378.971896
3800.436679,-10066.800811,-1628.453072,-1072.533697
3800.437008,-10066.800811,-1258.350101,-1072.533697
3800.437338,-10510.924376,-1628.453072,-1685.410096
3800.437668,-8586.388927,-2368.659014,-2834.553343
3800.437998,-8364.327145,-2146.597232,-2911.162892
3800.438327,-8438.347739,-2072.576638,-1838.629195
3800.438657,-8882.471304,-1258.350101,0.000000
3800.438987,-9400.615463,-740.205942,383.047749
3800.439316,-8142.265362,-740.205942,383.047749
3800.439646,-9474.636058,148.041188,842.705048
3800.439976,-12065.356855,666.185348,153.219100
3800.440306,-12213.398043,-370.102971,-1072.533697
3800.440635,-10362.883188,296.082377,-2068.457845
3800.440965,-9474.636058,-592.164754,-2451.505594
3800.441295,-9992.780217,-148.041188,-1608.800546
3800.441624,-9400.615463,-148.041188,306.438199
3800.441954,-8808.450710,1110.308913,-842.705048
3800.442284,-8808.450710,1036.288319,-1608.800546
3800.442613,-10140.821405,1554.432478,-1991.848295
3800.442943,-11029.068536,1184.329507,-1608.800546
3800.443273,-10658.965565,1184.329507,-459.657299
3800.443603,-9844.739029,814.226536,383.047749
3800.443932,-9992.780217,444.123565,0.000000
3800.444262,-9548.656652,0.000000,0.000000
3800.444592,-9400.615463,-222.061783,536.266849
3800.444921,-9770.718434,592.164754,1608.800546
3800.445251,-10881.027347,444.123565,1608.800546
3800.445581,-11325.150913,1184.329507,919.314598
3800.445911,-10362.883188,740.205942,-306.438199
3800.446240,-9696.697840,666.185348,-306.438199
3800.446570,-10066.800811,814.226536,-995.924147
3800.446900,-9622.677246,74.020594,-1685.410096
3800.447229,-8882.471304,0.000000,-1225.752797
3800.447559,-7994.224174,-148.041188,459.657299
3800.447889,-8586.388927,0.000000,1072.533697
3800.448218,-9770.718434,-370.102971,2298.286494
3800.448548,-10510.924376,518.144159,1455.581446
3800.448878,-11325.150913,-370.102971,383.047749
3800.449208,-10658.965565,-592.164754,0.000000
3800.449537,-9030.512492,-1110.308913,1302.362347
3800.449867,-8734.430116,-888.247130,2604.724693
3800.450197,-8364.327145,-370.102971,2374.896044
3800.450526,-8734.430116,-148.041188,1608.800546
3800.450856,-9548.656652,0.000000,229.828649
3800.451186,-9474.636058,222.061783,-1838.629195
3800.451515,-10288.862594,0.000000,-1455.581446
3800.451845,-11251.130318,296.082377,-229.828649
3800.452175,-9474.636058,0.000000,919.314598
3800.452505,-8882.471304,-444.123565,1149.143247
3800.452834,-9770.718434,148.041188,-612.876398
3800.453164,-11029.068536,0.000000,-1072.533697
3800.453494,-10362.883188,-444.123565,-76.609550
3800.453823,-8956.491898,-148.041188,459.657299
3800.454153,-9918.759623,-222.061783,2451.505594
3800.454483,-10881.027347,0.000000,2604.724693
3800.454813,-10732.986159,0.000000,459.657299
3800.455142,-9770.718434,-740.205942,-1838.629195
3800.455472,-9400.615463,0.000000,-2834.553343
3800.455802,-10362.883188,0.000000,-612.876398
3800.456131,-11399.171507,148.041188,1378.971896
3800.456461,-10214.842000,296.082377,1608.800546
3800.456791,-10288.862594,-518.144159,995.924147
3800.457120,-10955.047942,-370.102971,-306.438199
3800.457450,-10362.883188,222.061783,306.438199
3800.457780,-9252.574275,-962.267725,536.266849
3800.458110,-8068.244768,-518.144159,153.219100
3800.458439,-8956.491898,-592.164754,1455.581446
3800.458769,-10214.842000,-148.041188,1455.581446
3800.459099,-9622.677246,-370.102971,0.000000
3800.459428,-9844.739029,-1184.329507,0.000000
3800.459758,-9104.533087,-740.205942,229.828649
3800.460088,-9178.553681,0.000000,1149.143247
3800.460418,-9474.636058,-592.164754,995.924147
3800.460747,-9178.553681,-518.144159,0.000000
3800.461077,-9918.759623,-74.020594,-229.828649
3800.461407,-10140.821405,0.000000,-2068.457845
3800.461736,-10140.821405,962.267725,-2681.334243
3800.462066,-9030.512492,-888.247130,-2451.505594
3800.462396,-8068.244768,-222.061783,-1378.971896
3800.462725,-8734.430116,296.082377,229.828649
3800.463055,-10066.800811,-296.082377,76.609550
3800.463385,-9548.656652,-148.041188,153.219100
3800.463715,-9770.718434,148.041188,995.924147
3800.464044,-10510.924376,148.041188,459.657299
3800.464374,-11843.295072,370.102971,76.609550
3800.464704,-11251.130318,-518.144159,612.876398
3800.465033,-9400.615463,-444.123565,536.266849
3800.465363,-9252.574275,518.144159,1072.533697
3800.465693,-9474.636058,296.082377,842.705048
3800.466023,-10066.800811,1406.391290,0.000000
3800.466352,-9696.697840,1554.432478,0.000000
3800.466682,-9770.718434,888.247130,0.000000
3800.467012,-9474.636058,1776.494261,0.000000
3800.467341,-9918.759623,444.123565,1149.143247
3800.467671,-11177.109724,1332.370696,383.047749
3800.468001,-10288.862594,1110.308913,459.657299
3800.468330,-10140.821405,518.144159,153.219100
3800.468660,-9474.636058,666.185348,229.828649
3800.468990,-9030.512492,518.144159,1378.971896
3800.469320,-9104.533087,1036.288319,1072.533697
3800.469649,-8734.430116,1702.473667,1302.362347
3800.469979,-9548.656652,888.247130,766.095498
3800.470309,-10214.842000,1406.391290,-153.219100
3800.470638,-10140.821405,1110.308913,612.876398
3800.470968,-10288.862594,74.020594,536.266849
3800.471298,-9252.574275,148.041188,459.657299
3800.471628,-9474.636058,74.020594,1532.190996
3800.471957,-9622.677246,0.000000,1072.533697
3800.472287,-8808.450710,148.041188,-689.485948
3800.472617,-8734.430116,-74.020594,-536.266849
3800.472946,-9918.759623,444.123565,306.438199
3800.473276,-11251.130318,1036.288319,2068.457845
3800.473606,-11621.233289,592.164754,1532.190996
3800.473935,-10140.821405,740.205942,842.705048
3800.474265,-9474.636058,-370.102971,536.266849
3800.474595,-10066.800811,444.123565,689.485948
3800.474925,-10584.944971,814.226536,1302.362347
3800.475254,-10658.965565,-148.041188,383.047749
3800.475584,-9104.533087,444.123565,0.000000
3800.475914,-9770.718434,370.102971,0.000000
3800.476243,-11473.192101,1036.288319,-383.047749
3800.476573,-10807.006753,1036.288319,-536.266849
3800.476903,-10140.821405,-148.041188,-383.047749
3800.477233,-8660.409521,222.061783,-459.657299
3800.477562,-9400.615463,74.020594,536.266849
3800.477892,-9326.594869,-740.205942,1532.190996
3800.478222,-9326.594869,-518.144159,1608.800546
3800.478551,-9844.739029,296.082377,995.924147
3800.478881,-10436.903782,148.041188,-612.876398
3800.479211,-10658.965565,444.123565,-1608.800546
3800.479540,-10066.800811,-1110.308913,-1455.581446
3800.479870,-9030.512492,-222.061783,-1149.143247
3800.480200,-8882.471304,0.000000,-612.876398
3800.480530,-9770.718434,-222.061783,-1225.752797
3800.480859,-9548.656652,0.000000,-1762.019645
3800.481189,-9992.780217,-296.082377,-1455.581446
3800.481519,-9400.615463,-666.185348,-1991.848295
3800.481848,-9918.759623,-296.082377,229.828649
3800.482178,-9770.718434,-1184.329507,459.657299
3800.482508,-9030.512492,-1184.329507,1225.752797
3800.482838,-8956.491898,-666.185348,842.705048
3800.483167,-10362.883188,-1258.350101,229.828649
3800.483497,-10584.944971,-518.144159,0.000000
3800.483827,-10288.862594,-962.267725,612.876398
3800.484156,-9400.615463,-1110.308913,689.485948
3800.484486,-8956.491898,-444.123565,1072.533697
3800.484816,-9548.656652,-962.267725,383.047749
3800.485145,-9548.656652,-962.267725,-306.438199
3800.485475,-9770.718434,-370.102971,383.047749
3800.485805,-9622.677246,-814.226536,536.266849
3800.486135,-9918.759623,74.020594,919.314598
3800.486464,-9918.759623,-222.061783,766.095498
3800.486794,-9622.677246,-370.102971,0.000000
3800.487124,-9104.533087,0.000000,0.000000
3800.487453,-10362.883188,-370.102971,689.485948
3800.487783,-10288.862594,296.082377,459.657299
3800.488113,-9696.697840,0.000000,459.657299
3800.488443,-9622.677246,148.041188,229.828649
3800.488772,-10214.842000,-222.061783,153.219100
3800.489102,-10881.027347,-518.144159,229.828649
3800.489432,-9104.533087,-1110.308913,0.000000
3800.489761,-8882.471304,74.020594,76.609550
3800.490091,-8882.471304,-370.102971,0.000000
3800.490421,-10066.800811,-370.102971,306.438199
3800.490750,-10807.006753,296.082377,1072.533697
3800.491080,-10436.903782,-370.102971,229.828649
3800.491410,-10658.965565,74.020594,-306.438199
3800.491740,-9696.697840,-518.144159,76.609550
3800.492069,-9326.594869,-666.185348,459.657299
3800.492399,-9474.636058,-222.061783,2068.457845
3800.492729,-10140.821405,-148.041188,1838.629195
3800.493058,-10214.842000,296.082377,1072.533697
3800.493388,-8734.430116,0.000000,612.876398
3800.493718,-9030.512492,962.267725,612.876398
3800.494048,-10584.944971,1628.453072,459.657299
3800.494377,-11843.295072,1258.350101,153.219100
3800.494707,-10510.924376,370.102971,0.000000
3800.495037,-9030.512492,888.247130,-536.266849
3800.495366,-9178.553681,592.164754,-229.828649
3800.495696,-9178.553681,518.144159,0.000000
3800.496026,-9696.697840,888.247130,153.219100
3800.496355,-8808.450710,1036.288319,-689.485948
3800.496685,-9030.512492,1480.411884,-306.438199
3800.497015,-10881.027347,518.144159,919.314598
3800.497345,-10584.944971,666.185348,919.314598
3800.497674,-9252.574275,740.205942,1838.629195
3800.498004,-9548.656652,296.082377,842.705048
3800.498334,-10066.800811,518.144159,-383.047749
3800.498663,-9770.718434,74.020594,-459.657299
3800.498993,-9400.615463,444.123565,-766.095498
3800.499323,-9474.636058,888.247130,229.828649
3800.499652,-10214.842000,888.247130,689.485948
3800.499982,-9696.697840,518.144159,229.828649
3800.500312,-9474.636058,1036.288319,-1072.533697
3800.500642,-8734.430116,148.041188,-1685.410096
3800.500971,-8882.471304,222.061783,-842.705048
3800.501301,-10066.800811,0.000000,1762.019645
3800.501631,-11103.089130,444.123565,2681.334243
3800.501960,-10658.965565,814.226536,2145.067394
3800.502290,-10436.903782,-222.061783,76.609550
3800.502620,-9622.677246,222.061783,-689.485948
3800.502950,-9992.780217,0.000000,306.438199
3800.503279,-10436.903782,0.000000,1685.410096
3800.503609,-9548.656652,666.185348,1532.190996
3800.503939,-8956.491898,370.102971,306.438199
3800.504268,-9178.553681,666.185348,-1532.190996
3800.504598,-10214.842000,666.185348,-766.095498
3800.504928,-10584.944971,-74.020594,-612.876398
3800.505257,-9548.656652,148.041188,612.876398
3800.505587,-9474.636058,222.061783,842.705048
3800.505917,-9326.594869,0.000000,229.828649
3800.506247,-10362.883188,518.144159,76.609550
3800.506576,-10807.006753,-518.144159,76.609550
3800.506906,-10955.047942,-222.061783,0.000000
3800.507236,-10214.842000,74.020594,612.876398
3800.507565,-9326.594869,-296.082377,76.609550
3800.507895,-8734.430116,-888.247130,-306.438199
3800.508225,-8956.491898,-740.205942,0.000000
3800.508555,-10732.986159,-1184.329507,0.000000
3800.508884,-10510.924376,-444.123565,76.609550
3800.509214,-8882.471304,-1702.473667,153.219100
3800.509544,-7328.038826,-1480.411884,459.657299
3800.509873,-8882.471304,-666.185348,1225.752797
3800.510203,-9918.759623,-1036.288319,1302.362347
3800.510533,-10436.903782,-814.226536,383.047749
3800.510862,-9918.759623,-740.205942,0.000000
3800.511192,-9696.697840,-222.061783,76.609550
3800.511522,-10584.944971,148.041188,1072.533697
3800.511852,-10140.821405,-1184.329507,612.876398
3800.512181,-9178.553681,-962.267725,536.266849
3800.512511,-9474.636058,74.020594,76.609550
3800.512841,-10140.821405,0.000000,0.000000
3800.513170,-9770.718434,370.102971,0.000000
3800.513500,-9622.677246,222.061783,383.047749
3800.513830,-9844.739029,296.082377,0.000000
3800.514160,-11177.109724,518.144159,-383.047749
3800.514489,-10436.903782,0.000000,-919.314598
3800.514819,-9030.512492,-666.185348,-1225.752797
3800.515149,-8882.471304,296.082377,536.266849
3800.515478,-9548.656652,-518.144159,766.095498
3800.515808,-9992.780217,0.000000,1225.752797
3800.516138,-9770.718434,0.000000,1455.581446
3800.516467,-9474.636058,0.000000,0.000000
3800.516797,-10066.800811,222.061783,-689.485948
3800.517127,-10066.800811,-222.061783,-383.047749
3800.517457,-9622.677246,-148.041188,766.095498
3800.517786,-9400.615463,296.082377,1608.800546
3800.518116,-9178.553681,0.000000,229.828649
3800.518446,-9178.553681,666.185348,-459.657299
3800.518775,-9548.656652,592.164754,-612.876398
3800.519105,-9622.677246,148.041188,0.000000
3800.519435,-10362.883188,518.144159,1149.143247
3800.519765,-10214.842000,666.185348,459.657299
3800.520094,-9178.553681,1110.308913,-459.657299
3800.520424,-9104.533087,518.144159,-919.314598
3800.520754,-9770.718434,148.041188,-919.314598
3800.521083,-10362.883188,1036.288319,0.000000
3800.521413,-10584.944971,1110.308913,459.657299
3800.521743,-9696.697840,1110.308913,-383.047749
3800.522072,-8734.430116,592.164754,-536.266849
3800.522402,-9918.759623,0.000000,383.047749
3800.522732,-10732.986159,518.144159,689.485948
3800.523062,-10214.842000,888.247130,229.828649
3800.523391,-9030.512492,296.082377,-1225.752797
3800.523721,-8808.450710,740.205942,-1225.752797
3800.524051,-10214.842000,148.041188,0.000000
3800.524380,-11547.212695,740.205942,995.924147
3800.524710,-11029.068536,814.226536,766.095498
3800.525040,-9918.759623,-370.102971,-919.314598
3800.525370,-8882.471304,-296.082377,-995.924147
3800.525699,-9252.574275,-592.164754,76.609550
3800.526029,-9474.636058,-592.164754,842.705048
3800.526359,-9400.615463,0.000000,1532.190996
3800.526688,-10140.821405,-222.061783,919.314598
3800.527018,-9770.718434,-222.061783,-153.219100
3800.527348,-9326.594869,296.082377,-459.657299
3800.527677,-10066.800811,-222.061783,383.047749
3800.528007,-10510.924376,0.000000,1378.971896
3800.528337,-9770.718434,-592.164754,1378.971896
3800.528667,-9474.636058,-148.041188,766.095498
3800.528996,-9400.615463,0.000000,-229.828649
3800.529326,-9622.677246,-592.164754,-459.657299
3800.529656,-9400.615463,-518.144159,76.609550
3800.529985,-9770.718434,0.000000,1149.143247
3800.530315,-9992.780217,0.000000,1302.362347
3800.530645,-9178.553681,74.020594,842.705048
3800.530975,-9400.615463,222.061783,76.609550
3800.531304,-9400.615463,-148.041188,-153.219100
3800.531634,-10288.862594,1036.288319,76.609550
3800.531964,-10881.027347,296.082377,689.485948
3800.532293,-10140.821405,74.020594,0.000000
3800.532623,-8512.368333,-222.061783,0.000000
3800.532953,-9622.677246,-296.082377,383.047749
3800.533282,-10881.027347,0.000000,1455.581446
3800.533612,-10510.924376,-296.082377,1455.581446
3800.533942,-9696.697840,222.061783,-229.828649
3800.534272,-8808.450710,0.000000,-306.438199
3800.534601,-9844.739029,-296.082377,0.000000
3800.534931,-10066.800811,-148.041188,689.485948
3800.535261,-10584.944971,222.061783,1455.581446
3800.535590,-10658.965565,0.000000,1149.143247
3800.535920,-9474.636058,0.000000,153.219100
3800.536250,-8956.491898,-888.247130,-306.438199
3800.536580,-9474.636058,0.000000,229.828649
3800.536909,-10584.944971,296.082377,1685.410096
3800.537239,-10955.047942,-444.123565,1072.533697
3800.537569,-10214.842000,-74.020594,-919.314598
3800.537898,-8734.430116,-296.082377,-1072.533697
3800.538228,-8808.450710,-74.020594,-689.485948
3800.538558,-9770.718434,148.041188,1072.533697
3800.538887,-10362.883188,0.000000,689.485948
3800.539220,-9696.697840,74.020594,383.047749
3800.539550,-8882.471304,444.123565,-766.095498
3800.539880,-9548.656652,-518.144159,-536.266849
3800.540210,-10881.027347,74.020594,0.000000
3800.540539,-10584.944971,-592.164754,153.219100
3800.540869,-9178.553681,-666.185348,-383.047749
3800.541199,-8882.471304,444.123565,229.828649
3800.541529,-9622.677246,-296.082377,306.438199
3800.541859,-9844.739029,-74.020594,-306.438199
3800.542189,-9770.718434,740.205942,-153.219100
3800.542519,-10658.965565,518.144159,0.000000
3800.542848,-10807.006753,296.082377,-76.609550
3800.543178,-9326.594869,-148.041188,-383.047749
3800.543508,-9474.636058,-370.102971,1149.143247
3800.543838,-10140.821405,-814.226536,1302.362347
3800.544168,-9992.780217,-888.247130,1072.533697
3800.544498,-8438.347739,74.020594,612.876398
3800.544827,-9622.677246,-148.041188,76.609550
3800.545157,-10214.842000,148.041188,536.266849
3800.545487,-10510.924376,444.123565,1608.800546
3800.545817,-11251.130318,740.205942,1532.190996
3800.546147,-9992.780217,592.164754,0.000000
3800.546477,-9770.718434,1036.288319,-689.485948
3800.546807,-9844.739029,-148.041188,-2068.457845
3800.547136,-9548.656652,-518.144159,-919.314598
3800.547466,-8586.388927,296.082377,1532.190996
3800.547796,-9474.636058,296.082377,1378.971896
3800.548126,-9844.739029,74.020594,842.705048
3800.548456,-8808.450710,0.000000,612.876398
3800.548786,-9178.553681,74.020594,-995.924147
3800.549116,-10436.903782,518.144159,153.219100
3800.549445,-11473.192101,-370.102971,1378.971896
3800.549775,-10436.903782,296.082377,1455.581446
3800.550105,-8660.409521,-518.144159,383.047749
3800.550435,-9770.718434,-296.082377,0.000000
3800.550765,-10732.986159,518.144159,153.219100
3800.551095,-9770.718434,74.020594,-383.047749
3800.551424,-9696.697840,518.144159,-689.485948
3800.551754,-9474.636058,962.267725,76.609550
3800.552084,-9844.739029,444.123565,919.314598
3800.552414,-10658.965565,1036.288319,383.047749
3800.552744,-10807.006753,962.267725,383.047749
3800.553074,-10807.006753,-222.061783,-153.219100
3800.553404,-10436.903782,222.061783,459.657299
3800.553733,-9178.553681,-592.164754,0.000000
3800.554063,-9030.512492,-296.082377,76.609550
3800.554393,-9030.512492,-222.061783,306.438199
3800.554723,-10510.924376,-666.185348,1072.533697
3800.555053,-9326.594869,296.082377,919.314598
3800.555383,-9030.512492,-74.020594,612.876398
3800.555713,-9252.574275,-370.102971,612.876398
3800.556042,-9474.636058,370.102971,1378.971896
3800.556372,-10955.047942,222.061783,1149.143247
3800.556702,-9770.718434,370.102971,-459.657299
3800.557032,-9400.615463,888.247130,-1149.143247
3800.557362,-9918.759623,296.082377,-995.924147
3800.557692,-9844.739029,370.102971,-766.095498
3800.558021,-9844.739029,370.102971,-306.438199
3800.558351,-9252.574275,-370.102971,153.219100
3800.558681,-8734.430116,0.000000,689.485948
3800.559011,-9474.636058,-370.102971,229.828649
3800.559341,-10214.842000,444.123565,-76.609550
3800.559671,-10584.944971,1036.288319,0.000000
3800.560001,-10584.944971,74.020594,153.219100
3800.560330,-10066.800811,-222.061783,0.000000
3800.560660,-10214.842000,-370.102971,76.609550
3800.560990,-9400.615463,-888.247130,0.000000
3800.561320,-9400.615463,-148.041188,1225.752797
3800.561650,-9548.656652,-888.247130,995.924147
3800.561980,-9400.615463,-592.164754,995.924147
3800.562310,-9696.697840,296.082377,1072.533697
3800.562639,-10881.027347,148.041188,1225.752797
3800.562969,-10807.006753,296.082377,76.609550
3800.563299,-9918.759623,-444.123565,76.609550
3800.563629,-9400.615463,-962.267725,-459.657299
3800.563959,-9844.739029,0.000000,229.828649
3800.564289,-9696.697840,-444.123565,76.609550
3800.564618,-9400.615463,148.041188,0.000000
3800.564948,-8882.471304,444.123565,-766.095498
3800.565278,-9622.677246,0.000000,-689.485948
3800.565608,-10140.821405,444.123565,-383.047749
3800.565938,-10066.800811,-222.061783,689.485948
3800.566268,-10066.800811,-370.102971,0.000000
3800.566598,-9548.656652,148.041188,229.828649
3800.566927,-9252.574275,-666.185348,612.876398
3800.567257,-9474.636058,0.000000,0.000000
3800.567587,-9918.759623,888.247130,0.000000
3800.567917,-11177.109724,0.000000,-612.876398
3800.568247,-10732.986159,518.144159,76.609550
3800.568577,-9326.594869,0.000000,766.095498
3800.568907,-9992.780217,-148.041188,0.000000
3800.569236,-9770.718434,222.061783,919.314598
3800.569566,-9992.780217,-444.123565,306.438199
3800.569896,-8882.471304,148.041188,0.000000
3800.570226,-9326.594869,444.123565,306.438199
3800.570556,-10510.924376,370.102971,383.047749
3800.570886,-10658.965565,814.226536,1302.362347
3800.571215,-11103.089130,148.041188,1762.019645
3800.571545,-10140.821405,74.020594,766.095498
3800.571875,-9992.780217,222.061783,-76.609550
3800.572205,-9326.594869,-296.082377,-306.438199
3800.572535,-8956.491898,370.102971,153.219100
3800.572865,-9252.574275,888.247130,1149.143247
3800.573195,-9548.656652,74.020594,842.705048
3800.573524,-9252.574275,1332.370696,76.609550
3800.573854,-9400.615463,-148.041188,-766.095498
3800.574184,-9252.574275,0.000000,-612.876398
3800.574514,-9474.636058,148.041188,766.095498
3800.574844,-9622.677246,444.123565,1838.629195
3800.575174,-9474.636058,296.082377,1838.629195
3800.575504,-9178.553681,518.144159,536.266849
3800.575833,-9696.697840,-296.082377,-995.924147
3800.576163,-10066.800811,740.205942,-459.657299
3800.576493,-10288.862594,0.000000,0.000000
3800.576823,-9696.697840,148.041188,689.485948
3800.577153,-8734.430116,444.123565,919.314598
3800.577483,-9178.553681,0.000000,229.828649
3800.577812,-9622.677246,0.000000,0.000000
3800.578142,-10658.965565,222.061783,-229.828649
3800.578472,-11473.192101,370.102971,0.000000
3800.578802,-10881.027347,814.226536,76.609550
3800.579132,-10066.800811,-740.205942,229.828649
3800.579462,-9622.677246,-296.082377,995.924147
3800.579792,-10140.821405,296.082377,1608.800546
3800.580121,-10658.965565,-296.082377,229.828649
3800.580451,-10066.800811,518.144159,-689.485948
3800.580781,-9400.615463,148.041188,153.219100
3800.581111,-10362.883188,222.061783,536.266849
3800.581441,-10436.903782,814.226536,919.314598
3800.581771,-10955.047942,-148.041188,536.266849
3800.582101,-9770.718434,370.102971,-919.314598
3800.582430,-9474.636058,296.082377,-1302.362347
3800.582760,-9400.615463,-740.205942,-1225.752797
3800.583090,-9326.594869,370.102971,-536.266849
3800.583420,-9252.574275,0.000000,689.485948
3800.583750,-9474.636058,-592.164754,0.000000
3800.584080,-9326.594869,592.164754,306.438199
3800.584409,-9548.656652,-1258.350101,306.438199
3800.584739,-9622.677246,-444.123565,-383.047749
3800.585069,-9548.656652,-592.164754,536.266849
3800.585399,-9696.697840,-444.123565,536.266849
3800.585729,-9548.656652,-148.041188,-306.438199
3800.586059,-9474.636058,-814.226536,-689.485948
3800.586389,-9326.594869,-666.185348,-383.047749
3800.586718,-9178.553681,148.041188,919.314598
3800.587048,-10436.903782,-370.102971,229.828649
3800.587378,-9918.759623,74.020594,0.000000
3800.587708,-9400.615463,-592.164754,459.657299
3800.588038,-9474.636058,-962.267725,0.000000
3800.588368,-9844.739029,0.000000,612.876398
3800.588698,-10140.821405,-592.164754,459.657299
3800.589027,-9030.512492,-814.226536,229.828649
3800.589357,-9178.553681,888.247130,689.485948
3800.589687,-11325.150913,888.247130,229.828649
3800.590017,-11843.295072,444.123565,-612.876398
3800.590347,-10658.965565,0.000000,0.000000
3800.590677,-9474.636058,-444.123565,689.485948
3800.591006,-9474.636058,814.226536,1532.190996
3800.591336,-8956.491898,-296.082377,306.438199
3800.591666,-7994.224174,-740.205942,-689.485948
3800.591996,-8142.265362,962.267725,76.609550
3800.592326,-10658.965565,74.020594,536.266849
3800.592656,-11991.336260,592.164754,1072.533697
3800.592986,-10362.883188,0.000000,459.657299
3800.593315,-9326.594869,0.000000,76.609550
3800.593645,-9326.594869,0.000000,459.657299
3800.593975,-10214.842000,-518.144159,229.828649
3800.594305,-9770.718434,-370.102971,306.438199
3800.594635,-8808.450710,-74.020594,0.000000
3800.594965,-8808.450710,-518.144159,383.047749
3800.595295,-9622.677246,296.082377,2221.676944
3800.595624,-10658.965565,74.020594,2221.676944
3800.595954,-10214.842000,222.061783,1685.410096
3800.596284,-9918.759623,814.226536,229.828649
3800.596614,-9474.636058,74.020594,766.095498
3800.596944,-9918.759623,592.164754,1532.190996
3800.597274,-10214.842000,888.247130,2374.896044
3800.597603,-10807.006753,592.164754,1838.629195
3800.597933,-10066.800811,1332.370696,306.438199
3800.598263,-9474.636058,740.205942,-1455.581446
3800.598593,-9548.656652,444.123565,-1762.019645
3800.598923,-9918.759623,1258.350101,306.438199
3800.599253,-9844.739029,444.123565,1608.800546
3800.599583,-9474.636058,888.247130,1378.971896
3800.599912,-9178.553681,1702.473667,383.047749
3800.600242,-10436.903782,666.185348,-842.705048
3800.600572,-10140.821405,1332.370696,-536.266849
3800.600902,-9696.697840,222.061783,229.828649
3800.601232,-9400.615463,296.082377,1149.143247
3800.601562,-9474.636058,1406.391290,1302.362347
3800.601892,-10362.883188,0.000000,153.219100
3800.602221,-9992.780217,518.144159,-1302.362347
3800.602551,-9992.780217,370.102971,-995.924147
3800.602881,-10510.924376,148.041188,76.609550
3800.603211,-9918.759623,444.123565,229.828649
3800.603541,-8808.450710,0.000000,689.485948
3800.603871,-7920.203579,296.082377,-229.828649
3800.604200,-9474.636058,1110.308913,-459.657299
3800.604530,-11621.233289,888.247130,-383.047749
3800.604860,-11473.192101,740.205942,-459.657299
3800.605190,-11029.068536,592.164754,76.609550
3800.605520,-9696.697840,-740.205942,-153.219100
3800.605850,-8956.491898,-222.061783,-229.828649
3800.606180,-8586.388927,-814.226536,0.000000
3800.606509,-9030.512492,-592.164754,76.609550
3800.606839,-9326.594869,740.205942,383.047749
3800.607169,-9696.697840,-148.041188,-76.609550
3800.607499,-9696.697840,370.102971,-153.219100
3800.607829,-10436.903782,-518.144159,919.314598
3800.608159,-10510.924376,0.000000,1455.581446
3800.608489,-9918.759623,74.020594,1149.143247
3800.608818,-10214.842000,-222.061783,-306.438199
3800.609148,-9400.615463,-370.102971,-842.705048
3800.609478,-9400.615463,-148.041188,383.047749
3800.609808,-9992.780217,74.020594,0.000000
3800.610138,-10288.862594,148.041188,-153.219100
3800.610468,-10510.924376,0.000000,-383.047749
3800.610797,-9326.594869,-592.164754,-1225.752797
3800.611127,-8512.368333,0.000000,-1685.410096
3800.611457,-9400.615463,-1036.288319,-229.828649
3800.611787,-9770.718434,-74.020594,919.314598
3800.612117,-10658.965565,296.082377,1991.848295
3800.612447,-10732.986159,-148.041188,153.219100
3800.612777,-10436.903782,-370.102971,76.609550
3800.613106,-10584.944971,-518.144159,459.657299
3800.613436,-11029.068536,-1406.391290,766.095498
3800.613766,-10066.800811,-148.041188,1149.143247
3800.614096,-9178.553681,-1258.350101,1455.581446
3800.614426,-8660.409521,-740.205942,919.314598
3800.614756,-8734.430116,-370.102971,536.266849
3800.615086,-9992.780217,-148.041188,383.047749
3800.615415,-10214.842000,296.082377,306.438199
3800.615745,-10510.924376,-518.144159,689.485948
3800.616075,-10362.883188,-370.102971,919.314598
3800.616405,-9548.656652,-444.123565,919.314598
3800.616735,-9992.780217,-1332.370696,459.657299
3800.617065,-9474.636058,-444.123565,306.438199
3800.617395,-9400.615463,-296.082377,689.485948
3800.617724,-9178.553681,-148.041188,689.485948
3800.618054,-9104.533087,592.164754,1302.362347
3800.618384,-9770.718434,-296.082377,842.705048
3800.618714,-9104.533087,296.082377,306.438199
3800.619044,-10066.800811,962.267725,383.047749
3800.619374,-11399.171507,518.144159,-459.657299
3800.619703,-10362.883188,148.041188,-1149.143247
3800.620033,-9844.739029,592.164754,0.000000
3800.620363,-9474.636058,-370.102971,-306.438199
3800.620693,-9696.697840,1036.288319,-306.438199
3800.621023,-9548.656652,0.000000,-919.314598
3800.621353,-9326.594869,74.020594,-1225.752797
3800.621683,-9548.656652,888.247130,153.219100
3800.622012,-11103.089130,222.061783,229.828649
3800.622342,-10732.986159,518.144159,766.095498
3800.622672,-9178.553681,296.082377,459.657299
3800.623002,-8956.491898,148.041188,-76.609550
3800.623332,-9400.615463,814.226536,-459.657299
3800.623662,-10140.821405,592.164754,-536.266849
3800.623992,-9992.780217,222.061783,459.657299
3800.624321,-9770.718434,1036.288319,1225.752797
3800.624651,-9992.780217,518.144159,842.705048
3800.624981,-10288.862594,592.164754,0.000000
3800.625311,-9844.739029,222.061783,-153.219100
3800.625641,-9918.759623,-74.020594,76.609550
3800.625971,-9844.739029,962.267725,612.876398
3800.626300,-9844.739029,0.000000,919.314598
3800.626630,-8586.388927,296.082377,0.000000
3800.626960,-8142.265362,814.226536,459.657299
3800.627290,-9992.780217,592.164754,842.705048
3800.627620,-11325.150913,962.267725,919.314598
3800.627950,-11103.089130,370.102971,919.314598
3800.628280,-9992.780217,370.102971,-383.047749
3800.628609,-8956.491898,592.164754,-612.876398
3800.628939,-9252.574275,-148.041188,0.000000
3800.629269,-9696.697840,-74.020594,1072.533697
3800.629599,-9400.615463,666.185348,1072.533697
3800.629929,-10066.800811,222.061783,-153.219100
3800.630259,-10362.883188,444.123565,-306.438199
3800.630589,-11473.192101,-222.061783,-153.219100
3800.630918,-10140.821405,-222.061783,842.705048
3800.631248,-9178.553681,0.000000,1455.581446
3800.631578,-8882.471304,-962.267725,459.657299
3800.631908,-8364.327145,-814.226536,0.000000
3800.632238,-9104.533087,-222.061783,0.000000
3800.632568,-9622.677246,-518.144159,153.219100
3800.632897,-10140.821405,370.102971,153.219100
3800.633227,-10066.800811,-666.185348,766.095498
3800.633557,-10214.842000,-592.164754,766.095498
3800.633887,-9178.553681,0.000000,919.314598
3800.634217,-10214.842000,-1036.288319,1225.752797
3800.634547,-10140.821405,-148.041188,919.314598
3800.634876,-9548.656652,0.000000,1378.971896
3800.635206,-10510.924376,222.061783,229.828649
3800.635536,-9992.780217,1036.288319,-612.876398
3800.635865,-10214.842000,0.000000,-1225.752797
3800.636195,-9474.636058,-370.102971,-995.924147
3800.636525,-9474.636058,666.185348,0.000000
3800.636854,-10732.986159,0.000000,153.219100
3800.637184,-9474.636058,296.082377,-995.924147
3800.637514,-8882.471304,222.061783,-689.485948
3800.637843,-9696.697840,0.000000,0.000000
3800.638173,-11547.212695,814.226536,995.924147
3800.638503,-12361.439231,0.000000,612.876398
3800.638833,-10881.027347,0.000000,-229.828649
3800.639162,-9252.574275,-296.082377,153.219100
3800.639492,-9474.636058,-666.185348,612.876398
3800.639822,-9622.677246,-444.123565,306.438199
3800.640151,-9104.533087,-518.144159,1149.143247
3800.640481,-8142.265362,-1110.308913,536.266849
3800.640811,-8068.244768,296.082377,1072.533697
3800.641140,-9622.677246,-592.164754,995.924147
3800.641470,-10066.800811,148.041188,1072.533697
3800.641800,-10214.842000,74.020594,1378.971896
3800.642129,-11251.130318,-296.082377,306.438199
3800.642459,-9622.677246,74.020594,-306.438199
3800.642789,-8956.491898,-666.185348,-383.047749
3800.643118,-8882.471304,-740.205942,-1225.752797
3800.643448,-8882.471304,-148.041188,0.000000
3800.643778,-9474.636058,-296.082377,536.266849
3800.644107,-9178.553681,222.061783,0.000000
3800.644437,-9474.636058,296.082377,76.609550
3800.644767,-10140.821405,0.000000,612.876398
3800.645096,-11029.068536,1036.288319,612.876398
3800.645426,-10658.965565,-296.082377,-612.876398
3800.645756,-9252.574275,-666.185348,-459.657299
3800.646085,-9104.533087,74.020594,229.828649
3800.646415,-8882.471304,0.000000,766.095498
3800.646745,-9622.677246,296.082377,-76.609550
3800.647074,-10066.800811,1036.288319,0.000000
3800.647404,-10362.883188,296.082377,-689.485948
3800.647734,-10436.903782,1258.350101,-766.095498
3800.648064,-10510.924376,0.000000,-919.314598
3800.648393,-9696.697840,-74.020594,-383.047749
3800.648723,-9474.636058,444.123565,536.266849
3800.649053,-9474.636058,296.082377,536.266849
3800.649382,-9696.697840,814.226536,0.000000
3800.649712,-9844.739029,148.041188,0.000000
3800.650042,-10584.944971,0.000000,459.657299
3800.650371,-10807.006753,740.205942,1838.629195
3800.650701,-10066.800811,-74.020594,1838.629195
3800.651031,-9326.594869,-518.144159,1225.752797
3800.651360,-8438.347739,888.247130,1762.019645
3800.651690,-10510.924376,518.144159,229.828649
3800.652020,-10732.986159,296.082377,-689.485948
3800.652349,-9770.718434,-222.061783,-612.876398
3800.652679,-9474.636058,592.164754,76.609550
3800.653009,-9252.574275,1184.329507,1149.143247
3800.653338,-10510.924376,0.000000,536.266849
3800.653668,-9104.533087,148.041188,536.266849
3800.653998,-8808.450710,666.185348,1149.143247
3800.654327,-10436.903782,592.164754,689.485948
3800.654657,-10955.047942,740.205942,76.609550
3800.654987,-10066.800811,444.123565,-306.438199
3800.655316,-9696.697840,222.061783,-689.485948
3800.655646,-9992.780217,814.226536,229.828649
3800.655976,-11473.192101,0.000000,1072.533697
3800.656305,-10658.965565,296.082377,842.705048
3800.656635,-9104.533087,0.000000,383.047749
3800.656965,-8882.471304,74.020594,-1072.533697
3800.657295,-9178.553681,1258.350101,0.000000
3800.657624,-10584.944971,0.000000,536.266849
3800.657954,-10732.986159,296.082377,536.266849
3800.658284,-10436.903782,444.123565,536.266849
3800.658613,-11473.192101,0.000000,689.485948
3800.658943,-9474.636058,-74.020594,-229.828649
3800.659273,-8512.368333,0.000000,306.438199
3800.659602,-9400.615463,-222.061783,383.047749
3800.659932,-9474.636058,148.041188,919.314598
3800.660262,-9918.759623,-296.082377,1225.752797
3800.660591,-9844.739029,148.041188,1532.190996
3800.660921,-9696.697840,444.123565,306.438199
3800.661251,-9622.677246,-592.164754,-1072.533697
3800.661580,-8512.368333,-148.041188,-1225.752797
3800.661910,-8660.409521,-370.102971,-153.219100
3800.662240,-9770.718434,74.020594,689.485948
3800.662569,-9918.759623,962.267725,-306.438199
3800.662899,-10362.883188,-370.102971,-1072.533697
3800.663229,-9178.553681,-222.061783,-1302.362347
3800.663558,-9548.656652,296.082377,-459.657299
3800.663888,-10955.047942,-370.102971,-153.219100
3800.664218,-9622.677246,-518.144159,76.609550
3800.664547,-7994.224174,-814.226536,-306.438199
3800.664877,-9104.533087,-370.102971,383.047749
3800.665207,-11177.109724,444.123565,1378.971896
3800.665536,-11251.130318,-666.185348,459.657299
3800.665866,-9770.718434,-370.102971,-1455.581446
3800.666196,-9548.656652,-370.102971,-383.047749
3800.666526,-9992.780217,-1480.411884,1378.971896
3800.666855,-10066.800811,-740.205942,1915.238745
3800.667185,-10288.862594,-518.144159,2145.067394
3800.667515,-9474.636058,-740.205942,766.095498
3800.667844,-9326.594869,148.041188,0.000000
3800.668174,-9696.697840,-666.185348,-842.705048
3800.668504,-10288.862594,-666.185348,-76.609550
3800.668833,-9918.759623,592.164754,1225.752797
3800.669163,-9770.718434,296.082377,919.314598
3800.669493,-9770.718434,1184.329507,-612.876398
3800.669822,-9474.636058,592.164754,-919.314598
3800.670152,-10288.862594,74.020594,-689.485948
3800.670482,-10584.944971,1184.329507,-383.047749
3800.670811,-10436.903782,0.000000,-306.438199
3800.671141,-10214.842000,222.061783,229.828649
3800.671471,-9252.574275,0.000000,842.705048
3800.671800,-9400.615463,0.000000,689.485948
3800.672130,-9326.594869,222.061783,536.266849
3800.672460,-10510.924376,222.061783,0.000000
3800.672789,-10658.965565,148.041188,0.000000
3800.673119,-9918.759623,814.226536,306.438199
3800.673449,-10510.924376,370.102971,459.657299
3800.673778,-10288.862594,148.041188,0.000000
3800.674108,-9918.759623,0.000000,-383.047749
3800.674438,-9918.759623,-592.164754,-153.219100
3800.674767,-7772.162391,148.041188,536.266849
3800.675097,-7402.059420,-1110.308913,0.000000
3800.675427,-8364.327145,-370.102971,383.047749
3800.675757,-8512.368333,1184.329507,2068.457845
3800.676086,-10658.965565,444.123565,1455.581446
3800.676416,-10288.862594,592.164754,-76.609550
3800.676746,-10881.027347,148.041188,-229.828649
3800.677075,-9844.739029,-148.041188,0.000000
3800.677405,-8586.388927,0.000000,536.266849
3800.677735,-10066.800811,0.000000,1608.800546
3800.678064,-9474.636058,-222.061783,383.047749
3800.678394,-9252.574275,666.185348,-995.924147
3800.678724,-8734.430116,222.061783,-2068.457845
3800.679053,-10214.842000,148.041188,-842.705048
3800.679383,-10732.986159,740.205942,1225.752797
3800.679713,-10955.047942,592.164754,842.705048
3800.680042,-9696.697840,444.123565,-306.438199
3800.680372,-9030.512492,-666.185348,-1608.800546
3800.680702,-9770.718434,-666.185348,-995.924147
3800.681031,-9918.759623,-148.041188,536.266849
3800.681361,-10140.821405,-148.041188,766.095498
3800.681691,-9918.759623,-518.144159,919.314598
3800.682020,-10288.862594,-592.164754,612.876398
3800.682350,-10066.800811,-1702.473667,459.657299
3800.682680,-9326.594869,-1110.308913,919.314598
3800.683009,-8956.491898,-1628.453072,1685.410096
3800.683339,-9178.553681,-592.164754,2221.676944
3800.683669,-9400.615463,-148.041188,995.924147
3800.683998,-9918.759623,-518.144159,459.657299
3800.684328,-10658.965565,0.000000,459.657299
3800.684658,-10436.903782,-888.247130,306.438199
3800.684988,-10362.883188,-888.247130,995.924147
3800.685317,-8808.450710,-148.041188,2145.067394
3800.685647,-8734.430116,-592.164754,1149.143247
3800.685977,-9326.594869,296.082377,0.000000
3800.686306,-10140.821405,518.144159,-306.438199
3800.686636,-10584.944971,296.082377,-766.095498
3800.686966,-9770.718434,1332.370696,383.047749
3800.687295,-9696.697840,518.144159,612.876398
3800.687625,-9844.739029,222.061783,459.657299
3800.687955,-9696.697840,666.185348,0.000000
3800.688284,-10288.862594,0.000000,229.828649
3800.688614,-9622.677246,148.041188,0.000000
3800.688944,-9252.574275,1110.308913,229.828649
3800.689273,-10066.800811,296.082377,612.876398
3800.689603,-9918.759623,962.267725,0.000000
3800.689933,-10140.821405,370.102971,0.000000
3800.690262,-9770.718434,814.226536,-689.485948
3800.690592,-9252.574275,1110.308913,-612.876398
3800.690922,-9326.594869,592.164754,-459.657299
3800.691251,-9548.656652,1258.350101,459.657299
3800.691581,-10732.986159,1258.350101,995.924147
3800.691911,-10955.047942,740.205942,0.000000
3800.692240,-10214.842000,962.267725,-1149.143247
3800.692570,-9622.677246,148.041188,-459.657299
3800.692900,-10140.821405,222.061783,689.485948
3800.693229,-9326.594869,962.267725,1915.238745
3800.693559,-8734.430116,222.061783,766.095498
3800.693889,-9104.533087,1036.288319,766.095498
3800.694219,-10214.842000,666.185348,76.609550
3800.694548,-10140.821405,666.185348,-919.314598
3800.694878,-10140.821405,666.185348,-383.047749
3800.695208,-10436.903782,370.102971,-536.266849
3800.695537,-9844.739029,74.020594,229.828649
3800.695867,-8734.430116,148.041188,0.000000
3800.696197,-8586.388927,-370.102971,-766.095498
3800.696526,-8512.368333,518.144159,-76.609550
3800.696856,-9400.615463,74.020594,612.876398
3800.697186,-10732.986159,296.082377,842.705048
3800.697515,-9918.759623,666.185348,383.047749
3800.697845,-9770.718434,-444.123565,536.266849
3800.698175,-10214.842000,148.041188,76.609550
3800.698504,-10510.924376,0.000000,919.314598
3800.698834,-10584.944971,-814.226536,383.047749
3800.699164,-8808.450710,-592.164754,-383.047749
3800.699493,-9474.636058,-666.185348,-229.828649
3800.699823,-10066.800811,-592.164754,-306.438199
3800.700153,-9252.574275,-518.144159,-459.657299
3800.700482,-10066.800811,-1036.288319,383.047749
3800.700812,-9918.759623,-444.123565,306.438199
3800.701142,-10214.842000,-296.082377,-229.828649
3800.701471,-9992.780217,-962.267725,-1149.143247
3800.701801,-9030.512492,-1036.288319,0.000000
3800.702131,-9770.718434,-1406.391290,1608.800546
3800.702460,-10214.842000,-1184.329507,1915.238745
3800.702790,-9178.553681,-518.144159,612.876398
3800.703120,-8216.285956,-1110.308913,76.609550
3800.703450,-10214.842000,0.000000,383.047749
3800.703779,-11843.295072,0.000000,1072.533697
3800.704109,-11399.171507,-444.123565,612.876398
3800.704439,-10140.821405,148.041188,229.828649
3800.704768,-9400.615463,-1110.308913,0.000000
3800.705098,-9030.512492,-666.185348,0.000000
3800.705428,-9252.574275,222.061783,-153.219100
3800.705757,-9548.656652,-666.185348,-306.438199
3800.706087,-9844.739029,0.000000,0.000000
3800.706417,-10066.800811,592.164754,306.438199
3800.706746,-11029.068536,-370.102971,842.705048
3800.707076,-10510.924376,222.061783,766.095498
3800.707406,-9844.739029,-814.226536,1455.581446
3800.707735,-9400.615463,-148.041188,1072.533697
3800.708065,-9252.574275,0.000000,0.000000
3800.708395,-9770.718434,-296.082377,-306.438199
3800.708724,-9622.677246,-444.123565,306.438199
3800.709054,-10140.821405,888.247130,2068.457845
3800.709384,-10732.986159,0.000000,2451.505594
3800.709713,-9474.636058,370.102971,229.828649
3800.710043,-8290.306550,-592.164754,153.219100
3800.710373,-8216.285956,370.102971,306.438199
3800.710702,-10214.842000,1406.391290,919.314598
3800.711032,-11251.130318,592.164754,76.609550
3800.711362,-9622.677246,1258.350101,0.000000
3800.711691,-8808.450710,592.164754,153.219100
3800.712021,-10288.862594,518.144159,-76.609550
3800.712351,-9918.759623,814.226536,-766.095498
3800.712680,-8808.450710,222.061783,-229.828649
3800.713010,-7550.100608,740.205942,153.219100
3800.713340,-8364.327145,1554.432478,919.314598
3800.713670,-10436.903782,1036.288319,842.705048
3800.713999,-10214.842000,1998.556043,-153.219100
3800.714329,-10362.883188,1258.350101,-766.095498
3800.714659,-10807.006753,592.164754,-766.095498
3800.714988,-11251.130318,1628.453072,-459.657299
3800.715318,-9844.739029,-222.061783,0.000000
3800.715648,-8808.450710,0.000000,-153.219100
3800.715977,-8216.285956,1036.288319,-306.438199
3800.716307,-9622.677246,814.226536,-306.438199
3800.716637,-10214.842000,1850.514855,-612.876398
3800.716966,-10658.965565,666.185348,-153.219100
3800.717296,-11325.150913,1184.329507,536.266849
3800.717626,-10955.047942,740.205942,766.095498
3800.717955,-10732.986159,0.000000,-229.828649
3800.718285,-9178.553681,-740.205942,-995.924147
3800.718615,-8660.409521,-518.144159,-76.609550
3800.718944,-9548.656652,-592.164754,766.095498
3800.719274,-9844.739029,-296.082377,1072.533697
3800.719604,-10066.800811,-518.144159,1915.238745
3800.719933,-9474.636058,-444.123565,2145.067394
3800.720263,-9252.574275,0.000000,1532.190996
3800.720593,-9992.780217,0.000000,995.924147
3800.720922,-10436.903782,-148.041188,76.609550
3800.721252,-10584.944971,-148.041188,-383.047749
3800.721582,-10066.800811,-592.164754,-995.924147
3800.721911,-9474.636058,148.041188,-306.438199
3800.722241,-10214.842000,-1406.391290,-153.219100
3800.722571,-9400.615463,-592.164754,0.000000
3800.722901,-8512.368333,-592.164754,383.047749
3800.723230,-8660.409521,-962.267725,0.000000
3800.723560,-9474.636058,-444.123565,229.828649
3800.723890,-10658.965565,148.041188,919.314598
3800.724219,-10658.965565,-222.061783,842.705048
3800.724549,-9696.697840,148.041188,0.000000
3800.724879,-10140.821405,0.000000,0.000000
3800.725208,-11399.171507,74.020594,-383.047749
3800.725538,-11029.068536,0.000000,-1149.143247
3800.725868,-9622.677246,-1110.308913,-2068.457845
3800.726197,-9030.512492,-962.267725,-1608.800546
3800.726527,-9770.718434,-444.123565,459.657299
3800.726857,-10066.800811,-1036.288319,689.485948
3800.727186,-8660.409521,-740.205942,76.609550
3800.727516,-8216.285956,-1184.329507,229.828649
3800.727846,-9548.656652,-666.185348,766.095498
3800.728175,-10584.944971,0.000000,1608.800546
3800.728505,-10140.821405,-1036.288319,1685.410096
3800.728835,-8882.471304,-444.123565,1072.533697
3800.729164,-9548.656652,-1036.288319,1685.410096
3800.729494,-10955.047942,-296.082377,1072.533697
3800.729824,-10732.986159,518.144159,0.000000
3800.730153,-9474.636058,-518.144159,-1302.362347
3800.730483,-8882.471304,0.000000,-842.705048
3800.730813,-9104.533087,444.123565,-459.657299
3800.731142,-9918.759623,0.000000,383.047749
3800.731472,-9104.533087,740.205942,306.438199
3800.731802,-8808.450710,814.226536,229.828649
3800.732132,-10214.842000,444.123565,-1149.143247
3800.732461,-11325.150913,1480.411884,-842.705048
3800.732791,-11621.233289,-296.082377,153.219100
3800.733121,-11029.068536,-296.082377,1455.581446
3800.733450,-8956.491898,-148.041188,1915.238745
3800.733780,-9696.697840,-888.247130,995.924147
3800.734110,-9622.677246,296.082377,0.000000
3800.734439,-9474.636058,-444.123565,0.000000
3800.734769,-9696.697840,-222.061783,-842.705048
3800.735099,-9770.718434,740.205942,-229.828649
3800.735428,-10140.821405,-148.041188,-153.219100
3800.735758,-9326.594869,222.061783,306.438199
3800.736088,-8956.491898,0.000000,306.438199
3800.736417,-9918.759623,-518.144159,0.000000
3800.736747,-9548.656652,0.000000,-76.609550
3800.737077,-9252.574275,-518.144159,689.485948
3800.737406,-8882.471304,74.020594,1991.848295
3800.737736,-9178.553681,1628.453072,2145.067394
3800.738066,-10140.821405,74.020594,1378.971896
3800.738396,-10362.883188,518.144159,0.000000
3800.738725,-10140.821405,1110.308913,153.219100
3800.739055,-10510.924376,1036.288319,0.000000
3800.739385,-9326.594869,1776.494261,-689.485948
3800.739715,-8734.430116,592.164754,-383.047749
3800.740044,-9030.512492,1332.370696,-229.828649
3800.740374,-10732.986159,2294.638420,229.828649
3800.740704,-11473.192101,592.164754,-612.876398
3800.741033,-10066.800811,814.226536,-1149.143247
3800.741363,-9400.615463,592.164754,-383.047749
3800.741693,-9770.718434,148.041188,1685.410096
3800.742023,-9918.759623,814.226536,1378.971896
3800.742352,-10288.862594,296.082377,842.705048
3800.742682,-9178.553681,518.144159,-689.485948
3800.743012,-9326.594869,962.267725,-1225.752797
3800.743342,-10436.903782,74.020594,0.000000
3800.743671,-10881.027347,370.102971,612.876398
3800.744001,-10510.924376,0.000000,1532.190996
3800.744331,-9770.718434,-518.144159,612.876398
3800.744661,-8956.491898,370.102971,-459.657299
3800.744990,-9474.636058,-296.082377,229.828649
3800.745320,-10362.883188,444.123565,1302.362347
3800.745650,-10436.903782,592.164754,1149.143247
3800.745979,-10807.006753,0.000000,0.000000
3800.746309,-9252.574275,518.144159,-1072.533697
3800.746639,-9474.636058,-74.020594,-459.657299
3800.746969,-9992.780217,-370.102971,306.438199
3800.747298,-9326.594869,0.000000,459.657299
3800.747628,-9252.574275,-814.226536,459.657299
3800.747958,-9326.594869,0.000000,-383.047749
3800.748288,-9178.553681,-148.041188,-306.438199
3800.748617,-9770.718434,-1036.288319,459.657299
3800.748947,-9992.780217,-74.020594,689.485948
3800.749277,-10214.842000,-888.247130,1532.190996
3800.749606,-9992.780217,-592.164754,1149.143247
3800.749936,-9252.574275,0.000000,-76.609550
3800.750266,-9326.594869,-962.267725,-766.095498
3800.750596,-9770.718434,-370.102971,-1838.629195
3800.750925,-9548.656652,-962.267725,-766.095498
3800.751255,-10658.965565,-1110.308913,0.000000
3800.751585,-9474.636058,-296.082377,-842.705048
3800.751915,-8734.430116,-1776.494261,-842.705048
3800.752244,-8734.430116,-1110.308913,-612.876398
3800.752574,-9844.739029,-222.061783,1149.143247
3800.752904,-11843.295072,-666.185348,2145.067394
3800.753233,-10955.047942,-222.061783,1225.752797
3800.753563,-9104.533087,-666.185348,536.266849
3800.753893,-8586.388927,-962.267725,459.657299
3800.754223,-9696.697840,74.020594,-229.828649
3800.754552,-10584.944971,-1258.350101,0.000000
3800.754882,-10955.047942,-1110.308913,459.657299
3800.755212,-10436.903782,148.041188,0.000000
3800.755542,-10658.965565,-962.267725,76.609550
3800.755871,-9474.636058,-518.144159,0.000000
3800.756201,-8586.388927,-814.226536,1378.971896
3800.756531,-9474.636058,0.000000,1762.019645
3800.756860,-9918.759623,1110.308913,153.219100
3800.757190,-9992.780217,814.226536,-612.876398
3800.757520,-11103.089130,962.267725,76.609550
3800.757850,-11991.336260,888.247130,766.095498
3800.758179,-11621.233289,0.000000,1072.533697
3800.758509,-10732.986159,222.061783,612.876398
3800.758839,-8068.244768,-370.102971,-153.219100
3800.759169,-7254.018232,-1184.329507,-229.828649
3800.759498,-7994.224174,518.144159,306.438199
3800.759828,-10362.883188,0.000000,919.314598
3800.760158,-10658.965565,888.247130,1149.143247
3800.760488,-8882.471304,888.247130,-153.219100
3800.760817,-9844.739029,222.061783,-459.657299
3800.761147,-9918.759623,518.144159,0.000000
3800.761477,-9770.718434,148.041188,766.095498
3800.761806,-10140.821405,444.123565,1762.019645
3800.762136,-9178.553681,1554.432478,459.657299
3800.762466,-9770.718434,518.144159,-612.876398
3800.762796,-9992.780217,1184.329507,-612.876398
3800.763125,-10066.800811,1110.308913,0.000000
3800.763455,-10584.944971,962.267725,842.705048
3800.763785,-9252.574275,1480.411884,153.219100
3800.764115,-8882.471304,666.185348,-229.828649
3800.764444,-9326.594869,1406.391290,-612.876398
3800.764774,-9326.594869,1998.556043,229.828649
3800.765104,-11695.253884,1258.350101,689.485948
3800.765433,-10807.006753,1924.535449,-612.876398
3800.765763,-9696.697840,1628.453072,-766.095498
3800.766093,-10658.965565,740.205942,-459.657299
3800.766423,-9178.553681,592.164754,0.000000
3800.766752,-10066.800811,148.041188,1225.752797
3800.767082,-10140.821405,740.205942,1685.410096
3800.767412,-9252.574275,1036.288319,766.095498
3800.767742,-9844.739029,-74.020594,153.219100
3800.768071,-8882.471304,592.164754,-766.095498
3800.768401,-9696.697840,222.061783,383.047749
3800.768731,-10436.903782,592.164754,1608.800546
3800.769060,-10436.903782,666.185348,229.828649
3800.769390,-10732.986159,0.000000,1072.533697
3800.769720,-9548.656652,-518.144159,612.876398
3800.770050,-9844.739029,74.020594,1149.143247
3800.770379,-10510.924376,-666.185348,1378.971896
3800.770709,-9400.615463,0.000000,842.705048
3800.771039,-8586.388927,0.000000,229.828649
3800.771369,-9770.718434,74.020594,-612.876398
3800.771698,-9104.533087,222.061783,-1762.019645
3800.772028,-10584.944971,-888.247130,-689.485948
3800.772358,-10362.883188,0.000000,-306.438199
3800.772687,-9252.574275,-740.205942,0.000000
3800.773017,-9178.553681,-1258.350101,0.000000
3800.773347,-9030.512492,-592.164754,76.609550
3800.773677,-10362.883188,-1036.288319,459.657299
3800.774006,-11251.130318,-666.185348,1225.752797
3800.774336,-10584.944971,0.000000,1608.800546
3800.774666,-9548.656652,-814.226536,612.876398
3800.774996,-8438.347739,-444.123565,-459.657299
3800.775325,-9696.697840,-370.102971,-689.485948
3800.775655,-10807.006753,-740.205942,-306.438199
3800.775985,-9696.697840,0.000000,-2145.067394
3800.776314,-8586.388927,-1258.350101,-2145.067394
3800.776644,-8660.409521,-888.247130,-1072.533697
3800.776974,-10066.800811,0.000000,153.219100
3800.777304,-11251.130318,-1184.329507,1378.971896
3800.777633,-11843.295072,-814.226536,536.266849
3800.777963,-9844.739029,-1036.288319,76.609550
3800.778293,-9474.636058,-1924.535449,0.000000
3800.778623,-8734.430116,-222.061783,306.438199
3800.778952,-9622.677246,-1036.288319,1838.629195
3800.779282,-10288.862594,-666.185348,1915.238745
3800.779612,-9178.553681,-740.205942,1072.533697
3800.779942,-9548.656652,-814.226536,689.485948
3800.780271,-10436.903782,148.041188,-536.266849
3800.780601,-10807.006753,-296.082377,0.000000
3800.780931,-9844.739029,-666.185348,612.876398
3800.781260,-8734.430116,-444.123565,1149.143247
3800.781590,-9326.594869,-296.082377,1149.143247
3800.781920,-9252.574275,-592.164754,-229.828649
3800.782250,-8808.450710,296.082377,-842.705048
3800.782579,-9548.656652,0.000000,-536.266849
3800.782909,-10436.903782,740.205942,229.828649
3800.783239,-10436.903782,296.082377,766.095498
3800.783569,-10214.842000,0.000000,766.095498
3800.783898,-8882.471304,222.061783,153.219100
3800.784228,-8734.430116,-888.247130,766.095498
3800.784558,-8956.491898,-518.144159,459.657299
3800.784887,-9400.615463,814.226536,536.266849
3800.785217,-9918.759623,0.000000,-153.219100
3800.785547,-9474.636058,518.144159,-612.876398
3800.785877,-9400.615463,296.082377,995.924147
3800.786206,-9696.697840,444.123565,1378.971896
3800.786536,-9548.656652,814.226536,306.438199
3800.786866,-9474.636058,1110.308913,-536.266849
3800.787196,-9252.574275,592.164754,-536.266849
3800.787525,-9400.615463,814.226536,0.000000
3800.787855,-10288.862594,296.082377,2374.896044
3800.788185,-10584.944971,1924.535449,2451.505594
3800.788514,-9474.636058,888.247130,995.924147
3800.788844,-8734.430116,888.247130,-383.047749
3800.789174,-9178.553681,1702.473667,76.609550
3800.789504,-11843.295072,1332.370696,1991.848295
3800.789833,-11473.192101,1998.556043,1838.629195
3800.790163,-8660.409521,1480.411884,612.876398
3800.790493,-9474.636058,2294.638420,-229.828649
3800.790823,-10807.006753,1850.514855,-995.924147
3800.791152,-10658.965565,1258.350101,-842.705048
3800.791482,-10066.800811,1258.350101,-383.047749
3800.791812,-9252.574275,1702.473667,153.219100
3800.792141,-9844.739029,666.185348,1838.629195
3800.792471,-9178.553681,1406.391290,1378.971896
3800.792801,-8512.368333,1258.350101,1225.752797
3800.793131,-10214.842000,814.226536,229.828649
3800.793460,-10362.883188,1258.350101,-306.438199
3800.793790,-10658.965565,222.061783,459.657299
3800.794120,-9844.739029,814.226536,536.266849
3800.794450,-9326.594869,518.144159,0.000000
3800.794779,-11251.130318,0.000000,-766.095498
3800.795109,-9844.739029,74.020594,-1915.238745
3800.795439,-8956.491898,-74.020594,-1838.629195
3800.795768,-8956.491898,74.020594,-306.438199
3800.796098,-9252.574275,222.061783,153.219100
3800.796428,-9252.574275,-444.123565,612.876398
3800.796758,-8512.368333,-370.102971,153.219100
3800.797087,-9252.574275,0.000000,0.000000
3800.797417,-10955.047942,-740.205942,383.047749
3800.797747,-11029.068536,-296.082377,-306.438199
3800.798077,-9918.759623,-1628.453072,383.047749
3800.798406,-8882.471304,-666.185348,1532.190996
3800.798736,-9548.656652,-74.020594,1915.238745
3800.799066,-10510.924376,-740.205942,612.876398
3800.799396,-8956.491898,-518.144159,-1608.800546
3800.799725,-7846.182985,-370.102971,-1455.581446
3800.800055,-9696.697840,-222.061783,229.828649
3800.800385,-11029.068536,740.205942,1455.581446
3800.800714,-10066.800811,-296.082377,0.000000
3800.801044,-8660.409521,-148.041188,-1762.019645
3800.801374,-8216.285956,0.000000,-2221.676944
3800.801704,-11473.192101,-1480.411884,-76.609550
3800.802033,-11917.315666,-740.205942,995.924147
3800.802363,-9844.739029,-1110.308913,2221.676944
3800.802693,-8364.327145,-1702.473667,1762.019645
3800.803023,-9030.512492,-962.267725,612.876398
3800.803352,-9474.636058,-2072.576638,689.485948
3800.803682,-9178.553681,-1554.432478,842.705048
3800.804012,-8956.491898,-444.123565,919.314598
3800.804341,-9992.780217,-1110.308913,1915.238745
3800.804671,-10732.986159,-370.102971,995.924147
3800.805001,-10584.944971,-666.185348,383.047749
3800.805331,-9844.739029,-1332.370696,0.000000
3800.805660,-10066.800811,-666.185348,153.219100
3800.805990,-10214.842000,-962.267725,1149.143247
3800.806320,-9696.697840,-740.205942,995.924147
3800.806650,-8438.347739,222.061783,842.705048
3800.806979,-9770.718434,296.082377,689.485948
3800.807309,-11029.068536,962.267725,-306.438199
3800.807639,-10584.944971,592.164754,-536.266849
3800.807968,-10510.924376,666.185348,153.219100
3800.808298,-9400.615463,1184.329507,229.828649
3800.808628,-9400.615463,222.061783,0.000000
3800.808958,-10807.006753,444.123565,76.609550
3800.809287,-9770.718434,888.247130,-459.657299
3800.809617,-9696.697840,-296.082377,-383.047749
3800.809947,-9326.594869,1036.288319,-842.705048
3800.810277,-9326.594869,296.082377,-383.047749
3800.810606,-9844.739029,-444.123565,459.657299
3800.810936,-9030.512492,592.164754,612.876398
3800.811266,-9326.594869,0.000000,459.657299
3800.811595,-9474.636058,518.144159,-995.924147
3800.811925,-8956.491898,222.061783,-1302.362347
3800.812255,-9400.615463,-592.164754,459.657299
3800.812585,-9104.533087,296.082377,1149.143247
3800.812914,-9474.636058,74.020594,459.657299
3800.813244,-10658.965565,0.000000,153.219100
3800.813574,-10066.800811,592.164754,-766.095498
3800.813904,-9992.780217,-444.123565,229.828649
3800.814233,-9622.677246,444.123565,995.924147
3800.814563,-8808.450710,1110.308913,306.438199
3800.814893,-10066.800811,370.102971,76.609550
3800.815222,-9474.636058,1258.350101,-1072.533697
3800.815552,-8808.450710,592.164754,-689.485948
3800.815882,-9844.739029,444.123565,-766.095498
3800.816212,-10214.842000,1332.370696,459.657299
3800.816541,-11251.130318,296.082377,1608.800546
3800.816871,-9770.718434,814.226536,459.657299
3800.817201,-8216.285956,666.185348,-995.924147
3800.817531,-9844.739029,296.082377,536.266849
3800.817860,-10214.842000,1184.329507,842.705048
3800.818190,-10362.883188,148.041188,2068.457845
3800.818520,-9622.677246,370.102971,995.924147
3800.818850,-8438.347739,962.267725,0.000000
3800.819179,-9770.718434,-296.082377,0.000000
3800.819509,-9992.780217,814.226536,0.000000
3800.819839,-10140.821405,0.000000,536.266849
3800.820168,-10436.903782,518.144159,1608.800546
3800.820498,-9844.739029,740.205942,919.314598
3800.820828,-10732.986159,518.144159,536.266849
3800.821158,-10436.903782,0.000000,-536.266849
3800.821487,-9844.739029,0.000000,-689.485948
3800.821817,-9844.739029,-962.267725,1149.143247
3800.822147,-9474.636058,740.205942,1455.581446
3800.822477,-9400.615463,-740.205942,919.314598
3800.822806,-9548.656652,-666.185348,612.876398
3800.823136,-9400.615463,666.185348,842.705048
3800.823466,-10955.047942,-814.226536,1762.019645
3800.823795,-10881.027347,-296.082377,689.485948
3800.824125,-9252.574275,-296.082377,612.876398
3800.824455,-9622.677246,-740.205942,995.924147
3800.824785,-9696.697840,-148.041188,0.000000
3800.825114,-9548.656652,-740.205942,-76.609550
3800.825444,-9030.512492,-888.247130,229.828649
3800.825774,-8808.450710,148.041188,-842.705048
3800.826104,-9844.739029,-1110.308913,-306.438199
3800.826433,-9400.615463,-370.102971,-612.876398
3800.826763,-9030.512492,0.000000,153.219100
3800.827093,-9400.615463,-444.123565,536.266849
3800.827422,-10140.821405,222.061783,-383.047749
3800.827752,-10584.944971,0.000000,0.000000
3800.828082,-11917.315666,0.000000,459.657299
3800.828412,-10288.862594,0.000000,-229.828649
3800.828741,-9918.759623,-1776.494261,306.438199
3800.829071,-9622.677246,74.020594,-536.266849
3800.829401,-8882.471304,148.041188,-1149.143247
3800.829731,-9326.594869,-814.226536,-1302.362347
3800.830060,-9178.553681,-518.144159,-1685.410096
3800.830390,-9252.574275,-1332.370696,-229.828649
3800.830720,-9622.677246,-888.247130,612.876398
3800.831049,-9030.512492,148.041188,383.047749
3800.831379,-10140.821405,-1702.473667,995.924147
3800.831709,-9030.512492,-666.185348,919.314598
3800.832039,-8882.471304,-592.164754,689.485948
3800.832368,-10881.027347,-592.164754,842.705048
3800.832698,-10510.924376,592.164754,919.314598
3800.833028,-9918.759623,-518.144159,1302.362347
3800.833358,-9030.512492,-148.041188,153.219100
3800.833687,-9030.512492,1110.308913,-1225.752797
3800.834017,-9770.718434,-296.082377,-306.438199
3800.834347,-9474.636058,518.144159,-995.924147
3800.834677,-9252.574275,1036.288319,-306.438199
3800.835006,-10362.883188,148.041188,0.000000
3800.835336,-10510.924376,1184.329507,-229.828649
3800.835666,-9696.697840,-222.061783,459.657299
3800.835995,-8956.491898,-592.164754,153.219100
3800.836325,-8586.388927,740.205942,306.438199
3800.836655,-9474.636058,148.041188,1455.581446
3800.836985,-9548.656652,962.267725,229.828649
3800.837314,-9400.615463,962.267725,383.047749
3800.837644,-11029.068536,518.144159,919.314598
3800.837974,-12065.356855,1628.453072,995.924147
3800.838304,-10955.047942,0.000000,689.485948
3800.838633,-8364.327145,-148.041188,229.828649
3800.838963,-7105.977043,444.123565,229.828649
3800.839293,-10214.842000,-222.061783,1378.971896
3800.839623,-10955.047942,962.267725,1685.410096
3800.839952,-10362.883188,74.020594,919.314598
3800.840282,-9252.574275,592.164754,459.657299
3800.840612,-9474.636058,1110.308913,536.266849
3800.840941,-10436.903782,74.020594,1838.629195
3800.841271,-9770.718434,0.000000,1608.800546
3800.841601,-9326.594869,666.185348,1149.143247
3800.841931,-10436.903782,296.082377,766.095498
3800.842260,-10807.006753,1406.391290,306.438199
3800.842590,-10066.800811,814.226536,612.876398
3800.842920,-9622.677246,296.082377,459.657299
3800.843250,-8808.450710,1258.350101,153.219100
3800.843579,-9252.574275,0.000000,153.219100
3800.843909,-9474.636058,1036.288319,0.000000
3800.844239,-9548.656652,1110.308913,-612.876398
3800.844569,-10362.883188,444.123565,0.000000
3800.844898,-9918.759623,740.205942,0.000000
3800.845228,-10214.842000,888.247130,153.219100
3800.845558,-10881.027347,0.000000,0.000000
3800.845888,-9400.615463,740.205942,-766.095498
3800.846217,-9178.553681,-740.205942,153.219100
3800.846547,-8808.450710,148.041188,0.000000
3800.846877,-9252.574275,592.164754,229.828649
3800.847206,-10807.006753,962.267725,-229.828649
3800.847536,-10881.027347,1258.350101,-1608.800546
3800.847866,-9696.697840,518.144159,-1685.410096
3800.848196,-9918.759623,370.102971,-1532.190996
3800.848525,-11177.109724,148.041188,-995.924147
3800.848855,-10362.883188,-1184.329507,536.266849
3800.849185,-8808.450710,-962.267725,459.657299
3800.849515,-7624.121203,-1628.453072,-306.438199
3800.849844,-8586.388927,-1702.473667,995.924147
3800.850174,-9622.677246,-74.020594,2068.457845
3800.850504,-10288.862594,-1036.288319,1991.848295
3800.850834,-10140.821405,-666.185348,1302.362347
3800.851163,-9770.718434,0.000000,76.609550
3800.851493,-9844.739029,-444.123565,153.219100
3800.851823,-10214.842000,-222.061783,-995.924147
3800.852153,-9548.656652,-666.185348,-919.314598
3800.852482,-10436.903782,-1036.288319,-1378.971896
3800.852812,-9400.615463,0.000000,-1455.581446
3800.853142,-8586.388927,-1110.308913,-612.876398
3800.853471,-8364.327145,-518.144159,-306.438199
3800.853801,-9252.574275,-74.020594,766.095498
3800.854131,-10214.842000,-148.041188,842.705048
3800.854461,-10510.924376,0.000000,612.876398
3800.854790,-10436.903782,-592.164754,459.657299
3800.855120,-10510.924376,-1036.288319,766.095498
3800.855450,-9844.739029,-592.164754,459.657299
3800.855780,-10066.800811,-1554.432478,842.705048
3800.856109,-9844.739029,-1406.391290,689.485948
3800.856439,-9104.533087,-518.144159,1072.533697
3800.856769,-9030.512492,-2072.576638,153.219100
3800.857099,-9696.697840,-148.041188,306.438199
3800.857428,-10066.800811,-148.041188,1762.019645
3800.857758,-11251.130318,-222.061783,2374.896044
3800.858088,-9992.780217,296.082377,1072.533697
3800.858418,-9030.512492,-888.247130,229.828649
3800.858747,-9770.718434,0.000000,229.828649
3800.859077,-10436.903782,0.000000,383.047749
3800.859407,-11029.068536,0.000000,2221.676944
3800.859736,-9770.718434,814.226536,1685.410096
3800.860066,-9548.656652,370.102971,306.438199
3800.860396,-10288.862594,296.082377,153.219100
3800.860726,-10140.821405,1406.391290,229.828649
3800.861055,-9918.759623,148.041188,-153.219100
3800.861385,-9474.636058,740.205942,-612.876398
3800.861715,-9178.553681,1110.308913,-153.219100
3800.862045,-10066.800811,222.061783,153.219100
3800.862374,-9918.759623,1258.350101,-766.095498
3800.862704,-9918.759623,0.000000,-76.609550
3800.863034,-10288.862594,-222.061783,459.657299
3800.863364,-9030.512492,222.061783,689.485948
3800.863693,-8808.450710,-666.185348,919.314598
3800.864023,-8290.306550,592.164754,1762.019645
3800.864353,-9844.739029,1258.350101,1455.581446
3800.864683,-10658.965565,444.123565,1302.362347
3800.865012,-10584.944971,1332.370696,-76.609550
3800.865342,-11695.253884,1036.288319,-1378.971896
3800.865672,-10881.027347,1406.391290,-689.485948
3800.866001,-10066.800811,1110.308913,-1532.190996
3800.866331,-9548.656652,-592.164754,-995.924147
3800.866661,-8364.327145,370.102971,-612.876398
3800.866991,-9030.512492,888.247130,-919.314598
3800.867320,-9474.636058,0.000000,-383.047749
3800.867650,-8438.347739,1628.453072,-612.876398
3800.867980,-9030.512492,0.000000,995.924147
3800.868310,-10066.800811,814.226536,1378.971896
3800.868639,-10658.965565,1184.329507,1302.362347
3800.868969,-11103.089130,370.102971,1302.362347
3800.869299,-9770.718434,0.000000,-459.657299
3800.869629,-9030.512492,0.000000,-689.485948
3800.869958,-9548.656652,-148.041188,383.047749
3800.870288,-9548.656652,1036.288319,229.828649
3800.870618,-9178.553681,222.061783,-229.828649
3800.870948,-8956.491898,666.185348,-919.314598
3800.871277,-9326.594869,1110.308913,-1455.581446
3800.871607,-10436.903782,0.000000,-229.828649
3800.871937,-9844.739029,592.164754,-76.609550
3800.872266,-9104.533087,0.000000,459.657299
3800.872596,-9696.697840,0.000000,689.485948
3800.872926,-9474.636058,444.123565,0.000000
3800.873256,-11103.089130,-370.102971,689.485948
3800.873585,-10955.047942,-222.061783,612.876398
3800.873915,-9696.697840,0.000000,306.438199
3800.874245,-9622.677246,-1184.329507,536.266849
3800.874575,-9030.512492,-666.185348,1072.533697
3800.874904,-9992.780217,-740.205942,1455.581446
3800.875234,-9696.697840,-1110.308913,995.924147
3800.875564,-9400.615463,-518.144159,76.609550
3800.875894,-9400.615463,-962.267725,919.314598
3800.876223,-9770.718434,0.000000,306.438199
3800.876553,-9548.656652,296.082377,689.485948
3800.876883,-10288.862594,-814.226536,842.705048
3800.877213,-10288.862594,814.226536,536.266849
3800.877542,-10881.027347,-222.061783,842.705048
3800.877872,-11177.109724,0.000000,153.219100
3800.878202,-9400.615463,-296.082377,-459.657299
3800.878531,-9252.574275,-1258.350101,536.266849
3800.878861,-8290.306550,0.000000,919.314598
3800.879191,-9178.553681,-444.123565,1532.190996
3800.879521,-10881.027347,-148.041188,1685.410096
3800.879850,-9548.656652,-74.020594,-919.314598
3800.880180,-9178.553681,-592.164754,-766.095498
3800.880510,-9696.697840,-666.185348,-76.609550
3800.880840,-10436.903782,222.061783,1455.581446
3800.881169,-10066.800811,-1332.370696,2145.067394
3800.881499,-9400.615463,74.020594,459.657299
3800.881829,-9474.636058,-444.123565,-383.047749
3800.882159,-10732.986159,-888.247130,-919.314598
3800.882488,-9770.718434,370.102971,-536.266849
3800.882818,-9326.594869,-740.205942,919.314598
3800.883148,-9770.718434,222.061783,995.924147
3800.883477,-9474.636058,-296.082377,536.266849
3800.883807,-9770.718434,-222.061783,0.000000
3800.884137,-8882.471304,0.000000,-536.266849
3800.884467,-9474.636058,148.041188,-842.705048
3800.884796,-10214.842000,-296.082377,-536.266849
3800.885126,-9770.718434,888.247130,76.609550
3800.885456,-10066.800811,-370.102971,1302.362347
3800.885786,-9474.636058,74.020594,1225.752797
3800.886115,-10288.862594,592.164754,-536.266849
3800.886445,-10288.862594,0.000000,-1685.410096
3800.886775,-8956.491898,740.205942,-1302.362347
3800.887105,-8734.430116,444.123565,229.828649
3800.887434,-9474.636058,74.020594,842.705048
3800.887764,-10362.883188,1036.288319,-153.219100
3800.888094,-10214.842000,0.000000,-153.219100
3800.888424,-9696.697840,740.205942,-1378.971896
3800.888753,-9844.739029,592.164754,-1838.629195
3800.889083,-10807.006753,-592.164754,-1685.410096
3800.889413,-9326.594869,888.247130,-306.438199
3800.889742,-9326.594869,-148.041188,1225.752797
3800.890072,-10066.800811,0.000000,1685.410096
3800.890402,-10362.883188,444.123565,612.876398
3800.890732,-10214.842000,-592.164754,0.000000
3800.891061,-9252.574275,-74.020594,0.000000
3800.891391,-9548.656652,0.000000,842.705048
3800.891721,-10732.986159,-518.144159,1991.848295
3800.892051,-9548.656652,0.000000,919.314598
3800.892380,-8882.471304,0.000000,-842.705048
3800.892710,-9474.636058,-296.082377,0.000000
3800.893040,-11103.089130,1110.308913,0.000000
3800.893370,-10807.006753,-666.185348,766.095498
3800.893699,-10140.821405,148.041188,536.266849
3800.894029,-8438.347739,74.020594,0.000000
3800.894359,-8068.244768,-740.205942,-229.828649
3800.894689,-8586.388927,740.205942,76.609550
3800.895018,-10288.862594,0.000000,1378.971896
3800.895348,-10732.986159,370.102971,995.924147
3800.895678,-9696.697840,814.226536,0.000000
3800.896007,-9992.780217,-370.102971,0.000000
3800.896337,-10584.944971,740.205942,383.047749
3800.896667,-10658.965565,0.000000,612.876398
3800.896997,-10214.842000,-370.102971,459.657299
3800.897326,-8290.306550,814.226536,-383.047749
3800.897656,-8512.368333,148.041188,-1302.362347
3800.897986,-9844.739029,592.164754,-689.485948
3800.898316,-10288.862594,1110.308913,0.000000
3800.898645,-9770.718434,-222.061783,766.095498
3800.898975,-9548.656652,740.205942,-306.438199
3800.899305,-10436.903782,814.226536,689.485948
3800.899635,-10807.006753,0.000000,995.924147
3800.899964,-10436.903782,888.247130,0.000000
3800.900294,-10732.986159,0.000000,0.000000
3800.900624,-11251.130318,444.123565,536.266849
3800.900954,-10658.965565,370.102971,76.609550
3800.901283,-9844.739029,-814.226536,0.000000
3800.901613,-8882.471304,74.020594,-383.047749
3800.901943,-8364.327145,0.000000,-459.657299
3800.902272,-7920.203579,0.000000,0.000000
3800.902602,-7624.121203,222.061783,76.609550
3800.902932,-9992.780217,296.082377,689.485948
3800.903262,-11917.315666,148.041188,383.047749
3800.903591,-10881.027347,370.102971,0.000000
3800.903921,-9696.697840,-1036.288319,0.000000
3800.904251,-9622.677246,-148.041188,536.266849
3800.904581,-9474.636058,-296.082377,1838.629195
3800.904910,-8734.430116,-592.164754,1072.533697
3800.905240,-8216.285956,370.102971,-383.047749
3800.905570,-8882.471304,-444.123565,-536.266849
3800.905900,-9844.739029,740.205942,0.000000
3800.906229,-10732.986159,888.247130,-612.876398
3800.906559,-10214.842000,-370.102971,-842.705048
3800.906889,-8660.409521,0.000000,-612.876398
3800.907219,-9252.574275,-740.205942,689.485948
3800.907548,-10658.965565,0.000000,1455.581446
3800.907878,-10510.924376,148.041188,229.828649
3800.908208,-10214.842000,-518.144159,229.828649
3800.908537,-10510.924376,222.061783,1072.533697
3800.908867,-10066.800811,-296.082377,1072.533697
3800.909197,-10140.821405,-814.226536,1072.533697
3800.909527,-9548.656652,518.144159,229.828649
3800.909856,-9252.574275,-222.061783,0.000000
3800.910186,-8956.491898,0.000000,0.000000
3800.910516,-8956.491898,666.185348,0.000000
3800.910846,-10658.965565,0.000000,459.657299
3800.911175,-10732.986159,740.205942,229.828649
3800.911505,-10584.944971,74.020594,-536.266849
3800.911835,-11325.150913,-962.267725,-153.219100
3800.912165,-9622.677246,148.041188,229.828649
3800.912494,-9326.594869,-592.164754,1455.581446
3800.912824,-8808.450710,-518.144159,1072.533697
3800.913154,-9030.512492,888.247130,229.828649
3800.913484,-9696.697840,0.000000,306.438199
3800.913813,-9400.615463,592.164754,-766.095498
3800.914143,-8956.491898,592.164754,-612.876398
3800.914473,-10066.800811,0.000000,1149.143247
3800.914802,-10362.883188,740.205942,842.705048
3800.915132,-10510.924376,-444.123565,1378.971896
3800.915462,-9992.780217,0.000000,306.438199
3800.915792,-9548.656652,370.102971,-1225.752797
3800.916121,-10362.883188,0.000000,0.000000
3800.916451,-9696.697840,962.267725,153.219100
3800.916781,-9178.553681,444.123565,612.876398
3800.917111,-10658.965565,666.185348,689.485948
3800.917440,-9770.718434,1850.514855,-1225.752797
3800.917770,-10214.842000,0.000000,-1532.190996
3800.918100,-9696.697840,296.082377,-2221.676944
3800.918430,-9030.512492,0.000000,-919.314598
3800.918759,-9844.739029,-814.226536,919.314598
3800.919089,-8956.491898,0.000000,1149.143247
3800.919419,-9030.512492,-1184.329507,1149.143247
3800.919749,-8882.471304,-1036.288319,1072.533697
3800.920078,-8956.491898,370.102971,459.657299
3800.920408,-9918.759623,-592.164754,1302.362347
3800.920738,-9770.718434,518.144159,1838.629195
3800.921067,-9326.594869,444.123565,1072.533697
3800.921397,-10807.006753,-222.061783,766.095498
3800.921727,-10362.883188,1554.432478,-1302.362347
3800.922057,-9992.780217,-518.144159,-1608.800546
3800.922386,-9326.594869,0.000000,-1455.581446
3800.922716,-8438.347739,814.226536,-1685.410096
3800.923046,-9030.512492,0.000000,-536.266849
3800.923376,-9548.656652,592.164754,0.000000
3800.923705,-9696.697840,370.102971,383.047749
3800.924035,-10288.862594,-148.041188,919.314598
3800.924365,-9844.739029,370.102971,153.219100
3800.924695,-9918.759623,-222.061783,1149.143247
3800.925024,-10362.883188,296.082377,2068.457845
3800.925354,-10732.986159,1184.329507,612.876398
3800.925684,-11251.130318,-370.102971,-153.219100
3800.926014,-9696.697840,666.185348,-1685.410096
3800.926343,-8956.491898,370.102971,-919.314598
3800.926673,-9696.697840,-74.020594,536.266849
3800.927003,-9400.615463,518.144159,383.047749
3800.927332,-8882.471304,-666.185348,76.609550
3800.927662,-8882.471304,222.061783,536.266849
3800.927992,-9252.574275,814.226536,0.000000
3800.928322,-11399.171507,-296.082377,689.485948
3800.928651,-10510.924376,148.041188,1072.533697
3800.928981,-9622.677246,-592.164754,3140.991542
3800.929311,-10510.924376,0.000000,3064.381992
3800.929641,-10288.862594,1332.370696,1455.581446
3800.929970,-10658.965565,-148.041188,229.828649
3800.930300,-9030.512492,444.123565,-459.657299
3800.930630,-8734.430116,740.205942,76.609550
3800.930960,-10140.821405,370.102971,1685.410096
3800.931289,-10288.862594,666.185348,919.314598
3800.931619,-9252.574275,148.041188,-306.438199
3800.931949,-8734.430116,-296.082377,-995.924147
3800.932279,-9548.656652,1110.308913,-1302.362347
3800.932608,-10732.986159,0.000000,0.000000
3800.932938,-10955.047942,814.226536,612.876398
3800.933268,-9696.697840,666.185348,459.657299
3800.933597,-10140.821405,-518.144159,459.657299
3800.933927,-9992.780217,222.061783,-306.438199
3800.934257,-9918.759623,-1110.308913,229.828649
3800.934587,-9474.636058,-370.102971,919.314598
3800.934916,-8734.430116,370.102971,153.219100
3800.935246,-9696.697840,-666.185348,153.219100
3800.935576,-9400.615463,0.000000,-383.047749
3800.935906,-8660.409521,0.000000,-536.266849
3800.936235,-9770.718434,-888.247130,229.828649
3800.936565,-10288.862594,740.205942,-612.876398
3800.936895,-9918.759623,-592.164754,-229.828649
3800.937225,-8290.306550,-814.226536,-842.705048
3800.937554,-8142.265362,148.041188,0.000000
3800.937884,-10288.862594,-518.144159,1225.752797
3800.938214,-11695.253884,222.061783,689.485948
3800.938543,-9548.656652,-222.061783,-459.657299
3800.938873,-8364.327145,-518.144159,-459.657299
3800.939203,-9104.533087,740.205942,0.000000
3800.939532,-10881.027347,-444.123565,229.828649
3800.939862,-10658.965565,222.061783,-995.924147
3800.940192,-8290.306550,1110.308913,-2068.457845
3800.940521,-9696.697840,-370.102971,-1378.971896
3800.940851,-10436.903782,222.061783,-689.485948
3800.941181,-10140.821405,444.123565,229.828649
3800.941510,-9918.759623,-592.164754,459.657299
3800.941840,-9622.677246,148.041188,153.219100
3800.942170,-8808.450710,-1702.473667,459.657299
3800.942499,-10214.842000,-666.185348,306.438199
3800.942829,-10214.842000,296.082377,153.219100
3800.943159,-10807.006753,-1258.350101,1455.581446
3800.943488,-9400.615463,148.041188,919.314598
3800.943818,-8882.471304,-296.082377,536.266849
3800.944148,-9918.759623,-296.082377,995.924147
3800.944477,-9400.615463,296.082377,459.657299
3800.944807,-11029.068536,-740.205942,459.657299
3800.945137,-10955.047942,-370.102971,1072.533697
3800.945466,-9844.739029,296.082377,995.924147
3800.945796,-10066.800811,-1332.370696,1685.410096
3800.946126,-9252.574275,0.000000,536.266849
3800.946455,-7994.224174,-814.226536,689.485948
3800.946785,-9548.656652,-444.123565,1838.629195
3800.947115,-9770.718434,1406.391290,1378.971896
3800.947444,-10510.924376,-296.082377,1915.238745
3800.947774,-9918.759623,592.164754,536.266849
3800.948104,-8216.285956,444.123565,-383.047749
3800.948433,-10732.986159,74.020594,995.924147
3800.948763,-10955.047942,1110.308913,766.095498
3800.949093,-9844.739029,-148.041188,-766.095498
3800.949422,-9474.636058,0.000000,-766.095498
3800.949752,-8586.388927,1406.391290,-919.314598
3800.950082,-10362.883188,0.000000,919.314598
3800.950411,-9992.780217,1110.308913,383.047749
3800.950741,-8586.388927,888.247130,-1149.143247
3800.951071,-9770.718434,-518.144159,-1378.971896
3800.951400,-9326.594869,1628.453072,-1838.629195
3800.951730,-10436.903782,296.082377,383.047749
3800.952060,-10658.965565,222.061783,1225.752797
3800.952389,-8882.471304,1776.494261,-76.609550
3800.952719,-10584.944971,0.000000,306.438199
3800.953049,-11103.089130,592.164754,-536.266849
3800.953378,-10066.800811,444.123565,306.438199
3800.953708,-10510.924376,-518.144159,1455.581446
3800.954038,-10362.883188,1628.453072,459.657299
3800.954367,-9548.656652,0.000000,766.095498
3800.954697,-8586.388927,518.144159,306.438199
3800.955027,-7476.080014,1036.288319,-995.924147
3800.955356,-10881.027347,-74.020594,383.047749
3800.955686,-10510.924376,1258.350101,536.266849
3800.956016,-9252.574275,148.041188,-536.266849
3800.956345,-9548.656652,74.020594,536.266849
3800.956675,-9696.697840,962.267725,536.266849
3800.957005,-10807.006753,0.000000,383.047749
3800.957334,-9770.718434,0.000000,306.438199
3800.957664,-8364.327145,518.144159,-842.705048
3800.957994,-9400.615463,-1110.308913,842.705048
3800.958323,-9844.739029,666.185348,842.705048
3800.958653,-9548.656652,0.000000,1225.752797
3800.958983,-9696.697840,-296.082377,766.095498
3800.959312,-8956.491898,1258.350101,-76.609550
3800.959642,-10288.862594,-666.185348,306.438199
3800.959972,-9696.697840,74.020594,306.438199
3800.960301,-9178.553681,222.061783,-229.828649
3800.960631,-10955.047942,-666.185348,1072.533697
3800.960961,-10436.903782,814.226536,383.047749
3800.961290,-9696.697840,222.061783,-689.485948
3800.961620,-10362.883188,-592.164754,-383.047749
3800.961950,-9770.718434,518.144159,-689.485948
3800.962279,-10732.986159,-1184.329507,842.705048
3800.962609,-9474.636058,-370.102971,1149.143247
3800.962939,-8660.409521,0.000000,995.924147
3800.963268,-10066.800811,-1258.350101,1302.362347
3800.963598,-9844.739029,370.102971,-459.657299
3800.963928,-9844.739029,-1258.350101,-306.438199
3800.964257,-9696.697840,-296.082377,689.485948
3800.964587,-9400.615463,74.020594,306.438199
3800.964917,-10807.006753,-888.247130,1378.971896
3800.965246,-9918.759623,222.061783,995.924147
3800.965576,-8956.491898,0.000000,-919.314598
3800.965906,-9844.739029,-1036.288319,-153.219100
3800.966235,-10584.944971,888.247130,-459.657299
3800.966565,-10214.842000,-666.185348,0.000000
3800.966895,-8438.347739,-444.123565,-153.219100
3800.967224,-8290.306550,666.185348,-306.438199
3800.967554,-10807.006753,-444.123565,536.266849
3800.967884,-11325.150913,370.102971,153.219100
3800.968213,-9622.677246,148.041188,-1072.533697
3800.968543,-10214.842000,-1184.329507,-612.876398
3800.968873,-9918.759623,666.185348,-459.657299
3800.969202,-10362.883188,-814.226536,1225.752797
3800.969532,-10955.047942,-592.164754,766.095498
3800.969862,-8586.388927,0.000000,-1225.752797
3800.970191,-9474.636058,-518.144159,-766.095498
3800.970521,-9326.594869,-370.102971,-1072.533697
3800.970851,-10066.800811,0.000000,-536.266849
3800.971180,-9400.615463,-666.185348,1149.143247
3800.971510,-9474.636058,296.082377,689.485948
3800.971840,-10510.924376,-444.123565,1149.143247
3800.972170,-10510.924376,-962.267725,229.828649
3800.972499,-9326.594869,370.102971,0.000000
3800.972829,-9326.594869,-1184.329507,766.095498
3800.973159,-9326.594869,370.102971,766.095498
3800.973488,-8808.450710,-74.020594,995.924147
3800.973818,-10288.862594,370.102971,1225.752797
3800.974148,-10584.944971,1998.556043,0.000000
3800.974477,-11029.068536,0.000000,-229.828649
3800.974807,-9918.759623,740.205942,-1072.533697
3800.975137,-8512.368333,518.144159,-1149.143247
3800.975466,-9548.656652,-222.061783,536.266849
3800.975796,-9696.697840,740.205942,153.219100
3800.976126,-9252.574275,518.144159,0.000000
3800.976455,-9400.615463,-74.020594,-76.609550
3800.976785,-9474.636058,1628.453072,0.000000
3800.977115,-11177.109724,0.000000,1762.019645
3800.977444,-10658.965565,666.185348,612.876398
3800.977774,-8808.450710,296.082377,153.219100
3800.978104,-10362.883188,-962.267725,842.705048
3800.978433,-9844.739029,370.102971,536.266849
3800.978763,-9622.677246,-148.041188,612.876398
3800.979093,-9844.739029,0.000000,536.266849
3800.979422,-8734.430116,518.144159,0.000000
3800.979752,-9400.615463,-370.102971,306.438199
3800.980082,-9918.759623,592.164754,766.095498
3800.980411,-9104.533087,370.102971,153.219100
3800.980741,-9474.636058,-296.082377,1302.362347
3800.981071,-9622.677246,1924.535449,919.314598
3800.981400,-10732.986159,74.020594,1915.238745
3800.981730,-10881.027347,74.020594,2451.505594
3800.982060,-9548.656652,962.267725,919.314598
3800.982389,-11177.109724,740.205942,0.000000
3800.982719,-10807.006753,1110.308913,-612.876398
3800.983049,-9104.533087,592.164754,-766.095498
3800.983378,-8586.388927,-296.082377,229.828649
3800.983708,-9030.512492,1702.473667,1072.533697
3800.984038,-10807.006753,1036.288319,1378.971896
3800.984367,-10288.862594,0.000000,0.000000
3800.984697,-7624.121203,1406.391290,-1378.971896
3800.985027,-9474.636058,222.061783,153.219100
3800.985356,-11917.315666,1406.391290,1762.019645
3800.985686,-11843.295072,0.000000,689.485948
3800.986016,-10510.924376,222.061783,1149.143247
3800.986345,-8586.388927,592.164754,0.000000
3800.986675,-9622.677246,-444.123565,-689.485948
3800.987005,-10066.800811,0.000000,-689.485948
3800.987334,-8438.347739,814.226536,-459.657299
3800.987664,-9252.574275,-296.082377,919.314598
3800.987994,-9696.697840,1184.329507,153.219100
3800.988323,-10288.862594,222.061783,76.609550
3800.988653,-10881.027347,296.082377,76.609550
3800.988983,-9474.636058,1110.308913,-612.876398
3800.989312,-10658.965565,-444.123565,766.095498
3800.989642,-11029.068536,518.144159,1762.019645
3800.989972,-9178.553681,74.020594,995.924147
3800.990301,-9252.574275,-1332.370696,153.219100
3800.990631,-9252.574275,814.226536,0.000000
3800.990961,-9548.656652,-296.082377,229.828649
3800.991290,-10288.862594,-518.144159,919.314598
3800.991620,-7920.203579,888.247130,536.266849
3800.991950,-9622.677246,-740.205942,1149.143247
3800.992279,-10955.047942,370.102971,383.047749
3800.992609,-9474.636058,296.082377,-1532.190996
3800.992939,-9696.697840,-1110.308913,-689.485948
3800.993268,-9326.594869,592.164754,-536.266849
3800.993598,-10436.903782,-592.164754,383.047749
3800.993928,-10881.027347,-592.164754,612.876398
3800.994257,-8956.491898,518.144159,-689.485948
3800.994587,-10140.821405,-1480.411884,306.438199
3800.994917,-9104.533087,-222.061783,-536.266849
3800.995246,-8364.327145,-444.123565,-689.485948
3800.995576,-9622.677246,-740.205942,76.609550
3800.995906,-10436.903782,296.082377,0.000000
3800.996235,-11325.150913,-1036.288319,229.828649
3800.996565,-11547.212695,-1850.514855,76.609550
3800.996895,-9030.512492,-740.205942,-306.438199
3800.997224,-9622.677246,-2812.782580,919.314598
3800.997554,-9104.533087,-1258.350101,1378.971896
3800.997884,-7994.224174,-1110.308913,1378.971896
3800.998213,-9844.739029,-1184.329507,1991.848295
3800.998543,-9770.718434,296.082377,229.828649
3800.998873,-11177.109724,-814.226536,536.266849
3800.999202,-10510.924376,-296.082377,766.095498
3800.999532,-8882.471304,0.000000,0.000000
3800.999862,-9770.718434,-1480.411884,1302.362347
3801.000191,-9696.697840,222.061783,1455.581446
3801.000521,-9474.636058,0.000000,1455.581446
3801.000851,-10362.883188,74.020594,1838.629195
3801.001180,-10436.903782,2368.659014,689.485948
3801.001510,-11325.150913,666.185348,919.314598
3801.001840,-10584.944971,1184.329507,0.000000
3801.002169,-9400.615463,962.267725,-1302.362347
3801.002499,-10288.862594,-370.102971,459.657299
3801.002829,-9622.677246,740.205942,1685.410096
3801.003158,-8660.409521,444.123565,2374.896044
3801.003488,-9104.533087,814.226536,2451.505594
3801.003818,-8956.491898,1998.556043,1378.971896
3801.004147,-10362.883188,814.226536,229.828649
3801.004477,-10510.924376,1258.350101,76.609550
3801.004807,-9474.636058,1184.329507,0.000000
3801.005136,-9622.677246,74.020594,1378.971896
3801.005466,-9400.615463,1332.370696,2298.286494
3801.005796,-8882.471304,1480.411884,2298.286494
3801.006125,-9400.615463,814.226536,2298.286494
3801.006455,-8734.430116,3108.864956,1455.581446
3801.006785,-8956.491898,1110.308913,1149.143247
3801.007114,-9474.636058,2294.638420,1762.019645
3801.007444,-9474.636058,2368.659014,2298.286494
3801.007774,-9474.636058,1702.473667,3524.039291
3801.008103,-9548.656652,3108.864956,3983.696590
3801.008433,-10732.986159,3404.947333,1378.971896
3801.008763,-10140.821405,2072.576638,536.266849
3801.009092,-10881.027347,4589.276840,229.828649
3801.009422,-11029.068536,3701.029710,1455.581446
3801.009752,-9918.759623,2812.782580,2604.724693
3801.010081,-8956.491898,4959.379811,2451.505594
3801.010411,-8734.430116,3182.885551,2681.334243
3801.010741,-9992.780217,3849.070898,2374.896044
3801.011070,-11251.130318,4737.318029,1685.410096
3801.011400,-9770.718434,2812.782580,2451.505594
3801.011730,-10362.883188,3627.009116,3064.381992
3801.012059,-11843.295072,2664.741391,3217.601092
3801.012389,-10362.883188,962.267725,3753.867940
3801.012719,-9326.594869,1924.535449,1685.410096
3801.013048,-7920.203579,1332.370696,0.000000
3801.013378,-6661.853478,1776.494261,1532.190996
3801.013708,-8364.327145,3034.844362,4673.182538
3801.014037,-9326.594869,2886.803174,6435.202183
3801.014367,-9992.780217,3182.885551,5822.325785
3801.014697,-11251.130318,3330.926739,3677.258390
3801.015026,-11843.295072,2368.659014,1455.581446
3801.015356,-11769.274478,1998.556043,919.314598
3801.015686,-10584.944971,1998.556043,1915.238745
3801.016015,-9770.718434,1406.391290,2834.553343
3801.016345,-9992.780217,2812.782580,2528.115143
3801.016675,-8142.265362,2442.679609,536.266849
3801.017004,-8216.285956,2516.700203,612.876398
3801.017334,-9844.739029,1924.535449,1915.238745
3801.017664,-9548.656652,1702.473667,3830.477490
3801.017993,-8290.306550,1258.350101,5592.497135
3801.018323,-8956.491898,1702.473667,5592.497135
3801.018653,-9770.718434,1258.350101,3753.867940
3801.018982,-11251.130318,1998.556043,1762.019645
3801.019312,-11399.171507,1850.514855,306.438199
3801.019642,-11029.068536,3108.864956,1149.143247
3801.019971,-10288.862594,4071.132681,2374.896044
3801.020301,-10732.986159,1924.535449,2604.724693
3801.020631,-9548.656652,2812.782580,2604.724693
3801.020960,-8660.409521,1258.350101,766.095498
3801.021290,-8808.450710,1702.473667,-612.876398
3801.021620,-8586.388927,1332.370696,1149.143247
3801.021949,-8882.471304,1702.473667,2911.162892
3801.022279,-8438.347739,2368.659014,4060.306139
3801.022609,-10288.862594,2220.617826,3600.648841
3801.022938,-11843.295072,2294.638420,2604.724693
3801.023268,-12287.418637,2738.761985,2451.505594
3801.023598,-11843.295072,3182.885551,2374.896044
3801.023927,-11251.130318,2146.597232,2221.676944
3801.024257,-9178.553681,2220.617826,3140.991542
3801.024587,-8586.388927,1258.350101,3753.867940
3801.024916,-9178.553681,1110.308913,2068.457845
3801.025246,-8290.306550,962.267725,612.876398
3801.025576,-8660.409521,444.123565,76.609550
3801.025905,-7402.059420,1110.308913,1608.800546
3801.026235,-8808.450710,2442.679609,3064.381992
3801.026565,-10436.903782,3034.844362,3677.258390
3801.026894,-10807.006753,3034.844362,1762.019645
3801.027224,-10881.027347,2294.638420,459.657299
3801.027554,-10732.986159,2294.638420,995.924147
3801.027883,-10955.047942,1110.308913,3217.601092
3801.028213,-10066.800811,1184.329507,3983.696590
3801.028543,-8808.450710,-370.102971,3753.867940
3801.028872,-7476.080014,296.082377,3524.039291
3801.029202,-7772.162391,1036.288319,2374.896044
3801.029532,-8956.491898,1554.432478,1149.143247
3801.029861,-8290.306550,2886.803174,459.657299
3801.030191,-9326.594869,2886.803174,0.000000
3801.030521,-10658.965565,3775.050304,383.047749
3801.030850,-11251.130318,2220.617826,1532.190996
3801.031180,-11399.171507,2368.659014,689.485948
3801.031510,-9844.739029,592.164754,1378.971896
3801.031839,-8364.327145,74.020594,1915.238745
3801.032169,-7994.224174,962.267725,3294.210641
3801.032499,-7846.182985,814.226536,5056.230287
3801.032828,-9918.759623,2442.679609,4290.134789
3801.033158,-10140.821405,3108.864956,2068.457845
3801.033488,-10140.821405,3256.906145,766.095498
3801.033817,-11769.274478,4219.173869,2221.676944
3801.034147,-11991.336260,3108.864956,2987.772442
3801.034477,-11843.295072,2960.823768,3370.820191
3801.034806,-10214.842000,2664.741391,1762.019645
3801.035136,-8586.388927,814.226536,1378.971896
3801.035466,-9844.739029,1110.308913,2604.724693
3801.035795,-9178.553681,1628.453072,3140.991542
3801.036125,-8068.244768,962.267725,4443.353888
3801.036455,-8512.368333,2886.803174,4519.963438
3801.036784,-9326.594869,3627.009116,3830.477490
3801.037114,-11029.068536,2368.659014,4060.306139
3801.037444,-11547.212695,3552.988522,3064.381992
3801.037773,-11325.150913,2812.782580,2221.676944
3801.038103,-10584.944971,2516.700203,2528.115143
3801.038433,-10362.883188,2812.782580,3677.258390
3801.038762,-10214.842000,2220.617826,4290.134789
3801.039092,-8734.430116,1998.556043,2834.553343
3801.039422,-8734.430116,2442.679609,0.000000
3801.039751,-9178.553681,1480.411884,-153.219100
3801.040081,-9178.553681,2886.803174,1302.362347
3801.040411,-8142.265362,2368.659014,2681.334243
3801.040740,-7402.059420,2368.659014,4060.306139
3801.041070,-9178.553681,3256.906145,3447.429741
3801.041400,-10584.944971,3256.906145,842.705048
3801.041729,-11399.171507,2960.823768,-689.485948
3801.042059,-11695.253884,3478.967927,-1225.752797
3801.042389,-10066.800811,2664.741391,2145.067394
3801.042718,-9474.636058,2516.700203,3677.258390
3801.043048,-10214.842000,2664.741391,3064.381992
3801.043378,-8438.347739,1702.473667,2298.286494
3801.043707,-7920.203579,2368.659014,459.657299
3801.044037,-8068.244768,3404.947333,0.000000
3801.044367,-9844.739029,3701.029710,766.095498
3801.044696,-11103.089130,4293.194464,1762.019645
3801.045026,-11029.068536,3256.906145,1302.362347
3801.045356,-10955.047942,2812.782580,842.705048
3801.045685,-10732.986159,1998.556043,612.876398
3801.046015,-11103.089130,1036.288319,1302.362347
3801.046345,-9252.574275,1184.329507,3524.039291
3801.046674,-7031.956449,814.226536,3907.087040
3801.047004,-7328.038826,1776.494261,4443.353888
3801.047334,-8512.368333,2368.659014,4443.353888
3801.047663,-10510.924376,3182.885551,3600.648841
3801.047993,-11621.233289,3775.050304,3217.601092
3801.048323,-12805.562797,3627.009116,1072.533697
3801.048652,-12287.418637,2220.617826,-306.438199
3801.048982,-12065.356855,1258.350101,-766.095498
3801.049311,-10362.883188,-296.082377,-383.047749
3801.049641,-8068.244768,-2738.761985,842.705048
3801.049971,-5403.503377,-1406.391290,2451.505594
3801.050300,-4811.338623,-1332.370696,4366.744339
3801.050630,-6587.832884,148.041188,3983.696590
3801.050960,-7328.038826,1480.411884,3064.381992
3801.051289,-9918.759623,2072.576638,2681.334243
3801.051619,-11843.295072,2960.823768,3830.477490
3801.051949,-13693.809927,2442.679609,4979.620737
3801.052278,-13471.748144,1776.494261,4213.525239
3801.052608,-11843.295072,1702.473667,2451.505594
3801.052938,-9696.697840,1332.370696,0.000000
3801.053267,-9178.553681,814.226536,153.219100
3801.053597,-8660.409521,666.185348,2145.067394
3801.053927,-7772.162391,1406.391290,2451.505594
3801.054256,-6957.935855,2368.659014,2451.505594
3801.054586,-7698.141797,2664.741391,1455.581446
3801.054916,-9474.636058,1924.535449,612.876398
3801.055245,-11251.130318,1554.432478,1225.752797
3801.055575,-12213.398043,1258.350101,3064.381992
3801.055905,-11695.253884,444.123565,4443.353888
3801.056234,-10140.821405,1406.391290,5056.230287
3801.056564,-10140.821405,1406.391290,4060.306139
3801.056894,-9844.739029,1036.288319,3140.991542
3801.057223,-10214.842000,2368.659014,1762.019645
3801.057553,-9770.718434,2812.782580,1302.362347
3801.057883,-9326.594869,3256.906145,1838.629195
3801.058212,-9474.636058,3108.864956,1991.848295
3801.058542,-9770.718434,2664.741391,766.095498
3801.058872,-9696.697840,2368.659014,-1149.143247
3801.059201,-9252.574275,1924.535449,-2221.676944
3801.059531,-9696.697840,1258.350101,-536.266849
3801.059861,-10140.821405,814.226536,2528.115143
3801.060190,-9770.718434,962.267725,3830.477490
3801.060520,-9474.636058,1332.370696,4443.353888
3801.060849,-9622.677246,1110.308913,2374.896044
3801.061179,-9474.636058,1110.308913,1762.019645
3801.061509,-10140.821405,1184.329507,2068.457845
3801.061838,-9474.636058,1628.453072,2987.772442
3801.062168,-9030.512492,1480.411884,1838.629195
3801.062498,-8512.368333,1554.432478,995.924147
3801.062827,-9178.553681,1702.473667,383.047749
3801.063157,-9696.697840,1702.473667,-76.609550
3801.063487,-9992.780217,1628.453072,153.219100
3801.063816,-9992.780217,1702.473667,383.047749
3801.064146,-9622.677246,1554.432478,1532.190996
3801.064476,-9030.512492,1110.308913,1762.019645
3801.064805,-9326.594869,1628.453072,1532.190996
3801.065135,-9252.574275,1036.288319,1608.800546
3801.065465,-9104.533087,740.205942,1532.190996
3801.065794,-8364.327145,666.185348,2451.505594
3801.066124,-8882.471304,1110.308913,3830.477490
3801.066454,-9474.636058,1776.494261,4136.915689
3801.066783,-9918.759623,1998.556043,3677.258390
3801.067113,-10584.944971,2442.679609,2911.162892
3801.067443,-11325.150913,2738.761985,1838.629195
3801.067772,-11473.192101,2516.700203,1685.410096
3801.068102,-11325.150913,2812.782580,1838.629195
3801.068432,-9992.780217,2220.617826,1762.019645
3801.068761,-9178.553681,1776.494261,2374.896044
3801.069091,-8364.327145,1776.494261,3294.210641
3801.069421,-8586.388927,1998.556043,3830.477490
3801.069750,-8660.409521,2886.803174,4749.792088
3801.070080,-9844.739029,3627.009116,4903.011187
3801.070410,-11399.171507,3552.988522,4443.353888
3801.070739,-12213.398043,3923.091493,3907.087040
3801.071069,-12583.501014,3404.947333,3907.087040
3801.071399,-12139.377449,2886.803174,4060.306139
3801.071728,-10955.047942,2442.679609,4136.915689
3801.072058,-9474.636058,2368.659014,3677.258390
3801.072387,-7994.224174,2368.659014,3447.429741
3801.072717,-7624.121203,2368.659014,2374.896044
3801.073047,-8068.244768,2886.803174,2451.505594
3801.073376,-8438.347739,3256.906145,3830.477490
3801.073706,-9252.574275,3997.112087,4290.134789
3801.074036,-9696.697840,3923.091493,4366.744339
3801.074365,-10807.006753,4515.256246,4060.306139
3801.074695,-11843.295072,4663.297435,3140.991542
3801.075025,-11769.274478,4441.235652,2298.286494
3801.075354,-11177.109724,3775.050304,1838.629195
3801.075684,-10066.800811,3775.050304,2451.505594
3801.076014,-8882.471304,3404.947333,3217.601092
3801.076343,-8734.430116,3256.906145,2681.334243
3801.076673,-8364.327145,3478.967927,2145.067394
3801.077003,-7846.182985,3108.864956,995.924147
3801.077332,-7402.059420,3330.926739,919.314598
3801.077662,-7772.162391,3701.029710,1838.629195
3801.077992,-9844.739029,4293.194464,3217.601092
3801.078321,-11251.130318,4885.359217,2987.772442
3801.078651,-11325.150913,4885.359217,1608.800546
3801.078981,-11843.295072,4589.276840,0.000000
3801.079310,-11325.150913,3849.070898,-459.657299
3801.079640,-10732.986159,3256.906145,1378.971896
3801.079970,-9992.780217,2738.761985,3140.991542
3801.080299,-9252.574275,3182.885551,3294.210641
3801.080629,-8142.265362,2812.782580,1608.800546
3801.080959,-8586.388927,2960.823768,153.219100
3801.081288,-9030.512492,2960.823768,0.000000
3801.081618,-9474.636058,3404.947333,919.314598
3801.081948,-9104.533087,3256.906145,1915.238745
3801.082277,-10066.800811,3182.885551,1991.848295
3801.082607,-11103.089130,3256.906145,2374.896044
3801.082937,-11177.109724,2516.700203,536.266849
3801.083266,-11177.109724,2220.617826,76.609550
3801.083596,-10066.800811,1554.432478,995.924147
3801.083925,-9548.656652,1332.370696,2681.334243
3801.084255,-9548.656652,962.267725,3753.867940
3801.084585,-8586.388927,1258.350101,3600.648841
3801.084914,-7846.182985,1480.411884,2221.676944
3801.085244,-8586.388927,1776.494261,995.924147
3801.085574,-9548.656652,1628.453072,689.485948
3801.085903,-10214.842000,1850.514855,2374.896044
3801.086233,-10436.903782,1776.494261,2987.772442
3801.086563,-10807.006753,1184.329507,3294.210641
3801.086892,-11695.253884,518.144159,2451.505594
3801.087222,-10732.986159,-222.061783,1762.019645
3801.087552,-9548.656652,-1184.329507,2298.286494
3801.087881,-9474.636058,-370.102971,2911.162892
3801.088211,-8882.471304,-592.164754,3217.601092
3801.088541,-8290.306550,-592.164754,2834.553343
3801.088870,-8882.471304,518.144159,1991.848295
3801.089200,-9770.718434,518.144159,1302.362347
3801.089530,-11621.233289,222.061783,919.314598
3801.089859,-10807.006753,0.000000,842.705048
3801.090189,-10140.821405,-666.185348,1991.848295
3801.090519,-9918.759623,-740.205942,2987.772442
3801.090848,-9548.656652,-1184.329507,3907.087040
3801.091178,-9178.553681,-1184.329507,3830.477490
3801.091508,-8808.450710,-666.185348,2834.553343
3801.091837,-9474.636058,74.020594,3600.648841
3801.092167,-9844.739029,814.226536,4596.572988
3801.092497,-11029.068536,2220.617826,3447.429741
3801.092826,-10288.862594,1924.535449,1762.019645
3801.093156,-9992.780217,1702.473667,995.924147
3801.093486,-10510.924376,1924.535449,306.438199
3801.093815,-10658.965565,1036.288319,1302.362347
3801.094145,-10214.842000,1036.288319,2451.505594
3801.094475,-9178.553681,518.144159,3064.381992
3801.094804,-7772.162391,666.185348,2451.505594
3801.095134,-7846.182985,1184.329507,2604.724693
3801.095463,-8586.388927,1776.494261,2987.772442
3801.095793,-8956.491898,2072.576638,4213.525239
3801.096123,-9844.739029,2960.823768,4826.401637
3801.096452,-10214.842000,3627.009116,4596.572988
3801.096782,-10955.047942,3182.885551,4060.306139
3801.097112,-11399.171507,4219.173869,2987.772442
3801.097441,-10066.800811,3478.967927,2987.772442
3801.097771,-9992.780217,4219.173869,1608.800546
3801.098101,-8586.388927,3775.050304,306.438199
3801.098430,-9400.615463,4293.194464,2528.115143
3801.098760,-10658.965565,4959.379811,3600.648841
3801.099090,-9918.759623,4811.338623,2451.505594
3801.099419,-9696.697840,4071.132681,2374.896044
3801.099749,-9252.574275,4737.318029,2757.943793
3801.100079,-9770.718434,4737.318029,3600.648841
3801.100408,-9918.759623,4515.256246,3447.429741
3801.100738,-10140.821405,4663.297435,3140.991542
3801.101068,-10955.047942,4515.256246,2604.724693
3801.101397,-11473.192101,4367.215058,1762.019645
3801.101727,-11695.253884,3923.091493,1072.533697
3801.102057,-10807.006753,3404.947333,689.485948
3801.102386,-9696.697840,2368.659014,-459.657299
3801.102716,-7624.121203,3108.864956,0.000000
3801.103046,-7402.059420,2294.638420,919.314598
3801.103375,-7846.182985,2664.741391,1149.143247
3801.103705,-7994.224174,3034.844362,1378.971896
3801.104035,-8734.430116,3478.967927,1532.190996
3801.104364,-9548.656652,3256.906145,1072.533697
3801.104694,-10140.821405,3256.906145,1838.629195
3801.105024,-10214.842000,2738.761985,2911.162892
3801.105353,-11695.253884,2812.782580,3677.258390
3801.105683,-11029.068536,3108.864956,3830.477490
3801.106013,-10066.800811,2960.823768,1762.019645
3801.106342,-8882.471304,2738.761985,-383.047749
3801.106672,-8660.409521,2220.617826,306.438199
3801.107001,-9326.594869,2442.679609,1838.629195
3801.107331,-9696.697840,1850.514855,1915.238745
3801.107661,-8808.450710,2886.803174,2145.067394
3801.107990,-8364.327145,2590.720797,1532.190996
3801.108320,-9030.512492,2738.761985,0.000000
3801.108650,-9696.697840,2738.761985,842.705048
3801.108979,-11177.109724,2294.638420,2451.505594
3801.109309,-11991.336260,2294.638420,4136.915689
3801.109639,-12139.377449,1258.350101,5286.058936
3801.109968,-11843.295072,740.205942,3677.258390
3801.110298,-10436.903782,-370.102971,1685.410096
3801.110628,-9696.697840,-1258.350101,0.000000
3801.110957,-9104.533087,-1036.288319,-229.828649
3801.111287,-7994.224174,-370.102971,383.047749
3801.111617,-6365.771101,-888.247130,2298.286494
3801.111946,-8438.347739,444.123565,2451.505594
3801.112276,-11103.089130,148.041188,2221.676944
3801.112606,-11843.295072,0.000000,459.657299
3801.112935,-10881.027347,-1184.329507,-536.266849
3801.113265,-9992.780217,-1480.411884,766.095498
3801.113595,-10510.924376,-2072.576638,3370.820191
3801.113924,-10881.027347,-1776.494261,4979.620737
3801.114254,-8734.430116,-2220.617826,4366.744339
3801.114584,-8660.409521,-1480.411884,1838.629195
3801.114913,-9030.512492,0.000000,383.047749
3801.115243,-9474.636058,-370.102971,0.000000
3801.115573,-9104.533087,592.164754,229.828649
3801.115902,-8216.285956,74.020594,229.828649
3801.116232,-8512.368333,-296.082377,0.000000
3801.116562,-10066.800811,-888.247130,306.438199
3801.116891,-9622.677246,-1184.329507,919.314598
3801.117221,-9474.636058,-1628.453072,1455.581446
3801.117551,-9696.697840,-1258.350101,842.705048
3801.117880,-10140.821405,-814.226536,1685.410096
3801.118210,-10436.903782,-296.082377,1149.143247
3801.118539,-9918.759623,370.102971,-919.314598
3801.118869,-9326.594869,666.185348,-1991.848295
3801.119199,-9918.759623,1406.391290,-1991.848295
3801.119528,-9992.780217,1406.391290,-2298.286494
3801.119858,-9696.697840,888.247130,-1838.629195
3801.120188,-11843.295072,740.205942,-2068.457845
3801.120517,-12879.583391,888.247130,-2451.505594
3801.120847,-12435.459826,0.000000,-3524.039291
3801.121177,-11029.068536,-296.082377,-4366.744339
3801.121506,-9252.574275,-888.247130,-3447.429741
3801.121836,-7846.182985,-1406.391290,-689.485948
3801.122166,-7550.100608,-814.226536,0.000000
3801.122495,-8438.347739,-1036.288319,536.266849
3801.122825,-8586.388927,-666.185348,1838.629195
3801.123155,-8216.285956,-1036.288319,1608.800546
3801.123484,-9474.636058,-222.061783,2221.676944
3801.123814,-10510.924376,0.000000,2757.943793
3801.124144,-9770.718434,-444.123565,2374.896044
3801.124473,-8660.409521,-296.082377,1762.019645
3801.124803,-9622.677246,296.082377,459.657299
3801.125133,-9918.759623,0.000000,995.924147
3801.125462,-9474.636058,222.061783,919.314598
3801.125792,-9178.553681,1554.432478,612.876398
3801.126122,-9548.656652,1702.473667,995.924147
3801.126451,-9770.718434,2590.720797,-612.876398
3801.126781,-8364.327145,2368.659014,-1915.238745
3801.127111,-9178.553681,3552.988522,-1072.533697
3801.127440,-11843.295072,4663.297435,-383.047749
3801.127770,-13323.706956,2516.700203,-995.924147
3801.128100,-12731.542202,2368.659014,-1302.362347
3801.128429,-10807.006753,518.144159,-1225.752797
3801.128759,-9992.780217,0.000000,153.219100
3801.129089,-10955.047942,0.000000,612.876398
3801.129418,-9622.677246,-1036.288319,766.095498
3801.129748,-8586.388927,-148.041188,459.657299
3801.130077,-7772.162391,74.020594,0.000000
3801.130407,-8142.265362,-1628.453072,-1838.629195
3801.130737,-8438.347739,-1480.411884,-153.219100
3801.131066,-7402.059420,-1332.370696,995.924147
3801.131396,-9474.636058,-1554.432478,2681.334243
3801.131726,-11029.068536,-370.102971,2681.334243
3801.132055,-10288.862594,-962.267725,1072.533697
3801.132385,-9326.594869,-1110.308913,689.485948
3801.132715,-9548.656652,370.102971,76.609550
3801.133044,-11547.212695,-296.082377,1072.533697
3801.133374,-10362.883188,-296.082377,1991.848295
3801.133704,-7994.224174,666.185348,1991.848295
3801.134033,-9030.512492,74.020594,2068.457845
3801.134363,-10288.862594,888.247130,0.000000
3801.134693,-9178.553681,1776.494261,-1685.410096
3801.135022,-9696.697840,2146.597232,-383.047749
3801.135352,-10732.986159,4145.153275,383.047749
3801.135682,-11917.315666,2368.659014,612.876398
3801.136011,-13101.645173,2442.679609,153.219100
3801.136341,-10288.862594,1702.473667,-306.438199
3801.136671,-11917.315666,-962.267725,-459.657299
3801.137000,-11621.233289,-592.164754,689.485948
3801.137330,-9844.739029,-2220.617826,1608.800546
3801.137660,-7179.997637,-2368.659014,2451.505594
3801.137989,-7031.956449,-1332.370696,1991.848295
3801.138319,-8882.471304,-1480.411884,1149.143247
3801.138649,-8364.327145,-1924.535449,-689.485948
3801.138978,-6365.771101,-814.226536,-2911.162892
3801.139308,-9696.697840,-1036.288319,-612.876398
3801.139638,-13175.665768,0.000000,1838.629195
3801.139967,-11917.315666,-1258.350101,2221.676944
3801.140297,-9400.615463,-1850.514855,689.485948
3801.140627,-7328.038826,-592.164754,-383.047749
3801.140956,-9844.739029,-1332.370696,-459.657299
3801.141286,-9992.780217,-296.082377,-995.924147
3801.141615,-7772.162391,-222.061783,-995.924147
3801.141945,-8142.265362,296.082377,383.047749
3801.142275,-10436.903782,1110.308913,1149.143247
3801.142605,-12065.356855,1406.391290,0.000000
3801.142934,-10288.862594,-74.020594,-1378.971896
3801.143264,-8660.409521,1406.391290,-1915.238745
3801.143594,-9696.697840,222.061783,-842.705048
3801.143923,-9770.718434,592.164754,-229.828649
3801.144253,-8216.285956,1628.453072,0.000000
3801.144583,-11177.109724,1554.432478,459.657299
3801.144913,-12583.501014,2368.659014,0.000000
3801.145242,-13101.645173,1258.350101,-842.705048
3801.145572,-12435.459826,0.000000,-1455.581446
3801.145902,-9104.533087,518.144159,-1685.410096
3801.146232,-8660.409521,-444.123565,-766.095498
3801.146561,-8660.409521,-444.123565,-919.314598
3801.146891,-7846.182985,-148.041188,-1991.848295
3801.147221,-8956.491898,-740.205942,-383.047749
3801.147550,-10658.965565,0.000000,306.438199
3801.147880,-10881.027347,-1184.329507,842.705048
3801.148210,-9030.512492,-2072.576638,1378.971896
3801.148540,-7698.141797,-1184.329507,2374.896044
3801.148869,-9252.574275,-2072.576638,3600.648841
3801.149199,-9844.739029,-1628.453072,3294.210641
3801.149529,-8586.388927,-814.226536,2221.676944
3801.149858,-9474.636058,-370.102971,1762.019645
3801.150188,-10140.821405,888.247130,1762.019645
3801.150518,-9992.780217,0.000000,842.705048
3801.150848,-9030.512492,-518.144159,0.000000
3801.151177,-7476.080014,0.000000,153.219100
3801.151507,-9178.553681,814.226536,1608.800546
3801.151837,-10584.944971,1480.411884,1149.143247
3801.152167,-10066.800811,1850.514855,-76.609550
3801.152496,-10362.883188,2368.659014,-1302.362347
3801.152826,-11769.274478,3256.906145,-1225.752797
3801.153156,-12953.603985,2812.782580,153.219100
3801.153485,-11843.295072,2368.659014,612.876398
3801.153815,-10288.862594,1332.370696,0.000000
3801.154145,-9918.759623,0.000000,-842.705048
3801.154475,-9326.594869,222.061783,-306.438199
3801.154804,-10362.883188,0.000000,306.438199
3801.155134,-10881.027347,-592.164754,459.657299
3801.155464,-8512.368333,0.000000,0.000000
3801.155794,-8586.388927,-444.123565,842.705048
3801.156123,-10140.821405,-370.102971,306.438199
3801.156453,-10140.821405,-888.247130,-689.485948
3801.156783,-9252.574275,-1184.329507,-1225.752797
3801.157112,-8216.285956,-1184.329507,842.705048
3801.157442,-8216.285956,-1554.432478,2374.896044
3801.157772,-9326.594869,-1554.432478,3294.210641
3801.158102,-8438.347739,-444.123565,2221.676944
3801.158431,-8512.368333,-518.144159,1455.581446
3801.158761,-9474.636058,592.164754,-689.485948
3801.159091,-11325.150913,222.061783,-1072.533697
3801.159421,-11103.089130,296.082377,-229.828649
3801.159750,-8808.450710,1184.329507,76.609550
3801.160080,-9030.512492,740.205942,0.000000
3801.160410,-9770.718434,1258.350101,-766.095498
3801.160739,-9474.636058,1406.391290,-2374.896044
3801.161069,-9474.636058,1184.329507,-2911.162892
3801.161399,-10066.800811,1480.411884,-1838.629195
3801.161729,-10881.027347,2072.576638,0.000000
3801.162058,-11695.253884,1406.391290,842.705048
3801.162388,-10436.903782,1480.411884,-842.705048
3801.162718,-11103.089130,666.185348,-1225.752797
3801.163047,-12287.418637,666.185348,-2528.115143
3801.163377,-11251.130318,-148.041188,-3217.601092
3801.163707,-9770.718434,-592.164754,-1915.238745
3801.164037,-9104.533087,-518.144159,-306.438199
3801.164366,-9400.615463,-1036.288319,-306.438199
3801.164696,-7772.162391,-2516.700203,-1302.362347
3801.165026,-7179.997637,-1998.556043,-1532.190996
3801.165356,-9474.636058,-2368.659014,0.000000
3801.165685,-9770.718434,-2220.617826,2451.505594
3801.166015,-8660.409521,-2072.576638,2681.334243
3801.166345,-7920.203579,-2072.576638,2298.286494
3801.166674,-8734.430116,-1184.329507,1149.143247
3801.167004,-10214.842000,-1998.556043,1991.848295
3801.167334,-10807.006753,-1628.453072,1302.362347
3801.167664,-9474.636058,-962.267725,919.314598
3801.167993,-8882.471304,-1332.370696,1302.362347
3801.168323,-8956.491898,-592.164754,2145.067394
3801.168653,-8438.347739,518.144159,1608.800546
3801.168983,-8438.347739,888.247130,-612.876398
3801.169312,-9548.656652,1776.494261,-2221.676944
3801.169642,-11325.150913,1258.350101,-3064.381992
3801.169972,-11991.336260,1850.514855,-995.924147
3801.170301,-11695.253884,1184.329507,1608.800546
3801.170631,-11843.295072,666.185348,2911.162892
3801.170961,-11103.089130,0.000000,1685.410096
3801.171291,-9548.656652,74.020594,0.000000
3801.171620,-8808.450710,-888.247130,-536.266849
3801.171950,-9770.718434,74.020594,-383.047749
3801.172280,-11177.109724,-296.082377,1378.971896
3801.172610,-11473.192101,-740.205942,1149.143247
3801.172939,-9918.759623,-962.267725,0.000000
3801.173269,-8660.409521,-1924.535449,-612.876398
3801.173599,-8956.491898,-1702.473667,-995.924147
3801.173928,-8142.265362,-1480.411884,-1225.752797
3801.174258,-7550.100608,-2146.597232,153.219100
3801.174588,-8142.265362,-888.247130,1532.190996
3801.174918,-10066.800811,-222.061783,1685.410096
3801.175247,-10214.842000,0.000000,766.095498
3801.175577,-9622.677246,0.000000,0.000000
3801.175907,-9178.553681,-518.144159,689.485948
3801.176236,-9622.677246,-370.102971,1455.581446
3801.176566,-9548.656652,148.041188,2451.505594
3801.176896,-8216.285956,74.020594,1455.581446
3801.177226,-8068.244768,1480.411884,-383.047749
3801.177555,-10214.842000,1628.453072,-536.266849
3801.177885,-11695.253884,1850.514855,-383.047749
3801.178215,-10584.944971,2590.720797,-919.314598
3801.178545,-9992.780217,2294.638420,-459.657299
3801.178874,-9696.697840,2368.659014,76.609550
3801.179204,-9474.636058,1998.556043,536.266849
3801.179534,-10510.924376,2442.679609,995.924147
3801.179863,-11399.171507,2368.659014,-459.657299
3801.180193,-10807.006753,1776.494261,-1302.362347
3801.180523,-10214.842000,1628.453072,-1225.752797
3801.180853,-10066.800811,1776.494261,-1378.971896
3801.181182,-11177.109724,1110.308913,306.438199
3801.181512,-11103.089130,740.205942,-459.657299
3801.181842,-10214.842000,370.102971,-919.314598
3801.182172,-9548.656652,0.000000,-2221.676944
3801.182501,-8512.368333,444.123565,-1685.410096
3801.182831,-9474.636058,74.020594,229.828649
3801.183161,-9696.697840,0.000000,1225.752797
3801.183490,-8290.306550,0.000000,153.219100
3801.183820,-8290.306550,-740.205942,229.828649
3801.184150,-9844.739029,0.000000,612.876398
3801.184480,-9030.512492,-740.205942,1915.238745
3801.184809,-9178.553681,-518.144159,2987.772442
3801.185139,-8956.491898,0.000000,2451.505594
3801.185469,-9844.739029,-444.123565,2374.896044
3801.185799,-9548.656652,-444.123565,1149.143247
3801.186128,-9030.512492,74.020594,1532.190996
3801.186458,-9474.636058,-296.082377,1915.238745
3801.186788,-9474.636058,1036.288319,1302.362347
3801.187117,-8808.450710,814.226536,306.438199
3801.187447,-8512.368333,1110.308913,-995.924147
3801.187777,-9030.512492,2146.597232,-1991.848295
3801.188107,-11251.130318,1480.411884,-459.657299
3801.188436,-13027.624579,1998.556043,229.828649
3801.188766,-12213.398043,1332.370696,459.657299
3801.189096,-10436.903782,222.061783,-612.876398
3801.189425,-9252.574275,74.020594,-1915.238745
3801.189755,-10066.800811,-1850.514855,-1685.410096
3801.190085,-11399.171507,-1332.370696,459.657299
3801.190415,-10807.006753,-592.164754,1225.752797
3801.190744,-9844.739029,-1554.432478,0.000000
3801.191074,-8438.347739,-1628.453072,-1685.410096
3801.191404,-9326.594869,-2368.659014,-1608.800546
3801.191734,-9400.615463,-2960.823768,-383.047749
3801.192063,-7476.080014,-2368.659014,689.485948
3801.192393,-8512.368333,-2590.720797,1685.410096
3801.192723,-9400.615463,-2368.659014,2298.286494
3801.193052,-9252.574275,-1406.391290,1608.800546
3801.193382,-10436.903782,-1850.514855,459.657299
3801.193712,-10658.965565,-1110.308913,459.657299
3801.194042,-11103.089130,-1332.370696,153.219100
3801.194371,-10658.965565,-1184.329507,995.924147
3801.194701,-8512.368333,-444.123565,842.705048
3801.195031,-8660.409521,-592.164754,1225.752797
3801.195361,-9178.553681,74.020594,459.657299
3801.195690,-9474.636058,1406.391290,-689.485948
3801.196020,-10584.944971,1554.432478,-1685.410096
3801.196350,-10362.883188,1332.370696,-1915.238745
3801.196679,-10732.986159,1628.453072,-76.609550
3801.197009,-11621.233289,1184.329507,1225.752797
3801.197339,-12213.398043,1258.350101,459.657299
3801.197669,-11547.212695,148.041188,-612.876398
