#time,accel_x,accel_y,accel_z
3575.071194,-9844.739029,296.082377,-2604.724693
3575.071524,-11399.171507,148.041188,-1991.848295
3575.071854,-12435.459826,518.144159,-612.876398
3575.072184,-11399.171507,-74.020594,-536.266849
3575.072514,-9474.636058,-1480.411884,-2834.553343
3575.072844,-7920.203579,-1258.350101,-3447.429741
3575.073174,-8660.409521,-1702.473667,-2221.676944
3575.073504,-9696.697840,0.000000,0.000000
3575.073834,-8808.450710,222.061783,153.219100
3575.074164,-8364.327145,1110.308913,459.657299
3575.074494,-8734.430116,888.247130,919.314598
3575.074824,-10140.821405,1184.329507,153.219100
3575.075154,-10140.821405,1036.288319,306.438199
3575.075484,-9844.739029,1184.329507,-383.047749
3575.075814,-9474.636058,740.205942,-1072.533697
3575.076144,-9400.615463,740.205942,-1915.238745
3575.076474,-9918.759623,592.164754,-1838.629195
3575.076804,-10436.903782,666.185348,-1991.848295
3575.077134,-10658.965565,592.164754,-1072.533697
3575.077464,-9844.739029,0.000000,153.219100
3575.077794,-9844.739029,666.185348,1608.800546
3575.078124,-9474.636058,666.185348,1532.190996
3575.078454,-9030.512492,962.267725,1455.581446
3575.078784,-8956.491898,2146.597232,-689.485948
3575.079114,-8734.430116,1332.370696,-2681.334243
3575.079444,-11695.253884,222.061783,-1991.848295
3575.079774,-11325.150913,592.164754,0.000000
3575.080104,-11029.068536,370.102971,0.000000
3575.080434,-11769.274478,-370.102971,-1532.190996
3575.080764,-9844.739029,-888.247130,-3140.991542
3575.081094,-9326.594869,-1332.370696,-4213.525239
3575.081424,-8586.388927,-2368.659014,-2221.676944
3575.081754,-8808.450710,-2072.576638,1072.533697
3575.082084,-8438.347739,-2220.617826,2374.896044
3575.082414,-7624.121203,-1628.453072,1378.971896
3575.082744,-8290.306550,-1184.329507,536.266849
3575.083074,-9918.759623,-888.247130,153.219100
3575.083404,-11547.212695,-666.185348,-842.705048
3575.083734,-11399.171507,-1406.391290,536.266849
3575.084064,-10066.800811,-814.226536,536.266849
3575.084394,-10066.800811,-1036.288319,0.000000
3575.084724,-10436.903782,-1480.411884,-1302.362347
3575.085054,-10510.924376,-1998.556043,-1991.848295
3575.085384,-9918.759623,-1702.473667,-3140.991542
3575.085714,-9104.533087,-1924.535449,-3064.381992
3575.086044,-8586.388927,-1702.473667,-2451.505594
3575.086374,-9252.574275,-1036.288319,-919.314598
3575.086704,-9326.594869,-1258.350101,-1072.533697
3575.087034,-9622.677246,-1258.350101,-766.095498
3575.087364,-9474.636058,-1628.453072,-995.924147
3575.087694,-10066.800811,-1554.432478,536.266849
3575.088024,-11177.109724,-1110.308913,3140.991542
3575.088354,-11325.150913,-1036.288319,3217.601092
3575.088684,-10732.986159,-1332.370696,1838.629195
3575.089014,-10362.883188,-1110.308913,-383.047749
3575.089344,-10362.883188,-592.164754,-842.705048
3575.089674,-11103.089130,-296.082377,-1838.629195
3575.090004,-9992.780217,-444.123565,-1302.362347
3575.090334,-8882.471304,0.000000,-459.657299
3575.090664,-7920.203579,148.041188,-306.438199
3575.090994,-9252.574275,74.020594,-153.219100
3575.091324,-9918.759623,444.123565,383.047749
3575.091654,-9770.718434,222.061783,766.095498
3575.091984,-10214.842000,666.185348,1532.190996
3575.092314,-10362.883188,518.144159,2145.067394
3575.092644,-10732.986159,74.020594,1225.752797
3575.092974,-10362.883188,148.041188,229.828649
3575.093304,-9992.780217,0.000000,-1455.581446
3575.093634,-9178.553681,-666.185348,-1378.971896
3575.093964,-7994.224174,-518.144159,-306.438199
3575.094294,-7476.080014,-370.102971,1608.800546
3575.094624,-7402.059420,222.061783,2911.162892
3575.094954,-8290.306550,518.144159,2528.115143
3575.095284,-8808.450710,962.267725,1608.800546
3575.095614,-10214.842000,1332.370696,1072.533697
3575.095944,-11177.109724,2072.576638,995.924147
3575.096274,-11843.295072,1998.556043,689.485948
3575.096604,-11325.150913,1480.411884,0.000000
3575.096933,-10436.903782,1036.288319,-995.924147
3575.097263,-10066.800811,444.123565,-1762.019645
3575.097593,-9030.512492,370.102971,-612.876398
3575.097923,-8364.327145,888.247130,1762.019645
3575.098252,-7698.141797,1184.329507,2681.334243
3575.098582,-8660.409521,1554.432478,2681.334243
3575.098912,-9992.780217,2146.597232,2068.457845
3575.099242,-10955.047942,2812.782580,1225.752797
3575.099571,-12509.480420,2516.700203,-536.266849
3575.099901,-13323.706956,2072.576638,-1302.362347
3575.100231,-12435.459826,1480.411884,-1302.362347
3575.100561,-11917.315666,296.082377,-1302.362347
3575.100891,-9474.636058,-1110.308913,-1685.410096
3575.101220,-7624.121203,-1628.453072,-1915.238745
3575.101550,-5181.441594,-1924.535449,0.000000
3575.101880,-5625.565159,-814.226536,1608.800546
3575.102210,-7550.100608,0.000000,3370.820191
3575.102539,-9474.636058,1702.473667,2834.553343
3575.102869,-11621.233289,1776.494261,1378.971896
3575.103199,-12805.562797,1628.453072,0.000000
3575.103529,-13619.789333,74.020594,-1838.629195
3575.103859,-13323.706956,-740.205942,-1455.581446
3575.104188,-11917.315666,-2146.597232,-1072.533697
3575.104518,-9252.574275,-3256.906145,-383.047749
3575.104848,-6883.915261,-3552.988522,-383.047749
3575.105178,-5699.585753,-3108.864956,153.219100
3575.105507,-6143.709319,-1702.473667,689.485948
3575.105837,-7476.080014,-592.164754,1149.143247
3575.106167,-8586.388927,148.041188,689.485948
3575.106497,-10140.821405,444.123565,76.609550
3575.106826,-12361.439231,-74.020594,-459.657299
3575.107156,-13545.768739,-1258.350101,-1302.362347
3575.107486,-13249.686362,-2886.803174,-1072.533697
3575.107816,-10807.006753,-4811.338623,-1072.533697
3575.108146,-8660.409521,-5329.482782,0.000000
3575.108475,-6957.935855,-4737.318029,1072.533697
3575.108805,-6217.729913,-3627.009116,1915.238745
3575.109135,-6661.853478,-1924.535449,2374.896044
3575.109465,-7476.080014,0.000000,1838.629195
3575.109794,-9252.574275,666.185348,153.219100
3575.110124,-11251.130318,740.205942,-1225.752797
3575.110454,-12361.439231,-148.041188,-2145.067394
3575.110784,-13101.645173,-1184.329507,-1455.581446
3575.111113,-12805.562797,-2516.700203,-459.657299
3575.111443,-11769.274478,-3330.926739,0.000000
3575.111773,-9474.636058,-3775.050304,0.000000
3575.112103,-7476.080014,-3701.029710,536.266849
3575.112433,-6957.935855,-2738.761985,2145.067394
3575.112762,-7328.038826,-962.267725,3524.039291
3575.113092,-8290.306550,592.164754,3217.601092
3575.113422,-9252.574275,1702.473667,1991.848295
3575.113752,-10510.924376,1258.350101,-842.705048
3575.114081,-12361.439231,1036.288319,-2068.457845
3575.114411,-13175.665768,0.000000,-2145.067394
3575.114741,-12731.542202,-1184.329507,-1149.143247
3575.115071,-11177.109724,-1554.432478,-1685.410096
3575.115400,-8734.430116,-2960.823768,0.000000
3575.115730,-7476.080014,-2146.597232,919.314598
3575.116060,-6883.915261,-814.226536,2451.505594
3575.116390,-6957.935855,0.000000,3370.820191
3575.116720,-7846.182985,2220.617826,2604.724693
3575.117049,-9326.594869,2886.803174,1915.238745
3575.117379,-10955.047942,3775.050304,536.266849
3575.117709,-12065.356855,2738.761985,-383.047749
3575.118039,-13249.686362,2516.700203,-995.924147
3575.118368,-12583.501014,2072.576638,-1608.800546
3575.118698,-12509.480420,518.144159,-1608.800546
3575.119028,-9770.718434,222.061783,-995.924147
3575.119358,-7920.203579,0.000000,612.876398
3575.119687,-6217.729913,1036.288319,2374.896044
3575.120017,-7624.121203,1850.514855,2068.457845
3575.120347,-7920.203579,3404.947333,1455.581446
3575.120677,-8956.491898,3775.050304,612.876398
3575.121007,-10140.821405,4293.194464,-919.314598
3575.121336,-11769.274478,3849.070898,-1608.800546
3575.121666,-13027.624579,2960.823768,-1915.238745
3575.121996,-12287.418637,1776.494261,-1915.238745
3575.122326,-10436.903782,666.185348,-1608.800546
3575.122655,-8512.368333,-148.041188,0.000000
3575.122985,-7476.080014,-148.041188,1302.362347
3575.123315,-7179.997637,814.226536,2451.505594
3575.123645,-7476.080014,1628.453072,2451.505594
3575.123974,-8956.491898,2812.782580,1225.752797
3575.124304,-9622.677246,3478.967927,229.828649
3575.124634,-10732.986159,3775.050304,-842.705048
3575.124964,-11473.192101,3552.988522,-1378.971896
3575.125294,-12065.356855,2368.659014,-1991.848295
3575.125623,-11103.089130,1184.329507,-2374.896044
3575.125953,-9252.574275,-296.082377,-1762.019645
3575.126283,-7476.080014,-1332.370696,-153.219100
3575.126613,-7846.182985,-1110.308913,2221.676944
3575.126942,-8290.306550,-296.082377,3907.087040
3575.127272,-8660.409521,592.164754,3907.087040
3575.127602,-9030.512492,1258.350101,2298.286494
3575.127932,-10658.965565,1776.494261,153.219100
3575.128262,-12213.398043,1998.556043,-459.657299
3575.128591,-12731.542202,1258.350101,-1149.143247
3575.128921,-12213.398043,0.000000,-1455.581446
3575.129251,-10584.944971,-1184.329507,-2145.067394
3575.129581,-8882.471304,-2664.741391,-1762.019645
3575.129910,-7624.121203,-2886.803174,-229.828649
3575.130240,-7328.038826,-2590.720797,1915.238745
3575.130570,-7254.018232,-2072.576638,3600.648841
3575.130900,-8364.327145,-814.226536,3140.991542
3575.131229,-9696.697840,0.000000,3140.991542
3575.131559,-11029.068536,296.082377,1532.190996
3575.131889,-12213.398043,74.020594,995.924147
3575.132219,-13323.706956,-518.144159,0.000000
3575.132549,-12213.398043,-1480.411884,-766.095498
3575.132878,-10807.006753,-2738.761985,-1149.143247
3575.133208,-8808.450710,-3256.906145,-536.266849
3575.133538,-7994.224174,-3182.885551,76.609550
3575.133868,-7698.141797,-2664.741391,919.314598
3575.134197,-7920.203579,-2146.597232,1378.971896
3575.134527,-8438.347739,-814.226536,689.485948
3575.134857,-9474.636058,-296.082377,-383.047749
3575.135187,-10955.047942,-222.061783,-766.095498
3575.135516,-12139.377449,-888.247130,-842.705048
3575.135846,-12213.398043,-1702.473667,-919.314598
3575.136176,-11251.130318,-2442.679609,-1072.533697
3575.136506,-9844.739029,-3552.988522,0.000000
3575.136836,-8512.368333,-3552.988522,919.314598
3575.137165,-7772.162391,-3256.906145,2298.286494
3575.137495,-7402.059420,-2072.576638,2374.896044
3575.137825,-8290.306550,-592.164754,1838.629195
3575.138155,-9252.574275,0.000000,536.266849
3575.138484,-10140.821405,592.164754,-766.095498
3575.138814,-11029.068536,666.185348,-1685.410096
3575.139144,-11769.274478,222.061783,-2145.067394
3575.139474,-11843.295072,-518.144159,-2068.457845
3575.139803,-10732.986159,-1406.391290,-2068.457845
3575.140133,-8882.471304,-1998.556043,-1378.971896
3575.140463,-7179.997637,-2368.659014,689.485948
3575.140793,-7698.141797,-1036.288319,2834.553343
3575.141123,-8142.265362,0.000000,3217.601092
3575.141452,-8734.430116,1184.329507,2681.334243
3575.141782,-9252.574275,2368.659014,1072.533697
3575.142112,-11103.089130,2368.659014,-1149.143247
3575.142442,-12435.459826,2294.638420,-2145.067394
3575.142771,-12583.501014,1776.494261,-2298.286494
3575.143101,-11547.212695,666.185348,-2681.334243
3575.143431,-9252.574275,-444.123565,-2834.553343
3575.143761,-7772.162391,-962.267725,-1762.019645
3575.144090,-7105.977043,-592.164754,0.000000
3575.144420,-7105.977043,222.061783,2451.505594
3575.144750,-7846.182985,1850.514855,3370.820191
3575.145080,-9030.512492,2516.700203,3447.429741
3575.145410,-10510.924376,3701.029710,2145.067394
3575.145739,-11917.315666,3404.947333,766.095498
3575.146069,-12731.542202,3701.029710,0.000000
3575.146399,-13101.645173,2220.617826,-689.485948
3575.146729,-11843.295072,1406.391290,-1302.362347
3575.147058,-9918.759623,370.102971,-995.924147
3575.147388,-7772.162391,148.041188,-919.314598
3575.147718,-7624.121203,370.102971,459.657299
3575.148048,-7920.203579,1258.350101,1915.238745
3575.148377,-8068.244768,1924.535449,2451.505594
3575.148707,-8660.409521,3034.844362,1608.800546
3575.149037,-10362.883188,3034.844362,0.000000
3575.149367,-11769.274478,3108.864956,-842.705048
3575.149697,-12657.521608,2368.659014,-1762.019645
3575.150026,-12139.377449,962.267725,-1455.581446
3575.150356,-10658.965565,148.041188,-1302.362347
3575.150686,-9030.512492,-962.267725,-229.828649
3575.151016,-7846.182985,-1480.411884,1149.143247
3575.151345,-7402.059420,-962.267725,2451.505594
3575.151675,-7105.977043,0.000000,2528.115143
3575.152005,-8364.327145,1184.329507,2145.067394
3575.152335,-9622.677246,1850.514855,689.485948
3575.152665,-10881.027347,2072.576638,-766.095498
3575.152994,-11621.233289,1850.514855,-1455.581446
3575.153324,-11991.336260,814.226536,-2221.676944
3575.153654,-11547.212695,-74.020594,-2374.896044
3575.153984,-10140.821405,-1258.350101,-2298.286494
3575.154313,-8586.388927,-2146.597232,-995.924147
3575.154643,-7550.100608,-2146.597232,459.657299
3575.154973,-7698.141797,-1702.473667,2987.772442
3575.155303,-8438.347739,-666.185348,4213.525239
3575.155632,-9030.512492,222.061783,3217.601092
3575.155962,-10140.821405,1036.288319,1225.752797
3575.156292,-11621.233289,592.164754,0.000000
3575.156622,-12953.603985,518.144159,-766.095498
3575.156952,-12953.603985,-518.144159,-1685.410096
3575.157281,-11843.295072,-1406.391290,-2604.724693
3575.157611,-9770.718434,-2146.597232,-2145.067394
3575.157941,-7994.224174,-3330.926739,-1072.533697
3575.158271,-7105.977043,-3478.967927,612.876398
3575.158600,-7105.977043,-2368.659014,2681.334243
3575.158930,-7920.203579,-1184.329507,3370.820191
3575.159260,-8808.450710,-148.041188,2911.162892
3575.159590,-10362.883188,148.041188,1991.848295
3575.159919,-11769.274478,74.020594,995.924147
3575.160249,-13175.665768,222.061783,612.876398
3575.160579,-13249.686362,-666.185348,-306.438199
3575.160909,-11843.295072,-1480.411884,-995.924147
3575.161239,-9622.677246,-2442.679609,-766.095498
3575.161568,-7846.182985,-2368.659014,-842.705048
3575.161898,-7772.162391,-1776.494261,842.705048
3575.162228,-7624.121203,-1110.308913,1608.800546
3575.162558,-7846.182985,-148.041188,1302.362347
3575.162887,-8364.327145,888.247130,459.657299
3575.163217,-9918.759623,1110.308913,-766.095498
3575.163547,-11843.295072,1036.288319,-1532.190996
3575.163877,-12139.377449,0.000000,-1762.019645
3575.164206,-12139.377449,-740.205942,-1302.362347
3575.164536,-10510.924376,-2220.617826,-1608.800546
3575.164866,-9178.553681,-2664.741391,-76.609550
3575.165196,-7772.162391,-2368.659014,1532.190996
3575.165526,-7402.059420,-1406.391290,2757.943793
3575.165855,-7698.141797,-148.041188,2374.896044
3575.166185,-8512.368333,1184.329507,1685.410096
3575.166515,-9400.615463,1702.473667,306.438199
3575.166845,-10658.965565,1998.556043,-919.314598
3575.167174,-11843.295072,1924.535449,-1685.410096
3575.167504,-12361.439231,1406.391290,-2298.286494
3575.167834,-11695.253884,222.061783,-2528.115143
3575.168164,-9844.739029,-740.205942,-2604.724693
3575.168493,-8586.388927,-1184.329507,-842.705048
3575.168823,-7920.203579,-1406.391290,1608.800546
3575.169153,-8142.265362,0.000000,3677.258390
3575.169483,-8586.388927,1036.288319,4060.306139
3575.169813,-9104.533087,2146.597232,2374.896044
3575.170142,-10140.821405,2442.679609,1302.362347
3575.170472,-11621.233289,2368.659014,-306.438199
3575.170802,-12583.501014,2294.638420,-1532.190996
3575.171132,-12583.501014,1480.411884,-1838.629195
3575.171461,-11029.068536,222.061783,-2374.896044
3575.171791,-9400.615463,-740.205942,-2528.115143
3575.172121,-7624.121203,-1332.370696,-919.314598
3575.172451,-6809.894666,-1110.308913,1072.533697
3575.172780,-7105.977043,0.000000,3294.210641
3575.173110,-7624.121203,1110.308913,3907.087040
3575.173440,-8882.471304,2294.638420,2528.115143
3575.173770,-10510.924376,2738.761985,1149.143247
3575.174100,-11917.315666,2960.823768,459.657299
3575.174429,-13101.645173,2368.659014,-229.828649
3575.174759,-13175.665768,1480.411884,-689.485948
3575.175089,-11621.233289,666.185348,-1302.362347
3575.175419,-9548.656652,-296.082377,-1302.362347
3575.175748,-8142.265362,-518.144159,-766.095498
3575.176078,-7402.059420,-74.020594,459.657299
3575.176408,-7624.121203,296.082377,1685.410096
3575.176738,-7698.141797,1184.329507,1378.971896
3575.177067,-8512.368333,2146.597232,919.314598
3575.177397,-10288.862594,2146.597232,-153.219100
3575.177727,-11991.336260,2294.638420,-995.924147
3575.178057,-12509.480420,1406.391290,-1302.362347
3575.178387,-12065.356855,444.123565,-1608.800546
3575.178716,-11177.109724,-1036.288319,-1149.143247
3575.179046,-9030.512492,-1850.514855,-229.828649
3575.179376,-7846.182985,-1998.556043,1455.581446
3575.179706,-7624.121203,-1332.370696,2681.334243
3575.180035,-7920.203579,-740.205942,3447.429741
3575.180365,-8660.409521,814.226536,2068.457845
3575.180695,-9622.677246,1406.391290,536.266849
3575.181025,-10881.027347,1702.473667,-536.266849
3575.181355,-11621.233289,1332.370696,-1072.533697
3575.181684,-11917.315666,296.082377,-1532.190996
3575.182014,-11399.171507,-740.205942,-2068.457845
3575.182344,-9918.759623,-1850.514855,-2374.896044
3575.182674,-8290.306550,-2442.679609,-842.705048
3575.183003,-7772.162391,-2368.659014,1685.410096
3575.183333,-7920.203579,-1776.494261,3370.820191
3575.183663,-8586.388927,-814.226536,3830.477490
3575.183993,-8586.388927,296.082377,2374.896044
3575.184322,-9844.739029,444.123565,919.314598
3575.184652,-11547.212695,962.267725,-536.266849
3575.184982,-12731.542202,370.102971,-1149.143247
3575.185312,-12657.521608,-518.144159,-1378.971896
3575.185642,-11029.068536,-2072.576638,-1762.019645
3575.185971,-9252.574275,-2442.679609,-2221.676944
3575.186301,-8216.285956,-3034.844362,-1072.533697
3575.186631,-7254.018232,-2812.782580,919.314598
3575.186961,-7254.018232,-1702.473667,2681.334243
3575.187290,-7772.162391,-370.102971,3064.381992
3575.187620,-9030.512492,296.082377,2528.115143
3575.187950,-10436.903782,1332.370696,1302.362347
3575.188280,-11917.315666,1036.288319,383.047749
3575.188609,-13471.748144,888.247130,-153.219100
3575.188939,-12953.603985,-222.061783,-689.485948
3575.189269,-11325.150913,-1258.350101,-1072.533697
3575.189599,-9252.574275,-2294.638420,-766.095498
3575.189929,-7772.162391,-1998.556043,229.828649
3575.190258,-7328.038826,-1998.556043,995.924147
3575.190588,-7624.121203,-666.185348,1378.971896
3575.190918,-8068.244768,444.123565,1302.362347
3575.191248,-8586.388927,1406.391290,383.047749
3575.191577,-10140.821405,1554.432478,-536.266849
3575.191907,-11769.274478,1480.411884,-1072.533697
3575.192237,-12139.377449,666.185348,-1455.581446
3575.192567,-11843.295072,-296.082377,-1608.800546
3575.192896,-10732.986159,-1480.411884,-1302.362347
3575.193226,-8734.430116,-1850.514855,-612.876398
3575.193556,-7698.141797,-1554.432478,919.314598
3575.193886,-7624.121203,-962.267725,2451.505594
3575.194216,-8438.347739,444.123565,2987.772442
3575.194545,-8882.471304,1628.453072,1149.143247
3575.194875,-9696.697840,2442.679609,-76.609550
3575.195205,-10807.006753,2442.679609,-1378.971896
3575.195535,-11843.295072,2072.576638,-1225.752797
3575.195864,-12287.418637,1184.329507,-1685.410096
3575.196194,-11325.150913,148.041188,-2068.457845
3575.196524,-9474.636058,-740.205942,-1838.629195
3575.196854,-8364.327145,-1184.329507,-383.047749
3575.197183,-7920.203579,-1036.288319,2298.286494
3575.197513,-8216.285956,0.000000,4136.915689
3575.197843,-8808.450710,1036.288319,3907.087040
3575.198173,-8956.491898,2072.576638,2374.896044
3575.198503,-10362.883188,2368.659014,612.876398
3575.198833,-11991.336260,2368.659014,-919.314598
3575.199163,-12953.603985,1776.494261,-1608.800546
3575.199493,-12361.439231,740.205942,-2221.676944
3575.199823,-10732.986159,0.000000,-2068.457845
3575.200153,-8364.327145,-1406.391290,-2145.067394
3575.200483,-7179.997637,-2072.576638,-536.266849
3575.200812,-7328.038826,-1332.370696,1991.848295
3575.201142,-7179.997637,-814.226536,3447.429741
3575.201472,-7846.182985,666.185348,3370.820191
3575.201802,-9178.553681,1850.514855,2604.724693
3575.202132,-10584.944971,2146.597232,1378.971896
3575.202462,-12361.439231,2294.638420,536.266849
3575.202792,-13175.665768,1258.350101,0.000000
3575.203122,-12731.542202,666.185348,-689.485948
3575.203452,-10881.027347,-370.102971,-1455.581446
3575.203782,-8956.491898,-1184.329507,-1225.752797
3575.204112,-7772.162391,-1628.453072,689.485948
3575.204442,-7624.121203,-444.123565,1378.971896
3575.204772,-7994.224174,222.061783,1915.238745
3575.205102,-8216.285956,1110.308913,919.314598
3575.205432,-9178.553681,1924.535449,0.000000
3575.205762,-10658.965565,1776.494261,-459.657299
3575.206092,-12139.377449,1628.453072,-766.095498
3575.206422,-12509.480420,814.226536,-842.705048
3575.206752,-11991.336260,-74.020594,-1149.143247
3575.207082,-10732.986159,-1406.391290,-689.485948
3575.207412,-8808.450710,-2146.597232,0.000000
3575.207742,-8216.285956,-1776.494261,1455.581446
3575.208072,-7772.162391,-1184.329507,3370.820191
3575.208402,-8364.327145,0.000000,3370.820191
3575.208731,-8808.450710,592.164754,1225.752797
3575.209061,-9622.677246,1628.453072,-383.047749
3575.209391,-11029.068536,1554.432478,-1378.971896
3575.209721,-12213.398043,1110.308913,-383.047749
3575.210051,-12509.480420,222.061783,-919.314598
3575.210381,-11251.130318,-888.247130,-1762.019645
3575.210711,-9400.615463,-2146.597232,-1608.800546
3575.211041,-7846.182985,-2590.720797,76.609550
3575.211371,-7698.141797,-2294.638420,2374.896044
3575.211701,-8068.244768,-1332.370696,3983.696590
3575.212031,-8364.327145,-296.082377,3370.820191
3575.212361,-9104.533087,1036.288319,1532.190996
3575.212691,-10436.903782,1406.391290,0.000000
3575.213021,-11843.295072,1184.329507,-1302.362347
3575.213351,-12583.501014,222.061783,-1302.362347
3575.213681,-11917.315666,-370.102971,-2068.457845
3575.214011,-10214.842000,-1480.411884,-2374.896044
3575.214341,-8586.388927,-2516.700203,-2681.334243
3575.214671,-7476.080014,-2886.803174,-612.876398
3575.215001,-7105.977043,-2146.597232,1378.971896
3575.215331,-7179.997637,-1332.370696,3140.991542
3575.215661,-7846.182985,0.000000,2604.724693
3575.215991,-9252.574275,1480.411884,1608.800546
3575.216321,-10732.986159,1850.514855,689.485948
3575.216650,-12583.501014,1924.535449,153.219100
3575.216980,-13841.851115,888.247130,-383.047749
3575.217310,-13249.686362,518.144159,-229.828649
3575.217640,-11029.068536,-814.226536,-1532.190996
3575.217970,-9178.553681,-1850.514855,-1149.143247
3575.218300,-7920.203579,-1776.494261,0.000000
3575.218630,-7698.141797,-666.185348,1915.238745
3575.218960,-8068.244768,-148.041188,1685.410096
3575.219290,-8142.265362,1110.308913,1225.752797
3575.219620,-8882.471304,1480.411884,0.000000
3575.219950,-10955.047942,1850.514855,-1072.533697
3575.220280,-12509.480420,1258.350101,-459.657299
3575.220610,-12657.521608,296.082377,-766.095498
3575.220940,-11843.295072,-740.205942,-995.924147
3575.221270,-9918.759623,-1850.514855,-919.314598
3575.221600,-7772.162391,-2442.679609,306.438199
3575.221930,-7402.059420,-1776.494261,2068.457845
3575.222260,-7846.182985,-962.267725,2911.162892
3575.222590,-7994.224174,370.102971,2681.334243
3575.222920,-8586.388927,1406.391290,1991.848295
3575.223250,-9696.697840,1702.473667,-612.876398
3575.223580,-10732.986159,2072.576638,-1225.752797
3575.223910,-12139.377449,1406.391290,-1302.362347
3575.224240,-12361.439231,666.185348,-1685.410096
3575.224570,-11029.068536,-370.102971,-1915.238745
3575.224899,-9178.553681,-1554.432478,-1608.800546
3575.225229,-7698.141797,-1628.453072,229.828649
3575.225559,-7698.141797,-1110.308913,3064.381992
3575.225889,-8438.347739,-296.082377,4136.915689
3575.226219,-8808.450710,888.247130,3830.477490
3575.226549,-9400.615463,2294.638420,1532.190996
3575.226879,-10510.924376,2220.617826,-459.657299
3575.227209,-12139.377449,2368.659014,-1378.971896
3575.227539,-13027.624579,1850.514855,-2221.676944
3575.227869,-12213.398043,370.102971,-2374.896044
3575.228199,-9992.780217,-666.185348,-3064.381992
3575.228529,-8290.306550,-1850.514855,-2221.676944
3575.228859,-7624.121203,-1924.535449,-689.485948
3575.229189,-7105.977043,-740.205942,1991.848295
3575.229519,-7846.182985,74.020594,3294.210641
3575.229849,-8734.430116,1480.411884,3600.648841
3575.230179,-9770.718434,2220.617826,2221.676944
3575.230509,-11177.109724,2368.659014,1072.533697
3575.230839,-12287.418637,2220.617826,0.000000
3575.231169,-13397.727550,1332.370696,-459.657299
3575.231499,-12213.398043,592.164754,-1608.800546
3575.231829,-10436.903782,-740.205942,-1149.143247
3575.232159,-8142.265362,-1406.391290,-1225.752797
3575.232489,-7476.080014,-1332.370696,229.828649
3575.232818,-7476.080014,0.000000,1532.190996
3575.233148,-8512.368333,592.164754,1915.238745
3575.233478,-8586.388927,1480.411884,1225.752797
3575.233808,-9474.636058,1702.473667,153.219100
3575.234138,-11029.068536,1776.494261,-383.047749
3575.234468,-12435.459826,1258.350101,-459.657299
3575.234798,-12361.439231,0.000000,-766.095498
3575.235128,-11325.150913,-518.144159,-1072.533697
3575.235458,-9326.594869,-1850.514855,-842.705048
3575.235788,-8142.265362,-2072.576638,0.000000
3575.236118,-7698.141797,-1480.411884,2528.115143
3575.236448,-8290.306550,-296.082377,3830.477490
3575.236778,-8512.368333,666.185348,2604.724693
3575.237108,-8956.491898,1776.494261,842.705048
3575.237438,-9844.739029,1924.535449,-919.314598
3575.237768,-11473.192101,1850.514855,-1378.971896
3575.238098,-12139.377449,1332.370696,-1455.581446
3575.238428,-11843.295072,0.000000,-1762.019645
3575.238758,-10362.883188,-962.267725,-1532.190996
3575.239088,-8882.471304,-1776.494261,-995.924147
3575.239418,-7772.162391,-2146.597232,612.876398
3575.239748,-8068.244768,-1258.350101,2987.772442
3575.240078,-8364.327145,-74.020594,3753.867940
3575.240408,-8734.430116,740.205942,3370.820191
3575.240738,-9474.636058,1628.453072,1455.581446
3575.241067,-11251.130318,1628.453072,-459.657299
3575.241397,-12509.480420,1480.411884,-2145.067394
3575.241727,-12657.521608,222.061783,-2145.067394
3575.242057,-11695.253884,-518.144159,-2374.896044
3575.242387,-9770.718434,-1554.432478,-2221.676944
3575.242717,-7624.121203,-2072.576638,-1455.581446
3575.243047,-6735.874072,-2590.720797,-153.219100
3575.243377,-7254.018232,-1850.514855,2068.457845
3575.243707,-7476.080014,-592.164754,2757.943793
3575.244037,-8586.388927,666.185348,3294.210641
3575.244367,-9844.739029,1628.453072,2221.676944
3575.244697,-11621.233289,1776.494261,689.485948
3575.245027,-12731.542202,1258.350101,-306.438199
3575.245357,-13323.706956,518.144159,-919.314598
3575.245687,-11843.295072,-370.102971,-919.314598
3575.246017,-10066.800811,-1702.473667,-1378.971896
3575.246347,-7920.203579,-1998.556043,-919.314598
3575.246677,-7328.038826,-1628.453072,229.828649
3575.247007,-7105.977043,-814.226536,1838.629195
3575.247337,-8068.244768,0.000000,1915.238745
3575.247667,-8216.285956,1110.308913,919.314598
3575.247997,-9474.636058,1554.432478,-459.657299
3575.248327,-11103.089130,1628.453072,-612.876398
3575.248657,-12805.562797,1184.329507,-459.657299
3575.248986,-13101.645173,444.123565,-306.438199
3575.249316,-11547.212695,-814.226536,-1072.533697
3575.249646,-9770.718434,-1850.514855,-995.924147
3575.249976,-8438.347739,-2146.597232,383.047749
3575.250306,-7698.141797,-1702.473667,2221.676944
3575.250636,-7846.182985,-518.144159,3064.381992
3575.250966,-8216.285956,592.164754,2298.286494
3575.251296,-8660.409521,1480.411884,0.000000
3575.251626,-10066.800811,2146.597232,-1302.362347
3575.251956,-11177.109724,2294.638420,-1532.190996
3575.252286,-12287.418637,1554.432478,-1455.581446
3575.252616,-12139.377449,370.102971,-1378.971896
3575.252946,-10436.903782,-814.226536,-1762.019645
3575.253276,-8586.388927,-1850.514855,-1149.143247
3575.253606,-7994.224174,-1998.556043,919.314598
3575.253936,-7920.203579,-1332.370696,3064.381992
3575.254266,-8438.347739,-74.020594,4366.744339
3575.254596,-8586.388927,1110.308913,3064.381992
3575.254926,-9252.574275,1850.514855,842.705048
3575.255256,-10732.986159,1998.556043,-689.485948
3575.255586,-12287.418637,2294.638420,-1225.752797
3575.255916,-12583.501014,1332.370696,-1838.629195
3575.256246,-11769.274478,74.020594,-2298.286494
3575.256576,-9770.718434,-1036.288319,-2987.772442
3575.256905,-8142.265362,-2072.576638,-1991.848295
3575.257235,-7179.997637,-2072.576638,0.000000
3575.257565,-7105.977043,-1406.391290,2528.115143
3575.257895,-7698.141797,0.000000,3600.648841
3575.258225,-8438.347739,962.267725,3677.258390
3575.258555,-9622.677246,1924.535449,1838.629195
3575.258885,-11103.089130,1998.556043,612.876398
3575.259215,-12805.562797,1850.514855,153.219100
3575.259545,-13619.789333,1110.308913,76.609550
3575.259875,-12065.356855,0.000000,-766.095498
3575.260205,-10066.800811,-1036.288319,-1072.533697
3575.260535,-8290.306550,-1702.473667,-689.485948
3575.260865,-7772.162391,-1258.350101,229.828649
3575.261195,-7994.224174,-518.144159,2068.457845
3575.261525,-8216.285956,444.123565,2068.457845
3575.261855,-8364.327145,1258.350101,1225.752797
3575.262185,-9548.656652,1850.514855,-306.438199
3575.262515,-11251.130318,1480.411884,-995.924147
3575.262845,-12139.377449,1110.308913,-766.095498
3575.263175,-12287.418637,148.041188,-536.266849
3575.263505,-11177.109724,-962.267725,-1072.533697
3575.263835,-9474.636058,-1998.556043,-306.438199
3575.264165,-7994.224174,-2368.659014,1072.533697
3575.264495,-7698.141797,-1480.411884,2528.115143
3575.264825,-7994.224174,-444.123565,3064.381992
3575.265154,-8734.430116,666.185348,2221.676944
3575.265484,-8956.491898,1258.350101,229.828649
3575.265814,-10066.800811,1850.514855,-1072.533697
3575.266144,-11621.233289,1998.556043,-1532.190996
3575.266474,-12139.377449,1036.288319,-1532.190996
3575.266804,-11917.315666,444.123565,-2145.067394
3575.267134,-10362.883188,-740.205942,-1915.238745
3575.267464,-8512.368333,-1776.494261,-1225.752797
3575.267794,-7698.141797,-1998.556043,919.314598
3575.268124,-7624.121203,-1184.329507,3294.210641
3575.268454,-8660.409521,0.000000,4213.525239
3575.268784,-9252.574275,814.226536,2757.943793
3575.269114,-9696.697840,1332.370696,1072.533697
3575.269444,-11029.068536,1554.432478,-689.485948
3575.269774,-12731.542202,1406.391290,-995.924147
3575.270104,-12805.562797,296.082377,-1455.581446
3575.270434,-11621.233289,-592.164754,-2298.286494
3575.270764,-9622.677246,-1702.473667,-2451.505594
3575.271094,-7846.182985,-2516.700203,-1685.410096
3575.271424,-7328.038826,-2146.597232,229.828649
3575.271754,-7179.997637,-1850.514855,2451.505594
3575.272084,-7254.018232,-518.144159,3217.601092
3575.272414,-8216.285956,222.061783,2834.553343
3575.272744,-9918.759623,962.267725,1685.410096
3575.273073,-11621.233289,1184.329507,383.047749
3575.273403,-12657.521608,666.185348,76.609550
3575.273733,-13101.645173,0.000000,-306.438199
3575.274063,-11621.233289,-888.247130,-153.219100
3575.274393,-9918.759623,-1702.473667,-1225.752797
3575.274723,-8142.265362,-2146.597232,-995.924147
3575.275053,-7254.018232,-1924.535449,536.266849
3575.275383,-7328.038826,-888.247130,1608.800546
3575.275713,-7920.203579,148.041188,995.924147
3575.276043,-8438.347739,1110.308913,383.047749
3575.276373,-9474.636058,1406.391290,-459.657299
3575.276703,-11473.192101,1554.432478,-1149.143247
3575.277033,-12361.439231,740.205942,-995.924147
3575.277363,-12509.480420,74.020594,-919.314598
3575.277693,-11251.130318,-1184.329507,-995.924147
3575.278023,-9696.697840,-2146.597232,-306.438199
3575.278353,-8586.388927,-1850.514855,995.924147
3575.278683,-7994.224174,-1554.432478,2757.943793
3575.279013,-7994.224174,-444.123565,3370.820191
3575.279343,-8808.450710,666.185348,2911.162892
3575.279673,-9326.594869,1850.514855,919.314598
3575.280003,-10362.883188,2072.576638,-689.485948
3575.280333,-11769.274478,1998.556043,-1532.190996
3575.280663,-12361.439231,1184.329507,-1302.362347
3575.280993,-12213.398043,592.164754,-919.314598
3575.281322,-10510.924376,-518.144159,-1608.800546
3575.281652,-8734.430116,-1554.432478,-919.314598
3575.281982,-7772.162391,-1480.411884,612.876398
3575.282312,-7994.224174,-814.226536,3064.381992
3575.282642,-8586.388927,0.000000,3907.087040
3575.282972,-8438.347739,1258.350101,2911.162892
3575.283302,-9844.739029,2146.597232,842.705048
3575.283632,-11325.150913,2368.659014,-689.485948
3575.283962,-12657.521608,2072.576638,-1378.971896
3575.284292,-12953.603985,888.247130,-1991.848295
3575.284622,-11547.212695,0.000000,-2221.676944
3575.284952,-9474.636058,-1184.329507,-2528.115143
3575.285282,-7402.059420,-2146.597232,-1072.533697
3575.285612,-6957.935855,-1702.473667,153.219100
3575.285942,-7031.956449,-814.226536,2298.286494
3575.286272,-7254.018232,222.061783,3140.991542
3575.286602,-8438.347739,1554.432478,2451.505594
3575.286932,-9992.780217,2072.576638,1762.019645
3575.287262,-11695.253884,2368.659014,306.438199
3575.287592,-12879.583391,2072.576638,0.000000
3575.287922,-13323.706956,1110.308913,-689.485948
3575.288252,-11399.171507,0.000000,-1072.533697
3575.288582,-9770.718434,-962.267725,-1225.752797
3575.288912,-8438.347739,-1258.350101,-459.657299
3575.289241,-7550.100608,-888.247130,612.876398
3575.289571,-7994.224174,222.061783,1685.410096
3575.289901,-8290.306550,888.247130,1302.362347
3575.290231,-8586.388927,1924.535449,153.219100
3575.290561,-9844.739029,1998.556043,-1225.752797
3575.290891,-11621.233289,1998.556043,-1302.362347
3575.291221,-12509.480420,888.247130,-1225.752797
3575.291551,-12287.418637,0.000000,-536.266849
3575.291881,-10658.965565,-1258.350101,-995.924147
3575.292211,-9400.615463,-2368.659014,-229.828649
3575.292541,-7920.203579,-2220.617826,1225.752797
3575.292871,-7920.203579,-1628.453072,2911.162892
3575.293201,-7772.162391,-814.226536,3600.648841
3575.293531,-8586.388927,222.061783,2604.724693
3575.293861,-9622.677246,1184.329507,1225.752797
3575.294191,-10658.965565,1332.370696,-383.047749
3575.294521,-11843.295072,1480.411884,-1378.971896
3575.294851,-12435.459826,666.185348,-1378.971896
3575.295181,-12065.356855,-222.061783,-1302.362347
3575.295511,-10066.800811,-1332.370696,-1762.019645
3575.295841,-8290.306550,-2220.617826,-919.314598
3575.296171,-7254.018232,-2368.659014,995.924147
3575.296501,-7698.141797,-1480.411884,2834.553343
3575.296831,-8586.388927,-592.164754,3524.039291
3575.297160,-9178.553681,1036.288319,2757.943793
3575.297490,-10140.821405,1406.391290,919.314598
3575.297820,-11991.336260,1628.453072,-766.095498
3575.298150,-12953.603985,1036.288319,-1225.752797
3575.298480,-12657.521608,296.082377,-1608.800546
3575.298810,-11399.171507,-814.226536,-2068.457845
3575.299140,-9548.656652,-2072.576638,-2145.067394
3575.299470,-7624.121203,-2220.617826,-995.924147
3575.299800,-6883.915261,-2146.597232,306.438199
3575.300130,-6661.853478,-1406.391290,2145.067394
3575.300460,-7698.141797,0.000000,3064.381992
3575.300790,-9178.553681,1110.308913,2604.724693
3575.301120,-10510.924376,2072.576638,1225.752797
3575.301450,-11695.253884,1554.432478,153.219100
3575.301780,-12805.562797,888.247130,153.219100
3575.302110,-13175.665768,222.061783,-459.657299
3575.302440,-11621.233289,-888.247130,-459.657299
3575.302770,-9400.615463,-1628.453072,-766.095498
3575.303100,-7698.141797,-1628.453072,153.219100
3575.303430,-7105.977043,-1110.308913,919.314598
3575.303760,-7476.080014,0.000000,1532.190996
3575.304090,-8216.285956,1110.308913,1455.581446
3575.304420,-8882.471304,2220.617826,0.000000
3575.304750,-10288.862594,2220.617826,-842.705048
3575.305079,-11769.274478,1924.535449,-1685.410096
3575.305409,-11843.295072,1110.308913,-2298.286494
3575.305739,-12435.459826,0.000000,-1072.533697
3575.306069,-10436.903782,-1036.288319,-1302.362347
3575.306399,-8660.409521,-2146.597232,306.438199
3575.306729,-7254.018232,-1406.391290,1838.629195
3575.307059,-7105.977043,-1184.329507,3140.991542
3575.307389,-7846.182985,74.020594,3294.210641
3575.307719,-9178.553681,1702.473667,2374.896044
3575.308049,-9844.739029,2442.679609,153.219100
3575.308379,-11029.068536,2738.761985,-919.314598
3575.308709,-12139.377449,2220.617826,-1149.143247
3575.309039,-12361.439231,1110.308913,-1225.752797
3575.309369,-11547.212695,0.000000,-2374.896044
3575.309699,-9770.718434,-740.205942,-2221.676944
3575.310029,-7846.182985,-1480.411884,-766.095498
3575.310359,-7624.121203,-1258.350101,1762.019645
3575.310689,-8068.244768,0.000000,3370.820191
3575.311019,-8734.430116,1110.308913,3524.039291
3575.311349,-9474.636058,2146.597232,2374.896044
3575.311679,-10732.986159,2368.659014,459.657299
3575.312009,-12213.398043,1924.535449,-1072.533697
3575.312338,-12953.603985,1258.350101,-1532.190996
3575.312668,-12361.439231,296.082377,-1762.019645
3575.312998,-10881.027347,-814.226536,-1915.238745
3575.313328,-8882.471304,-1924.535449,-1685.410096
3575.313658,-7328.038826,-2220.617826,-995.924147
3575.313988,-6809.894666,-1554.432478,612.876398
3575.314318,-7031.956449,-1110.308913,2834.553343
3575.314648,-8142.265362,518.144159,3217.601092
3575.314978,-9326.594869,1332.370696,2987.772442
3575.315308,-10436.903782,1924.535449,1378.971896
3575.315638,-11769.274478,1332.370696,0.000000
3575.315968,-12879.583391,814.226536,-612.876398
3575.316298,-12953.603985,148.041188,-536.266849
3575.316628,-11547.212695,-962.267725,-1149.143247
3575.316958,-8660.409521,-1924.535449,-612.876398
3575.317288,-7328.038826,-1924.535449,0.000000
3575.317618,-7328.038826,-1332.370696,1225.752797
3575.317948,-7920.203579,-370.102971,1991.848295
3575.318278,-8586.388927,740.205942,1608.800546
3575.318608,-9030.512492,1480.411884,229.828649
3575.318938,-10288.862594,1406.391290,-995.924147
3575.319268,-11917.315666,888.247130,-1378.971896
3575.319598,-12509.480420,148.041188,-1838.629195
3575.319927,-11917.315666,-740.205942,-1072.533697
3575.320257,-10288.862594,-1776.494261,-842.705048
3575.320587,-8882.471304,-2220.617826,76.609550
3575.320917,-7402.059420,-1924.535449,1302.362347
3575.321247,-7846.182985,-1110.308913,2757.943793
3575.321577,-8142.265362,0.000000,2528.115143
3575.321907,-9252.574275,814.226536,1762.019645
3575.322237,-9918.759623,1776.494261,-306.438199
3575.322567,-10955.047942,1554.432478,-1455.581446
3575.322897,-11843.295072,1258.350101,-1532.190996
3575.323227,-12509.480420,740.205942,-1608.800546
3575.323557,-11473.192101,-592.164754,-1608.800546
3575.323887,-9548.656652,-1480.411884,-1685.410096
3575.324217,-8216.285956,-1554.432478,-383.047749
3575.324547,-8068.244768,-1258.350101,1838.629195
3575.324877,-8364.327145,-518.144159,3600.648841
3575.325207,-9104.533087,518.144159,3217.601092
3575.325537,-9178.553681,1184.329507,1991.848295
3575.325867,-10436.903782,1554.432478,229.828649
3575.326197,-11843.295072,1628.453072,-1072.533697
3575.326527,-12509.480420,962.267725,-1685.410096
3575.326857,-12287.418637,0.000000,-1302.362347
3575.327187,-10955.047942,-888.247130,-2221.676944
3575.327516,-9178.553681,-1776.494261,-2221.676944
3575.327846,-7698.141797,-1998.556043,-842.705048
3575.328176,-6735.874072,-1924.535449,1149.143247
3575.328506,-7402.059420,-666.185348,2757.943793
3575.328836,-7920.203579,296.082377,3370.820191
3575.329166,-9178.553681,1258.350101,2298.286494
3575.329496,-10362.883188,1258.350101,1072.533697
3575.329826,-12065.356855,1776.494261,0.000000
3575.330156,-13397.727550,1332.370696,-229.828649
3575.330486,-12805.562797,370.102971,-612.876398
3575.330816,-11547.212695,-592.164754,-919.314598
3575.331146,-9030.512492,-1332.370696,-919.314598
3575.331476,-7846.182985,-1628.453072,0.000000
3575.331806,-7254.018232,-1036.288319,766.095498
3575.332136,-7772.162391,-296.082377,1608.800546
3575.332466,-8290.306550,962.267725,1149.143247
3575.332796,-9104.533087,1554.432478,459.657299
3575.333126,-10362.883188,1924.535449,-1072.533697
3575.333456,-11695.253884,1258.350101,-1455.581446
3575.333786,-12879.583391,370.102971,-1378.971896
3575.334116,-11843.295072,-518.144159,-919.314598
3575.334446,-10362.883188,-1554.432478,-459.657299
3575.334775,-8586.388927,-2368.659014,383.047749
3575.335105,-7624.121203,-2442.679609,2145.067394
3575.335435,-7254.018232,-1332.370696,2987.772442
3575.335765,-7994.224174,0.000000,3140.991542
3575.336095,-8956.491898,1036.288319,1455.581446
3575.336425,-9696.697840,1628.453072,306.438199
3575.336755,-10955.047942,1776.494261,-842.705048
3575.337085,-11917.315666,1480.411884,-1455.581446
3575.337415,-12213.398043,666.185348,-1532.190996
3575.337745,-11325.150913,-296.082377,-1302.362347
3575.338075,-9770.718434,-1110.308913,-1991.848295
3575.338405,-8290.306550,-1702.473667,0.000000
3575.338735,-7624.121203,-1258.350101,1685.410096
3575.339065,-8142.265362,-518.144159,3600.648841
3575.339395,-8882.471304,296.082377,3677.258390
3575.339725,-9474.636058,1776.494261,1838.629195
3575.340055,-10436.903782,1850.514855,0.000000
3575.340385,-11917.315666,1776.494261,-842.705048
3575.340715,-12953.603985,1406.391290,-1302.362347
3575.341045,-12287.418637,222.061783,-1608.800546
3575.341375,-10362.883188,-1036.288319,-2068.457845
3575.341705,-8882.471304,-1850.514855,-1991.848295
3575.342035,-7624.121203,-1924.535449,-536.266849
3575.342364,-7179.997637,-1776.494261,1455.581446
3575.342694,-7476.080014,-592.164754,3140.991542
3575.343024,-8512.368333,444.123565,3370.820191
3575.343354,-9622.677246,1628.453072,2298.286494
3575.343684,-10362.883188,1554.432478,1838.629195
3575.344014,-12139.377449,1702.473667,383.047749
3575.344344,-13175.665768,1184.329507,153.219100
3575.344674,-12731.542202,74.020594,-383.047749
3575.345004,-11325.150913,-592.164754,-1149.143247
3575.345334,-9030.512492,-1628.453072,-1532.190996
3575.345664,-7624.121203,-1554.432478,-383.047749
3575.345994,-7476.080014,-1036.288319,919.314598
3575.346324,-7920.203579,0.000000,1378.971896
3575.346654,-8586.388927,1110.308913,842.705048
3575.346984,-9252.574275,1406.391290,0.000000
3575.347314,-10510.924376,1480.411884,-1302.362347
3575.347644,-11769.274478,1258.350101,-1838.629195
3575.347974,-12139.377449,148.041188,-1762.019645
3575.348304,-11177.109724,-888.247130,-1225.752797
3575.348634,-9548.656652,-1776.494261,-153.219100
3575.348964,-7920.203579,-2368.659014,229.828649
3575.349294,-7254.018232,-1776.494261,1762.019645
3575.349624,-7846.182985,-962.267725,2911.162892
3575.349953,-8290.306550,444.123565,2451.505594
3575.350283,-9400.615463,1332.370696,1378.971896
3575.350613,-9992.780217,1776.494261,-383.047749
3575.350943,-10807.006753,1702.473667,-689.485948
3575.351273,-12065.356855,1554.432478,-1455.581446
3575.351603,-12213.398043,592.164754,-1762.019645
3575.351933,-11251.130318,-74.020594,-1455.581446
3575.352263,-9622.677246,-1184.329507,-766.095498
3575.352593,-8068.244768,-1628.453072,-153.219100
3575.352923,-7550.100608,-1184.329507,2451.505594
3575.353253,-8734.430116,0.000000,3983.696590
3575.353583,-9474.636058,1110.308913,4060.306139
3575.353913,-9918.759623,1850.514855,1915.238745
3575.354243,-10732.986159,2072.576638,0.000000
3575.354573,-11843.295072,1554.432478,-766.095498
3575.354903,-13027.624579,962.267725,-1302.362347
3575.355233,-12139.377449,222.061783,-2068.457845
3575.355563,-10066.800811,-1332.370696,-2145.067394
3575.355893,-8290.306550,-2368.659014,-1762.019645
3575.356223,-7105.977043,-2072.576638,0.000000
3575.356553,-7105.977043,-1628.453072,2221.676944
3575.356883,-7328.038826,-444.123565,2911.162892
3575.357212,-8216.285956,444.123565,3140.991542
3575.357542,-9326.594869,1554.432478,2145.067394
3575.357872,-10658.965565,1850.514855,1378.971896
3575.358202,-12435.459826,1850.514855,229.828649
3575.358532,-13101.645173,592.164754,306.438199
3575.358862,-12509.480420,74.020594,-76.609550
3575.359192,-10807.006753,-962.267725,-919.314598
3575.359522,-8438.347739,-1702.473667,-919.314598
3575.359852,-7254.018232,-1332.370696,-459.657299
3575.360182,-7328.038826,-518.144159,612.876398
3575.360512,-7772.162391,148.041188,1302.362347
3575.360842,-7994.224174,1554.432478,383.047749
3575.361172,-9400.615463,1628.453072,-536.266849
3575.361502,-10807.006753,1628.453072,-1225.752797
3575.361832,-12287.418637,888.247130,-1685.410096
3575.362162,-12657.521608,296.082377,-919.314598
3575.362492,-11251.130318,-1184.329507,-995.924147
3575.362822,-9622.677246,-1850.514855,-153.219100
3575.363152,-7846.182985,-2516.700203,766.095498
3575.363482,-7402.059420,-1850.514855,2604.724693
3575.363812,-7550.100608,-1110.308913,2911.162892
3575.364142,-8438.347739,296.082377,2834.553343
3575.364472,-9252.574275,1702.473667,1302.362347
3575.364801,-10140.821405,1702.473667,-459.657299
3575.365131,-11251.130318,1776.494261,-1378.971896
3575.365461,-12139.377449,1110.308913,-1838.629195
3575.365791,-12139.377449,148.041188,-1915.238745
3575.366121,-11177.109724,-740.205942,-1608.800546
3575.366451,-9104.533087,-2220.617826,-995.924147
3575.366781,-8068.244768,-2072.576638,459.657299
3575.367111,-7846.182985,-1184.329507,2604.724693
3575.367441,-8290.306550,-518.144159,3600.648841
3575.367771,-9474.636058,814.226536,3447.429741
3575.368101,-9770.718434,1776.494261,1532.190996
3575.368431,-11325.150913,1776.494261,-153.219100
3575.368761,-12509.480420,1628.453072,-1532.190996
3575.369091,-13027.624579,518.144159,-1685.410096
3575.369421,-11917.315666,-370.102971,-2145.067394
3575.369751,-10066.800811,-1554.432478,-2298.286494
3575.370081,-8290.306550,-2368.659014,-2145.067394
3575.370411,-6809.894666,-2442.679609,-536.266849
3575.370741,-6883.915261,-1776.494261,2068.457845
3575.371071,-7328.038826,-296.082377,2911.162892
3575.371401,-8364.327145,814.226536,2757.943793
3575.371731,-9844.739029,1480.411884,1915.238745
3575.372061,-10807.006753,2072.576638,919.314598
3575.372390,-12805.562797,1480.411884,0.000000
3575.372720,-13249.686362,592.164754,-153.219100
3575.373050,-12361.439231,-444.123565,-689.485948
3575.373380,-10362.883188,-1036.288319,-995.924147
3575.373710,-8438.347739,-1554.432478,-1149.143247
3575.374040,-7624.121203,-1036.288319,229.828649
3575.374370,-7402.059420,-296.082377,995.924147
3575.374700,-8438.347739,518.144159,1225.752797
3575.375030,-8290.306550,1554.432478,459.657299
3575.375360,-9844.739029,1850.514855,-612.876398
3575.375690,-11029.068536,1628.453072,-1149.143247
3575.376020,-12287.418637,888.247130,-1532.190996
3575.376350,-12213.398043,148.041188,-842.705048
3575.376680,-11029.068536,-740.205942,-536.266849
3575.377010,-9474.636058,-1850.514855,459.657299
3575.377340,-8660.409521,-1924.535449,1991.848295
3575.377670,-7846.182985,-1554.432478,3447.429741
3575.378000,-8142.265362,-518.144159,3600.648841
3575.378330,-8660.409521,814.226536,3447.429741
3575.378660,-9622.677246,1850.514855,1225.752797
3575.378990,-10362.883188,1998.556043,-612.876398
3575.379320,-11325.150913,1776.494261,-1455.581446
3575.379649,-11917.315666,1332.370696,-1455.581446
3575.379979,-11843.295072,296.082377,-1762.019645
3575.380309,-10510.924376,-666.185348,-1532.190996
3575.380639,-8586.388927,-1258.350101,-1225.752797
3575.380969,-7698.141797,-1554.432478,536.266849
3575.381299,-7624.121203,-814.226536,2681.334243
3575.381629,-8586.388927,0.000000,4213.525239
3575.381959,-9104.533087,1628.453072,3140.991542
3575.382289,-9992.780217,1702.473667,1072.533697
3575.382619,-11399.171507,1776.494261,-612.876398
3575.382949,-12065.356855,1332.370696,-1455.581446
3575.383279,-12657.521608,814.226536,-1838.629195
3575.383609,-11251.130318,-74.020594,-1991.848295
3575.383939,-9622.677246,-1036.288319,-2528.115143
3575.384269,-8068.244768,-1850.514855,-1608.800546
3575.384599,-7105.977043,-1776.494261,0.000000
3575.384929,-6883.915261,-814.226536,1532.190996
3575.385259,-7698.141797,296.082377,2834.553343
3575.385589,-8956.491898,1258.350101,2604.724693
3575.385919,-9844.739029,1406.391290,1532.190996
3575.386249,-11843.295072,2146.597232,536.266849
3575.386579,-12657.521608,1406.391290,-153.219100
3575.386909,-13323.706956,74.020594,-229.828649
3575.387238,-12213.398043,-148.041188,-459.657299
3575.387568,-10362.883188,-666.185348,-995.924147
3575.387898,-8216.285956,-1628.453072,-842.705048
3575.388228,-7550.100608,-1184.329507,153.219100
3575.388558,-7476.080014,-518.144159,919.314598
3575.388888,-7920.203579,148.041188,995.924147
3575.389218,-8438.347739,1184.329507,459.657299
3575.389548,-10066.800811,1406.391290,-459.657299
3575.389878,-11177.109724,1628.453072,-995.924147
3575.390208,-11917.315666,444.123565,-1455.581446
3575.390538,-12287.418637,-222.061783,-1225.752797
3575.390868,-10807.006753,-1480.411884,-766.095498
3575.391198,-9104.533087,-2368.659014,153.219100
3575.391528,-7772.162391,-2072.576638,1915.238745
3575.391858,-7550.100608,-1036.288319,3140.991542
3575.392188,-7772.162391,-666.185348,3524.039291
3575.392518,-8586.388927,444.123565,2528.115143
3575.392848,-9548.656652,1554.432478,306.438199
3575.393178,-10510.924376,1628.453072,-612.876398
3575.393508,-11325.150913,1406.391290,-1455.581446
3575.393838,-12287.418637,814.226536,-1378.971896
3575.394168,-11843.295072,222.061783,-1838.629195
3575.394498,-10362.883188,-666.185348,-2374.896044
3575.394827,-8660.409521,-1258.350101,-1608.800546
3575.395157,-7772.162391,-1258.350101,459.657299
3575.395487,-8068.244768,-370.102971,3140.991542
3575.395817,-8808.450710,222.061783,4366.744339
3575.396147,-8808.450710,1628.453072,3217.601092
3575.396477,-9918.759623,1628.453072,995.924147
3575.396807,-11473.192101,1998.556043,-689.485948
3575.397137,-12361.439231,1480.411884,-1608.800546
3575.397467,-12731.542202,666.185348,-1608.800546
3575.397797,-11251.130318,0.000000,-1685.410096
3575.398127,-9622.677246,-888.247130,-2145.067394
3575.398457,-8142.265362,-1554.432478,-1608.800546
3575.398787,-7105.977043,-1628.453072,229.828649
3575.399117,-6883.915261,-666.185348,1685.410096
3575.399447,-7402.059420,0.000000,2757.943793
3575.399777,-8512.368333,1184.329507,2528.115143
3575.400107,-9770.718434,1702.473667,1455.581446
3575.400437,-11029.068536,1998.556043,459.657299
3575.400767,-12583.501014,1184.329507,-229.828649
3575.401097,-13101.645173,592.164754,-612.876398
3575.401427,-12361.439231,0.000000,-383.047749
3575.401757,-9844.739029,-1406.391290,-612.876398
3575.402087,-8290.306550,-1702.473667,-383.047749
3575.402417,-7550.100608,-1184.329507,459.657299
3575.402747,-7698.141797,-370.102971,1225.752797
3575.403077,-7698.141797,148.041188,1225.752797
3575.403407,-8364.327145,1110.308913,383.047749
3575.403737,-9474.636058,1332.370696,-612.876398
3575.404066,-11029.068536,1110.308913,-1225.752797
3575.404396,-11843.295072,370.102971,-1608.800546
3575.404726,-11917.315666,-518.144159,-1378.971896
3575.405056,-10881.027347,-1554.432478,-1149.143247
3575.405386,-9474.636058,-2294.638420,0.000000
3575.405716,-7994.224174,-2368.659014,1608.800546
3575.406046,-7550.100608,-1850.514855,3524.039291
3575.406376,-7994.224174,-962.267725,3524.039291
3575.406706,-9030.512492,222.061783,2604.724693
3575.407036,-9548.656652,1110.308913,919.314598
3575.407366,-10436.903782,1702.473667,-842.705048
3575.407696,-11769.274478,1702.473667,-1532.190996
3575.408026,-12583.501014,888.247130,-1685.410096
3575.408356,-11843.295072,0.000000,-1762.019645
3575.408686,-10510.924376,-1036.288319,-1915.238745
3575.409016,-8512.368333,-1924.535449,-1225.752797
3575.409346,-7920.203579,-1702.473667,689.485948
3575.409675,-7772.162391,-1332.370696,2834.553343
3575.410005,-8512.368333,-148.041188,4136.915689
3575.410335,-8808.450710,1036.288319,3524.039291
3575.410665,-9918.759623,1258.350101,1149.143247
3575.410995,-11251.130318,1702.473667,-306.438199
3575.411325,-12657.521608,1406.391290,-1225.752797
3575.411655,-12805.562797,666.185348,-1378.971896
3575.411985,-11103.089130,-444.123565,-1991.848295
3575.412315,-9474.636058,-1554.432478,-2451.505594
3575.412645,-7772.162391,-1998.556043,-1378.971896
3575.412975,-6735.874072,-2146.597232,459.657299
3575.413305,-7179.997637,-888.247130,2374.896044
3575.413635,-7624.121203,148.041188,3140.991542
3575.413965,-8808.450710,1258.350101,2528.115143
3575.414295,-10066.800811,2072.576638,1838.629195
3575.414625,-11695.253884,2294.638420,-153.219100
3575.414955,-12879.583391,1628.453072,-153.219100
3575.415284,-12953.603985,666.185348,-306.438199
3575.415614,-11917.315666,148.041188,-459.657299
3575.415944,-9696.697840,-370.102971,-766.095498
3575.416274,-8290.306550,-1110.308913,-689.485948
3575.416604,-7624.121203,-666.185348,459.657299
3575.416934,-7772.162391,-296.082377,1685.410096
3575.417264,-7920.203579,814.226536,1378.971896
3575.417594,-8438.347739,1776.494261,842.705048
3575.417924,-9918.759623,1850.514855,-766.095498
3575.418254,-11325.150913,1406.391290,-1532.190996
3575.418584,-12287.418637,814.226536,-1149.143247
3575.418914,-11769.274478,-740.205942,-1302.362347
3575.419244,-10288.862594,-1258.350101,-766.095498
3575.419574,-8660.409521,-1850.514855,0.000000
3575.419904,-7624.121203,-2072.576638,1838.629195
3575.420234,-7179.997637,-1406.391290,3217.601092
3575.420564,-8216.285956,0.000000,3524.039291
3575.420893,-8882.471304,666.185348,2374.896044
3575.421223,-9918.759623,1628.453072,612.876398
3575.421553,-10658.965565,1554.432478,-919.314598
3575.421883,-11399.171507,1332.370696,-1378.971896
3575.422213,-12065.356855,962.267725,-1838.629195
3575.422543,-11473.192101,0.000000,-2221.676944
3575.422873,-9622.677246,-1258.350101,-2374.896044
3575.423203,-8068.244768,-1776.494261,-995.924147
3575.423533,-7698.141797,-1702.473667,842.705048
3575.423863,-8290.306550,-1184.329507,3370.820191
3575.424193,-8734.430116,-148.041188,4136.915689
3575.424523,-8956.491898,1110.308913,2911.162892
3575.424853,-10362.883188,1184.329507,842.705048
3575.425183,-11769.274478,1480.411884,-689.485948
3575.425513,-12583.501014,962.267725,-995.924147
3575.425843,-12583.501014,74.020594,-2145.067394
3575.426173,-10955.047942,-814.226536,-2145.067394
3575.426502,-9252.574275,-1850.514855,-2298.286494
3575.426832,-7698.141797,-2220.617826,-1762.019645
3575.427162,-7254.018232,-1776.494261,229.828649
3575.427492,-7254.018232,-962.267725,2374.896044
3575.427822,-7920.203579,0.000000,2911.162892
3575.428152,-9400.615463,1332.370696,2298.286494
3575.428482,-10510.924376,1702.473667,995.924147
3575.428812,-11325.150913,1628.453072,-459.657299
3575.429142,-13027.624579,1332.370696,-536.266849
3575.429472,-13323.706956,518.144159,-536.266849
3575.429802,-11695.253884,-444.123565,-612.876398
3575.430132,-9252.574275,-1332.370696,-1302.362347
3575.430462,-8290.306550,-1258.350101,-229.828649
3575.430792,-7698.141797,-888.247130,1072.533697
3575.431122,-7772.162391,-370.102971,1378.971896
3575.431452,-8290.306550,814.226536,1378.971896
3575.431782,-8808.450710,1628.453072,689.485948
3575.432111,-9844.739029,1554.432478,-306.438199
3575.432441,-11621.233289,1554.432478,-919.314598
3575.432771,-11991.336260,666.185348,-1532.190996
3575.433101,-11547.212695,-222.061783,-1378.971896
3575.433431,-10066.800811,-1480.411884,-842.705048
3575.433761,-8734.430116,-1924.535449,459.657299
3575.434091,-7550.100608,-1776.494261,2221.676944
3575.434421,-7402.059420,-518.144159,3753.867940
3575.434751,-8142.265362,296.082377,3294.210641
3575.435081,-9104.533087,1332.370696,2068.457845
3575.435411,-9622.677246,1628.453072,306.438199
3575.435741,-10807.006753,1924.535449,-919.314598
3575.436071,-11843.295072,2072.576638,-1532.190996
3575.436401,-11843.295072,962.267725,-1608.800546
3575.436731,-11399.171507,222.061783,-2068.457845
3575.437061,-9474.636058,-888.247130,-2145.067394
3575.437391,-7920.203579,-1702.473667,-383.047749
3575.437720,-7550.100608,-1332.370696,1532.190996
3575.438050,-7920.203579,-444.123565,3677.258390
3575.438380,-8586.388927,296.082377,3830.477490
3575.438710,-9178.553681,1554.432478,2681.334243
3575.439040,-10436.903782,1480.411884,612.876398
3575.439370,-11991.336260,1554.432478,-995.924147
3575.439700,-12583.501014,1184.329507,-1685.410096
3575.440030,-11843.295072,0.000000,-1915.238745
3575.440360,-10658.965565,-518.144159,-2298.286494
3575.440690,-8956.491898,-1702.473667,-2068.457845
3575.441020,-7328.038826,-1850.514855,-536.266849
3575.441350,-6883.915261,-1628.453072,842.705048
3575.441680,-7254.018232,-370.102971,2298.286494
3575.442010,-8364.327145,740.205942,3064.381992
3575.442340,-9400.615463,1332.370696,2221.676944
3575.442670,-10955.047942,1628.453072,995.924147
3575.443000,-11991.336260,1776.494261,-536.266849
3575.443329,-13175.665768,1036.288319,-459.657299
3575.443659,-13027.624579,222.061783,-919.314598
3575.443989,-11325.150913,-888.247130,-1225.752797
3575.444319,-8956.491898,-1110.308913,-612.876398
3575.444649,-7698.141797,-1702.473667,229.828649
3575.444979,-7476.080014,-1184.329507,1225.752797
3575.445309,-7476.080014,-444.123565,1685.410096
3575.445639,-7920.203579,592.164754,1225.752797
3575.445969,-9104.533087,1332.370696,229.828649
3575.446299,-10658.965565,1406.391290,-689.485948
3575.446629,-12065.356855,962.267725,-842.705048
3575.446959,-12361.439231,148.041188,-1149.143247
3575.447289,-11251.130318,-740.205942,-1225.752797
3575.447619,-10066.800811,-1850.514855,-383.047749
3575.447949,-8512.368333,-2220.617826,689.485948
3575.448279,-7476.080014,-1850.514855,2528.115143
3575.448609,-7476.080014,-518.144159,3600.648841
3575.448938,-8734.430116,592.164754,3294.210641
3575.449268,-9622.677246,1332.370696,1685.410096
3575.449598,-10140.821405,2146.597232,0.000000
3575.449928,-11473.192101,2072.576638,-1302.362347
3575.450258,-11769.274478,1998.556043,-1532.190996
3575.450588,-12139.377449,888.247130,-1532.190996
3575.450918,-11177.109724,0.000000,-2221.676944
3575.451248,-8956.491898,-1184.329507,-1838.629195
3575.451578,-7772.162391,-1554.432478,-153.219100
3575.451908,-7328.038826,-1110.308913,1915.238745
3575.452238,-8068.244768,0.000000,3983.696590
3575.452568,-8512.368333,592.164754,3983.696590
3575.452898,-9400.615463,1702.473667,1915.238745
3575.453228,-10955.047942,1998.556043,0.000000
3575.453558,-12287.418637,1850.514855,-1532.190996
3575.453888,-12583.501014,1110.308913,-1915.238745
3575.454218,-12065.356855,592.164754,-1685.410096
3575.454547,-10214.842000,-666.185348,-2528.115143
3575.454877,-8364.327145,-1554.432478,-1991.848295
3575.455207,-7254.018232,-1702.473667,-919.314598
3575.455537,-7031.956449,-1332.370696,1225.752797
3575.455867,-7402.059420,-222.061783,2834.553343
3575.456197,-8216.285956,814.226536,3294.210641
3575.456527,-9326.594869,1258.350101,2374.896044
3575.456857,-11177.109724,1850.514855,995.924147
3575.457187,-12583.501014,2220.617826,-306.438199
3575.457517,-13619.789333,888.247130,0.000000
3575.457847,-13027.624579,148.041188,-459.657299
3575.458177,-10510.924376,-888.247130,-612.876398
3575.458507,-8586.388927,-962.267725,-1225.752797
3575.458837,-7624.121203,-1628.453072,306.438199
3575.459167,-7476.080014,-962.267725,1072.533697
3575.459497,-7550.100608,-296.082377,1378.971896
3575.459826,-7994.224174,814.226536,919.314598
3575.460156,-9326.594869,1628.453072,0.000000
3575.460486,-11029.068536,1480.411884,-612.876398
3575.460816,-12213.398043,814.226536,-1225.752797
3575.461146,-12509.480420,0.000000,-1378.971896
3575.461476,-11769.274478,-962.267725,-1378.971896
3575.461806,-9992.780217,-1998.556043,76.609550
3575.462136,-8438.347739,-2664.741391,1072.533697
3575.462466,-7402.059420,-2146.597232,2451.505594
3575.462796,-7624.121203,-1110.308913,2911.162892
3575.463126,-8364.327145,74.020594,2681.334243
3575.463456,-9326.594869,1036.288319,1225.752797
3575.463786,-10214.842000,1850.514855,0.000000
3575.464116,-11029.068536,1628.453072,-1302.362347
3575.464446,-11843.295072,1184.329507,-1991.848295
3575.464776,-11917.315666,370.102971,-2298.286494
3575.465106,-10955.047942,-814.226536,-2451.505594
3575.465435,-8734.430116,-1554.432478,-1838.629195
3575.465765,-7772.162391,-1628.453072,229.828649
3575.466095,-7698.141797,-1184.329507,2298.286494
3575.466425,-8142.265362,-222.061783,3677.258390
3575.466755,-8882.471304,814.226536,3370.820191
3575.467085,-9696.697840,1480.411884,1378.971896
3575.467415,-10955.047942,1998.556043,0.000000
3575.467745,-12139.377449,1480.411884,-1302.362347
3575.468075,-12953.603985,1258.350101,-1302.362347
3575.468405,-12139.377449,370.102971,-2221.676944
3575.468735,-10362.883188,-888.247130,-2528.115143
3575.469065,-8808.450710,-1480.411884,-2068.457845
3575.469395,-7179.997637,-2072.576638,-76.609550
3575.469725,-6883.915261,-1258.350101,1455.581446
3575.470055,-7031.956449,-222.061783,3524.039291
3575.470385,-8438.347739,666.185348,3447.429741
3575.470715,-9400.615463,1332.370696,2374.896044
3575.471044,-10955.047942,1776.494261,842.705048
3575.471374,-11917.315666,1702.473667,0.000000
3575.471704,-13619.789333,1184.329507,-76.609550
3575.472034,-12435.459826,444.123565,-766.095498
3575.472364,-10584.944971,-888.247130,-1225.752797
3575.472694,-8290.306550,-1480.411884,-1302.362347
3575.473024,-7624.121203,-1702.473667,153.219100
3575.473354,-7624.121203,-666.185348,995.924147
3575.473684,-7772.162391,0.000000,1225.752797
3575.474014,-7698.141797,814.226536,842.705048
3575.474344,-9030.512492,1628.453072,0.000000
3575.474674,-10807.006753,1554.432478,-1378.971896
3575.475004,-11695.253884,1110.308913,-1838.629195
3575.475334,-12361.439231,148.041188,-1532.190996
3575.475664,-11177.109724,-962.267725,-1072.533697
3575.475994,-9548.656652,-2072.576638,0.000000
3575.476324,-8290.306550,-2368.659014,1072.533697
3575.476653,-7550.100608,-1998.556043,2451.505594
3575.476983,-7624.121203,-814.226536,3600.648841
3575.477313,-8586.388927,148.041188,2604.724693
3575.477643,-9400.615463,1184.329507,842.705048
3575.477973,-10140.821405,1628.453072,-689.485948
3575.478303,-11621.233289,2146.597232,-1685.410096
3575.478633,-12139.377449,1554.432478,-1762.019645
3575.478963,-11991.336260,518.144159,-2145.067394
3575.479293,-10658.965565,-296.082377,-2221.676944
3575.479623,-9178.553681,-1628.453072,-1608.800546
3575.479953,-7772.162391,-1924.535449,459.657299
3575.480283,-7846.182985,-1184.329507,2987.772442
3575.480613,-8438.347739,-518.144159,4213.525239
3575.480943,-9104.533087,740.205942,3677.258390
3575.481273,-9992.780217,1332.370696,2221.676944
3575.481603,-11473.192101,1628.453072,-229.828649
3575.481933,-12361.439231,1406.391290,-842.705048
3575.482262,-12657.521608,592.164754,-1838.629195
3575.482592,-11251.130318,0.000000,-1685.410096
3575.482922,-10066.800811,-962.267725,-2374.896044
3575.483252,-8068.244768,-2072.576638,-1838.629195
3575.483582,-6883.915261,-1776.494261,-383.047749
3575.483912,-6735.874072,-1554.432478,1532.190996
3575.484242,-7550.100608,0.000000,2987.772442
3575.484572,-8660.409521,740.205942,3600.648841
3575.484902,-9844.739029,1628.453072,2451.505594
3575.485232,-11177.109724,1776.494261,842.705048
3575.485562,-12583.501014,1628.453072,-229.828649
3575.485892,-13175.665768,1036.288319,-612.876398
3575.486222,-12287.418637,444.123565,-1072.533697
3575.486552,-10510.924376,-592.164754,-1072.533697
3575.486882,-8290.306550,-888.247130,-766.095498
3575.487212,-7624.121203,-888.247130,229.828649
3575.487542,-7624.121203,-222.061783,995.924147
3575.487871,-7994.224174,444.123565,1072.533697
3575.488201,-8290.306550,1554.432478,0.000000
3575.488531,-9474.636058,1850.514855,0.000000
3575.488861,-10955.047942,2072.576638,-1149.143247
3575.489191,-11991.336260,1184.329507,-1302.362347
3575.489521,-12065.356855,518.144159,-1072.533697
3575.489851,-11325.150913,-666.185348,-1072.533697
3575.490181,-9696.697840,-1628.453072,-153.219100
3575.490511,-8142.265362,-1776.494261,1072.533697
3575.490841,-7698.141797,-1258.350101,2834.553343
3575.491171,-7846.182985,-518.144159,2987.772442
3575.491501,-8586.388927,592.164754,2298.286494
3575.491831,-9400.615463,1406.391290,612.876398
3575.492161,-10214.842000,1924.535449,-536.266849
3575.492491,-11103.089130,1998.556043,-1838.629195
3575.492821,-11917.315666,1184.329507,-1685.410096
3575.493151,-11843.295072,0.000000,-2145.067394
3575.493480,-10584.944971,-740.205942,-1915.238745
3575.493810,-8586.388927,-1628.453072,-1225.752797
3575.494140,-7772.162391,-2072.576638,306.438199
3575.494470,-7402.059420,-1776.494261,2987.772442
3575.494800,-8068.244768,-666.185348,4136.915689
3575.495130,-9030.512492,740.205942,3677.258390
3575.495460,-9844.739029,1480.411884,1455.581446
3575.495790,-11251.130318,1702.473667,0.000000
3575.496120,-12731.542202,1332.370696,-1225.752797
3575.496450,-13027.624579,444.123565,-2068.457845
3575.496780,-11325.150913,-518.144159,-2528.115143
3575.497110,-9548.656652,-1776.494261,-2834.553343
3575.497440,-7920.203579,-2368.659014,-1991.848295
3575.497770,-7031.956449,-2368.659014,0.000000
3575.498100,-7105.977043,-1554.432478,1762.019645
3575.498430,-7624.121203,-296.082377,2757.943793
3575.498760,-8660.409521,666.185348,2834.553343
3575.499089,-10362.883188,1480.411884,1762.019645
3575.499419,-11769.274478,1702.473667,612.876398
3575.499749,-12805.562797,962.267725,153.219100
3575.500079,-13471.748144,518.144159,-229.828649
3575.500409,-12287.418637,-518.144159,-612.876398
3575.500739,-10288.862594,-1332.370696,-612.876398
3575.501069,-8364.327145,-1110.308913,-536.266849
3575.501399,-7402.059420,-1480.411884,459.657299
3575.501729,-7476.080014,-592.164754,1225.752797
3575.502059,-7698.141797,0.000000,1455.581446
3575.502389,-8142.265362,1258.350101,0.000000
3575.502719,-9474.636058,1406.391290,-536.266849
3575.503049,-11029.068536,1406.391290,-1302.362347
3575.503379,-12065.356855,666.185348,-1302.362347
3575.503708,-12065.356855,-370.102971,-1072.533697
3575.504038,-10732.986159,-962.267725,-383.047749
3575.504368,-9400.615463,-1850.514855,76.609550
3575.504698,-7994.224174,-2072.576638,1455.581446
3575.505028,-7624.121203,-1110.308913,2757.943793
3575.505358,-7994.224174,-148.041188,3370.820191
3575.505688,-8956.491898,1110.308913,2451.505594
3575.506018,-9474.636058,1998.556043,459.657299
3575.506348,-10362.883188,2146.597232,-766.095498
3575.506678,-11251.130318,2072.576638,-1455.581446
3575.507008,-11917.315666,1036.288319,-2145.067394
3575.507338,-11769.274478,222.061783,-2451.505594
3575.507668,-9918.759623,-592.164754,-2604.724693
3575.507998,-8290.306550,-1480.411884,-1302.362347
3575.508328,-7624.121203,-1554.432478,1072.533697
3575.508657,-7772.162391,-518.144159,3370.820191
3575.508987,-8438.347739,296.082377,4213.525239
3575.509317,-9104.533087,1406.391290,3524.039291
3575.509647,-10214.842000,1776.494261,1685.410096
3575.509977,-12139.377449,2294.638420,0.000000
3575.510307,-13175.665768,1924.535449,-1455.581446
3575.510637,-12657.521608,962.267725,-1685.410096
3575.510967,-10955.047942,-370.102971,-2068.457845
3575.511297,-9400.615463,-1110.308913,-2145.067394
3575.511627,-7920.203579,-1702.473667,-1378.971896
3575.511957,-7105.977043,-1554.432478,459.657299
3575.512287,-6883.915261,-592.164754,1838.629195
3575.512617,-7772.162391,222.061783,2451.505594
3575.512947,-9178.553681,1258.350101,2604.724693
3575.513277,-10362.883188,1998.556043,1915.238745
3575.513606,-11843.295072,1702.473667,459.657299
3575.513936,-12657.521608,1110.308913,0.000000
3575.514266,-12953.603985,370.102971,-153.219100
3575.514596,-11473.192101,-370.102971,-842.705048
3575.514926,-9622.677246,-1184.329507,-689.485948
3575.515256,-7698.141797,-1776.494261,0.000000
3575.515586,-7328.038826,-1110.308913,919.314598
3575.515916,-7698.141797,0.000000,1455.581446
3575.516246,-8068.244768,518.144159,1302.362347
3575.516576,-8512.368333,1406.391290,153.219100
3575.516906,-9918.759623,1702.473667,-919.314598
3575.517236,-11547.212695,1702.473667,-1455.581446
3575.517566,-12287.418637,666.185348,-1685.410096
3575.517896,-11843.295072,148.041188,-1149.143247
3575.518226,-10436.903782,-1110.308913,-459.657299
3575.518555,-9178.553681,-1628.453072,612.876398
3575.518885,-8290.306550,-1480.411884,2068.457845
3575.519215,-7994.224174,-1184.329507,3600.648841
3575.519545,-8142.265362,0.000000,3907.087040
3575.519875,-9030.512492,1184.329507,2451.505594
3575.520205,-10214.842000,1924.535449,612.876398
3575.520535,-11029.068536,1924.535449,-689.485948
3575.520865,-11843.295072,1628.453072,-1838.629195
3575.521195,-12435.459826,1036.288319,-1608.800546
3575.521525,-11473.192101,296.082377,-1915.238745
3575.521855,-9770.718434,-814.226536,-1455.581446
3575.522185,-8142.265362,-1924.535449,-76.609550
3575.522515,-7328.038826,-1332.370696,1302.362347
3575.522845,-8142.265362,-666.185348,3524.039291
3575.523174,-8438.347739,0.000000,3907.087040
3575.523504,-9252.574275,1184.329507,3140.991542
3575.523834,-10732.986159,1628.453072,1455.581446
3575.524164,-11843.295072,1776.494261,-229.828649
3575.524494,-12805.562797,1110.308913,-1225.752797
3575.524824,-12435.459826,518.144159,-1608.800546
3575.525154,-10807.006753,-962.267725,-1991.848295
3575.525484,-9030.512492,-1628.453072,-2298.286494
3575.525814,-7476.080014,-2220.617826,-1378.971896
3575.526144,-6735.874072,-1850.514855,0.000000
3575.526474,-6883.915261,-1554.432478,1608.800546
3575.526804,-7476.080014,148.041188,2604.724693
3575.527134,-9178.553681,1258.350101,2145.067394
3575.527464,-10584.944971,1628.453072,919.314598
3575.527794,-11843.295072,1702.473667,76.609550
3575.528123,-13101.645173,1036.288319,-536.266849
3575.528453,-13175.665768,148.041188,-842.705048
3575.528783,-11769.274478,-666.185348,-842.705048
3575.529113,-9622.677246,-1480.411884,-766.095498
3575.529443,-7772.162391,-1702.473667,-153.219100
3575.529773,-7476.080014,-1036.288319,459.657299
3575.530103,-7846.182985,-222.061783,995.924147
3575.530433,-8216.285956,814.226536,1149.143247
3575.530763,-8882.471304,888.247130,612.876398
3575.531093,-10510.924376,1702.473667,-1072.533697
3575.531423,-11769.274478,1110.308913,-1378.971896
3575.531753,-12361.439231,222.061783,-1532.190996
3575.532083,-11843.295072,-888.247130,-1225.752797
3575.532413,-10362.883188,-1702.473667,-536.266849
3575.532743,-9030.512492,-2664.741391,459.657299
3575.533072,-7698.141797,-2368.659014,2604.724693
3575.533402,-7624.121203,-1406.391290,3600.648841
3575.533732,-8290.306550,0.000000,3677.258390
3575.534062,-9178.553681,814.226536,2221.676944
3575.534392,-10066.800811,1184.329507,766.095498
3575.534722,-10881.027347,1480.411884,-919.314598
3575.535052,-11991.336260,1332.370696,-1455.581446
3575.535382,-12139.377449,444.123565,-1532.190996
3575.535712,-11103.089130,-888.247130,-2298.286494
3575.536042,-9548.656652,-1702.473667,-1838.629195
3575.536372,-7920.203579,-2146.597232,383.047749
3575.536702,-7550.100608,-1702.473667,1685.410096
3575.537032,-7624.121203,-888.247130,3447.429741
3575.537362,-8438.347739,74.020594,3524.039291
3575.537692,-9178.553681,1332.370696,2451.505594
3575.538021,-11029.068536,1850.514855,153.219100
3575.538351,-11917.315666,2072.576638,-689.485948
3575.538681,-12805.562797,1258.350101,-1685.410096
3575.539011,-12657.521608,592.164754,-2145.067394
3575.539341,-11251.130318,-370.102971,-2374.896044
3575.539671,-9030.512492,-1776.494261,-2374.896044
3575.540001,-7402.059420,-1924.535449,-1378.971896
3575.540331,-6587.832884,-1480.411884,536.266849
3575.540661,-7105.977043,0.000000,2757.943793
3575.540991,-7994.224174,814.226536,2987.772442
3575.541321,-9474.636058,1850.514855,2068.457845
3575.541651,-10732.986159,1850.514855,1225.752797
3575.541981,-11917.315666,2146.597232,76.609550
3575.542311,-13101.645173,1702.473667,-306.438199
3575.542640,-13323.706956,888.247130,-459.657299
3575.542970,-11695.253884,0.000000,-689.485948
3575.543300,-9770.718434,-666.185348,-919.314598
3575.543630,-7846.182985,-1110.308913,-306.438199
3575.543960,-7402.059420,-666.185348,689.485948
3575.544290,-7920.203579,-148.041188,1915.238745
3575.544620,-8068.244768,1110.308913,1225.752797
3575.544950,-8808.450710,1924.535449,612.876398
3575.545280,-10140.821405,1924.535449,-536.266849
3575.545610,-11325.150913,1554.432478,-1608.800546
3575.545940,-12139.377449,1036.288319,-1762.019645
3575.546270,-11843.295072,0.000000,-995.924147
3575.546600,-10584.944971,-1332.370696,-459.657299
3575.546930,-9030.512492,-1924.535449,842.705048
3575.547260,-7772.162391,-2146.597232,1991.848295
3575.547589,-7550.100608,-1406.391290,3140.991542
3575.547919,-8142.265362,148.041188,3064.381992
3575.548249,-8808.450710,1258.350101,1532.190996
3575.548579,-9622.677246,1702.473667,76.609550
3575.548909,-10807.006753,1924.535449,-1225.752797
3575.549239,-11917.315666,1776.494261,-1149.143247
3575.549569,-11991.336260,592.164754,-2145.067394
3575.549899,-11325.150913,-222.061783,-2451.505594
3575.550229,-9696.697840,-1184.329507,-2451.505594
3575.550559,-7994.224174,-1850.514855,-612.876398
3575.550889,-7698.141797,-1554.432478,1762.019645
3575.551219,-7846.182985,-740.205942,3983.696590
3575.551549,-8512.368333,222.061783,3830.477490
3575.551879,-9474.636058,1258.350101,2911.162892
3575.552209,-10807.006753,1480.411884,383.047749
3575.552538,-12287.418637,1776.494261,-766.095498
3575.552868,-13101.645173,1110.308913,-1302.362347
3575.553198,-12805.562797,0.000000,-1532.190996
3575.553528,-10807.006753,-666.185348,-2068.457845
3575.553858,-9178.553681,-1924.535449,-2221.676944
3575.554188,-7772.162391,-2220.617826,-1149.143247
3575.554518,-7105.977043,-1776.494261,689.485948
3575.554848,-7105.977043,-888.247130,3064.381992
3575.555178,-8068.244768,148.041188,2987.772442
3575.555508,-9252.574275,962.267725,2451.505594
3575.555838,-10732.986159,1332.370696,1378.971896
3575.556168,-11917.315666,1554.432478,76.609550
3575.556498,-13027.624579,888.247130,-383.047749
3575.556828,-12805.562797,0.000000,-766.095498
3575.557158,-11177.109724,-888.247130,-612.876398
3575.557487,-9178.553681,-1776.494261,-306.438199
3575.557817,-7772.162391,-1554.432478,459.657299
3575.558147,-7328.038826,-1258.350101,1302.362347
3575.558477,-7550.100608,-444.123565,1762.019645
3575.558807,-7846.182985,740.205942,1072.533697
3575.559137,-8956.491898,1702.473667,76.609550
3575.559467,-10510.924376,1776.494261,-1149.143247
3575.559797,-11991.336260,1258.350101,-1608.800546
3575.560127,-12213.398043,666.185348,-1608.800546
3575.560457,-11769.274478,-592.164754,-1302.362347
3575.560787,-10140.821405,-1258.350101,-689.485948
3575.561117,-8586.388927,-2072.576638,459.657299
3575.561447,-7772.162391,-1480.411884,2068.457845
3575.561777,-7994.224174,-814.226536,3064.381992
3575.562106,-8808.450710,444.123565,3217.601092
3575.562436,-9548.656652,1480.411884,1685.410096
3575.562766,-10288.862594,1850.514855,76.609550
3575.563096,-11399.171507,2146.597232,-1302.362347
3575.563426,-11843.295072,1850.514855,-2451.505594
3575.563756,-11917.315666,740.205942,-2068.457845
3575.564086,-10881.027347,-370.102971,-2145.067394
3575.564416,-9474.636058,-1332.370696,-1302.362347
3575.564746,-8290.306550,-1036.288319,153.219100
3575.565076,-8142.265362,-888.247130,2528.115143
3575.565406,-8068.244768,-592.164754,3907.087040
3575.565736,-8956.491898,592.164754,4060.306139
3575.566066,-9548.656652,1702.473667,2451.505594
3575.566396,-10807.006753,1480.411884,0.000000
3575.566726,-12139.377449,1554.432478,-1149.143247
3575.567055,-12657.521608,1110.308913,-1608.800546
3575.567385,-11917.315666,148.041188,-1915.238745
3575.567715,-9474.636058,-1036.288319,-2528.115143
3575.568045,-8290.306550,-2146.597232,-2374.896044
3575.568375,-7031.956449,-2220.617826,-536.266849
3575.568705,-6735.874072,-1628.453072,612.876398
3575.569035,-6809.894666,-222.061783,2374.896044
3575.569365,-8068.244768,296.082377,2757.943793
3575.569695,-9474.636058,1332.370696,1915.238745
3575.570025,-11029.068536,1554.432478,766.095498
3575.570355,-12435.459826,1258.350101,0.000000
3575.570685,-12953.603985,444.123565,-459.657299
3575.571015,-12287.418637,0.000000,-1072.533697
3575.571345,-10658.965565,-1258.350101,-1455.581446
3575.571675,-8734.430116,-1628.453072,-1532.190996
3575.572004,-7402.059420,-1406.391290,153.219100
3575.572334,-7328.038826,-888.247130,1225.752797
3575.572664,-7698.141797,0.000000,1762.019645
3575.572994,-8512.368333,1184.329507,842.705048
3575.573324,-9252.574275,1850.514855,153.219100
3575.573654,-11177.109724,1332.370696,-919.314598
3575.573984,-12139.377449,1036.288319,-1608.800546
3575.574314,-12731.542202,0.000000,-1302.362347
3575.574644,-11843.295072,-592.164754,-689.485948
3575.574974,-10066.800811,-1924.535449,0.000000
3575.575304,-8808.450710,-2294.638420,1149.143247
3575.575634,-7772.162391,-1850.514855,2451.505594
3575.575964,-7550.100608,-1110.308913,3064.381992
3575.576294,-8142.265362,296.082377,2911.162892
3575.576624,-9474.636058,1258.350101,1532.190996
3575.576953,-10436.903782,1480.411884,-306.438199
3575.577283,-11251.130318,1480.411884,-1378.971896
3575.577613,-11325.150913,1184.329507,-2451.505594
3575.577943,-11769.274478,-222.061783,-2145.067394
3575.578273,-10510.924376,-740.205942,-1685.410096
3575.578603,-8808.450710,-1776.494261,-766.095498
3575.578933,-7476.080014,-1776.494261,1302.362347
3575.579263,-7328.038826,-888.247130,3140.991542
3575.579593,-8364.327145,148.041188,4060.306139
3575.579923,-9178.553681,1184.329507,3600.648841
3575.580253,-10140.821405,1850.514855,1685.410096
3575.580583,-11399.171507,2294.638420,0.000000
3575.580913,-12657.521608,1850.514855,-1378.971896
3575.581243,-13027.624579,888.247130,-2068.457845
3575.581572,-11621.233289,0.000000,-2604.724693
3575.581902,-9548.656652,-888.247130,-3217.601092
3575.582232,-7772.162391,-1776.494261,-1838.629195
3575.582562,-7105.977043,-1850.514855,-383.047749
3575.582892,-6661.853478,-1184.329507,1608.800546
3575.583222,-6957.935855,148.041188,3294.210641
3575.583552,-8882.471304,1110.308913,2681.334243
3575.583882,-10436.903782,1850.514855,2145.067394
3575.584212,-11843.295072,2072.576638,1149.143247
3575.584542,-13175.665768,1702.473667,383.047749
3575.584872,-13249.686362,1036.288319,-612.876398
3575.585202,-12361.439231,148.041188,-919.314598
3575.585532,-10214.842000,-1036.288319,-1378.971896
3575.585862,-8586.388927,-1480.411884,-1072.533697
3575.586192,-7105.977043,-1036.288319,383.047749
3575.586521,-7105.977043,-592.164754,1378.971896
3575.586851,-7698.141797,296.082377,1685.410096
3575.587181,-8364.327145,1776.494261,766.095498
3575.587511,-9252.574275,1850.514855,76.609550
3575.587841,-11103.089130,1776.494261,-1378.971896
3575.588171,-12287.418637,962.267725,-1225.752797
3575.588501,-12213.398043,74.020594,-1225.752797
3575.588831,-11103.089130,-962.267725,-306.438199
3575.589161,-9548.656652,-1776.494261,0.000000
3575.589491,-8068.244768,-2146.597232,1072.533697
3575.589821,-7476.080014,-1554.432478,2298.286494
3575.590151,-7698.141797,-370.102971,3217.601092
3575.590481,-8512.368333,888.247130,2681.334243
3575.590811,-9622.677246,2294.638420,919.314598
3575.591141,-10658.965565,2294.638420,-612.876398
3575.591470,-11399.171507,2072.576638,-1685.410096
3575.591800,-11917.315666,1406.391290,-2145.067394
3575.592130,-11917.315666,444.123565,-2145.067394
3575.592460,-10658.965565,-962.267725,-1532.190996
3575.592790,-8512.368333,-1628.453072,-689.485948
3575.593120,-7698.141797,-1776.494261,995.924147
3575.593450,-7920.203579,-592.164754,3524.039291
3575.593780,-8660.409521,0.000000,4136.915689
3575.594110,-9326.594869,1554.432478,3677.258390
3575.594440,-10140.821405,1998.556043,1915.238745
3575.594770,-11917.315666,2072.576638,459.657299
3575.595100,-12953.603985,1702.473667,-1072.533697
3575.595430,-13175.665768,592.164754,-2298.286494
3575.595760,-11695.253884,-296.082377,-2604.724693
3575.596090,-9400.615463,-1554.432478,-2987.772442
3575.596419,-8068.244768,-2294.638420,-1455.581446
3575.596749,-6957.935855,-1998.556043,689.485948
3575.597079,-6735.874072,-1332.370696,2604.724693
3575.597409,-7105.977043,0.000000,2834.553343
3575.597739,-8734.430116,592.164754,2757.943793
3575.598069,-9992.780217,1332.370696,2145.067394
3575.598399,-11621.233289,1332.370696,919.314598
3575.598729,-13027.624579,1702.473667,612.876398
3575.599059,-13027.624579,444.123565,-383.047749
3575.599389,-12065.356855,-444.123565,-919.314598
3575.599719,-9992.780217,-1702.473667,-1455.581446
3575.600049,-8290.306550,-1850.514855,-689.485948
3575.600379,-6957.935855,-1628.453072,0.000000
3575.600709,-7179.997637,-592.164754,1225.752797
3575.601038,-7550.100608,222.061783,1225.752797
3575.601368,-8438.347739,1258.350101,536.266849
3575.601698,-9770.718434,1776.494261,-1072.533697
3575.602028,-11399.171507,1480.411884,-1608.800546
3575.602358,-12213.398043,666.185348,-1685.410096
3575.602688,-12213.398043,-296.082377,-1685.410096
3575.603018,-10807.006753,-1184.329507,-842.705048
3575.603348,-9770.718434,-2294.638420,-229.828649
3575.603678,-8290.306550,-2072.576638,1302.362347
3575.604008,-7624.121203,-1554.432478,2374.896044
3575.604338,-8216.285956,-592.164754,2757.943793
3575.604668,-8882.471304,814.226536,1991.848295
3575.604997,-9622.677246,1776.494261,536.266849
3575.605327,-10732.986159,1998.556043,-1149.143247
3575.605657,-11621.233289,1480.411884,-1608.800546
3575.605987,-11769.274478,962.267725,-2298.286494
3575.606317,-11695.253884,0.000000,-2145.067394
3575.606647,-10510.924376,-962.267725,-1915.238745
3575.606977,-8734.430116,-2146.597232,-612.876398
3575.607307,-7698.141797,-1480.411884,2068.457845
3575.607637,-8142.265362,-1036.288319,3753.867940
3575.607967,-8438.347739,-222.061783,4290.134789
3575.608297,-9178.553681,1036.288319,3140.991542
3575.608626,-9918.759623,1776.494261,1532.190996
3575.608956,-11399.171507,2072.576638,-459.657299
3575.609286,-12583.501014,1702.473667,-1225.752797
3575.609616,-12657.521608,740.205942,-1762.019645
3575.609946,-11103.089130,-444.123565,-2604.724693
3575.610276,-9326.594869,-1258.350101,-3217.601092
3575.610606,-7920.203579,-1776.494261,-1685.410096
3575.610936,-7105.977043,-1850.514855,0.000000
3575.611266,-6661.853478,-1258.350101,1838.629195
3575.611596,-7105.977043,370.102971,2834.553343
3575.611926,-8290.306550,1110.308913,2987.772442
3575.612255,-10214.842000,1998.556043,2221.676944
3575.612585,-11769.274478,2368.659014,919.314598
3575.612915,-13027.624579,1702.473667,-306.438199
3575.613245,-13175.665768,1110.308913,-536.266849
3575.613575,-11917.315666,296.082377,-689.485948
3575.613905,-10066.800811,-962.267725,-383.047749
3575.614235,-8438.347739,-1184.329507,-383.047749
3575.614565,-7476.080014,-962.267725,0.000000
3575.614895,-7105.977043,-222.061783,1072.533697
3575.615225,-7920.203579,962.267725,919.314598
3575.615555,-8882.471304,1850.514855,612.876398
3575.615885,-9622.677246,1776.494261,-612.876398
3575.616214,-11547.212695,2072.576638,-1378.971896
3575.616544,-11769.274478,1110.308913,-1608.800546
3575.616874,-11843.295072,222.061783,-1149.143247
3575.617204,-11251.130318,-592.164754,-842.705048
3575.617534,-9844.739029,-1480.411884,306.438199
3575.617864,-8290.306550,-1924.535449,1532.190996
3575.618194,-7476.080014,-1332.370696,2757.943793
3575.618524,-7846.182985,-444.123565,2987.772442
3575.618854,-8660.409521,666.185348,2528.115143
3575.619184,-9696.697840,1628.453072,459.657299
3575.619514,-10658.965565,1850.514855,-1072.533697
3575.619843,-11547.212695,1628.453072,-1915.238745
3575.620173,-11547.212695,814.226536,-1608.800546
3575.620503,-11547.212695,-222.061783,-2068.457845
3575.620833,-9992.780217,-1480.411884,-1762.019645
3575.621163,-8438.347739,-2294.638420,-536.266849
3575.621493,-7254.018232,-2146.597232,1915.238745
3575.621823,-7920.203579,-1480.411884,3983.696590
3575.622153,-8808.450710,-370.102971,4060.306139
3575.622483,-9400.615463,740.205942,2911.162892
3575.622813,-10288.862594,1258.350101,1532.190996
3575.623143,-11991.336260,1480.411884,-306.438199
3575.623473,-12583.501014,1036.288319,-1532.190996
3575.623802,-12213.398043,0.000000,-2145.067394
3575.624132,-10807.006753,-1184.329507,-2681.334243
3575.624462,-9104.533087,-1850.514855,-2451.505594
3575.624792,-7846.182985,-2368.659014,-1532.190996
3575.625122,-7105.977043,-1924.535449,383.047749
3575.625452,-6957.935855,-1406.391290,1991.848295
3575.625782,-7772.162391,148.041188,2834.553343
3575.626112,-9104.533087,814.226536,2604.724693
3575.626442,-10732.986159,1110.308913,1838.629195
3575.626772,-12139.377449,1110.308913,1072.533697
3575.627102,-12583.501014,1036.288319,-153.219100
3575.627431,-12731.542202,74.020594,-306.438199
3575.627761,-11769.274478,-666.185348,-919.314598
3575.628091,-9770.718434,-1480.411884,-766.095498
3575.628421,-8364.327145,-1332.370696,-306.438199
3575.628751,-7920.203579,-592.164754,842.705048
3575.629081,-7698.141797,-222.061783,995.924147
3575.629411,-8142.265362,814.226536,995.924147
3575.629741,-8808.450710,1332.370696,153.219100
3575.630071,-10214.842000,1850.514855,-1072.533697
3575.630401,-11621.233289,1258.350101,-1302.362347
3575.630731,-11917.315666,592.164754,-995.924147
3575.631061,-11621.233289,-444.123565,-1149.143247
3575.631390,-10066.800811,-962.267725,-1302.362347
3575.631720,-9030.512492,-1998.556043,229.828649
3575.632050,-7846.182985,-1924.535449,1762.019645
3575.632380,-7698.141797,-1036.288319,2987.772442
3575.632710,-8068.244768,222.061783,3294.210641
3575.633040,-8734.430116,1036.288319,1762.019645
3575.633370,-9770.718434,1850.514855,153.219100
3575.633700,-10510.924376,1850.514855,-1072.533697
3575.634030,-11547.212695,1480.411884,-1991.848295
3575.634360,-11769.274478,1110.308913,-1915.238745
3575.634690,-11325.150913,74.020594,-2068.457845
3575.635019,-10066.800811,-814.226536,-1838.629195
3575.635349,-7846.182985,-1702.473667,-153.219100
3575.635679,-7476.080014,-1184.329507,2145.067394
3575.636009,-7846.182985,-370.102971,3907.087040
3575.636339,-8586.388927,518.144159,3677.258390
3575.636669,-9326.594869,1554.432478,2451.505594
3575.636999,-10732.986159,1998.556043,919.314598
3575.637329,-12139.377449,2220.617826,-536.266849
3575.637659,-12953.603985,1480.411884,-1455.581446
3575.637989,-12657.521608,518.144159,-2451.505594
3575.638319,-10732.986159,-888.247130,-2911.162892
3575.638648,-8882.471304,-1406.391290,-2451.505594
3575.638978,-7328.038826,-1702.473667,-919.314598
3575.639308,-6439.791695,-1258.350101,1149.143247
3575.639638,-6809.894666,-666.185348,2451.505594
3575.639968,-7476.080014,370.102971,2604.724693
3575.640298,-9400.615463,1628.453072,2221.676944
3575.640628,-10881.027347,1924.535449,1455.581446
3575.640958,-12139.377449,1776.494261,766.095498
3575.641288,-12953.603985,888.247130,766.095498
3575.641618,-13101.645173,296.082377,0.000000
3575.641948,-11547.212695,-518.144159,-689.485948
3575.642278,-9400.615463,-1184.329507,-842.705048
3575.642607,-7772.162391,-1628.453072,-383.047749
3575.642937,-7031.956449,-814.226536,383.047749
3575.643267,-7476.080014,74.020594,1302.362347
3575.643597,-8142.265362,962.267725,1302.362347
3575.643927,-9178.553681,1850.514855,153.219100
3575.644257,-10288.862594,1924.535449,-842.705048
3575.644587,-11843.295072,1184.329507,-1378.971896
3575.644917,-12213.398043,0.000000,-1302.362347
3575.645247,-11843.295072,-592.164754,-459.657299
3575.645577,-10658.965565,-1702.473667,459.657299
3575.645907,-8660.409521,-2220.617826,1072.533697
3575.646236,-7550.100608,-2072.576638,1915.238745
3575.646566,-7402.059420,-1036.288319,2834.553343
3575.646896,-8068.244768,296.082377,2298.286494
3575.647226,-9400.615463,1332.370696,1915.238745
3575.647556,-10140.821405,1998.556043,229.828649
3575.647886,-11103.089130,2072.576638,-1149.143247
3575.648216,-11991.336260,1702.473667,-2068.457845
3575.648546,-12139.377449,518.144159,-1915.238745
3575.648876,-11325.150913,-444.123565,-2221.676944
3575.649206,-9326.594869,-1702.473667,-1685.410096
3575.649536,-7846.182985,-2072.576638,306.438199
3575.649866,-7254.018232,-1480.411884,2987.772442
3575.650195,-7846.182985,-444.123565,4136.915689
3575.650525,-8734.430116,370.102971,3830.477490
3575.650855,-9474.636058,1332.370696,2068.457845
3575.651185,-10584.944971,1702.473667,153.219100
3575.651515,-12361.439231,1628.453072,-1302.362347
3575.651845,-12879.583391,962.267725,-1915.238745
3575.652175,-12213.398043,0.000000,-2145.067394
3575.652505,-10066.800811,-1258.350101,-2987.772442
3575.652835,-8438.347739,-1776.494261,-2374.896044
3575.653165,-7328.038826,-2294.638420,-766.095498
3575.653495,-6809.894666,-1702.473667,612.876398
3575.653824,-6809.894666,-666.185348,2298.286494
3575.654154,-7550.100608,370.102971,2987.772442
3575.654484,-9474.636058,962.267725,2834.553343
3575.654814,-11103.089130,1480.411884,1762.019645
3575.655144,-12287.418637,1480.411884,383.047749
3575.655474,-13027.624579,1036.288319,153.219100
3575.655804,-12731.542202,0.000000,-459.657299
3575.656134,-11103.089130,-666.185348,-612.876398
3575.656464,-9252.574275,-1406.391290,-459.657299
3575.656794,-7846.182985,-1184.329507,0.000000
3575.657124,-7402.059420,-444.123565,842.705048
3575.657454,-7624.121203,222.061783,919.314598
3575.657783,-8290.306550,1110.308913,919.314598
3575.658113,-9178.553681,1850.514855,229.828649
3575.658443,-10658.965565,1924.535449,-536.266849
3575.658773,-11769.274478,1332.370696,-1455.581446
3575.659103,-12287.418637,370.102971,-1149.143247
3575.659433,-11843.295072,-444.123565,-842.705048
3575.659763,-10436.903782,-1406.391290,0.000000
3575.660093,-9104.533087,-1702.473667,766.095498
3575.660423,-7698.141797,-1702.473667,2221.676944
3575.660753,-7624.121203,-740.205942,3140.991542
3575.661083,-7772.162391,444.123565,3217.601092
3575.661412,-9030.512492,1332.370696,1991.848295
3575.661742,-10066.800811,2294.638420,153.219100
3575.662072,-11029.068536,2220.617826,-1072.533697
3575.662402,-11917.315666,1480.411884,-1532.190996
3575.662732,-11917.315666,814.226536,-1991.848295
3575.663062,-10881.027347,0.000000,-2145.067394
3575.663392,-9400.615463,-1258.350101,-1532.190996
3575.663722,-7994.224174,-1554.432478,153.219100
3575.664052,-7254.018232,-1036.288319,2145.067394
3575.664382,-8142.265362,-370.102971,3983.696590
3575.664712,-8660.409521,444.123565,4213.525239
3575.665041,-9400.615463,1628.453072,2528.115143
3575.665371,-10732.986159,2294.638420,306.438199
3575.665701,-12435.459826,1924.535449,-842.705048
3575.666031,-12879.583391,962.267725,-1991.848295
3575.666361,-11991.336260,-148.041188,-2451.505594
3575.666691,-10140.821405,-1184.329507,-2681.334243
3575.667021,-8364.327145,-1998.556043,-2221.676944
3575.667351,-7105.977043,-2516.700203,-766.095498
3575.667681,-6587.832884,-1924.535449,1072.533697
3575.668011,-6883.915261,-888.247130,2451.505594
3575.668341,-7402.059420,518.144159,2528.115143
3575.668671,-9548.656652,1184.329507,2451.505594
3575.669000,-11325.150913,1406.391290,1302.362347
3575.669330,-12509.480420,1332.370696,383.047749
3575.669660,-12879.583391,740.205942,-842.705048
3575.669990,-12657.521608,-296.082377,-1149.143247
3575.670320,-10807.006753,-1036.288319,-1302.362347
3575.670650,-8734.430116,-1850.514855,-1072.533697
3575.670980,-7476.080014,-1924.535449,-1072.533697
3575.671310,-7254.018232,-888.247130,612.876398
3575.671640,-7550.100608,-222.061783,919.314598
3575.671970,-8216.285956,888.247130,459.657299
3575.672300,-9252.574275,1406.391290,0.000000
3575.672629,-11177.109724,1480.411884,-995.924147
3575.672959,-11843.295072,888.247130,-1455.581446
3575.673289,-12435.459826,-74.020594,-1532.190996
3575.673619,-11473.192101,-1184.329507,-766.095498
3575.673949,-10362.883188,-1554.432478,-766.095498
3575.674279,-8882.471304,-2220.617826,995.924147
3575.674609,-7698.141797,-1480.411884,2451.505594
3575.674939,-7624.121203,-666.185348,3447.429741
3575.675269,-8068.244768,888.247130,2681.334243
3575.675599,-9326.594869,1628.453072,1302.362347
3575.675929,-10362.883188,2072.576638,-612.876398
3575.676259,-11325.150913,2072.576638,-1378.971896
3575.676588,-12139.377449,1776.494261,-1532.190996
3575.676918,-12139.377449,814.226536,-1838.629195
3575.677248,-11029.068536,-148.041188,-1838.629195
3575.677578,-9326.594869,-1036.288319,-995.924147
3575.677908,-8142.265362,-1406.391290,995.924147
3575.678238,-7846.182985,-814.226536,2911.162892
3575.678568,-8734.430116,296.082377,4596.572988
3575.678898,-8882.471304,1406.391290,3524.039291
3575.679228,-9548.656652,2072.576638,1838.629195
3575.679558,-11325.150913,2442.679609,-536.266849
3575.679888,-12213.398043,2220.617826,-1225.752797
3575.680217,-12583.501014,1332.370696,-2221.676944
3575.680547,-11621.233289,518.144159,-2451.505594
3575.680877,-9918.759623,-370.102971,-2834.553343
3575.681207,-8216.285956,-1702.473667,-2221.676944
3575.681537,-7031.956449,-1850.514855,-612.876398
3575.681867,-6957.935855,-1406.391290,1685.410096
3575.682197,-6957.935855,-518.144159,3217.601092
3575.682527,-7994.224174,814.226536,3140.991542
3575.682857,-9474.636058,1628.453072,2374.896044
3575.683187,-11177.109724,1924.535449,1225.752797
3575.683517,-12509.480420,1554.432478,153.219100
3575.683847,-12953.603985,962.267725,-995.924147
3575.684176,-12435.459826,222.061783,-1302.362347
3575.684506,-10510.924376,-962.267725,-1072.533697
3575.684836,-8808.450710,-1628.453072,-459.657299
3575.685166,-7402.059420,-1258.350101,0.000000
3575.685496,-6957.935855,-1036.288319,766.095498
3575.685826,-7550.100608,-296.082377,995.924147
3575.686156,-8142.265362,1036.288319,766.095498
3575.686486,-9474.636058,1258.350101,-459.657299
3575.686816,-11177.109724,1628.453072,-995.924147
3575.687146,-11917.315666,962.267725,-1378.971896
3575.687476,-12213.398043,0.000000,-995.924147
3575.687805,-11547.212695,-888.247130,-612.876398
3575.688135,-10288.862594,-1850.514855,0.000000
3575.688465,-8586.388927,-2368.659014,1149.143247
3575.688795,-7772.162391,-1776.494261,2604.724693
3575.689125,-7846.182985,-1258.350101,3217.601092
3575.689455,-8586.388927,592.164754,1838.629195
3575.689785,-9474.636058,1110.308913,1149.143247
3575.690115,-10288.862594,1628.453072,0.000000
3575.690445,-11103.089130,1406.391290,-995.924147
3575.690775,-12287.418637,1184.329507,-1302.362347
3575.691105,-12287.418637,222.061783,-1532.190996
3575.691434,-10955.047942,-740.205942,-1685.410096
3575.691764,-9030.512492,-1998.556043,-689.485948
3575.692094,-7994.224174,-2220.617826,766.095498
3575.692424,-7994.224174,-1406.391290,3064.381992
3575.692754,-8290.306550,-666.185348,3677.258390
3575.693084,-8882.471304,666.185348,3294.210641
3575.693414,-9770.718434,1332.370696,1838.629195
3575.693744,-11325.150913,1998.556043,-612.876398
3575.694074,-12435.459826,1702.473667,-766.095498
3575.694404,-12583.501014,740.205942,-2068.457845
3575.694734,-11695.253884,-296.082377,-2757.943793
3575.695064,-9548.656652,-1036.288319,-2604.724693
3575.695393,-7624.121203,-2516.700203,-2145.067394
3575.695723,-6809.894666,-2294.638420,-306.438199
3575.696053,-6587.832884,-1776.494261,1532.190996
3575.696383,-7179.997637,-148.041188,2681.334243
3575.696713,-8364.327145,740.205942,2681.334243
3575.697043,-10140.821405,1702.473667,2221.676944
3575.697373,-11695.253884,1924.535449,919.314598
3575.697703,-12805.562797,1776.494261,76.609550
3575.698033,-12583.501014,1258.350101,-1455.581446
3575.698363,-12213.398043,148.041188,-1455.581446
3575.698693,-10288.862594,-518.144159,-1455.581446
3575.699022,-8660.409521,-1036.288319,-1225.752797
3575.699352,-7550.100608,-518.144159,-383.047749
3575.699682,-7179.997637,-592.164754,153.219100
3575.700012,-7698.141797,148.041188,995.924147
3575.700342,-8364.327145,1258.350101,919.314598
3575.700672,-9696.697840,1702.473667,153.219100
3575.701002,-11251.130318,1406.391290,-383.047749
3575.701332,-11991.336260,1036.288319,-1072.533697
3575.701662,-12287.418637,148.041188,-995.924147
3575.701992,-11251.130318,-740.205942,-766.095498
3575.702321,-9474.636058,-1406.391290,0.000000
3575.702651,-8438.347739,-1924.535449,1378.971896
3575.702981,-7698.141797,-1184.329507,2604.724693
3575.703311,-7550.100608,-370.102971,2604.724693
3575.703641,-7994.224174,962.267725,2298.286494
3575.703971,-9326.594869,1850.514855,919.314598
3575.704301,-10214.842000,1998.556043,-536.266849
3575.704631,-11177.109724,1998.556043,-1608.800546
3575.704961,-12065.356855,1480.411884,-1838.629195
3575.705290,-11917.315666,444.123565,-2145.067394
3575.705620,-10510.924376,-740.205942,-1762.019645
3575.705950,-9178.553681,-1406.391290,-995.924147
3575.706280,-7846.182985,-1480.411884,1225.752797
3575.706610,-7624.121203,-518.144159,3294.210641
3575.706940,-8364.327145,0.000000,3753.867940
3575.707270,-9030.512492,1258.350101,2911.162892
3575.707600,-9992.780217,1702.473667,1302.362347
3575.707930,-11547.212695,2442.679609,76.609550
3575.708260,-12657.521608,1998.556043,-1149.143247
3575.708589,-12657.521608,962.267725,-2298.286494
3575.708919,-11621.233289,-296.082377,-2528.115143
3575.709249,-9548.656652,-1554.432478,-2834.553343
3575.709579,-8216.285956,-1850.514855,-1838.629195
3575.709909,-6957.935855,-1850.514855,-306.438199
3575.710239,-7031.956449,-1184.329507,1685.410096
3575.710569,-7476.080014,0.000000,3140.991542
3575.710899,-8290.306550,740.205942,3294.210641
3575.711229,-10214.842000,1480.411884,2298.286494
3575.711558,-11769.274478,1776.494261,1149.143247
3575.711888,-12879.583391,1554.432478,0.000000
3575.712218,-12953.603985,814.226536,0.000000
3575.712548,-11991.336260,-74.020594,-842.705048
3575.712878,-9696.697840,-1480.411884,-1149.143247
3575.713208,-8290.306550,-1406.391290,-612.876398
3575.713538,-7402.059420,-592.164754,76.609550
3575.713868,-7624.121203,-296.082377,612.876398
3575.714198,-7698.141797,296.082377,689.485948
3575.714527,-8364.327145,1184.329507,766.095498
3575.714857,-9622.677246,1406.391290,0.000000
3575.715187,-11473.192101,1036.288319,-689.485948
3575.715517,-12213.398043,370.102971,-1149.143247
3575.715847,-11917.315666,-592.164754,-842.705048
3575.716177,-10584.944971,-1554.432478,-612.876398
3575.716507,-9030.512492,-2368.659014,0.000000
3575.716837,-8142.265362,-2368.659014,1378.971896
3575.717167,-7328.038826,-1628.453072,2911.162892
3575.717497,-7550.100608,-592.164754,3140.991542
3575.717826,-8512.368333,666.185348,2834.553343
3575.718156,-9622.677246,1406.391290,536.266849
3575.718486,-10584.944971,1480.411884,-842.705048
3575.718816,-11769.274478,1702.473667,-1685.410096
3575.719146,-12139.377449,814.226536,-2298.286494
3575.719476,-11695.253884,-370.102971,-2221.676944
3575.719806,-10214.842000,-962.267725,-1685.410096
3575.720136,-8216.285956,-1628.453072,-766.095498
3575.720466,-7402.059420,-1776.494261,1225.752797
3575.720795,-7698.141797,-814.226536,3370.820191
3575.721125,-8734.430116,74.020594,3677.258390
3575.721455,-9548.656652,1258.350101,2757.943793
3575.721785,-10436.903782,1776.494261,1225.752797
3575.722115,-11325.150913,1702.473667,-306.438199
3575.722445,-12879.583391,1554.432478,-1378.971896
3575.722775,-12509.480420,814.226536,-1915.238745
3575.723105,-11251.130318,-296.082377,-2757.943793
3575.723435,-9474.636058,-1036.288319,-2451.505594
3575.723764,-8216.285956,-1924.535449,-1532.190996
3575.724094,-7105.977043,-1776.494261,536.266849
3575.724424,-7105.977043,-740.205942,2298.286494
3575.724754,-7698.141797,74.020594,2911.162892
3575.725084,-9104.533087,1110.308913,3294.210641
3575.725414,-10362.883188,1628.453072,2374.896044
3575.725744,-11917.315666,1924.535449,1455.581446
3575.726074,-13101.645173,1480.411884,229.828649
3575.726404,-13101.645173,666.185348,-536.266849
3575.726734,-11843.295072,-518.144159,-689.485948
3575.727063,-9548.656652,-1184.329507,-536.266849
3575.727393,-8290.306550,-1036.288319,0.000000
3575.727723,-7328.038826,-666.185348,1072.533697
3575.728053,-7402.059420,0.000000,1225.752797
3575.728383,-7698.141797,888.247130,689.485948
3575.728713,-8586.388927,1628.453072,842.705048
3575.729043,-9918.759623,1480.411884,-536.266849
3575.729373,-11621.233289,1554.432478,-1072.533697
3575.729703,-11917.315666,740.205942,-1378.971896
3575.730032,-11695.253884,-296.082377,-1378.971896
3575.730362,-10436.903782,-1184.329507,-612.876398
3575.730692,-9400.615463,-1776.494261,-76.609550
3575.731022,-8216.285956,-1628.453072,1838.629195
3575.731352,-7402.059420,-1036.288319,2528.115143
3575.731682,-7846.182985,0.000000,2987.772442
3575.732012,-8808.450710,1406.391290,766.095498
3575.732342,-9770.718434,1776.494261,306.438199
3575.732672,-10807.006753,1850.514855,-1072.533697
3575.733001,-11769.274478,1998.556043,-1915.238745
3575.733331,-12287.418637,1554.432478,-1991.848295
3575.733661,-11695.253884,74.020594,-2374.896044
3575.733991,-10140.821405,-962.267725,-1915.238745
3575.734321,-8438.347739,-1702.473667,-995.924147
3575.734651,-7624.121203,-1628.453072,1302.362347
3575.734981,-7624.121203,-814.226536,3600.648841
3575.735311,-8438.347739,0.000000,4213.525239
3575.735641,-9252.574275,1110.308913,3217.601092
3575.735970,-10732.986159,1702.473667,1225.752797
3575.736300,-11473.192101,1924.535449,-153.219100
3575.736630,-12805.562797,1110.308913,-995.924147
3575.736960,-12879.583391,296.082377,-1762.019645
3575.737290,-11177.109724,-518.144159,-2451.505594
3575.737620,-8882.471304,-1554.432478,-2681.334243
3575.737950,-7772.162391,-2294.638420,-1149.143247
3575.738280,-6883.915261,-1850.514855,153.219100
3575.738610,-6661.853478,-814.226536,2221.676944
3575.738940,-7550.100608,0.000000,3447.429741
3575.739269,-9326.594869,1110.308913,3447.429741
3575.739599,-10658.965565,1332.370696,2451.505594
3575.739929,-12213.398043,1332.370696,919.314598
3575.740259,-13249.686362,1110.308913,0.000000
3575.740589,-12953.603985,148.041188,-459.657299
3575.740919,-11547.212695,-518.144159,-1072.533697
3575.741249,-9622.677246,-1036.288319,-995.924147
3575.741579,-7994.224174,-1332.370696,-306.438199
3575.741909,-7254.018232,-888.247130,306.438199
3575.742238,-7476.080014,-444.123565,995.924147
3575.742568,-7846.182985,444.123565,766.095498
3575.742898,-8586.388927,1184.329507,536.266849
3575.743228,-9844.739029,1258.350101,-612.876398
3575.743558,-11251.130318,1110.308913,-1455.581446
3575.743888,-11917.315666,370.102971,-1225.752797
3575.744218,-11621.233289,-518.144159,-1149.143247
3575.744548,-10658.965565,-1332.370696,-919.314598
3575.744878,-9474.636058,-2072.576638,306.438199
3575.745207,-7994.224174,-2072.576638,1762.019645
3575.745537,-7550.100608,-1258.350101,2604.724693
3575.745867,-7698.141797,-296.082377,2757.943793
3575.746197,-8882.471304,1036.288319,1532.190996
3575.746527,-9770.718434,1628.453072,306.438199
3575.746857,-10658.965565,1776.494261,-1072.533697
3575.747187,-11769.274478,1776.494261,-2221.676944
3575.747517,-12065.356855,1258.350101,-2374.896044
3575.747847,-11695.253884,0.000000,-2757.943793
3575.748177,-10214.842000,-666.185348,-1915.238745
3575.748506,-8438.347739,-1776.494261,-383.047749
3575.748836,-7550.100608,-1258.350101,1532.190996
3575.749166,-7698.141797,-666.185348,3294.210641
3575.749496,-8438.347739,0.000000,4060.306139
3575.749826,-9104.533087,1110.308913,2681.334243
3575.750156,-10658.965565,1628.453072,1532.190996
3575.750486,-11843.295072,1924.535449,-383.047749
3575.750816,-12879.583391,1702.473667,-1225.752797
3575.751146,-12435.459826,666.185348,-2068.457845
3575.751475,-11325.150913,-296.082377,-2911.162892
3575.751805,-9178.553681,-962.267725,-3294.210641
3575.752135,-7846.182985,-1924.535449,-1302.362347
3575.752465,-6957.935855,-1554.432478,766.095498
3575.752795,-7105.977043,-962.267725,2374.896044
3575.753125,-7624.121203,148.041188,3524.039291
3575.753455,-8956.491898,888.247130,2987.772442
3575.753785,-10362.883188,1702.473667,1838.629195
3575.754115,-11843.295072,1924.535449,919.314598
3575.754444,-13175.665768,1628.453072,383.047749
3575.754774,-12879.583391,888.247130,-383.047749
3575.755104,-11843.295072,-148.041188,-689.485948
3575.755434,-9548.656652,-740.205942,-1378.971896
3575.755764,-8216.285956,-1332.370696,-919.314598
3575.756094,-7179.997637,-592.164754,-306.438199
3575.756424,-7624.121203,-148.041188,995.924147
3575.756754,-7698.141797,444.123565,842.705048
3575.757084,-8734.430116,1406.391290,383.047749
3575.757414,-9918.759623,1480.411884,-1225.752797
3575.757743,-11325.150913,1628.453072,-1225.752797
3575.758073,-11917.315666,518.144159,-1532.190996
3575.758403,-12139.377449,0.000000,-1378.971896
3575.758733,-10732.986159,-1110.308913,-1149.143247
3575.759063,-9400.615463,-1628.453072,383.047749
3575.759393,-8290.306550,-2072.576638,1991.848295
3575.759723,-7772.162391,-1258.350101,2911.162892
3575.760053,-7994.224174,-222.061783,3064.381992
3575.760383,-8512.368333,592.164754,1685.410096
3575.760712,-9548.656652,1554.432478,76.609550
3575.761042,-10732.986159,1776.494261,-689.485948
3575.761372,-11769.274478,1776.494261,-1991.848295
3575.761702,-11843.295072,888.247130,-1991.848295
3575.762032,-11325.150913,0.000000,-2221.676944
3575.762362,-9992.780217,-1332.370696,-1302.362347
3575.762692,-8438.347739,-1850.514855,-153.219100
3575.763022,-7772.162391,-1850.514855,1991.848295
3575.763352,-7846.182985,-1184.329507,3677.258390
3575.763681,-8734.430116,-296.082377,4290.134789
3575.764011,-9178.553681,666.185348,3064.381992
3575.764341,-10288.862594,1036.288319,1302.362347
3575.764671,-11399.171507,1036.288319,-383.047749
3575.765001,-12509.480420,740.205942,-1378.971896
3575.765331,-12139.377449,0.000000,-1685.410096
3575.765661,-10807.006753,-962.267725,-2757.943793
3575.765991,-9030.512492,-1406.391290,-2911.162892
3575.766321,-7402.059420,-2294.638420,-1072.533697
3575.766651,-6957.935855,-1924.535449,689.485948
3575.766980,-6957.935855,-1332.370696,2451.505594
3575.767310,-7772.162391,0.000000,2987.772442
3575.767640,-9474.636058,888.247130,2604.724693
3575.767970,-10658.965565,1332.370696,1915.238745
3575.768300,-11991.336260,1480.411884,1072.533697
3575.768630,-13027.624579,1036.288319,76.609550
3575.768960,-13249.686362,444.123565,-689.485948
3575.769290,-11621.233289,-518.144159,-1455.581446
3575.769620,-9548.656652,-1332.370696,-1302.362347
3575.769949,-8068.244768,-1480.411884,-536.266849
3575.770279,-7994.224174,-444.123565,76.609550
3575.770609,-8068.244768,-296.082377,1302.362347
3575.770939,-8142.265362,740.205942,1149.143247
3575.771269,-8956.491898,1332.370696,0.000000
3575.771599,-10436.903782,1628.453072,-1225.752797
3575.771929,-11621.233289,1036.288319,-1149.143247
3575.772259,-12287.418637,814.226536,-1225.752797
3575.772589,-11843.295072,-222.061783,-995.924147
3575.772918,-10214.842000,-1406.391290,-612.876398
3575.773248,-9030.512492,-1776.494261,306.438199
3575.773578,-8216.285956,-1480.411884,2068.457845
3575.773908,-7920.203579,-814.226536,3140.991542
3575.774238,-8290.306550,148.041188,2911.162892
3575.774568,-8734.430116,1480.411884,1762.019645
3575.774898,-9770.718434,1776.494261,612.876398
3575.775228,-10881.027347,2294.638420,-919.314598
3575.775558,-11991.336260,1850.514855,-1915.238745
3575.775888,-11695.253884,1184.329507,-2451.505594
3575.776217,-11029.068536,296.082377,-2451.505594
3575.776547,-9474.636058,-592.164754,-2145.067394
3575.776877,-8142.265362,-1406.391290,-459.657299
3575.777207,-7476.080014,-1110.308913,1608.800546
3575.777537,-8216.285956,148.041188,3294.210641
3575.777867,-8660.409521,740.205942,3677.258390
3575.778197,-9252.574275,1332.370696,2451.505594
3575.778527,-11029.068536,1924.535449,689.485948
3575.778857,-12139.377449,2294.638420,-1072.533697
3575.779186,-12731.542202,1776.494261,-1455.581446
3575.779516,-12065.356855,1036.288319,-2374.896044
3575.779846,-10658.965565,-148.041188,-2681.334243
3575.780176,-8586.388927,-962.267725,-2604.724693
3575.780506,-7550.100608,-1702.473667,-919.314598
3575.780836,-7105.977043,-1110.308913,1149.143247
3575.781166,-7254.018232,-518.144159,2528.115143
3575.781496,-8068.244768,444.123565,3447.429741
3575.781826,-9326.594869,1332.370696,2221.676944
3575.782155,-11103.089130,1924.535449,1149.143247
3575.782485,-12583.501014,1480.411884,153.219100
3575.782815,-13545.768739,962.267725,0.000000
3575.783145,-12953.603985,444.123565,-919.314598
3575.783475,-11177.109724,-740.205942,-1072.533697
3575.783805,-8882.471304,-1332.370696,-766.095498
3575.784135,-7698.141797,-1480.411884,0.000000
3575.784465,-7179.997637,-1554.432478,1149.143247
3575.784795,-7624.121203,-518.144159,1378.971896
3575.785125,-7846.182985,814.226536,1302.362347
3575.785454,-9178.553681,962.267725,459.657299
3575.785784,-10436.903782,814.226536,-766.095498
3575.786114,-11769.274478,666.185348,-1149.143247
3575.786444,-12287.418637,-148.041188,-1149.143247
3575.786774,-11695.253884,-888.247130,-1302.362347
3575.787104,-10066.800811,-1850.514855,-842.705048
3575.787434,-8882.471304,-2294.638420,766.095498
3575.787764,-7846.182985,-2072.576638,2145.067394
3575.788094,-7476.080014,-1406.391290,2987.772442
3575.788423,-7846.182985,0.000000,2451.505594
3575.788753,-9030.512492,370.102971,1302.362347
3575.789083,-10140.821405,1332.370696,0.000000
3575.789413,-11399.171507,1776.494261,-1302.362347
3575.789743,-11991.336260,1184.329507,-1762.019645
3575.790073,-11991.336260,0.000000,-1991.848295
3575.790403,-10955.047942,-666.185348,-2374.896044
3575.790733,-9474.636058,-1924.535449,-1455.581446
3575.791063,-8068.244768,-2368.659014,459.657299
3575.791392,-7772.162391,-1628.453072,2834.553343
3575.791722,-8068.244768,-888.247130,4213.525239
3575.792052,-8586.388927,0.000000,3983.696590
3575.792382,-9474.636058,888.247130,2374.896044
3575.792712,-10807.006753,1110.308913,153.219100
3575.793042,-12287.418637,1332.370696,-1225.752797
3575.793372,-12657.521608,518.144159,-1608.800546
3575.793702,-11843.295072,0.000000,-1991.848295
3575.794032,-9918.759623,-1332.370696,-2451.505594
3575.794361,-8216.285956,-1850.514855,-1762.019645
3575.794691,-6883.915261,-2072.576638,-383.047749
3575.795021,-7031.956449,-1554.432478,1608.800546
3575.795351,-6735.874072,-222.061783,2987.772442
3575.795681,-8142.265362,888.247130,3064.381992
3575.796011,-9474.636058,1702.473667,2145.067394
3575.796341,-11325.150913,2146.597232,995.924147
3575.796671,-12731.542202,2146.597232,-153.219100
3575.797001,-13101.645173,1406.391290,-919.314598
3575.797331,-12583.501014,592.164754,-995.924147
3575.797660,-10807.006753,-296.082377,-995.924147
3575.797990,-8660.409521,-740.205942,-383.047749
3575.798320,-7698.141797,-814.226536,229.828649
3575.798650,-7328.038826,-592.164754,1225.752797
3575.798980,-7846.182985,222.061783,1915.238745
3575.799310,-8364.327145,1554.432478,1072.533697
3575.799640,-9696.697840,2146.597232,306.438199
3575.799970,-11177.109724,2072.576638,-766.095498
3575.800300,-11917.315666,1554.432478,-919.314598
3575.800629,-12213.398043,666.185348,-1532.190996
3575.800959,-11399.171507,0.000000,-1378.971896
3575.801289,-9844.739029,-962.267725,-459.657299
3575.801619,-8512.368333,-1554.432478,612.876398
3575.801949,-7772.162391,-1036.288319,2451.505594
3575.802279,-7698.141797,-222.061783,3294.210641
3575.802609,-8512.368333,888.247130,2681.334243
3575.802938,-9474.636058,1554.432478,995.924147
3575.803268,-10436.903782,1924.535449,-229.828649
3575.803598,-11325.150913,2146.597232,-1225.752797
3575.803928,-11473.192101,1406.391290,-1685.410096
3575.804258,-11547.212695,296.082377,-1762.019645
3575.804588,-10584.944971,-444.123565,-2451.505594
3575.804917,-9030.512492,-1406.391290,-1455.581446
3575.805247,-7772.162391,-1776.494261,459.657299
3575.805577,-7698.141797,-1184.329507,2681.334243
3575.805907,-8142.265362,-444.123565,3907.087040
3575.806237,-8660.409521,444.123565,3677.258390
3575.806567,-9622.677246,1184.329507,1838.629195
3575.806896,-11547.212695,1628.453072,0.000000
3575.807226,-12287.418637,1110.308913,-1762.019645
3575.807556,-12657.521608,592.164754,-2221.676944
3575.807886,-11843.295072,0.000000,-2451.505594
3575.808216,-10214.842000,-1258.350101,-2374.896044
3575.808545,-8068.244768,-2442.679609,-1455.581446
3575.808875,-7179.997637,-2146.597232,-153.219100
3575.809205,-6883.915261,-1628.453072,1915.238745
3575.809535,-7328.038826,-592.164754,3064.381992
3575.809865,-8808.450710,740.205942,3294.210641
3575.810195,-9918.759623,1258.350101,2298.286494
3575.810524,-11769.274478,1554.432478,1072.533697
3575.810854,-13175.665768,1480.411884,0.000000
3575.811184,-13323.706956,666.185348,-459.657299
3575.811514,-12139.377449,0.000000,-766.095498
3575.811844,-10066.800811,-1036.288319,-1378.971896
3575.812174,-8512.368333,-1480.411884,-459.657299
3575.812503,-7550.100608,-1702.473667,612.876398
3575.812833,-7031.956449,-1480.411884,1762.019645
3575.813163,-7402.059420,-666.185348,1685.410096
3575.813493,-7994.224174,592.164754,1149.143247
3575.813823,-9622.677246,1110.308913,459.657299
3575.814152,-10807.006753,1184.329507,153.219100
3575.814482,-12065.356855,814.226536,-842.705048
3575.814812,-12139.377449,74.020594,-1225.752797
3575.815142,-11621.233289,-370.102971,-995.924147
3575.815472,-10066.800811,-1554.432478,0.000000
3575.815802,-8512.368333,-1924.535449,1072.533697
3575.816131,-7698.141797,-1554.432478,2068.457845
3575.816461,-7772.162391,-444.123565,2451.505594
3575.816791,-8586.388927,592.164754,1915.238745
3575.817121,-9474.636058,1628.453072,536.266849
3575.817451,-9992.780217,1628.453072,-536.266849
3575.817781,-11325.150913,1850.514855,-1685.410096
3575.818110,-12065.356855,1184.329507,-1838.629195
3575.818440,-12065.356855,518.144159,-1532.190996
3575.818770,-10955.047942,-666.185348,-2145.067394
3575.819100,-9030.512492,-1554.432478,-1302.362347
3575.819430,-8216.285956,-1554.432478,842.705048
3575.819759,-7476.080014,-1036.288319,3064.381992
3575.820089,-8216.285956,-444.123565,3677.258390
3575.820419,-8586.388927,592.164754,3140.991542
3575.820749,-9474.636058,1332.370696,1685.410096
3575.821079,-11251.130318,1850.514855,-612.876398
3575.821409,-12139.377449,1406.391290,-1991.848295
3575.821738,-12287.418637,740.205942,-2451.505594
3575.822068,-11103.089130,0.000000,-2834.553343
3575.822398,-9770.718434,-962.267725,-2604.724693
3575.822728,-8216.285956,-1998.556043,-1991.848295
3575.823058,-7402.059420,-1850.514855,76.609550
3575.823387,-7179.997637,-1258.350101,2221.676944
3575.823717,-7624.121203,-222.061783,2987.772442
3575.824047,-8364.327145,518.144159,2987.772442
3575.824377,-9770.718434,1702.473667,2221.676944
3575.824707,-11695.253884,1998.556043,995.924147
3575.825037,-12879.583391,2146.597232,0.000000
3575.825366,-13397.727550,888.247130,-306.438199
3575.825696,-12213.398043,592.164754,-1302.362347
3575.826026,-10288.862594,-740.205942,-1302.362347
3575.826356,-8512.368333,-1258.350101,-536.266849
3575.826686,-7624.121203,-1184.329507,306.438199
3575.827016,-7698.141797,-666.185348,919.314598
3575.827345,-7846.182985,74.020594,1455.581446
3575.827675,-8216.285956,1110.308913,1072.533697
3575.828005,-9992.780217,1406.391290,306.438199
3575.828335,-11399.171507,1258.350101,0.000000
3575.828665,-12435.459826,962.267725,-536.266849
3575.828994,-12287.418637,0.000000,-842.705048
3575.829324,-11251.130318,-814.226536,-995.924147
3575.829654,-9474.636058,-1850.514855,0.000000
3575.829984,-8438.347739,-1850.514855,1225.752797
3575.830314,-8068.244768,-1258.350101,2604.724693
3575.830644,-7846.182985,-444.123565,3217.601092
3575.830973,-8438.347739,518.144159,2298.286494
3575.831303,-8882.471304,1110.308913,612.876398
3575.831633,-10214.842000,1702.473667,-306.438199
3575.831963,-11399.171507,1480.411884,-1302.362347
3575.832293,-12213.398043,1406.391290,-1991.848295
3575.832623,-11399.171507,0.000000,-1915.238745
3575.832952,-10362.883188,-666.185348,-1762.019645
3575.833282,-8512.368333,-1554.432478,-919.314598
3575.833612,-7846.182985,-1924.535449,1072.533697
3575.833942,-7476.080014,-1332.370696,3600.648841
3575.834272,-8068.244768,-444.123565,3983.696590
3575.834601,-8660.409521,740.205942,2987.772442
3575.834931,-9844.739029,1332.370696,1532.190996
3575.835261,-11399.171507,1702.473667,-612.876398
3575.835591,-12361.439231,1184.329507,-1838.629195
3575.835921,-12805.562797,592.164754,-2374.896044
3575.836251,-11251.130318,0.000000,-2987.772442
3575.836580,-9400.615463,-1776.494261,-2834.553343
3575.836910,-8290.306550,-2072.576638,-1225.752797
3575.837240,-7031.956449,-1850.514855,0.000000
3575.837570,-7105.977043,-1110.308913,1915.238745
3575.837900,-7994.224174,0.000000,2987.772442
3575.838229,-9030.512492,592.164754,3217.601092
3575.838559,-10584.944971,1628.453072,1608.800546
3575.838889,-12065.356855,1850.514855,689.485948
3575.839219,-13249.686362,1480.411884,0.000000
3575.839549,-13101.645173,666.185348,-766.095498
3575.839879,-11991.336260,-74.020594,-1455.581446
3575.840208,-9844.739029,-1258.350101,-1302.362347
3575.840538,-8290.306550,-1628.453072,0.000000
3575.840868,-7624.121203,-1110.308913,1455.581446
3575.841198,-7328.038826,-666.185348,1838.629195
3575.841528,-7920.203579,0.000000,1685.410096
3575.841858,-8512.368333,888.247130,919.314598
3575.842187,-10140.821405,1406.391290,-153.219100
3575.842517,-11843.295072,1184.329507,-306.438199
3575.842847,-12657.521608,962.267725,-842.705048
3575.843177,-12287.418637,0.000000,-842.705048
3575.843507,-10584.944971,-1036.288319,-995.924147
3575.843836,-9400.615463,-1776.494261,459.657299
3575.844166,-7846.182985,-1776.494261,1072.533697
3575.844496,-7624.121203,-1110.308913,2451.505594
3575.844826,-7846.182985,0.000000,2987.772442
3575.845156,-8734.430116,962.267725,1991.848295
3575.845486,-9400.615463,1628.453072,153.219100
3575.845815,-10584.944971,1628.453072,-1225.752797
3575.846145,-11399.171507,1776.494261,-2145.067394
3575.846475,-11917.315666,1184.329507,-2145.067394
3575.846805,-11325.150913,444.123565,-2451.505594
3575.847135,-9844.739029,-814.226536,-2374.896044
3575.847465,-8364.327145,-1406.391290,-689.485948
3575.847794,-7698.141797,-1332.370696,1455.581446
3575.848124,-7772.162391,-814.226536,3677.258390
3575.848454,-8660.409521,222.061783,3907.087040
3575.848784,-9030.512492,1258.350101,2834.553343
3575.849114,-10288.862594,1776.494261,1455.581446
3575.849443,-11769.274478,1924.535449,-383.047749
3575.849773,-12805.562797,1628.453072,-1608.800546
3575.850103,-12435.459826,814.226536,-2221.676944
3575.850433,-11029.068536,-370.102971,-2757.943793
3575.850763,-9326.594869,-1258.350101,-2757.943793
3575.851093,-7846.182985,-2146.597232,-1149.143247
3575.851422,-6957.935855,-1702.473667,842.705048
3575.851752,-7031.956449,-1036.288319,2681.334243
3575.852082,-7772.162391,74.020594,3447.429741
3575.852412,-8882.471304,814.226536,3370.820191
3575.852742,-10732.986159,1702.473667,2145.067394
3575.853072,-12139.377449,1924.535449,995.924147
3575.853401,-13323.706956,1406.391290,-306.438199
3575.853731,-13027.624579,518.144159,-612.876398
3575.854061,-11547.212695,-518.144159,-995.924147
3575.854391,-9326.594869,-1480.411884,-1149.143247
3575.854721,-7994.224174,-1480.411884,-383.047749
3575.855050,-7179.997637,-1184.329507,459.657299
3575.855380,-7105.977043,-962.267725,1225.752797
3575.855710,-7402.059420,0.000000,1608.800546
3575.856040,-8586.388927,962.267725,1149.143247
3575.856370,-10362.883188,1258.350101,-383.047749
3575.856700,-11547.212695,1332.370696,-766.095498
3575.857029,-12287.418637,370.102971,-1072.533697
3575.857359,-12139.377449,-74.020594,-1455.581446
3575.857689,-10955.047942,-1258.350101,-1072.533697
3575.858019,-9696.697840,-1998.556043,689.485948
3575.858349,-8142.265362,-2072.576638,1762.019645
3575.858678,-7994.224174,-1332.370696,2834.553343
3575.859008,-8142.265362,-148.041188,2834.553343
3575.859338,-8882.471304,444.123565,1838.629195
3575.859668,-9400.615463,1480.411884,229.828649
3575.859998,-10732.986159,1480.411884,-919.314598
3575.860328,-11843.295072,1554.432478,-1532.190996
3575.860657,-12583.501014,740.205942,-1762.019645
3575.860987,-11399.171507,0.000000,-1991.848295
3575.861317,-9622.677246,-1406.391290,-2068.457845
3575.861647,-8290.306550,-2072.576638,-459.657299
3575.861977,-7846.182985,-1776.494261,1915.238745
3575.862307,-7698.141797,-1184.329507,4213.525239
3575.862636,-8216.285956,-148.041188,3830.477490
3575.862966,-8956.491898,1036.288319,2834.553343
3575.863296,-10362.883188,1702.473667,536.266849
3575.863626,-11917.315666,1850.514855,-919.314598
3575.863956,-12583.501014,1332.370696,-2221.676944
3575.864285,-12435.459826,592.164754,-2528.115143
3575.864615,-10362.883188,-814.226536,-2911.162892
3575.864945,-8734.430116,-1850.514855,-2374.896044
3575.865275,-7476.080014,-1924.535449,-1302.362347
3575.865605,-6957.935855,-1924.535449,842.705048
3575.865935,-6809.894666,-1110.308913,2528.115143
3575.866264,-7698.141797,370.102971,3140.991542
3575.866594,-9104.533087,1036.288319,2681.334243
3575.866924,-10807.006753,1850.514855,1455.581446
3575.867254,-12213.398043,1406.391290,383.047749
3575.867584,-12953.603985,1036.288319,-306.438199
3575.867914,-12731.542202,222.061783,-995.924147
3575.868243,-11399.171507,-296.082377,-1608.800546
3575.868573,-9622.677246,-814.226536,-919.314598
3575.868903,-7846.182985,-1184.329507,76.609550
3575.869233,-7550.100608,-666.185348,1149.143247
3575.869563,-7254.018232,-74.020594,1685.410096
3575.869892,-8290.306550,1110.308913,1762.019645
3575.870222,-9030.512492,1554.432478,766.095498
3575.870552,-10584.944971,1628.453072,0.000000
3575.870882,-11843.295072,1406.391290,-612.876398
3575.871212,-12509.480420,814.226536,-1149.143247
3575.871542,-11843.295072,-370.102971,-995.924147
3575.871871,-10658.965565,-888.247130,0.000000
