#time,accel_x,accel_y,accel_z
3622.294660,-9030.512492,-1924.535449,-3217.601092
3622.294990,-9770.718434,-666.185348,-3217.601092
3622.295319,-9992.780217,-518.144159,-919.314598
3622.295649,-10510.924376,-1184.329507,-689.485948
3622.295979,-9918.759623,-888.247130,-1608.800546
3622.296309,-9992.780217,-1850.514855,-2451.505594
3622.296639,-10214.842000,-740.205942,-1685.410096
3622.296969,-11177.109724,-1332.370696,-842.705048
3622.297298,-9918.759623,-962.267725,-536.266849
3622.297628,-9178.553681,-888.247130,-459.657299
3622.297958,-9474.636058,0.000000,-536.266849
3622.298288,-9326.594869,-518.144159,-1072.533697
3622.298618,-8882.471304,222.061783,-1225.752797
3622.298948,-8734.430116,444.123565,-689.485948
3622.299277,-9400.615463,814.226536,-1302.362347
3622.299607,-9844.739029,888.247130,-1455.581446
3622.299937,-9622.677246,740.205942,-1762.019645
3622.300267,-10658.965565,888.247130,-1608.800546
3622.300597,-10807.006753,222.061783,-1685.410096
3622.300927,-11177.109724,-296.082377,-1072.533697
3622.301256,-10066.800811,0.000000,-766.095498
3622.301586,-9548.656652,0.000000,-1149.143247
3622.301916,-9104.533087,0.000000,-995.924147
3622.302246,-9178.553681,0.000000,-1072.533697
3622.302576,-9326.594869,1110.308913,-306.438199
3622.302906,-8586.388927,2368.659014,-1532.190996
3622.303236,-8216.285956,1628.453072,-1762.019645
3622.303565,-11029.068536,296.082377,-1762.019645
3622.303895,-10288.862594,0.000000,-306.438199
3622.304225,-10362.883188,74.020594,-536.266849
3622.304555,-11843.295072,-74.020594,-1378.971896
3622.304885,-10732.986159,0.000000,-1838.629195
3622.305215,-10140.821405,-518.144159,-3447.429741
3622.305544,-9992.780217,-740.205942,-3907.087040
3622.305874,-9622.677246,-740.205942,-2068.457845
3622.306204,-9844.739029,-666.185348,-1838.629195
3622.306534,-8956.491898,-814.226536,-2451.505594
3622.306864,-8734.430116,-1332.370696,-2451.505594
3622.307194,-8808.450710,-1110.308913,-2145.067394
3622.307523,-9326.594869,-962.267725,-2145.067394
3622.307853,-9918.759623,-1554.432478,-1915.238745
3622.308183,-9918.759623,-1332.370696,-1072.533697
3622.308513,-10288.862594,-1554.432478,-229.828649
3622.308843,-10881.027347,-1924.535449,689.485948
3622.309173,-10658.965565,-2146.597232,459.657299
3622.309502,-10140.821405,-1628.453072,-995.924147
3622.309832,-10288.862594,-1998.556043,-3447.429741
3622.310162,-10288.862594,-1702.473667,-5056.230287
3622.310492,-10362.883188,-1776.494261,-4136.915689
3622.310822,-9474.636058,-2146.597232,-2834.553343
3622.311152,-9400.615463,-2368.659014,-766.095498
3622.311481,-9992.780217,-2220.617826,0.000000
3622.311811,-9474.636058,-2812.782580,-689.485948
3622.312141,-10066.800811,-3034.844362,-1608.800546
3622.312471,-9474.636058,-3478.967927,-1532.190996
3622.312801,-9918.759623,-3627.009116,689.485948
3622.313131,-10510.924376,-3256.906145,3370.820191
3622.313460,-10510.924376,-2960.823768,2604.724693
3622.313790,-10584.944971,-3108.864956,0.000000
3622.314120,-10732.986159,-3552.988522,-2834.553343
3622.314450,-9622.677246,-4219.173869,-3524.039291
3622.314780,-9696.697840,-4293.194464,-2068.457845
3622.315110,-9474.636058,-4071.132681,0.000000
3622.315439,-7846.182985,-3775.050304,1302.362347
3622.315769,-6291.750507,-3923.091493,689.485948
3622.316099,-6883.915261,-4071.132681,306.438199
3622.316429,-9400.615463,-3034.844362,1225.752797
3622.316759,-11769.274478,-2738.761985,2451.505594
3622.317089,-12731.542202,-2442.679609,2374.896044
3622.317418,-11695.253884,-2960.823768,1302.362347
3622.317748,-11399.171507,-3627.009116,-383.047749
3622.318078,-10140.821405,-4145.153275,-919.314598
3622.318408,-9400.615463,-4589.276840,-1532.190996
3622.318738,-7698.141797,-4071.132681,-1378.971896
3622.319067,-6143.709319,-3552.988522,-612.876398
3622.319397,-6143.709319,-2886.803174,1532.190996
3622.319727,-7772.162391,-1184.329507,2834.553343
3622.320057,-10510.924376,-1036.288319,1991.848295
3622.320387,-11991.336260,-444.123565,-383.047749
3622.320716,-13101.645173,-740.205942,-2374.896044
3622.321046,-12953.603985,-1850.514855,-1685.410096
3622.321376,-11769.274478,-2738.761985,153.219100
3622.321706,-10881.027347,-2812.782580,1225.752797
3622.322036,-9104.533087,-3034.844362,1532.190996
3622.322365,-6587.832884,-2072.576638,459.657299
3622.322695,-5773.606348,-962.267725,1225.752797
3622.323025,-7105.977043,1332.370696,2681.334243
3622.323355,-10140.821405,2442.679609,2681.334243
3622.323685,-12361.439231,3182.885551,1149.143247
3622.324014,-13027.624579,2812.782580,-1608.800546
3622.324344,-12879.583391,1850.514855,-2451.505594
3622.324674,-12361.439231,592.164754,-2221.676944
3622.325004,-11769.274478,0.000000,0.000000
3622.325334,-9548.656652,-296.082377,306.438199
3622.325663,-6809.894666,-74.020594,766.095498
3622.325993,-6069.688724,1184.329507,2681.334243
3622.326323,-8364.327145,2812.782580,3830.477490
3622.326653,-10436.903782,4219.173869,2528.115143
3622.326983,-11325.150913,4737.318029,229.828649
3622.327312,-10955.047942,4293.194464,-1838.629195
3622.327642,-10510.924376,3404.947333,-2604.724693
3622.327972,-10732.986159,2590.720797,-1685.410096
3622.328302,-10510.924376,2072.576638,-995.924147
3622.328632,-8808.450710,1406.391290,-383.047749
3622.328961,-6957.935855,1850.514855,-383.047749
3622.329291,-6809.894666,2590.720797,995.924147
3622.329621,-8808.450710,3701.029710,2221.676944
3622.329951,-10584.944971,4145.153275,1225.752797
3622.330281,-11029.068536,4959.379811,-766.095498
3622.330610,-9918.759623,4515.256246,-1608.800546
3622.330940,-9992.780217,4293.194464,-842.705048
3622.331270,-10881.027347,4145.153275,-459.657299
3622.331600,-10881.027347,3997.112087,-1302.362347
3622.331930,-9400.615463,3627.009116,-3370.820191
3622.332259,-7550.100608,3108.864956,-3064.381992
3622.332589,-9104.533087,3552.988522,306.438199
3622.332919,-11621.233289,3775.050304,2757.943793
3622.333249,-11917.315666,3775.050304,1225.752797
3622.333579,-10140.821405,2590.720797,-2145.067394
3622.333908,-8956.491898,1702.473667,-2451.505594
3622.334238,-10362.883188,1184.329507,459.657299
3622.334568,-11251.130318,1110.308913,2834.553343
3622.334898,-9178.553681,222.061783,1991.848295
3622.335228,-5773.606348,444.123565,153.219100
3622.335557,-6069.688724,518.144159,995.924147
3622.335887,-9992.780217,1258.350101,2451.505594
3622.336217,-13101.645173,1258.350101,3600.648841
3622.336547,-12361.439231,814.226536,1149.143247
3622.336877,-10436.903782,-222.061783,-1149.143247
3622.337206,-9770.718434,-1406.391290,0.000000
3622.337536,-10288.862594,-1998.556043,1838.629195
3622.337866,-10214.842000,-2442.679609,1838.629195
3622.338196,-7624.121203,-2294.638420,0.000000
3622.338526,-6069.688724,-1998.556043,-1378.971896
3622.338855,-7402.059420,-1110.308913,536.266849
3622.339185,-10881.027347,-444.123565,3600.648841
3622.339515,-13249.686362,-74.020594,3677.258390
3622.339845,-12657.521608,-1036.288319,153.219100
3622.340175,-10955.047942,-2368.659014,-2604.724693
3622.340504,-10658.965565,-3552.988522,-1991.848295
3622.340834,-11695.253884,-3997.112087,995.924147
3622.341164,-10955.047942,-4367.215058,2068.457845
3622.341494,-7105.977043,-4441.235652,919.314598
3622.341824,-5625.565159,-4145.153275,536.266849
3622.342153,-7031.956449,-2960.823768,2604.724693
3622.342483,-10732.986159,-1702.473667,4213.525239
3622.342813,-12361.439231,-592.164754,2451.505594
3622.343143,-11769.274478,-1184.329507,-842.705048
3622.343473,-11843.295072,-1776.494261,-2068.457845
3622.343802,-12805.562797,-2294.638420,0.000000
3622.344132,-12879.583391,-2960.823768,1072.533697
3622.344462,-10140.821405,-3478.967927,-383.047749
3622.344792,-6661.853478,-3330.926739,-2451.505594
3622.345122,-5921.647536,-2886.803174,-1072.533697
3622.345451,-8290.306550,-1184.329507,2221.676944
3622.345781,-10955.047942,666.185348,3217.601092
3622.346111,-11103.089130,1036.288319,153.219100
3622.346441,-10436.903782,222.061783,-2681.334243
3622.346771,-10807.006753,74.020594,-3294.210641
3622.347100,-11843.295072,-814.226536,-2221.676944
3622.347430,-11621.233289,-2146.597232,-689.485948
3622.347760,-8438.347739,-2664.741391,-995.924147
3622.348090,-5329.482782,-2368.659014,-919.314598
3622.348420,-5403.503377,-1406.391290,1225.752797
3622.348749,-8512.368333,814.226536,3064.381992
3622.349079,-10955.047942,1924.535449,2145.067394
3622.349409,-10732.986159,2294.638420,-995.924147
3622.349739,-9622.677246,2072.576638,-2911.162892
3622.350069,-9696.697840,1850.514855,-1455.581446
3622.350398,-11251.130318,814.226536,612.876398
3622.350728,-10658.965565,370.102971,459.657299
3622.351058,-7994.224174,0.000000,-2298.286494
3622.351388,-6291.750507,296.082377,-2681.334243
3622.351718,-7402.059420,1036.288319,0.000000
3622.352047,-10362.883188,2516.700203,3140.991542
3622.352377,-11843.295072,3256.906145,3370.820191
3622.352707,-11029.068536,3552.988522,0.000000
3622.353037,-10362.883188,2738.761985,-2681.334243
3622.353367,-10436.903782,2220.617826,-2145.067394
3622.353696,-11473.192101,1332.370696,-919.314598
3622.354026,-10288.862594,1184.329507,-229.828649
3622.354356,-7328.038826,592.164754,-612.876398
3622.354686,-5773.606348,740.205942,0.000000
3622.355016,-7772.162391,1702.473667,1378.971896
3622.355345,-11473.192101,2516.700203,2604.724693
3622.355675,-13249.686362,3182.885551,612.876398
3622.356005,-11695.253884,2590.720797,-229.828649
3622.356335,-9548.656652,1776.494261,0.000000
3622.356665,-10436.903782,1480.411884,1455.581446
3622.356994,-11325.150913,1036.288319,1991.848295
3622.357324,-10214.842000,592.164754,229.828649
3622.357654,-7254.018232,148.041188,-1608.800546
3622.357984,-6661.853478,666.185348,-153.219100
3622.358314,-9104.533087,1480.411884,2987.772442
3622.358643,-12509.480420,2368.659014,4136.915689
3622.358973,-12731.542202,1924.535449,2145.067394
3622.359303,-10881.027347,1406.391290,-1532.190996
3622.359633,-10436.903782,370.102971,-2221.676944
3622.359963,-11251.130318,74.020594,-1532.190996
3622.360292,-10955.047942,-888.247130,383.047749
3622.360622,-8808.450710,-1110.308913,1149.143247
3622.360952,-6069.688724,-1258.350101,459.657299
3622.361282,-6587.832884,-222.061783,1225.752797
3622.361612,-9474.636058,444.123565,2604.724693
3622.361941,-11991.336260,1258.350101,2451.505594
3622.362271,-12139.377449,962.267725,919.314598
3622.362601,-11029.068536,592.164754,-536.266849
3622.362931,-11103.089130,-222.061783,-153.219100
3622.363261,-11769.274478,-888.247130,689.485948
3622.363590,-11251.130318,-1258.350101,-306.438199
3622.363920,-8586.388927,-1702.473667,-1991.848295
3622.364250,-5995.668130,-1332.370696,-1762.019645
3622.364580,-6661.853478,-888.247130,995.924147
3622.364910,-9474.636058,296.082377,3217.601092
3622.365239,-12065.356855,1184.329507,2451.505594
3622.365569,-11547.212695,740.205942,-153.219100
3622.365899,-10510.924376,0.000000,-2681.334243
3622.366229,-10881.027347,-888.247130,-1762.019645
3622.366559,-11621.233289,-2146.597232,0.000000
3622.366888,-10066.800811,-2886.803174,612.876398
3622.367218,-7105.977043,-2886.803174,842.705048
3622.367548,-5551.544565,-2738.761985,689.485948
3622.367878,-7105.977043,-1332.370696,2068.457845
3622.368208,-10214.842000,0.000000,2451.505594
3622.368537,-11325.150913,370.102971,1225.752797
3622.368867,-10584.944971,296.082377,-459.657299
3622.369197,-9770.718434,-370.102971,-842.705048
3622.369527,-10436.903782,-1110.308913,76.609550
3622.369857,-10807.006753,-1924.535449,306.438199
3622.370186,-9696.697840,-2146.597232,-919.314598
3622.370516,-7105.977043,-2442.679609,-1915.238745
3622.370846,-6217.729913,-2072.576638,-612.876398
3622.371176,-8364.327145,-814.226536,2987.772442
3622.371506,-11917.315666,444.123565,3983.696590
3622.371835,-12287.418637,1184.329507,1455.581446
3622.372165,-10436.903782,296.082377,-1991.848295
3622.372495,-9474.636058,-518.144159,-3217.601092
3622.372825,-10436.903782,-1258.350101,-1378.971896
3622.373155,-11029.068536,-1480.411884,306.438199
3622.373484,-9178.553681,-1702.473667,0.000000
3622.373814,-6809.894666,-1776.494261,-383.047749
3622.374144,-6513.812290,-1036.288319,459.657299
3622.374474,-9918.759623,370.102971,2374.896044
3622.374804,-12657.521608,1332.370696,2374.896044
3622.375133,-12213.398043,1406.391290,306.438199
3622.375463,-9770.718434,888.247130,-1302.362347
3622.375793,-9622.677246,148.041188,-995.924147
3622.376123,-10732.986159,-444.123565,0.000000
3622.376453,-10955.047942,-592.164754,-153.219100
3622.376782,-8660.409521,-740.205942,-1685.410096
3622.377112,-6513.812290,-296.082377,-1608.800546
3622.377442,-7179.997637,296.082377,919.314598
3622.377772,-10436.903782,1406.391290,3447.429741
3622.378102,-12657.521608,2294.638420,2681.334243
3622.378431,-11991.336260,2368.659014,-766.095498
3622.378761,-9992.780217,962.267725,-2604.724693
3622.379091,-10140.821405,444.123565,-2298.286494
3622.379421,-11473.192101,-148.041188,-306.438199
3622.379751,-10584.944971,0.000000,0.000000
3622.380080,-7105.977043,-592.164754,0.000000
3622.380410,-5181.441594,74.020594,153.219100
3622.380740,-7254.018232,1332.370696,1838.629195
3622.381070,-11029.068536,2442.679609,2451.505594
3622.381400,-12065.356855,2368.659014,1685.410096
3622.381729,-11325.150913,1924.535449,0.000000
3622.382059,-10066.800811,1480.411884,-1072.533697
3622.382389,-10584.944971,666.185348,229.828649
3622.382719,-11325.150913,444.123565,766.095498
3622.383049,-9770.718434,0.000000,-612.876398
3622.383378,-7179.997637,0.000000,-1762.019645
3622.383708,-6291.750507,518.144159,-383.047749
3622.384038,-8660.409521,1850.514855,2221.676944
3622.384368,-11991.336260,2886.803174,3294.210641
3622.384698,-12509.480420,3034.844362,995.924147
3622.385027,-11029.068536,2442.679609,-2145.067394
3622.385357,-9844.739029,1480.411884,-2681.334243
3622.385687,-11029.068536,370.102971,-1302.362347
3622.386017,-11177.109724,0.000000,0.000000
3622.386347,-9178.553681,-592.164754,-306.438199
3622.386676,-6069.688724,-740.205942,-306.438199
3622.387006,-6439.791695,0.000000,1072.533697
3622.387336,-9178.553681,814.226536,3064.381992
3622.387666,-12287.418637,1628.453072,2834.553343
3622.387996,-11917.315666,1702.473667,612.876398
3622.388326,-10140.821405,814.226536,-995.924147
3622.388655,-9918.759623,0.000000,0.000000
3622.388985,-11103.089130,-518.144159,995.924147
3622.389315,-10955.047942,-666.185348,229.828649
3622.389645,-8438.347739,-1036.288319,-1685.410096
3622.389975,-6365.771101,-1184.329507,-1915.238745
3622.390304,-7254.018232,-888.247130,612.876398
3622.390634,-10584.944971,370.102971,3370.820191
3622.390964,-12287.418637,888.247130,2681.334243
3622.391294,-11103.089130,888.247130,0.000000
3622.391624,-9770.718434,-518.144159,-2834.553343
3622.391953,-10214.842000,-962.267725,-2221.676944
3622.392283,-11621.233289,-1628.453072,-459.657299
3622.392613,-10362.883188,-1924.535449,-229.828649
3622.392943,-7994.224174,-2294.638420,0.000000
3622.393273,-6291.750507,-2368.659014,766.095498
3622.393602,-8290.306550,-1184.329507,2068.457845
3622.393932,-11177.109724,370.102971,2681.334243
3622.394262,-12435.459826,222.061783,919.314598
3622.394592,-11177.109724,0.000000,-766.095498
3622.394922,-9844.739029,-518.144159,-689.485948
3622.395251,-10658.965565,-1110.308913,-383.047749
3622.395581,-11621.233289,-1184.329507,383.047749
3622.395911,-10140.821405,-1406.391290,-995.924147
3622.396241,-7476.080014,-1702.473667,-2681.334243
3622.396571,-6735.874072,-1332.370696,-1455.581446
3622.396900,-8364.327145,-666.185348,2145.067394
3622.397230,-12065.356855,370.102971,3677.258390
3622.397560,-12435.459826,888.247130,1838.629195
3622.397890,-10807.006753,74.020594,-1225.752797
3622.398220,-9622.677246,-1258.350101,-2145.067394
3622.398549,-10584.944971,-1406.391290,-1149.143247
3622.398879,-11251.130318,-1406.391290,76.609550
3622.399209,-9178.553681,-1776.494261,306.438199
3622.399539,-6439.791695,-1554.432478,0.000000
3622.399869,-6513.812290,-666.185348,995.924147
3622.400198,-9400.615463,296.082377,2298.286494
3622.400528,-11991.336260,814.226536,1455.581446
3622.400858,-11251.130318,1110.308913,153.219100
3622.401188,-9474.636058,148.041188,-766.095498
3622.401518,-9252.574275,0.000000,229.828649
3622.401847,-10510.924376,-296.082377,1225.752797
3622.402177,-10584.944971,-444.123565,229.828649
3622.402507,-8734.430116,-370.102971,-1685.410096
3622.402837,-6957.935855,-222.061783,-1378.971896
3622.403167,-7179.997637,444.123565,1225.752797
3622.403496,-10214.842000,1628.453072,3677.258390
3622.403826,-12139.377449,2368.659014,2604.724693
3622.404156,-11251.130318,2442.679609,76.609550
3622.404486,-9844.739029,1554.432478,-2604.724693
3622.404816,-10288.862594,740.205942,-2298.286494
3622.405145,-11547.212695,296.082377,-536.266849
3622.405475,-10436.903782,0.000000,536.266849
3622.405805,-7550.100608,-444.123565,306.438199
3622.406135,-5773.606348,0.000000,536.266849
3622.406465,-7772.162391,1036.288319,2145.067394
3622.406794,-11177.109724,1998.556043,2298.286494
3622.407124,-12361.439231,2442.679609,1378.971896
3622.407454,-11029.068536,1850.514855,-306.438199
3622.407784,-10066.800811,1184.329507,229.828649
3622.408114,-10436.903782,1036.288319,1072.533697
3622.408443,-11917.315666,740.205942,919.314598
3622.408773,-10362.883188,444.123565,-1455.581446
3622.409103,-7179.997637,0.000000,-2451.505594
3622.409433,-6513.812290,444.123565,-306.438199
3622.409763,-9030.512492,1332.370696,2451.505594
3622.410092,-11991.336260,2294.638420,3524.039291
3622.410422,-12139.377449,2368.659014,995.924147
3622.410752,-10584.944971,1702.473667,-2298.286494
3622.411082,-9992.780217,888.247130,-3677.258390
3622.411412,-11029.068536,0.000000,-1838.629195
3622.411741,-11695.253884,-592.164754,0.000000
3622.412071,-9252.574275,-1036.288319,0.000000
3622.412401,-5773.606348,-1184.329507,-153.219100
3622.412731,-6291.750507,-666.185348,1149.143247
3622.413061,-9696.697840,296.082377,2221.676944
3622.413390,-11991.336260,888.247130,1991.848295
3622.413720,-11399.171507,1110.308913,0.000000
3622.414050,-9770.718434,222.061783,-995.924147
3622.414380,-9548.656652,0.000000,0.000000
3622.414710,-11251.130318,-148.041188,1072.533697
3622.415039,-11251.130318,-444.123565,0.000000
3622.415369,-8586.388927,-1036.288319,-2298.286494
3622.415699,-6587.832884,-1184.329507,-2298.286494
3622.416029,-7698.141797,-370.102971,612.876398
3622.416359,-10807.006753,740.205942,3677.258390
3622.416689,-12435.459826,1332.370696,3600.648841
3622.417019,-11251.130318,888.247130,0.000000
3622.417349,-9770.718434,0.000000,-2145.067394
3622.417679,-10436.903782,-296.082377,-1838.629195
3622.418009,-11473.192101,-1332.370696,383.047749
3622.418338,-10510.924376,-1036.288319,1072.533697
3622.418668,-7920.203579,-1776.494261,383.047749
3622.418998,-6365.771101,-1480.411884,842.705048
3622.419328,-7846.182985,-888.247130,1838.629195
3622.419658,-11103.089130,296.082377,2528.115143
3622.419988,-11695.253884,740.205942,1072.533697
3622.420318,-10510.924376,444.123565,-306.438199
3622.420648,-9548.656652,0.000000,-153.219100
3622.420978,-10584.944971,-370.102971,306.438199
3622.421308,-11843.295072,-740.205942,229.828649
3622.421638,-10066.800811,-1184.329507,-842.705048
3622.421968,-7105.977043,-1702.473667,-2145.067394
3622.422298,-6143.709319,-1628.453072,0.000000
3622.422628,-8438.347739,-148.041188,3370.820191
3622.422957,-11621.233289,592.164754,4213.525239
3622.423287,-11473.192101,888.247130,1608.800546
3622.423617,-10214.842000,370.102971,-2068.457845
3622.423947,-10066.800811,0.000000,-3064.381992
3622.424277,-10807.006753,-888.247130,-1378.971896
3622.424607,-11177.109724,-1184.329507,0.000000
3622.424937,-8734.430116,-1998.556043,-306.438199
3622.425267,-6143.709319,-1850.514855,-153.219100
3622.425597,-6439.791695,-1258.350101,536.266849
3622.425927,-9696.697840,148.041188,1608.800546
3622.426257,-11843.295072,888.247130,1378.971896
3622.426587,-11251.130318,1258.350101,-536.266849
3622.426917,-10066.800811,592.164754,-842.705048
3622.427246,-10362.883188,0.000000,0.000000
3622.427576,-11695.253884,-666.185348,612.876398
3622.427906,-11399.171507,-888.247130,-612.876398
3622.428236,-8660.409521,-1184.329507,-1991.848295
3622.428566,-6809.894666,-1110.308913,-1532.190996
3622.428896,-7179.997637,-444.123565,766.095498
3622.429226,-10362.883188,814.226536,2987.772442
3622.429556,-11917.315666,1406.391290,2374.896044
3622.429886,-11103.089130,1702.473667,-766.095498
3622.430216,-9770.718434,1036.288319,-2987.772442
3622.430546,-10510.924376,74.020594,-2374.896044
3622.430876,-11843.295072,-370.102971,0.000000
3622.431206,-10584.944971,-740.205942,0.000000
3622.431536,-7328.038826,-1554.432478,-153.219100
3622.431865,-5699.585753,-1628.453072,842.705048
3622.432195,-7476.080014,0.000000,2068.457845
3622.432525,-10658.965565,1036.288319,2451.505594
3622.432855,-11917.315666,1702.473667,1302.362347
3622.433185,-10658.965565,1258.350101,-536.266849
3622.433515,-9622.677246,962.267725,-153.219100
3622.433845,-10807.006753,518.144159,1225.752797
3622.434175,-11843.295072,296.082377,919.314598
3622.434505,-9918.759623,-222.061783,-995.924147
3622.434835,-6957.935855,-518.144159,-2374.896044
3622.435165,-6143.709319,-148.041188,-383.047749
3622.435495,-8364.327145,740.205942,2911.162892
3622.435825,-11769.274478,1702.473667,4443.353888
3622.436154,-11843.295072,2442.679609,1762.019645
3622.436484,-10362.883188,1998.556043,-1302.362347
3622.436814,-9918.759623,1036.288319,-1991.848295
3622.437144,-11695.253884,444.123565,-459.657299
3622.437474,-11695.253884,0.000000,766.095498
3622.437804,-9030.512492,-518.144159,689.485948
3622.438134,-6069.688724,-296.082377,459.657299
3622.438464,-6291.750507,-74.020594,1455.581446
3622.438794,-9770.718434,1184.329507,2451.505594
3622.439124,-12287.418637,1628.453072,2221.676944
3622.439454,-11547.212695,1850.514855,229.828649
3622.439784,-9548.656652,1036.288319,-612.876398
3622.440114,-9992.780217,666.185348,0.000000
3622.440444,-11695.253884,370.102971,1072.533697
3622.440773,-11325.150913,0.000000,0.000000
3622.441103,-8068.244768,-1184.329507,-1762.019645
3622.441433,-6365.771101,-740.205942,-1915.238745
3622.441763,-7328.038826,74.020594,1915.238745
3622.442093,-10732.986159,1184.329507,4443.353888
3622.442423,-12361.439231,1924.535449,3677.258390
3622.442753,-10955.047942,1554.432478,-306.438199
3622.443083,-10140.821405,814.226536,-2528.115143
3622.443413,-10658.965565,296.082377,-2221.676944
3622.443743,-11991.336260,-296.082377,-383.047749
3622.444073,-10658.965565,-1184.329507,153.219100
3622.444403,-7402.059420,-1480.411884,-459.657299
3622.444733,-5921.647536,-1480.411884,0.000000
3622.445063,-7550.100608,-666.185348,1149.143247
3622.445392,-10881.027347,296.082377,1762.019645
3622.445722,-11695.253884,740.205942,766.095498
3622.446052,-10140.821405,148.041188,-612.876398
3622.446382,-9770.718434,0.000000,-306.438199
3622.446712,-11103.089130,-222.061783,1302.362347
3622.447042,-11843.295072,-962.267725,459.657299
3622.447372,-10362.883188,-1554.432478,-1302.362347
3622.447702,-7105.977043,-2146.597232,-2681.334243
3622.448032,-6513.812290,-1628.453072,-536.266849
3622.448362,-9030.512492,-444.123565,2987.772442
3622.448692,-11251.130318,1036.288319,4136.915689
3622.449022,-11473.192101,1332.370696,1072.533697
3622.449352,-10362.883188,592.164754,-2451.505594
3622.449681,-10140.821405,0.000000,-2681.334243
3622.450011,-11621.233289,-666.185348,-1302.362347
3622.450341,-11843.295072,-1110.308913,306.438199
3622.450671,-8956.491898,-1924.535449,0.000000
3622.451001,-5773.606348,-1850.514855,536.266849
3622.451331,-6365.771101,-1406.391290,1225.752797
3622.451661,-9770.718434,0.000000,1991.848295
3622.451991,-12065.356855,518.144159,1915.238745
3622.452321,-11399.171507,962.267725,229.828649
3622.452651,-10066.800811,518.144159,0.000000
3622.452981,-10066.800811,0.000000,306.438199
3622.453311,-11769.274478,-518.144159,842.705048
3622.453641,-10955.047942,-1184.329507,-536.266849
3622.453971,-8512.368333,-1258.350101,-2374.896044
3622.454300,-6291.750507,-1554.432478,-1532.190996
3622.454630,-7105.977043,-740.205942,1532.190996
3622.454960,-10140.821405,370.102971,4290.134789
3622.455290,-11695.253884,1258.350101,2834.553343
3622.455620,-11177.109724,1406.391290,-995.924147
3622.455950,-9844.739029,296.082377,-3064.381992
3622.456280,-10807.006753,0.000000,-2298.286494
3622.456610,-11473.192101,-740.205942,-229.828649
3622.456940,-10436.903782,-1184.329507,689.485948
3622.457270,-7105.977043,-1406.391290,-459.657299
3622.457600,-5699.585753,-962.267725,-229.828649
3622.457930,-7846.182985,0.000000,459.657299
3622.458260,-11177.109724,888.247130,1532.190996
3622.458589,-11991.336260,1850.514855,536.266849
3622.458919,-10658.965565,1332.370696,-229.828649
3622.459249,-9844.739029,740.205942,-612.876398
3622.459579,-11325.150913,148.041188,459.657299
3622.459909,-11843.295072,-518.144159,0.000000
3622.460239,-9992.780217,-1184.329507,-1149.143247
3622.460569,-6735.874072,-1184.329507,-2145.067394
3622.460899,-5995.668130,-814.226536,306.438199
3622.461229,-8586.388927,518.144159,3524.039291
3622.461559,-11547.212695,1776.494261,4136.915689
3622.461889,-12213.398043,2368.659014,1072.533697
3622.462219,-10955.047942,1776.494261,-1762.019645
3622.462549,-10807.006753,1110.308913,-2757.943793
3622.462879,-11843.295072,148.041188,-842.705048
3622.463208,-11621.233289,-444.123565,383.047749
3622.463538,-8882.471304,-740.205942,612.876398
3622.463868,-5181.441594,-1036.288319,76.609550
3622.464198,-6069.688724,-296.082377,919.314598
3622.464528,-9770.718434,1036.288319,2145.067394
3622.464858,-12139.377449,1924.535449,1608.800546
3622.465188,-11399.171507,1628.453072,459.657299
3622.465518,-10214.842000,888.247130,76.609550
3622.465848,-10584.944971,518.144159,995.924147
3622.466178,-11325.150913,-296.082377,1532.190996
3622.466508,-10807.006753,-888.247130,459.657299
3622.466838,-7698.141797,-1036.288319,-1302.362347
3622.467168,-5699.585753,-1036.288319,-919.314598
3622.467498,-7254.018232,0.000000,2451.505594
3622.467827,-10584.944971,1628.453072,4673.182538
3622.468157,-12065.356855,2368.659014,3830.477490
3622.468487,-11177.109724,2220.617826,-536.266849
3622.468817,-10288.862594,1406.391290,-3140.991542
3622.469147,-10881.027347,592.164754,-2298.286494
3622.469477,-11843.295072,0.000000,-383.047749
3622.469807,-9918.759623,-370.102971,306.438199
3622.470137,-6809.894666,-1036.288319,229.828649
3622.470467,-5699.585753,-814.226536,536.266849
3622.470797,-7994.224174,370.102971,2068.457845
3622.471127,-11473.192101,1702.473667,2681.334243
3622.471457,-12287.418637,1924.535449,1378.971896
3622.471787,-11103.089130,1480.411884,-229.828649
3622.472116,-10362.883188,1036.288319,-383.047749
3622.472446,-11029.068536,74.020594,612.876398
3622.472776,-11917.315666,-222.061783,459.657299
3622.473106,-9548.656652,-1258.350101,-1532.190996
3622.473436,-6587.832884,-1480.411884,-2221.676944
3622.473766,-5995.668130,-962.267725,383.047749
3622.474096,-8660.409521,444.123565,3370.820191
3622.474426,-11843.295072,1924.535449,4136.915689
3622.474756,-11843.295072,1998.556043,1302.362347
3622.475086,-10955.047942,1406.391290,-1915.238745
3622.475416,-10955.047942,444.123565,-3064.381992
3622.475746,-12065.356855,-370.102971,-1302.362347
3622.476076,-11843.295072,-1184.329507,-76.609550
3622.476406,-8586.388927,-2294.638420,536.266849
3622.476735,-5403.503377,-2368.659014,-153.219100
3622.477065,-5921.647536,-1258.350101,459.657299
3622.477395,-8956.491898,-296.082377,1838.629195
3622.477725,-11547.212695,666.185348,1225.752797
3622.478055,-11325.150913,666.185348,-153.219100
3622.478385,-9992.780217,222.061783,-766.095498
3622.478715,-10288.862594,-592.164754,0.000000
3622.479045,-11695.253884,-1110.308913,612.876398
3622.479375,-10732.986159,-1924.535449,-766.095498
3622.479705,-7624.121203,-1924.535449,-2145.067394
3622.480035,-5847.626942,-1998.556043,-1225.752797
3622.480365,-7031.956449,-1184.329507,2068.457845
3622.480695,-10214.842000,518.144159,3830.477490
3622.481024,-12065.356855,1554.432478,3140.991542
3622.481354,-11547.212695,1406.391290,-689.485948
3622.481684,-11177.109724,1036.288319,-3140.991542
3622.482014,-11325.150913,0.000000,-2604.724693
3622.482344,-11917.315666,-814.226536,-383.047749
3622.482674,-10140.821405,-1480.411884,0.000000
3622.483004,-6809.894666,-1702.473667,0.000000
3622.483334,-6143.709319,-1258.350101,536.266849
3622.483664,-8290.306550,0.000000,1455.581446
3622.483994,-11251.130318,592.164754,2221.676944
3622.484324,-11991.336260,1406.391290,459.657299
3622.484654,-10955.047942,814.226536,-229.828649
3622.484984,-10140.821405,518.144159,0.000000
3622.485314,-11251.130318,-370.102971,1072.533697
3622.485643,-11843.295072,-518.144159,383.047749
3622.485973,-9844.739029,-1332.370696,-1225.752797
3622.486303,-6883.915261,-1554.432478,-1838.629195
3622.486633,-6217.729913,-1258.350101,995.924147
3622.486963,-8660.409521,444.123565,3447.429741
3622.487293,-11843.295072,1554.432478,3830.477490
3622.487623,-11695.253884,1776.494261,1072.533697
3622.487953,-10436.903782,1332.370696,-1838.629195
3622.488283,-10658.965565,592.164754,-2834.553343
3622.488613,-11695.253884,0.000000,-1302.362347
3622.488943,-11399.171507,-888.247130,306.438199
3622.489273,-8290.306550,-1332.370696,689.485948
3622.489603,-5773.606348,-1258.350101,995.924147
3622.489933,-6365.771101,-518.144159,1608.800546
3622.490262,-9770.718434,592.164754,1838.629195
3622.490592,-12361.439231,1628.453072,612.876398
3622.490922,-11917.315666,1924.535449,-76.609550
3622.491252,-10362.883188,1036.288319,-612.876398
3622.491582,-10436.903782,370.102971,306.438199
3622.491912,-11621.233289,-370.102971,612.876398
3622.492242,-10881.027347,-814.226536,-766.095498
3622.492572,-7550.100608,-1554.432478,-2298.286494
3622.492902,-5625.565159,-1480.411884,-1302.362347
3622.493232,-6809.894666,74.020594,1455.581446
3622.493562,-9992.780217,1332.370696,3907.087040
3622.493892,-12139.377449,2442.679609,2681.334243
3622.494222,-11769.274478,2220.617826,-536.266849
3622.494551,-11103.089130,1184.329507,-3140.991542
3622.494881,-11325.150913,222.061783,-2528.115143
3622.495211,-12139.377449,-518.144159,-612.876398
3622.495541,-9918.759623,-1332.370696,612.876398
3622.495871,-6661.853478,-1628.453072,306.438199
3622.496201,-5107.421000,-1258.350101,383.047749
3622.496531,-7254.018232,-296.082377,842.705048
3622.496861,-11251.130318,1332.370696,1685.410096
3622.497191,-12287.418637,1776.494261,383.047749
3622.497521,-11251.130318,1258.350101,-306.438199
3622.497851,-10140.821405,370.102971,229.828649
3622.498181,-10955.047942,-370.102971,919.314598
3622.498511,-10955.047942,-1332.370696,459.657299
3622.498841,-9030.512492,-1776.494261,-1072.533697
3622.499170,-5699.585753,-1924.535449,-1302.362347
3622.499500,-5773.606348,-1406.391290,1378.971896
3622.499830,-8808.450710,666.185348,4519.963438
3622.500160,-12139.377449,1480.411884,4979.620737
3622.500490,-12435.459826,2220.617826,1762.019645
3622.500820,-11399.171507,1406.391290,-1302.362347
3622.501150,-11029.068536,592.164754,-2451.505594
3622.501480,-11843.295072,0.000000,-1072.533697
3622.501810,-11325.150913,-814.226536,536.266849
3622.502140,-8142.265362,-1924.535449,766.095498
3622.502470,-5625.565159,-1480.411884,383.047749
3622.502800,-6735.874072,-518.144159,1455.581446
3622.503130,-9992.780217,740.205942,2145.067394
3622.503459,-12435.459826,1406.391290,1762.019645
3622.503789,-11917.315666,1702.473667,459.657299
3622.504119,-10288.862594,814.226536,229.828649
3622.504449,-10807.006753,-148.041188,459.657299
3622.504779,-11695.253884,-888.247130,536.266849
3622.505109,-10140.821405,-1924.535449,-536.266849
3622.505439,-7179.997637,-1924.535449,-2068.457845
3622.505769,-5551.544565,-1480.411884,-995.924147
3622.506099,-7179.997637,-74.020594,2145.067394
3622.506429,-10436.903782,1184.329507,4596.572988
3622.506759,-12509.480420,2368.659014,2221.676944
3622.507089,-11917.315666,1776.494261,-1225.752797
3622.507419,-10881.027347,962.267725,-3677.258390
3622.507749,-11029.068536,-222.061783,-2681.334243
3622.508078,-11473.192101,-666.185348,-459.657299
3622.508408,-9474.636058,-1628.453072,306.438199
3622.508738,-6069.688724,-1702.473667,-612.876398
3622.509068,-5403.503377,-1110.308913,-306.438199
3622.509398,-8068.244768,370.102971,689.485948
3622.509728,-11769.274478,1628.453072,1072.533697
3622.510058,-12583.501014,1776.494261,153.219100
3622.510388,-11103.089130,1110.308913,-919.314598
3622.510718,-9992.780217,0.000000,-459.657299
3622.511048,-10436.903782,-962.267725,153.219100
3622.511378,-10510.924376,-1406.391290,0.000000
3622.511708,-8586.388927,-1998.556043,-1302.362347
3622.512038,-6217.729913,-1702.473667,-1455.581446
3622.512368,-6439.791695,-814.226536,689.485948
3622.512697,-9326.594869,1036.288319,3907.087040
3622.513027,-12657.521608,1924.535449,3370.820191
3622.513357,-12731.542202,2368.659014,612.876398
3622.513687,-11547.212695,1480.411884,-2451.505594
3622.514017,-10732.986159,296.082377,-2911.162892
3622.514347,-10955.047942,-888.247130,-1225.752797
3622.514677,-10510.924376,-1480.411884,0.000000
3622.515007,-7994.224174,-1258.350101,0.000000
3622.515337,-5847.626942,-1406.391290,153.219100
3622.515667,-6735.874072,-592.164754,1072.533697
3622.515997,-9770.718434,888.247130,2298.286494
3622.516327,-12435.459826,1628.453072,1302.362347
3622.516657,-11843.295072,1628.453072,0.000000
3622.516986,-10807.006753,444.123565,-459.657299
3622.517316,-10140.821405,-444.123565,459.657299
3622.517646,-10732.986159,-1184.329507,612.876398
3622.517976,-9992.780217,-1036.288319,-536.266849
3622.518306,-7402.059420,-1184.329507,-1302.362347
3622.518636,-5847.626942,-888.247130,-995.924147
3622.518966,-7624.121203,518.144159,2374.896044
3622.519296,-11177.109724,1480.411884,3983.696590
3622.519626,-12879.583391,2664.741391,2145.067394
3622.519956,-11843.295072,1924.535449,-1532.190996
3622.520286,-10658.965565,592.164754,-3217.601092
3622.520615,-10807.006753,0.000000,-2528.115143
3622.520945,-11399.171507,-888.247130,-229.828649
3622.521275,-9474.636058,-1702.473667,536.266849
3622.521605,-6217.729913,-1480.411884,919.314598
3622.521935,-5329.482782,-1036.288319,1149.143247
3622.522265,-8216.285956,592.164754,2451.505594
3622.522595,-11621.233289,1480.411884,2145.067394
3622.522925,-12361.439231,1924.535449,612.876398
3622.523255,-11103.089130,1332.370696,-1072.533697
3622.523584,-10066.800811,370.102971,-536.266849
3622.523914,-10658.965565,-370.102971,0.000000
3622.524244,-10732.986159,-1036.288319,76.609550
3622.524574,-8512.368333,-1406.391290,-1378.971896
3622.524904,-6069.688724,-888.247130,-2068.457845
3622.525234,-6217.729913,-518.144159,229.828649
3622.525564,-9326.594869,962.267725,3370.820191
3622.525894,-12213.398043,2220.617826,3907.087040
3622.526224,-12213.398043,2368.659014,919.314598
3622.526553,-10881.027347,1184.329507,-2145.067394
3622.526883,-10510.924376,296.082377,-3294.210641
3622.527213,-11177.109724,-592.164754,-919.314598
3622.527543,-10584.944971,-1184.329507,766.095498
3622.527873,-7846.182985,-1554.432478,612.876398
3622.528203,-5773.606348,-1258.350101,153.219100
3622.528533,-6735.874072,-74.020594,536.266849
3622.528863,-10362.883188,1110.308913,1225.752797
3622.529193,-12435.459826,2294.638420,612.876398
3622.529522,-11843.295072,1998.556043,-459.657299
3622.529852,-10362.883188,888.247130,-306.438199
3622.530182,-10066.800811,74.020594,689.485948
3622.530512,-11103.089130,-666.185348,612.876398
3622.530842,-10658.965565,-1036.288319,-612.876398
3622.531172,-7772.162391,-1480.411884,-1762.019645
3622.531502,-6143.709319,-888.247130,76.609550
3622.531832,-7402.059420,296.082377,2987.772442
3622.532162,-11251.130318,1702.473667,5056.230287
3622.532491,-12731.542202,2294.638420,3064.381992
3622.532821,-11621.233289,2072.576638,-1072.533697
3622.533151,-10362.883188,814.226536,-3140.991542
3622.533481,-10510.924376,148.041188,-1838.629195
3622.533811,-11769.274478,-592.164754,153.219100
3622.534141,-9770.718434,-888.247130,1149.143247
3622.534471,-6365.771101,-1258.350101,383.047749
3622.534801,-6069.688724,-740.205942,842.705048
3622.535131,-8660.409521,592.164754,1455.581446
3622.535460,-12361.439231,1480.411884,2451.505594
3622.535790,-12657.521608,1924.535449,1225.752797
3622.536120,-11029.068536,1184.329507,0.000000
3622.536450,-9844.739029,0.000000,306.438199
3622.536780,-10510.924376,-518.144159,459.657299
3622.537110,-11177.109724,-666.185348,0.000000
3622.537440,-8882.471304,-1332.370696,-1532.190996
3622.537770,-6439.791695,-1554.432478,-1685.410096
3622.538100,-6365.771101,-370.102971,536.266849
3622.538430,-9474.636058,962.267725,3370.820191
3622.538759,-12361.439231,1924.535449,2757.943793
3622.539089,-12287.418637,2072.576638,76.609550
3622.539419,-10807.006753,888.247130,-2987.772442
3622.539749,-10658.965565,0.000000,-2681.334243
3622.540079,-11103.089130,-1036.288319,-919.314598
3622.540409,-10510.924376,-888.247130,383.047749
3622.540739,-7476.080014,-1850.514855,153.219100
3622.541069,-5773.606348,-1184.329507,-383.047749
3622.541399,-7254.018232,-296.082377,383.047749
3622.541728,-10510.924376,740.205942,1378.971896
3622.542058,-12213.398043,1332.370696,689.485948
3622.542388,-11695.253884,1036.288319,-383.047749
3622.542718,-9844.739029,74.020594,-1149.143247
3622.543048,-10214.842000,-370.102971,0.000000
3622.543378,-10584.944971,-962.267725,-612.876398
3622.543708,-9918.759623,-1406.391290,-995.924147
3622.544038,-7179.997637,-1776.494261,-1991.848295
3622.544368,-5921.647536,-1184.329507,-306.438199
3622.544697,-7772.162391,74.020594,2834.553343
3622.545027,-10807.006753,1036.288319,4060.306139
3622.545357,-12213.398043,1850.514855,2145.067394
3622.545687,-11325.150913,1184.329507,-1532.190996
3622.546017,-10436.903782,370.102971,-2911.162892
3622.546347,-11029.068536,0.000000,-1685.410096
3622.546677,-11473.192101,-666.185348,0.000000
3622.547007,-9474.636058,-1184.329507,842.705048
3622.547337,-6883.915261,-1406.391290,76.609550
3622.547666,-6735.874072,-444.123565,459.657299
3622.547996,-9104.533087,740.205942,1302.362347
3622.548326,-11695.253884,1480.411884,1685.410096
3622.548656,-12139.377449,2072.576638,612.876398
3622.548986,-11177.109724,1776.494261,0.000000
3622.549316,-10436.903782,518.144159,0.000000
3622.549646,-11029.068536,-370.102971,0.000000
3622.549976,-11399.171507,-814.226536,-536.266849
3622.550306,-9474.636058,-888.247130,-1608.800546
3622.550635,-6883.915261,-1184.329507,-1302.362347
3622.550965,-6735.874072,-740.205942,1608.800546
3622.551295,-9104.533087,296.082377,3830.477490
3622.551625,-11769.274478,1332.370696,3983.696590
3622.551955,-11325.150913,1480.411884,1072.533697
3622.552285,-10584.944971,814.226536,-1762.019645
3622.552615,-10584.944971,148.041188,-2298.286494
3622.552945,-11399.171507,-592.164754,-229.828649
3622.553275,-10436.903782,-1036.288319,459.657299
3622.553604,-7920.203579,-1332.370696,153.219100
3622.553934,-6143.709319,-1184.329507,-459.657299
3622.554264,-7179.997637,-296.082377,536.266849
3622.554594,-10214.842000,962.267725,1225.752797
3622.554924,-12065.356855,1776.494261,1072.533697
3622.555254,-11399.171507,1628.453072,0.000000
3622.555584,-10288.862594,592.164754,-842.705048
3622.555914,-10066.800811,0.000000,0.000000
3622.556244,-10955.047942,-814.226536,0.000000
3622.556573,-10214.842000,-1258.350101,-842.705048
3622.556903,-7772.162391,-1702.473667,-1838.629195
3622.557233,-6143.709319,-1110.308913,-306.438199
3622.557563,-7254.018232,-296.082377,2604.724693
3622.557893,-10732.986159,962.267725,3294.210641
3622.558223,-12065.356855,1702.473667,2451.505594
3622.558553,-11621.233289,1554.432478,-689.485948
3622.558883,-10584.944971,222.061783,-2451.505594
3622.559213,-10807.006753,-222.061783,-1302.362347
3622.559542,-11547.212695,-1184.329507,153.219100
3622.559872,-9696.697840,-1406.391290,76.609550
3622.560202,-7105.977043,-1332.370696,0.000000
3622.560532,-6143.709319,-962.267725,76.609550
3622.560862,-8290.306550,148.041188,842.705048
3622.561192,-11769.274478,1406.391290,1378.971896
3622.561522,-12065.356855,1702.473667,383.047749
3622.561852,-10881.027347,888.247130,-229.828649
3622.562182,-10066.800811,296.082377,0.000000
3622.562512,-11177.109724,-740.205942,536.266849
3622.562841,-10807.006753,-1258.350101,0.000000
3622.563171,-8734.430116,-1850.514855,-1149.143247
3622.563501,-6439.791695,-1554.432478,-1225.752797
3622.563831,-6661.853478,-740.205942,1378.971896
3622.564161,-9326.594869,592.164754,3753.867940
3622.564491,-12139.377449,1702.473667,3753.867940
3622.564821,-12065.356855,1850.514855,536.266849
3622.565151,-10362.883188,888.247130,-2298.286494
3622.565481,-10362.883188,222.061783,-2374.896044
3622.565810,-10955.047942,-518.144159,-306.438199
3622.566140,-10584.944971,-888.247130,1072.533697
3622.566470,-7994.224174,-1480.411884,766.095498
3622.566800,-6513.812290,-962.267725,229.828649
3622.567130,-7476.080014,74.020594,612.876398
3622.567460,-10584.944971,1184.329507,1762.019645
3622.567790,-12657.521608,2072.576638,1225.752797
3622.568120,-11695.253884,1776.494261,459.657299
3622.568450,-9918.759623,592.164754,-459.657299
3622.568779,-10140.821405,0.000000,306.438199
3622.569109,-11325.150913,-222.061783,-306.438199
3622.569439,-10288.862594,-518.144159,-995.924147
3622.569769,-7698.141797,-740.205942,-2298.286494
3622.570099,-6513.812290,-370.102971,-995.924147
3622.570429,-8068.244768,444.123565,2451.505594
3622.570759,-10955.047942,1480.411884,3983.696590
3622.571089,-11843.295072,2146.597232,1991.848295
3622.571419,-10732.986159,1480.411884,-1225.752797
3622.571748,-9844.739029,518.144159,-2987.772442
3622.572078,-10732.986159,0.000000,-1915.238745
3622.572408,-11547.212695,-592.164754,306.438199
3622.572738,-9696.697840,-1110.308913,536.266849
3622.573068,-6957.935855,-1110.308913,-229.828649
3622.573398,-6291.750507,-666.185348,153.219100
3622.573728,-8364.327145,444.123565,766.095498
3622.574058,-11029.068536,1036.288319,1302.362347
3622.574388,-11695.253884,1480.411884,229.828649
3622.574717,-10288.862594,740.205942,-383.047749
3622.575047,-10140.821405,148.041188,-229.828649
3622.575377,-10732.986159,-592.164754,0.000000
3622.575707,-10881.027347,-962.267725,-536.266849
3622.576037,-8882.471304,-1554.432478,-1685.410096
3622.576367,-6217.729913,-1702.473667,-1915.238745
3622.576697,-6809.894666,-666.185348,689.485948
3622.577027,-9400.615463,444.123565,3753.867940
3622.577357,-11769.274478,1480.411884,3677.258390
3622.577686,-11695.253884,1850.514855,689.485948
3622.578016,-10584.944971,888.247130,-2298.286494
3622.578346,-10658.965565,222.061783,-1991.848295
3622.578676,-11473.192101,-666.185348,-229.828649
3622.579006,-10881.027347,-1036.288319,306.438199
3622.579336,-8438.347739,-1332.370696,0.000000
3622.579666,-6365.771101,-1036.288319,76.609550
3622.579996,-7698.141797,0.000000,766.095498
3622.580326,-10807.006753,962.267725,1685.410096
3622.580655,-12065.356855,1258.350101,1072.533697
3622.580985,-11103.089130,1258.350101,383.047749
3622.581315,-10214.842000,370.102971,0.000000
3622.581645,-10732.986159,0.000000,612.876398
3622.581975,-11103.089130,-444.123565,0.000000
3622.582305,-10362.883188,-666.185348,-1378.971896
3622.582635,-7698.141797,-1184.329507,-1991.848295
3622.582965,-6957.935855,-888.247130,-689.485948
3622.583295,-8068.244768,-222.061783,2451.505594
3622.583624,-10881.027347,740.205942,4136.915689
3622.583954,-11695.253884,1332.370696,2374.896044
3622.584284,-10658.965565,888.247130,-842.705048
3622.584614,-10066.800811,74.020594,-2451.505594
3622.584944,-10436.903782,-296.082377,-995.924147
3622.585274,-11177.109724,-1110.308913,306.438199
3622.585604,-9696.697840,-1554.432478,766.095498
3622.585934,-7105.977043,-1406.391290,153.219100
3622.586264,-6069.688724,-1258.350101,612.876398
3622.586594,-8364.327145,148.041188,1455.581446
3622.586923,-11325.150913,814.226536,1455.581446
3622.587253,-11843.295072,1554.432478,842.705048
3622.587583,-10510.924376,888.247130,-689.485948
3622.587913,-10066.800811,74.020594,-229.828649
3622.588243,-10881.027347,-592.164754,-536.266849
3622.588573,-11029.068536,-814.226536,-1072.533697
3622.588903,-9104.533087,-1258.350101,-2221.676944
3622.589233,-6809.894666,-1332.370696,-2145.067394
3622.589563,-6587.832884,-592.164754,766.095498
3622.589892,-9474.636058,666.185348,3600.648841
3622.590222,-11843.295072,1702.473667,3370.820191
3622.590552,-11695.253884,1406.391290,229.828649
3622.590882,-10584.944971,888.247130,-2374.896044
3622.591212,-10288.862594,0.000000,-2451.505594
3622.591542,-11325.150913,-814.226536,-919.314598
3622.591872,-10881.027347,-962.267725,0.000000
3622.592202,-8290.306550,-1554.432478,459.657299
3622.592532,-5995.668130,-1258.350101,229.828649
3622.592861,-6883.915261,0.000000,1149.143247
3622.593191,-10732.986159,1110.308913,2145.067394
3622.593521,-12657.521608,1776.494261,1225.752797
3622.593851,-11547.212695,1628.453072,76.609550
3622.594181,-10066.800811,666.185348,-229.828649
3622.594511,-10658.965565,296.082377,995.924147
3622.594841,-11769.274478,-518.144159,995.924147
3622.595171,-10436.903782,-740.205942,-766.095498
3622.595501,-7550.100608,-1036.288319,-2145.067394
3622.595830,-6069.688724,-814.226536,-459.657299
3622.596160,-7920.203579,740.205942,3294.210641
3622.596490,-10955.047942,1480.411884,4290.134789
3622.596820,-12213.398043,2072.576638,2757.943793
3622.597150,-10955.047942,1480.411884,-995.924147
3622.597480,-9992.780217,444.123565,-2221.676944
3622.597810,-10881.027347,0.000000,-919.314598
3622.598140,-11547.212695,-518.144159,842.705048
3622.598470,-9622.677246,-888.247130,1149.143247
3622.598799,-6587.832884,-962.267725,153.219100
3622.599129,-6291.750507,-370.102971,153.219100
3622.599459,-8882.471304,962.267725,1149.143247
3622.599789,-11843.295072,1776.494261,1991.848295
3622.600119,-11917.315666,2220.617826,612.876398
3622.600449,-10288.862594,1776.494261,-689.485948
3622.600779,-9770.718434,666.185348,-153.219100
3622.601109,-11251.130318,0.000000,459.657299
3622.601439,-11621.233289,0.000000,-383.047749
3622.601768,-8734.430116,-666.185348,-2298.286494
3622.602098,-6217.729913,-1184.329507,-1991.848295
3622.602428,-6809.894666,-370.102971,1302.362347
3622.602758,-9622.677246,814.226536,4366.744339
3622.603088,-11843.295072,1998.556043,4136.915689
3622.603418,-11251.130318,2146.597232,76.609550
3622.603748,-10658.965565,1110.308913,-2681.334243
3622.604078,-10955.047942,370.102971,-2374.896044
3622.604408,-11991.336260,-296.082377,-536.266849
3622.604737,-11029.068536,-1110.308913,153.219100
3622.605067,-7846.182985,-1554.432478,153.219100
3622.605397,-5995.668130,-1480.411884,-153.219100
3622.605727,-6957.935855,-740.205942,766.095498
3622.606057,-9844.739029,518.144159,2068.457845
3622.606387,-11547.212695,1184.329507,995.924147
3622.606717,-11251.130318,1258.350101,0.000000
3622.607047,-9992.780217,296.082377,-153.219100
3622.607377,-10807.006753,-148.041188,689.485948
3622.607706,-11843.295072,-888.247130,383.047749
3622.608036,-10436.903782,-1480.411884,-1149.143247
3622.608366,-7328.038826,-2072.576638,-2298.286494
3622.608696,-5699.585753,-1776.494261,-919.314598
3622.609026,-7994.224174,-296.082377,2374.896044
3622.609356,-10955.047942,592.164754,3677.258390
3622.609686,-11843.295072,1332.370696,1838.629195
3622.610016,-10807.006753,962.267725,-1838.629195
3622.610346,-9992.780217,296.082377,-3140.991542
3622.610676,-11177.109724,-444.123565,-1685.410096
3622.611005,-11621.233289,-1184.329507,-229.828649
3622.611335,-9474.636058,-1850.514855,0.000000
3622.611665,-6217.729913,-1850.514855,-766.095498
3622.611995,-6069.688724,-1258.350101,229.828649
3622.612325,-8956.491898,74.020594,1838.629195
3622.612655,-11843.295072,888.247130,1838.629195
3622.612985,-12065.356855,1258.350101,383.047749
3622.613315,-10732.986159,814.226536,-766.095498
3622.613645,-10658.965565,222.061783,0.000000
3622.613974,-11473.192101,-666.185348,383.047749
3622.614304,-11473.192101,-1036.288319,0.000000
3622.614634,-9104.533087,-1628.453072,-1838.629195
3622.614964,-6143.709319,-1776.494261,-1378.971896
3622.615294,-6365.771101,-1036.288319,919.314598
3622.615624,-9474.636058,296.082377,3830.477490
3622.615954,-11547.212695,1480.411884,3600.648841
3622.616284,-11547.212695,1554.432478,766.095498
3622.616614,-10436.903782,888.247130,-2068.457845
3622.616943,-10658.965565,0.000000,-1532.190996
3622.617273,-11991.336260,-962.267725,0.000000
3622.617603,-11177.109724,-1332.370696,536.266849
3622.617933,-8142.265362,-1924.535449,459.657299
3622.618263,-5625.565159,-1406.391290,229.828649
3622.618593,-6809.894666,0.000000,1225.752797
3622.618923,-9918.759623,1332.370696,1685.410096
3622.619253,-11991.336260,2072.576638,612.876398
3622.619583,-11325.150913,1776.494261,-919.314598
3622.619912,-10510.924376,962.267725,-306.438199
3622.620242,-10510.924376,518.144159,0.000000
3622.620572,-11473.192101,-518.144159,76.609550
3622.620902,-10214.842000,-740.205942,-689.485948
3622.621232,-7550.100608,-1258.350101,-2298.286494
3622.621562,-5403.503377,-1110.308913,-459.657299
3622.621891,-7476.080014,296.082377,2451.505594
3622.622221,-10881.027347,1702.473667,3830.477490
3622.622551,-12065.356855,2220.617826,2145.067394
3622.622881,-11325.150913,2072.576638,-1455.581446
3622.623211,-10362.883188,962.267725,-3064.381992
3622.623540,-11103.089130,296.082377,-1608.800546
3622.623870,-11399.171507,-296.082377,-306.438199
3622.624200,-9474.636058,-962.267725,459.657299
3622.624530,-6439.791695,-666.185348,612.876398
3622.624860,-5995.668130,-592.164754,459.657299
3622.625189,-8808.450710,888.247130,1378.971896
3622.625519,-11843.295072,1628.453072,1378.971896
3622.625849,-12065.356855,2220.617826,153.219100
3622.626179,-10436.903782,1036.288319,-383.047749
3622.626509,-10214.842000,444.123565,383.047749
3622.626838,-10807.006753,-370.102971,1225.752797
3622.627168,-11251.130318,-814.226536,76.609550
3622.627498,-8956.491898,-1332.370696,-1302.362347
3622.627828,-5921.647536,-1776.494261,-1455.581446
3622.628158,-6291.750507,-666.185348,995.924147
3622.628487,-9326.594869,1110.308913,3753.867940
3622.628817,-11621.233289,1776.494261,3294.210641
3622.629147,-11695.253884,2220.617826,306.438199
3622.629477,-10732.986159,1184.329507,-2451.505594
3622.629807,-10807.006753,592.164754,-2528.115143
3622.630136,-11473.192101,-444.123565,-459.657299
3622.630466,-10955.047942,-1036.288319,842.705048
3622.630796,-7772.162391,-1480.411884,919.314598
3622.631126,-5625.565159,-1628.453072,995.924147
3622.631456,-7105.977043,-370.102971,1762.019645
3622.631785,-11029.068536,1110.308913,2451.505594
3622.632115,-12657.521608,1702.473667,2298.286494
3622.632445,-11843.295072,1628.453072,842.705048
3622.632775,-10732.986159,666.185348,383.047749
3622.633105,-11399.171507,222.061783,459.657299
3622.633434,-11991.336260,-592.164754,536.266849
3622.633764,-10066.800811,-1480.411884,-1608.800546
3622.634094,-6587.832884,-1776.494261,-2374.896044
3622.634424,-4959.379811,-1110.308913,-842.705048
3622.634754,-7994.224174,222.061783,2604.724693
3622.635083,-11251.130318,1554.432478,3524.039291
3622.635413,-11991.336260,1924.535449,1072.533697
3622.635743,-11103.089130,1554.432478,-1838.629195
3622.636073,-10584.944971,370.102971,-2834.553343
3622.636403,-11473.192101,-222.061783,-1225.752797
3622.636732,-11251.130318,-1258.350101,0.000000
3622.637062,-8882.471304,-1924.535449,306.438199
3622.637392,-6069.688724,-1776.494261,-76.609550
3622.637722,-5847.626942,-1184.329507,689.485948
3622.638052,-9030.512492,222.061783,1608.800546
3622.638381,-11843.295072,1258.350101,1685.410096
3622.638711,-11843.295072,1702.473667,459.657299
3622.639041,-10436.903782,592.164754,-995.924147
3622.639371,-10510.924376,0.000000,-612.876398
3622.639701,-11251.130318,-370.102971,306.438199
3622.640030,-10436.903782,-1110.308913,-612.876398
3622.640360,-7994.224174,-1776.494261,-1991.848295
3622.640690,-5847.626942,-1628.453072,-1762.019645
3622.641020,-6587.832884,-592.164754,1455.581446
3622.641349,-9918.759623,814.226536,3600.648841
3622.641679,-12139.377449,2072.576638,2681.334243
3622.642009,-11695.253884,1554.432478,-612.876398
3622.642339,-10510.924376,962.267725,-2757.943793
3622.642669,-10807.006753,74.020594,-2451.505594
3622.642998,-11473.192101,-666.185348,-995.924147
3622.643328,-10362.883188,-1406.391290,459.657299
3622.643658,-7105.977043,-1850.514855,0.000000
3622.643988,-5551.544565,-1702.473667,76.609550
3622.644318,-6587.832884,0.000000,1302.362347
3622.644647,-10288.862594,888.247130,2068.457845
3622.644977,-11991.336260,1628.453072,995.924147
3622.645307,-11769.274478,1554.432478,-229.828649
3622.645637,-10881.027347,1258.350101,-306.438199
3622.645967,-11251.130318,0.000000,383.047749
3622.646296,-11843.295072,-814.226536,612.876398
3622.646626,-9622.677246,-962.267725,-536.266849
3622.646956,-6957.935855,-1480.411884,-1991.848295
3622.647286,-5995.668130,-740.205942,-306.438199
3622.647616,-8068.244768,444.123565,2298.286494
3622.647945,-11325.150913,1628.453072,3447.429741
3622.648275,-11991.336260,2220.617826,995.924147
3622.648605,-11029.068536,1332.370696,-1685.410096
3622.648935,-10584.944971,444.123565,-2451.505594
3622.649265,-11251.130318,-444.123565,-919.314598
3622.649594,-10955.047942,-1110.308913,383.047749
3622.649924,-8438.347739,-1628.453072,919.314598
3622.650254,-5847.626942,-1702.473667,1149.143247
3622.650584,-6217.729913,-592.164754,1455.581446
3622.650914,-9030.512492,1036.288319,2604.724693
3622.651243,-11843.295072,1776.494261,1455.581446
3622.651573,-12139.377449,1998.556043,0.000000
3622.651903,-10881.027347,1110.308913,-995.924147
3622.652233,-10584.944971,222.061783,0.000000
3622.652563,-11473.192101,-148.041188,612.876398
3622.652892,-10362.883188,-740.205942,-229.828649
3622.653222,-8290.306550,-1332.370696,-1838.629195
3622.653552,-6069.688724,-1406.391290,-1378.971896
3622.653882,-6735.874072,0.000000,1225.752797
3622.654212,-9548.656652,1776.494261,2604.724693
3622.654541,-12213.398043,2294.638420,2451.505594
3622.654871,-11917.315666,2294.638420,-306.438199
3622.655201,-10807.006753,1036.288319,-2757.943793
3622.655531,-10955.047942,592.164754,-2604.724693
3622.655861,-11547.212695,-814.226536,-612.876398
3622.656190,-10066.800811,-1332.370696,536.266849
3622.656520,-7031.956449,-1776.494261,919.314598
3622.656850,-5329.482782,-1554.432478,919.314598
3622.657180,-7846.182985,0.000000,1455.581446
3622.657510,-10732.986159,1406.391290,1838.629195
3622.657839,-12731.542202,2220.617826,1072.533697
3622.658169,-11843.295072,1776.494261,0.000000
3622.658499,-10732.986159,740.205942,-306.438199
3622.658829,-10881.027347,148.041188,842.705048
3622.659159,-11103.089130,-888.247130,76.609550
3622.659488,-9770.718434,-1258.350101,-842.705048
3622.659818,-6661.853478,-1628.453072,-612.876398
3622.660148,-5847.626942,-814.226536,76.609550
3622.660478,-8438.347739,518.144159,3600.648841
3622.660808,-11547.212695,1702.473667,4213.525239
3622.661137,-12361.439231,2220.617826,2221.676944
3622.661467,-10955.047942,1702.473667,-1302.362347
3622.661797,-10436.903782,296.082377,-2145.067394
3622.662127,-11103.089130,-444.123565,-612.876398
3622.662457,-11325.150913,-1110.308913,995.924147
3622.662786,-9030.512492,-1554.432478,1149.143247
3622.663116,-5773.606348,-1628.453072,229.828649
3622.663446,-5699.585753,-74.020594,1302.362347
3622.663776,-9252.574275,1110.308913,1838.629195
3622.664106,-12139.377449,1702.473667,1915.238745
3622.664435,-11843.295072,2294.638420,0.000000
3622.664765,-10955.047942,1258.350101,-689.485948
3622.665095,-10584.944971,518.144159,0.000000
3622.665425,-11621.233289,-592.164754,612.876398
3622.665755,-11251.130318,-888.247130,-306.438199
3622.666084,-7772.162391,-1554.432478,-1455.581446
3622.666414,-5699.585753,-1554.432478,-1532.190996
3622.666744,-6883.915261,-518.144159,1455.581446
3622.667074,-10140.821405,1480.411884,4290.134789
3622.667404,-12139.377449,2146.597232,2911.162892
3622.667733,-11695.253884,2072.576638,-689.485948
3622.668063,-10510.924376,592.164754,-3524.039291
3622.668393,-11399.171507,222.061783,-3140.991542
3622.668723,-11399.171507,-1036.288319,-1455.581446
3622.669053,-9622.677246,-1628.453072,0.000000
3622.669382,-6883.915261,-1776.494261,76.609550
3622.669712,-5403.503377,-1554.432478,76.609550
3622.670042,-7476.080014,0.000000,1455.581446
3622.670372,-11547.212695,1406.391290,1608.800546
3622.670702,-12731.542202,1998.556043,842.705048
3622.671031,-11769.274478,1628.453072,-383.047749
3622.671361,-10436.903782,518.144159,-536.266849
3622.671691,-10955.047942,-222.061783,229.828649
3622.672021,-11103.089130,-1184.329507,153.219100
3622.672351,-9104.533087,-2146.597232,-1378.971896
3622.672680,-6809.894666,-1776.494261,-1838.629195
3622.673010,-6069.688724,-1184.329507,0.000000
3622.673340,-8364.327145,0.000000,3370.820191
3622.673670,-11769.274478,1406.391290,4366.744339
3622.674000,-12139.377449,2072.576638,1532.190996
3622.674329,-11325.150913,1036.288319,-1838.629195
3622.674659,-10584.944971,0.000000,-2757.943793
3622.674989,-11103.089130,-1110.308913,-995.924147
3622.675319,-10807.006753,-1554.432478,229.828649
3622.675649,-7920.203579,-1924.535449,612.876398
3622.675978,-5921.647536,-1850.514855,76.609550
3622.676308,-6291.750507,-444.123565,1072.533697
3622.676638,-9622.677246,814.226536,1915.238745
3622.676968,-12213.398043,1628.453072,1302.362347
3622.677297,-12065.356855,1850.514855,0.000000
3622.677627,-10955.047942,740.205942,-689.485948
3622.677957,-10584.944971,-296.082377,0.000000
3622.678287,-11325.150913,-1332.370696,919.314598
3622.678617,-10658.965565,-1554.432478,0.000000
3622.678946,-7476.080014,-1998.556043,-1378.971896
3622.679276,-5847.626942,-1628.453072,-842.705048
3622.679606,-7105.977043,0.000000,1838.629195
3622.679936,-10436.903782,1480.411884,4213.525239
3622.680266,-12361.439231,2442.679609,2528.115143
3622.680595,-11695.253884,1924.535449,-842.705048
3622.680925,-10658.965565,1036.288319,-3294.210641
3622.681255,-10732.986159,0.000000,-2451.505594
3622.681585,-11399.171507,-1184.329507,-689.485948
3622.681915,-9770.718434,-1702.473667,459.657299
3622.682244,-6735.874072,-1554.432478,229.828649
3622.682574,-5699.585753,-1110.308913,1072.533697
3622.682904,-7550.100608,518.144159,1685.410096
3622.683234,-11399.171507,1776.494261,2221.676944
3622.683564,-12879.583391,2294.638420,536.266849
3622.683893,-11399.171507,1554.432478,0.000000
3622.684223,-10214.842000,444.123565,-229.828649
3622.684553,-10732.986159,-148.041188,842.705048
3622.684883,-11103.089130,-1110.308913,459.657299
3622.685213,-9400.615463,-1258.350101,-1072.533697
3622.685542,-6735.874072,-1406.391290,-1532.190996
3622.685872,-6217.729913,-592.164754,0.000000
3622.686202,-8808.450710,666.185348,3370.820191
3622.686532,-12213.398043,1924.535449,3983.696590
3622.686862,-12509.480420,2368.659014,1378.971896
3622.687191,-10732.986159,1184.329507,-2451.505594
3622.687521,-9844.739029,74.020594,-3064.381992
3622.687851,-10881.027347,-666.185348,-1608.800546
3622.688181,-11251.130318,-962.267725,995.924147
3622.688511,-8216.285956,-1628.453072,919.314598
3622.688840,-5551.544565,-1184.329507,383.047749
3622.689170,-6217.729913,-296.082377,1072.533697
3622.689500,-9696.697840,962.267725,2068.457845
3622.689830,-12731.542202,1924.535449,1302.362347
3622.690160,-11917.315666,1628.453072,-76.609550
3622.690489,-9992.780217,592.164754,-766.095498
3622.690819,-9844.739029,0.000000,0.000000
3622.691149,-10732.986159,-592.164754,612.876398
3622.691479,-10066.800811,-962.267725,-612.876398
3622.691809,-7624.121203,-1036.288319,-2145.067394
3622.692138,-6143.709319,-592.164754,-919.314598
3622.692468,-7846.182985,1184.329507,2374.896044
3622.692798,-11103.089130,1628.453072,4366.744339
3622.693128,-12583.501014,2220.617826,2911.162892
3622.693458,-11991.336260,1998.556043,-689.485948
3622.693787,-10658.965565,518.144159,-2451.505594
3622.694117,-11103.089130,-74.020594,-1991.848295
3622.694447,-11103.089130,-814.226536,153.219100
3622.694777,-9326.594869,-1406.391290,842.705048
3622.695107,-6957.935855,-1258.350101,153.219100
3622.695436,-6143.709319,-962.267725,1225.752797
3622.695766,-8660.409521,444.123565,2298.286494
3622.696096,-11769.274478,1406.391290,2757.943793
3622.696426,-12435.459826,1924.535449,995.924147
3622.696756,-11251.130318,888.247130,0.000000
3622.697085,-10362.883188,148.041188,0.000000
3622.697415,-10807.006753,-592.164754,1149.143247
3622.697745,-11103.089130,-1332.370696,383.047749
3622.698075,-9326.594869,-740.205942,-842.705048
3622.698405,-6587.832884,-1406.391290,-1838.629195
3622.698734,-6143.709319,-814.226536,76.609550
3622.699064,-9030.512492,1036.288319,3140.991542
3622.699394,-11917.315666,1628.453072,3524.039291
3622.699724,-11917.315666,1628.453072,995.924147
3622.700054,-10732.986159,592.164754,-2374.896044
3622.700383,-10362.883188,0.000000,-2834.553343
3622.700713,-11325.150913,-962.267725,-1378.971896
3622.701043,-10362.883188,-1554.432478,153.219100
3622.701373,-8142.265362,-1850.514855,-76.609550
3622.701703,-5699.585753,-1776.494261,0.000000
3622.702032,-6661.853478,-592.164754,1225.752797
3622.702362,-9918.759623,1110.308913,2145.067394
3622.702692,-11991.336260,1332.370696,1225.752797
3622.703022,-11769.274478,1628.453072,-383.047749
3622.703352,-10658.965565,592.164754,-1072.533697
3622.703681,-10436.903782,0.000000,306.438199
3622.704011,-11251.130318,-666.185348,689.485948
3622.704341,-10362.883188,-1110.308913,-1072.533697
3622.704671,-7920.203579,-1036.288319,-2451.505594
3622.705001,-6291.750507,-1184.329507,-1455.581446
3622.705330,-7698.141797,296.082377,1685.410096
3622.705660,-11103.089130,1628.453072,3370.820191
3622.705990,-12287.418637,1998.556043,2451.505594
3622.706320,-11325.150913,1776.494261,-1302.362347
3622.706650,-9770.718434,666.185348,-2757.943793
3622.706979,-10436.903782,0.000000,-1532.190996
3622.707309,-11103.089130,-814.226536,76.609550
3622.707639,-9844.739029,-1258.350101,1072.533697
3622.707969,-7179.997637,-1480.411884,842.705048
3622.708299,-6291.750507,-962.267725,1378.971896
3622.708628,-8438.347739,222.061783,2374.896044
3622.708958,-11325.150913,1036.288319,2145.067394
3622.709288,-12139.377449,1850.514855,612.876398
3622.709618,-10584.944971,1184.329507,0.000000
3622.709948,-9844.739029,592.164754,0.000000
3622.710277,-10288.862594,0.000000,842.705048
3622.710607,-10881.027347,-740.205942,306.438199
3622.710937,-9548.656652,-814.226536,-1915.238745
3622.711267,-7179.997637,-1036.288319,-2221.676944
3622.711597,-6883.915261,-666.185348,-383.047749
3622.711926,-9104.533087,444.123565,2911.162892
3622.712256,-11399.171507,1702.473667,3447.429741
3622.712586,-11917.315666,2072.576638,1072.533697
3622.712916,-10288.862594,888.247130,-2298.286494
3622.713245,-9918.759623,222.061783,-2987.772442
3622.713575,-10955.047942,-518.144159,-1455.581446
3622.713905,-11177.109724,-1110.308913,229.828649
3622.714235,-8660.409521,-1332.370696,459.657299
3622.714565,-6069.688724,-1554.432478,306.438199
3622.714894,-6217.729913,-444.123565,689.485948
3622.715224,-9178.553681,888.247130,1072.533697
3622.715554,-12287.418637,1480.411884,842.705048
3622.715884,-11991.336260,1628.453072,-383.047749
3622.716214,-10584.944971,666.185348,-1149.143247
3622.716543,-10510.924376,518.144159,-689.485948
3622.716873,-11251.130318,-740.205942,842.705048
3622.717203,-10510.924376,-1110.308913,-459.657299
3622.717533,-7920.203579,-1480.411884,-1608.800546
3622.717863,-6069.688724,-814.226536,-1149.143247
3622.718192,-7402.059420,0.000000,1838.629195
3622.718522,-11177.109724,1184.329507,4213.525239
3622.718852,-12287.418637,1554.432478,2911.162892
3622.719182,-11399.171507,1258.350101,-536.266849
3622.719512,-10214.842000,222.061783,-2451.505594
3622.719841,-10510.924376,-592.164754,-1838.629195
3622.720171,-11399.171507,-1258.350101,229.828649
3622.720501,-9770.718434,-1480.411884,842.705048
3622.720831,-7031.956449,-1480.411884,612.876398
3622.721161,-6143.709319,-962.267725,76.609550
3622.721491,-8216.285956,0.000000,1532.190996
3622.721820,-11325.150913,962.267725,2145.067394
3622.722150,-12213.398043,2072.576638,1608.800546
3622.722480,-10658.965565,962.267725,0.000000
3622.722810,-9770.718434,74.020594,-306.438199
3622.723140,-10658.965565,-148.041188,689.485948
3622.723470,-11251.130318,-592.164754,536.266849
3622.723799,-9474.636058,-1184.329507,-1455.581446
3622.724129,-7105.977043,-1110.308913,-2145.067394
3622.724459,-6809.894666,-518.144159,383.047749
3622.724789,-9104.533087,1110.308913,3064.381992
3622.725119,-11547.212695,1702.473667,4213.525239
3622.725448,-11917.315666,2220.617826,842.705048
3622.725778,-10436.903782,1554.432478,-2451.505594
3622.726108,-10214.842000,962.267725,-2681.334243
3622.726438,-11251.130318,0.000000,-612.876398
3622.726768,-11251.130318,-370.102971,766.095498
3622.727098,-8586.388927,-888.247130,229.828649
3622.727427,-5995.668130,-1184.329507,-306.438199
3622.727757,-6957.935855,-222.061783,919.314598
3622.728087,-10214.842000,1332.370696,2221.676944
3622.728417,-11917.315666,1702.473667,1991.848295
3622.728747,-11399.171507,1850.514855,153.219100
3622.729077,-10214.842000,888.247130,-536.266849
3622.729406,-9992.780217,296.082377,842.705048
3622.729736,-11621.233289,-74.020594,995.924147
3622.730066,-10955.047942,-592.164754,-459.657299
3622.730396,-8142.265362,-1110.308913,-1762.019645
3622.730726,-5847.626942,-1110.308913,-1149.143247
3622.731055,-7624.121203,-222.061783,1532.190996
3622.731385,-10807.006753,1184.329507,3830.477490
3622.731715,-11991.336260,1924.535449,2451.505594
3622.732045,-10955.047942,1702.473667,-1072.533697
3622.732375,-9992.780217,740.205942,-2681.334243
3622.732705,-11547.212695,296.082377,-2068.457845
3622.733034,-12287.418637,-592.164754,0.000000
3622.733364,-10658.965565,-1258.350101,0.000000
3622.733694,-7031.956449,-1850.514855,-306.438199
3622.734024,-5699.585753,-1258.350101,0.000000
3622.734354,-7402.059420,-592.164754,1685.410096
3622.734684,-10510.924376,518.144159,2068.457845
3622.735013,-11917.315666,1332.370696,0.000000
3622.735343,-10881.027347,740.205942,-766.095498
3622.735673,-10066.800811,444.123565,0.000000
3622.736003,-10955.047942,-592.164754,919.314598
3622.736333,-11251.130318,-518.144159,0.000000
3622.736662,-9400.615463,-1332.370696,-1225.752797
3622.736992,-6809.894666,-1406.391290,-2221.676944
3622.737322,-6661.853478,-1036.288319,-153.219100
3622.737652,-9400.615463,148.041188,2911.162892
3622.737982,-11843.295072,1554.432478,3140.991542
3622.738312,-11399.171507,1406.391290,536.266849
3622.738641,-9918.759623,888.247130,-2374.896044
3622.738971,-9770.718434,296.082377,-2604.724693
3622.739301,-11325.150913,222.061783,-1608.800546
3622.739631,-11473.192101,-740.205942,-306.438199
3622.739961,-9030.512492,-1332.370696,-153.219100
3622.740291,-6587.832884,-1480.411884,153.219100
3622.740620,-7105.977043,-740.205942,689.485948
3622.740950,-10066.800811,370.102971,1608.800546
3622.741280,-11547.212695,888.247130,1378.971896
3622.741610,-11029.068536,962.267725,383.047749
3622.741940,-9548.656652,74.020594,306.438199
3622.742269,-10288.862594,296.082377,1149.143247
3622.742599,-11547.212695,-296.082377,919.314598
3622.742929,-11029.068536,-518.144159,-383.047749
3622.743259,-8438.347739,-1258.350101,-2298.286494
3622.743589,-6809.894666,-1184.329507,-1685.410096
3622.743919,-7624.121203,-518.144159,1455.581446
3622.744248,-9992.780217,592.164754,4366.744339
3622.744578,-11325.150913,1480.411884,2604.724693
3622.744908,-10214.842000,1332.370696,-536.266849
3622.745238,-10214.842000,814.226536,-2451.505594
3622.745568,-11251.130318,444.123565,-1838.629195
3622.745898,-11917.315666,-444.123565,-536.266849
3622.746227,-10066.800811,-1110.308913,229.828649
3622.746557,-7254.018232,-1406.391290,-229.828649
3622.746887,-5847.626942,-1036.288319,153.219100
3622.747217,-8142.265362,0.000000,1149.143247
3622.747547,-11029.068536,444.123565,1149.143247
3622.747876,-11325.150913,1184.329507,0.000000
3622.748206,-10288.862594,1036.288319,-766.095498
3622.748536,-9918.759623,518.144159,0.000000
3622.748866,-10658.965565,0.000000,995.924147
3622.749196,-10955.047942,-592.164754,689.485948
3622.749526,-9770.718434,-888.247130,-1685.410096
3622.749855,-7328.038826,-1184.329507,-2145.067394
3622.750185,-7105.977043,-962.267725,153.219100
3622.750515,-8364.327145,222.061783,3064.381992
3622.750845,-11251.130318,1406.391290,3370.820191
3622.751175,-11695.253884,1776.494261,995.924147
3622.751505,-10510.924376,1184.329507,-2528.115143
3622.751834,-10584.944971,296.082377,-2757.943793
3622.752164,-11399.171507,-370.102971,-1302.362347
3622.752494,-11177.109724,-666.185348,536.266849
3622.752824,-8660.409521,-888.247130,842.705048
3622.753154,-6143.709319,-1184.329507,153.219100
3622.753483,-6439.791695,-888.247130,689.485948
3622.753813,-9548.656652,296.082377,1762.019645
3622.754143,-11917.315666,1258.350101,1378.971896
3622.754473,-11769.274478,1702.473667,689.485948
3622.754803,-9770.718434,962.267725,153.219100
3622.755133,-10214.842000,370.102971,1225.752797
3622.755462,-11769.274478,0.000000,1302.362347
3622.755792,-11473.192101,-148.041188,-689.485948
3622.756122,-8882.471304,-962.267725,-2757.943793
3622.756452,-6587.832884,-1332.370696,-1072.533697
3622.756782,-7179.997637,-592.164754,2834.553343
3622.757111,-9992.780217,814.226536,4749.792088
3622.757441,-11769.274478,1850.514855,2757.943793
3622.757771,-10807.006753,1998.556043,-1302.362347
3622.758101,-9918.759623,1184.329507,-2604.724693
3622.758431,-10881.027347,370.102971,-1838.629195
3622.758761,-12139.377449,0.000000,459.657299
3622.759090,-10584.944971,-370.102971,1072.533697
3622.759420,-7179.997637,-1258.350101,612.876398
3622.759750,-5921.647536,-1110.308913,306.438199
3622.760080,-7920.203579,74.020594,1225.752797
3622.760410,-10955.047942,1184.329507,1225.752797
3622.760740,-11547.212695,1850.514855,1149.143247
3622.761069,-10658.965565,1850.514855,153.219100
3622.761399,-9918.759623,962.267725,306.438199
3622.761729,-11399.171507,444.123565,306.438199
3622.762059,-11917.315666,0.000000,76.609550
3622.762389,-9622.677246,-1036.288319,-1762.019645
3622.762718,-6513.812290,-1406.391290,-2451.505594
3622.763048,-6217.729913,-814.226536,153.219100
3622.763378,-8956.491898,666.185348,3140.991542
3622.763708,-11547.212695,1406.391290,3600.648841
3622.764038,-11399.171507,1702.473667,76.609550
3622.764368,-10436.903782,814.226536,-2987.772442
3622.764697,-10214.842000,370.102971,-3370.820191
3622.765027,-11843.295072,0.000000,-536.266849
3622.765357,-11399.171507,-444.123565,536.266849
3622.765687,-8512.368333,-1184.329507,229.828649
3622.766017,-6069.688724,-1332.370696,153.219100
3622.766347,-6957.935855,-814.226536,306.438199
3622.766676,-10140.821405,444.123565,1225.752797
3622.767006,-11991.336260,1184.329507,919.314598
3622.767336,-11103.089130,1184.329507,-229.828649
3622.767666,-9844.739029,592.164754,-1225.752797
3622.767996,-10288.862594,0.000000,383.047749
3622.768325,-11843.295072,-518.144159,689.485948
3622.768655,-10955.047942,-1036.288319,-383.047749
3622.768985,-8216.285956,-1480.411884,-2145.067394
3622.769315,-6365.771101,-1258.350101,-612.876398
3622.769645,-7698.141797,-444.123565,2451.505594
3622.769975,-10955.047942,814.226536,4136.915689
3622.770304,-12065.356855,1998.556043,2374.896044
3622.770634,-10955.047942,1554.432478,-1455.581446
3622.770964,-10510.924376,814.226536,-3447.429741
3622.771294,-10955.047942,0.000000,-2298.286494
3622.771624,-11917.315666,-592.164754,153.219100
3622.771954,-9992.780217,-1406.391290,383.047749
3622.772283,-6809.894666,-1702.473667,0.000000
3622.772613,-5773.606348,-1480.411884,153.219100
3622.772943,-8068.244768,0.000000,1685.410096
3622.773273,-11103.089130,962.267725,1762.019645
3622.773603,-12139.377449,1924.535449,1302.362347
3622.773932,-10362.883188,666.185348,0.000000
3622.774262,-10066.800811,148.041188,306.438199
3622.774592,-11695.253884,-296.082377,919.314598
3622.774922,-11843.295072,-962.267725,229.828649
3622.775252,-9474.636058,-1480.411884,-1378.971896
3622.775582,-6661.853478,-1628.453072,-1608.800546
3622.775911,-6735.874072,-1036.288319,1072.533697
3622.776241,-9178.553681,370.102971,3753.867940
3622.776571,-11843.295072,1628.453072,3753.867940
3622.776901,-11843.295072,1924.535449,306.438199
3622.777231,-10658.965565,1184.329507,-2681.334243
3622.777561,-10881.027347,148.041188,-2374.896044
3622.777890,-11843.295072,0.000000,0.000000
3622.778220,-11251.130318,-1406.391290,1225.752797
3622.778550,-8216.285956,-1628.453072,536.266849
3622.778880,-5699.585753,-1776.494261,153.219100
3622.779210,-6217.729913,-740.205942,1149.143247
3622.779539,-9622.677246,814.226536,1762.019645
3622.779869,-11843.295072,1480.411884,1149.143247
3622.780199,-11177.109724,1480.411884,-306.438199
3622.780529,-9770.718434,814.226536,-766.095498
3622.780859,-10732.986159,444.123565,383.047749
3622.781189,-11917.315666,-592.164754,612.876398
3622.781518,-10881.027347,-888.247130,-1225.752797
3622.781848,-8068.244768,-1258.350101,-2374.896044
3622.782178,-6069.688724,-1332.370696,-1072.533697
3622.782508,-7698.141797,0.000000,1991.848295
3622.782838,-10955.047942,1332.370696,3907.087040
3622.783168,-11917.315666,2072.576638,2298.286494
3622.783497,-11251.130318,1628.453072,-919.314598
3622.783827,-10288.862594,1110.308913,-2834.553343
3622.784157,-10955.047942,74.020594,-1455.581446
3622.784487,-11769.274478,-518.144159,459.657299
3622.784817,-9918.759623,-1184.329507,612.876398
3622.785146,-6809.894666,-1554.432478,76.609550
3622.785476,-5625.565159,-1036.288319,459.657299
3622.785806,-8142.265362,148.041188,1838.629195
3622.786136,-11473.192101,1258.350101,2145.067394
3622.786466,-12287.418637,1702.473667,1149.143247
3622.786796,-10584.944971,1332.370696,-306.438199
3622.787125,-9992.780217,296.082377,153.219100
3622.787455,-11251.130318,0.000000,1149.143247
3622.787785,-11473.192101,-592.164754,919.314598
3622.788115,-9326.594869,-1184.329507,-766.095498
3622.788445,-6439.791695,-1332.370696,-1532.190996
3622.788775,-6217.729913,-518.144159,1072.533697
3622.789104,-9178.553681,814.226536,4290.134789
3622.789434,-11843.295072,1998.556043,3524.039291
3622.789764,-11769.274478,2294.638420,536.266849
3622.790094,-10584.944971,1702.473667,-2374.896044
3622.790424,-10732.986159,592.164754,-2374.896044
3622.790753,-11917.315666,0.000000,0.000000
3622.791083,-11399.171507,-888.247130,306.438199
3622.791413,-8216.285956,-1628.453072,536.266849
3622.791743,-5625.565159,-1258.350101,0.000000
3622.792073,-7105.977043,0.000000,1378.971896
3622.792403,-9992.780217,888.247130,1915.238745
3622.792732,-12139.377449,1776.494261,1455.581446
3622.793062,-11177.109724,1480.411884,-76.609550
3622.793392,-10732.986159,962.267725,0.000000
3622.793722,-10807.006753,74.020594,689.485948
3622.794052,-11695.253884,-888.247130,1378.971896
3622.794382,-10658.965565,-1110.308913,-383.047749
3622.794711,-7476.080014,-1702.473667,-2451.505594
3622.795041,-5847.626942,-1332.370696,-1455.581446
3622.795371,-7476.080014,-370.102971,1685.410096
3622.795701,-10362.883188,1332.370696,4060.306139
3622.796031,-11843.295072,2146.597232,2145.067394
3622.796360,-11251.130318,1554.432478,-1455.581446
3622.796690,-10881.027347,666.185348,-3217.601092
3622.797020,-11843.295072,0.000000,-1991.848295
3622.797350,-12139.377449,-962.267725,-76.609550
3622.797680,-9918.759623,-1554.432478,0.000000
3622.798010,-6291.750507,-1998.556043,-306.438199
3622.798339,-5255.462188,-1480.411884,459.657299
3622.798669,-7994.224174,74.020594,1915.238745
3622.798999,-11473.192101,888.247130,1608.800546
3622.799329,-11991.336260,1628.453072,306.438199
3622.799659,-11177.109724,1184.329507,-153.219100
3622.799989,-10436.903782,74.020594,153.219100
3622.800318,-11399.171507,-222.061783,842.705048
3622.800648,-11177.109724,-1258.350101,229.828649
3622.800978,-9252.574275,-1480.411884,-1838.629195
3622.801308,-6365.771101,-1554.432478,-2298.286494
3622.801638,-6439.791695,-666.185348,459.657299
3622.801967,-9104.533087,888.247130,3524.039291
3622.802297,-12287.418637,2294.638420,3294.210641
3622.802627,-11843.295072,2146.597232,229.828649
3622.802957,-10955.047942,1406.391290,-2528.115143
3622.803287,-10658.965565,-148.041188,-2298.286494
3622.803617,-11621.233289,-814.226536,-612.876398
3622.803946,-10584.944971,-1480.411884,689.485948
3622.804276,-7698.141797,-1850.514855,459.657299
3622.804606,-5403.503377,-1554.432478,153.219100
3622.804936,-6513.812290,-740.205942,1378.971896
3622.805266,-10362.883188,1110.308913,2068.457845
3622.805595,-12435.459826,1924.535449,1302.362347
3622.805925,-11621.233289,1628.453072,-383.047749
3622.806255,-9992.780217,592.164754,-383.047749
3622.806585,-10658.965565,-74.020594,383.047749
3622.806915,-11399.171507,-444.123565,766.095498
3622.807245,-9992.780217,-1332.370696,-383.047749
3622.807574,-7550.100608,-1258.350101,-1378.971896
3622.807904,-5995.668130,-962.267725,-842.705048
3622.808234,-7846.182985,148.041188,2528.115143
3622.808564,-11399.171507,1776.494261,3753.867940
3622.808894,-12805.562797,2294.638420,2068.457845
3622.809224,-11769.274478,1628.453072,-1225.752797
3622.809553,-10362.883188,370.102971,-2757.943793
3622.809883,-11029.068536,-296.082377,-1838.629195
3622.810213,-11103.089130,-1036.288319,306.438199
3622.810543,-9770.718434,-1776.494261,536.266849
3622.810873,-6291.750507,-1332.370696,0.000000
3622.811202,-5847.626942,-888.247130,306.438199
3622.811532,-8660.409521,592.164754,1685.410096
3622.811862,-12213.398043,1184.329507,2068.457845
3622.812192,-12731.542202,1702.473667,229.828649
3622.812522,-11251.130318,888.247130,-842.705048
3622.812852,-10362.883188,74.020594,-383.047749
3622.813181,-10881.027347,-888.247130,689.485948
3622.813511,-11103.089130,-1332.370696,0.000000
3622.813841,-8734.430116,-1924.535449,-1455.581446
3622.814171,-5995.668130,-1776.494261,-1608.800546
3622.814501,-6439.791695,-740.205942,842.705048
3622.814831,-9474.636058,666.185348,3907.087040
3622.815160,-12509.480420,2146.597232,3447.429741
3622.815490,-12287.418637,1998.556043,306.438199
3622.815820,-10807.006753,888.247130,-3064.381992
3622.816150,-10288.862594,-370.102971,-3217.601092
3622.816480,-11547.212695,-962.267725,-1302.362347
3622.816809,-10807.006753,-1554.432478,153.219100
3622.817139,-7105.977043,-1480.411884,76.609550
3622.817469,-5181.441594,-1628.453072,383.047749
3622.817799,-6809.894666,0.000000,995.924147
3622.818129,-10807.006753,1480.411884,1455.581446
3622.818459,-12509.480420,1924.535449,612.876398
3622.818788,-11769.274478,1628.453072,-459.657299
3622.819118,-10140.821405,518.144159,-689.485948
3622.819448,-10584.944971,0.000000,766.095498
3622.819778,-11325.150913,-814.226536,919.314598
3622.820108,-10362.883188,-814.226536,-459.657299
3622.820438,-7031.956449,-1036.288319,-1838.629195
3622.820768,-5773.606348,-666.185348,-383.047749
3622.821098,-8216.285956,888.247130,3140.991542
3622.821427,-11325.150913,2146.597232,4443.353888
3622.821757,-12657.521608,2664.741391,2987.772442
3622.822087,-11251.130318,2072.576638,-1608.800546
3622.822417,-10584.944971,814.226536,-2987.772442
3622.822747,-11547.212695,74.020594,-1149.143247
3622.823077,-12065.356855,-296.082377,766.095498
3622.823407,-9326.594869,-1258.350101,919.314598
3622.823737,-6217.729913,-1258.350101,306.438199
3622.824067,-5847.626942,-592.164754,689.485948
3622.824396,-8882.471304,888.247130,1838.629195
3622.824726,-11695.253884,1258.350101,1762.019645
3622.825056,-12065.356855,1628.453072,766.095498
3622.825386,-10436.903782,814.226536,-153.219100
3622.825716,-10288.862594,0.000000,459.657299
3622.826046,-10807.006753,-740.205942,1685.410096
3622.826376,-11029.068536,-1480.411884,306.438199
3622.826706,-8586.388927,-1628.453072,-1225.752797
3622.827035,-5847.626942,-1776.494261,-1532.190996
3622.827365,-6661.853478,-592.164754,1532.190996
3622.827695,-9844.739029,814.226536,3983.696590
3622.828025,-12287.418637,1776.494261,3524.039291
3622.828355,-11843.295072,1850.514855,0.000000
3622.828685,-10807.006753,814.226536,-3140.991542
3622.829015,-11029.068536,-148.041188,-3294.210641
3622.829345,-11325.150913,-1036.288319,-1072.533697
3622.829674,-10288.862594,-1776.494261,536.266849
3622.830004,-7624.121203,-1702.473667,-153.219100
3622.830334,-5551.544565,-1628.453072,229.828649
3622.830664,-7328.038826,-74.020594,536.266849
3622.830994,-11029.068536,740.205942,1072.533697
3622.831324,-12509.480420,1184.329507,229.828649
3622.831654,-11621.233289,1036.288319,-306.438199
3622.831984,-10584.944971,0.000000,-842.705048
3622.832313,-10510.924376,-370.102971,-383.047749
3622.832643,-11029.068536,-1554.432478,-153.219100
3622.832973,-9770.718434,-1702.473667,-995.924147
3622.833303,-7254.018232,-1998.556043,-2068.457845
3622.833633,-6069.688724,-1406.391290,-383.047749
3622.833963,-7772.162391,74.020594,2604.724693
3622.834293,-10807.006753,1258.350101,3753.867940
3622.834623,-12361.439231,1998.556043,1762.019645
3622.834952,-11473.192101,1480.411884,-1608.800546
3622.835282,-11029.068536,296.082377,-2757.943793
3622.835612,-11325.150913,-518.144159,-1225.752797
3622.835942,-11325.150913,-1480.411884,842.705048
3622.836272,-8808.450710,-1998.556043,842.705048
3622.836602,-6069.688724,-1702.473667,459.657299
3622.836932,-5847.626942,-888.247130,919.314598
3622.837262,-8586.388927,518.144159,1991.848295
3622.837591,-11991.336260,1554.432478,1302.362347
3622.837921,-11917.315666,2220.617826,153.219100
3622.838251,-11029.068536,1184.329507,-383.047749
3622.838581,-10510.924376,444.123565,306.438199
3622.838911,-11473.192101,-370.102971,842.705048
3622.839241,-11029.068536,-888.247130,153.219100
3622.839571,-8882.471304,-1332.370696,-1225.752797
3622.839901,-6587.832884,-1258.350101,-995.924147
3622.840230,-6809.894666,-296.082377,2145.067394
3622.840560,-9844.739029,962.267725,4443.353888
3622.840890,-12065.356855,1776.494261,3600.648841
3622.841220,-11769.274478,1924.535449,229.828649
3622.841550,-10510.924376,1036.288319,-2604.724693
3622.841880,-10658.965565,370.102971,-2374.896044
3622.842210,-11547.212695,-592.164754,-383.047749
3622.842540,-10362.883188,-1184.329507,459.657299
3622.842869,-7402.059420,-1036.288319,229.828649
3622.843199,-5625.565159,-962.267725,76.609550
3622.843529,-7031.956449,222.061783,919.314598
3622.843859,-10584.944971,1406.391290,1685.410096
3622.844189,-12361.439231,2072.576638,766.095498
3622.844519,-11621.233289,2220.617826,-306.438199
3622.844849,-10288.862594,962.267725,-612.876398
3622.845179,-10584.944971,148.041188,0.000000
3622.845508,-11399.171507,-740.205942,0.000000
3622.845838,-10140.821405,-1110.308913,-1225.752797
3622.846168,-7179.997637,-1628.453072,-1991.848295
3622.846498,-6069.688724,-740.205942,-612.876398
3622.846828,-8216.285956,666.185348,2911.162892
3622.847158,-11547.212695,1702.473667,4290.134789
3622.847488,-12731.542202,2294.638420,2145.067394
3622.847818,-11325.150913,1480.411884,-1608.800546
3622.848148,-10510.924376,444.123565,-2987.772442
3622.848477,-10732.986159,-518.144159,-1378.971896
3622.848807,-11473.192101,-740.205942,689.485948
3622.849137,-9178.553681,-1554.432478,1225.752797
3622.849467,-6735.874072,-1332.370696,459.657299
3622.849797,-6365.771101,-814.226536,306.438199
3622.850127,-8956.491898,148.041188,1915.238745
3622.850457,-11843.295072,1406.391290,1608.800546
3622.850787,-11621.233289,1258.350101,612.876398
3622.851116,-10436.903782,518.144159,0.000000
3622.851446,-9992.780217,-296.082377,306.438199
3622.851776,-10807.006753,-814.226536,612.876398
3622.852106,-10732.986159,-1406.391290,-306.438199
3622.852436,-8438.347739,-1258.350101,-1915.238745
3622.852766,-6069.688724,-1332.370696,-1455.581446
3622.853096,-6439.791695,-444.123565,1762.019645
3622.853426,-9548.656652,1036.288319,4596.572988
3622.853755,-12287.418637,1998.556043,3447.429741
3622.854085,-11843.295072,2072.576638,0.000000
3622.854415,-10955.047942,592.164754,-2911.162892
3622.854745,-10807.006753,0.000000,-2145.067394
3622.855075,-11547.212695,-814.226536,153.219100
3622.855405,-10288.862594,-1110.308913,842.705048
3622.855735,-7402.059420,-1776.494261,612.876398
3622.856065,-6069.688724,-1184.329507,76.609550
3622.856394,-7698.141797,148.041188,1149.143247
3622.856724,-11103.089130,1332.370696,1838.629195
3622.857054,-12139.377449,1702.473667,1532.190996
3622.857384,-11695.253884,1702.473667,229.828649
3622.857714,-10436.903782,518.144159,153.219100
3622.858044,-10584.944971,-444.123565,536.266849
3622.858374,-11251.130318,-592.164754,842.705048
3622.858704,-10066.800811,-740.205942,-689.485948
3622.859033,-7402.059420,-1332.370696,-1838.629195
3622.859363,-6439.791695,-740.205942,-306.438199
3622.859693,-8512.368333,296.082377,2987.772442
3622.860023,-11399.171507,1480.411884,3983.696590
3622.860353,-12139.377449,2072.576638,1532.190996
3622.860683,-10584.944971,1332.370696,-2068.457845
3622.861013,-9770.718434,444.123565,-3064.381992
3622.861343,-10658.965565,0.000000,-1378.971896
3622.861672,-11473.192101,-518.144159,153.219100
3622.862002,-9474.636058,-962.267725,0.000000
3622.862332,-6365.771101,-1554.432478,-766.095498
3622.862662,-6365.771101,-666.185348,383.047749
3622.862992,-8438.347739,518.144159,1149.143247
3622.863322,-11399.171507,1110.308913,1225.752797
3622.863652,-11473.192101,1628.453072,0.000000
3622.863982,-10214.842000,814.226536,-1225.752797
3622.864311,-10288.862594,0.000000,-306.438199
3622.864641,-11399.171507,-518.144159,76.609550
3622.864971,-10807.006753,-1036.288319,-689.485948
3622.865301,-8290.306550,-1628.453072,-1915.238745
3622.865631,-5995.668130,-1776.494261,-1991.848295
3622.865961,-6439.791695,-592.164754,766.095498
3622.866291,-9622.677246,1036.288319,3140.991542
3622.866621,-11991.336260,1850.514855,2834.553343
3622.866950,-11843.295072,1480.411884,229.828649
3622.867280,-10584.944971,592.164754,-1915.238745
3622.867610,-10807.006753,148.041188,-1685.410096
3622.867940,-11769.274478,-888.247130,383.047749
3622.868270,-10658.965565,-1258.350101,1149.143247
3622.868600,-7698.141797,-1850.514855,229.828649
3622.868930,-6291.750507,-1110.308913,459.657299
3622.869260,-7476.080014,-222.061783,1378.971896
3622.869589,-10955.047942,1036.288319,1991.848295
3622.869919,-12287.418637,1702.473667,1302.362347
3622.870249,-11177.109724,1554.432478,-536.266849
3622.870579,-10140.821405,296.082377,-689.485948
3622.870909,-10436.903782,0.000000,383.047749
3622.871239,-11325.150913,-1036.288319,306.438199
3622.871569,-9548.656652,-1406.391290,-919.314598
3622.871899,-7179.997637,-1628.453072,-1685.410096
3622.872229,-6143.709319,-814.226536,-306.438199
3622.872558,-8142.265362,222.061783,2681.334243
3622.872888,-11103.089130,962.267725,3677.258390
3622.873218,-12065.356855,1850.514855,2068.457845
3622.873548,-10955.047942,1184.329507,-919.314598
3622.873878,-10362.883188,592.164754,-2298.286494
3622.874208,-10807.006753,-740.205942,-612.876398
3622.874538,-11251.130318,-1184.329507,383.047749
3622.874868,-8882.471304,-1480.411884,383.047749
3622.875197,-6513.812290,-962.267725,-153.219100
3622.875527,-6513.812290,-592.164754,306.438199
3622.875857,-9326.594869,740.205942,1302.362347
3622.876187,-12435.459826,1702.473667,1685.410096
3622.876517,-12287.418637,1628.453072,459.657299
3622.876847,-10955.047942,740.205942,-995.924147
3622.877177,-10214.842000,222.061783,-229.828649
3622.877507,-11029.068536,-814.226536,459.657299
3622.877836,-10436.903782,-1332.370696,-153.219100
3622.878166,-8734.430116,-1628.453072,-1378.971896
3622.878496,-6143.709319,-1184.329507,-1302.362347
3622.878826,-6883.915261,-444.123565,995.924147
3622.879156,-9696.697840,888.247130,3370.820191
3622.879486,-11843.295072,1702.473667,2451.505594
3622.879816,-11695.253884,1628.453072,-229.828649
3622.880146,-10288.862594,666.185348,-2681.334243
3622.880475,-9844.739029,-222.061783,-2298.286494
3622.880805,-11103.089130,-814.226536,-383.047749
3622.881135,-10288.862594,-1184.329507,306.438199
3622.881465,-7624.121203,-1258.350101,0.000000
3622.881795,-5995.668130,-1184.329507,-229.828649
3622.882125,-7550.100608,-148.041188,1225.752797
3622.882455,-10955.047942,962.267725,2145.067394
3622.882785,-12065.356855,1554.432478,919.314598
3622.883114,-10881.027347,1258.350101,229.828649
3622.883444,-9844.739029,222.061783,-306.438199
3622.883774,-10584.944971,0.000000,459.657299
3622.884104,-11695.253884,-666.185348,842.705048
3622.884434,-9992.780217,-962.267725,-766.095498
3622.884764,-7254.018232,-1110.308913,-1762.019645
3622.885094,-6365.771101,-592.164754,-229.828649
3622.885424,-8142.265362,74.020594,2911.162892
3622.885753,-11177.109724,1332.370696,3907.087040
3622.886083,-11769.274478,1998.556043,1532.190996
3622.886413,-10362.883188,1406.391290,-1378.971896
3622.886743,-9992.780217,666.185348,-2374.896044
3622.887073,-11473.192101,296.082377,-536.266849
3622.887403,-11769.274478,-296.082377,1378.971896
3622.887733,-9622.677246,-666.185348,1072.533697
3622.888063,-7031.956449,-962.267725,383.047749
3622.888392,-6809.894666,0.000000,1455.581446
3622.888722,-9474.636058,888.247130,2374.896044
3622.889052,-12065.356855,1406.391290,2221.676944
3622.889382,-11843.295072,1702.473667,766.095498
3622.889712,-10214.842000,1036.288319,-383.047749
3622.890042,-10066.800811,592.164754,-76.609550
3622.890372,-11399.171507,-74.020594,459.657299
3622.890702,-11177.109724,-370.102971,-306.438199
3622.891031,-8660.409521,-962.267725,-1608.800546
3622.891361,-6291.750507,-1332.370696,-1532.190996
3622.891691,-7105.977043,-370.102971,1455.581446
3622.892021,-9770.718434,370.102971,3447.429741
3622.892351,-11769.274478,1480.411884,2681.334243
3622.892681,-10955.047942,1110.308913,-842.705048
3622.893011,-9918.759623,814.226536,-2528.115143
3622.893341,-10436.903782,148.041188,-1685.410096
3622.893670,-11621.233289,-222.061783,0.000000
3622.894000,-10584.944971,-1184.329507,459.657299
3622.894330,-7846.182985,-962.267725,-536.266849
3622.894660,-5847.626942,-1036.288319,-689.485948
3622.894990,-7402.059420,296.082377,76.609550
3622.895320,-10510.924376,1110.308913,1378.971896
3622.895650,-11843.295072,1924.535449,612.876398
3622.895980,-11029.068536,1406.391290,-766.095498
3622.896310,-9992.780217,962.267725,-1149.143247
3622.896639,-11103.089130,444.123565,0.000000
3622.896969,-11769.274478,-370.102971,383.047749
3622.897299,-10807.006753,-592.164754,-919.314598
3622.897629,-7476.080014,-1184.329507,-1762.019645
3622.897959,-6587.832884,-740.205942,-306.438199
3622.898289,-8216.285956,444.123565,3064.381992
3622.898619,-10807.006753,814.226536,3753.867940
3622.898949,-11769.274478,1850.514855,1225.752797
3622.899278,-10881.027347,1480.411884,-1302.362347
3622.899608,-10584.944971,518.144159,-1915.238745
3622.899938,-11325.150913,222.061783,-459.657299
3622.900268,-11621.233289,-592.164754,766.095498
3622.900598,-9400.615463,-1480.411884,612.876398
3622.900928,-6439.791695,-1554.432478,0.000000
3622.901258,-6069.688724,-888.247130,1149.143247
3622.901588,-8956.491898,148.041188,2374.896044
3622.901917,-11251.130318,1036.288319,2068.457845
3622.902247,-11473.192101,1554.432478,612.876398
3622.902577,-10288.862594,740.205942,0.000000
3622.902907,-10362.883188,296.082377,0.000000
3622.903237,-11399.171507,-518.144159,306.438199
3622.903567,-11029.068536,-1184.329507,-153.219100
3622.903897,-8882.471304,-1554.432478,-1455.581446
3622.904227,-6957.935855,-1628.453072,-1608.800546
3622.904556,-6883.915261,-1184.329507,612.876398
3622.904886,-9400.615463,0.000000,2987.772442
3622.905216,-11177.109724,888.247130,2528.115143
3622.905546,-11103.089130,1332.370696,76.609550
3622.905876,-9918.759623,222.061783,-2374.896044
3622.906206,-10584.944971,0.000000,-1838.629195
3622.906536,-11769.274478,-888.247130,-459.657299
3622.906866,-10955.047942,-1184.329507,383.047749
3622.907195,-7994.224174,-1776.494261,-153.219100
3622.907525,-6291.750507,-1406.391290,-306.438199
3622.907855,-7328.038826,-518.144159,612.876398
3622.908185,-10732.986159,592.164754,1838.629195
3622.908515,-11917.315666,1184.329507,1225.752797
3622.908845,-11029.068536,1036.288319,-689.485948
3622.909175,-10066.800811,370.102971,-612.876398
3622.909505,-11103.089130,148.041188,76.609550
3622.909834,-12065.356855,-666.185348,306.438199
3622.910164,-10214.842000,-1184.329507,-1225.752797
3622.910494,-7402.059420,-1628.453072,-2451.505594
3622.910824,-6069.688724,-1554.432478,-766.095498
3622.911154,-8068.244768,0.000000,2987.772442
3622.911484,-10584.944971,666.185348,4290.134789
3622.911814,-11325.150913,1480.411884,2451.505594
3622.912144,-10510.924376,1184.329507,-1378.971896
3622.912473,-10362.883188,814.226536,-2145.067394
3622.912803,-11325.150913,0.000000,-842.705048
3622.913133,-11473.192101,-1036.288319,766.095498
3622.913463,-9770.718434,-1184.329507,842.705048
3622.913793,-6439.791695,-1628.453072,76.609550
3622.914123,-5699.585753,-888.247130,306.438199
3622.914453,-8734.430116,444.123565,1608.800546
3622.914783,-11621.233289,1406.391290,1608.800546
3622.915112,-11621.233289,1850.514855,229.828649
3622.915442,-9770.718434,1554.432478,0.000000
3622.915772,-9844.739029,592.164754,459.657299
3622.916102,-11399.171507,0.000000,612.876398
3622.916432,-11621.233289,0.000000,76.609550
3622.916762,-9252.574275,-296.082377,-1455.581446
3622.917092,-6587.832884,-1110.308913,-1532.190996
3622.917422,-7031.956449,0.000000,1915.238745
3622.917751,-9696.697840,962.267725,3983.696590
3622.918081,-11251.130318,1702.473667,3294.210641
3622.918411,-10955.047942,1924.535449,306.438199
3622.918741,-10436.903782,1554.432478,-2145.067394
3622.919071,-11177.109724,888.247130,-1302.362347
3622.919401,-11917.315666,0.000000,153.219100
3622.919731,-10955.047942,-444.123565,842.705048
3622.920061,-7920.203579,-1036.288319,229.828649
3622.920391,-5921.647536,-1110.308913,-153.219100
3622.920720,-7550.100608,74.020594,1378.971896
3622.921050,-10807.006753,888.247130,2451.505594
3622.921380,-11917.315666,1776.494261,1608.800546
3622.921710,-11029.068536,1702.473667,76.609550
3622.922040,-10140.821405,962.267725,0.000000
3622.922370,-11399.171507,222.061783,689.485948
3622.922699,-12139.377449,0.000000,0.000000
3622.923029,-10436.903782,-814.226536,-1838.629195
3622.923359,-7254.018232,-1332.370696,-2987.772442
3622.923689,-5995.668130,-1184.329507,-766.095498
3622.924019,-7994.224174,0.000000,2451.505594
3622.924349,-11103.089130,740.205942,3600.648841
3622.924678,-11547.212695,1406.391290,919.314598
3622.925008,-10436.903782,814.226536,-1838.629195
3622.925338,-9918.759623,0.000000,-2221.676944
3622.925668,-11325.150913,-370.102971,-536.266849
3622.925998,-11177.109724,-1036.288319,689.485948
3622.926328,-9104.533087,-1406.391290,383.047749
3622.926658,-6587.832884,-1554.432478,0.000000
3622.926987,-6587.832884,-740.205942,0.000000
3622.927317,-9326.594869,666.185348,1302.362347
3622.927647,-11547.212695,1110.308913,1302.362347
3622.927977,-11621.233289,1406.391290,0.000000
3622.928307,-10436.903782,740.205942,-1149.143247
3622.928637,-10066.800811,0.000000,-612.876398
3622.928966,-11029.068536,-740.205942,0.000000
3622.929296,-11177.109724,-962.267725,-689.485948
3622.929626,-8808.450710,-1332.370696,-1608.800546
3622.929956,-6661.853478,-1406.391290,-1302.362347
3622.930286,-7031.956449,-888.247130,1608.800546
3622.930616,-9622.677246,0.000000,3830.477490
3622.930945,-11695.253884,1184.329507,3294.210641
3622.931275,-11177.109724,1036.288319,0.000000
3622.931605,-10214.842000,222.061783,-1838.629195
3622.931935,-10584.944971,0.000000,-1072.533697
3622.932265,-11473.192101,-666.185348,0.000000
3622.932595,-10584.944971,-888.247130,689.485948
3622.932924,-8142.265362,-1554.432478,0.000000
3622.933254,-6069.688724,-1332.370696,0.000000
3622.933584,-7402.059420,0.000000,1149.143247
3622.933914,-10510.924376,1184.329507,2145.067394
3622.934244,-11917.315666,1702.473667,1302.362347
3622.934574,-10881.027347,1554.432478,0.000000
3622.934904,-10510.924376,888.247130,-689.485948
3622.935233,-11251.130318,666.185348,0.000000
3622.935563,-11769.274478,-148.041188,153.219100
3622.935893,-10584.944971,-592.164754,-842.705048
3622.936223,-7624.121203,-1110.308913,-1838.629195
3622.936553,-6809.894666,-296.082377,-229.828649
3622.936883,-8512.368333,296.082377,2604.724693
3622.937212,-11177.109724,1258.350101,3677.258390
3622.937542,-11769.274478,1776.494261,1915.238745
3622.937872,-10732.986159,1554.432478,-995.924147
3622.938202,-10362.883188,148.041188,-2221.676944
3622.938532,-11251.130318,0.000000,-766.095498
3622.938862,-11769.274478,-666.185348,919.314598
3622.939191,-9622.677246,-1258.350101,689.485948
3622.939521,-6439.791695,-1036.288319,-76.609550
3622.939851,-6143.709319,-740.205942,689.485948
3622.940181,-9104.533087,814.226536,1532.190996
3622.940511,-11325.150913,1628.453072,1762.019645
3622.940841,-11769.274478,2294.638420,-612.876398
3622.941170,-10510.924376,1184.329507,-1225.752797
3622.941500,-10584.944971,888.247130,-919.314598
3622.941830,-11473.192101,0.000000,0.000000
3622.942160,-11251.130318,-148.041188,-689.485948
3622.942490,-8290.306550,-1332.370696,-2528.115143
3622.942820,-6143.709319,-1036.288319,-2145.067394
3622.943150,-6439.791695,-148.041188,306.438199
3622.943479,-9474.636058,888.247130,3140.991542
3622.943809,-11547.212695,1850.514855,2451.505594
3622.944139,-11325.150913,1628.453072,-229.828649
3622.944469,-10288.862594,1184.329507,-2681.334243
3622.944799,-10584.944971,148.041188,-2068.457845
3622.945129,-11103.089130,-370.102971,-689.485948
3622.945458,-10584.944971,-962.267725,153.219100
3622.945788,-7698.141797,-1184.329507,0.000000
3622.946118,-5921.647536,-1036.288319,0.000000
3622.946448,-7476.080014,370.102971,1608.800546
3622.946778,-10955.047942,1184.329507,2451.505594
3622.947108,-12213.398043,1998.556043,1532.190996
3622.947437,-10881.027347,1110.308913,0.000000
3622.947767,-10140.821405,814.226536,-306.438199
3622.948097,-11103.089130,0.000000,919.314598
3622.948427,-12139.377449,-518.144159,995.924147
3622.948757,-10732.986159,-1036.288319,-306.438199
3622.949087,-7402.059420,-1332.370696,-1455.581446
3622.949417,-5699.585753,-1036.288319,229.828649
3622.949746,-8438.347739,74.020594,2987.772442
3622.950076,-11399.171507,1184.329507,4213.525239
3622.950406,-12065.356855,1628.453072,2145.067394
3622.950736,-10510.924376,1184.329507,-919.314598
3622.951066,-10436.903782,74.020594,-2068.457845
3622.951396,-11029.068536,-666.185348,-229.828649
3622.951725,-11325.150913,-1184.329507,766.095498
3622.952055,-8956.491898,-1924.535449,612.876398
3622.952385,-6217.729913,-1850.514855,0.000000
3622.952715,-6365.771101,-962.267725,1225.752797
3622.953045,-9104.533087,444.123565,2451.505594
3622.953375,-12065.356855,1332.370696,2298.286494
3622.953704,-11769.274478,1924.535449,0.000000
3622.954034,-10584.944971,814.226536,-1149.143247
3622.954364,-10140.821405,74.020594,-766.095498
3622.954694,-11547.212695,-370.102971,0.000000
3622.955024,-10881.027347,-962.267725,-459.657299
3622.955354,-8586.388927,-1554.432478,-1838.629195
3622.955683,-6143.709319,-1480.411884,-1991.848295
3622.956013,-6809.894666,-518.144159,1072.533697
3622.956343,-9770.718434,518.144159,3294.210641
3622.956673,-11621.233289,1702.473667,2681.334243
3622.957003,-11547.212695,1554.432478,0.000000
3622.957333,-10658.965565,962.267725,-2298.286494
3622.957663,-11399.171507,0.000000,-1915.238745
3622.957992,-11991.336260,-666.185348,-383.047749
3622.958322,-10732.986159,-1184.329507,153.219100
3622.958652,-7179.997637,-1998.556043,-306.438199
3622.958982,-6069.688724,-1258.350101,0.000000
3622.959312,-7179.997637,0.000000,1991.848295
3622.959642,-10436.903782,1036.288319,2221.676944
3622.959971,-11843.295072,1998.556043,919.314598
3622.960301,-11325.150913,1406.391290,-766.095498
3622.960631,-10140.821405,592.164754,-1532.190996
3622.960961,-11325.150913,74.020594,-306.438199
3622.961291,-11473.192101,-962.267725,0.000000
3622.961621,-9400.615463,-1554.432478,-1455.581446
3622.961950,-6735.874072,-1702.473667,-2068.457845
3622.962280,-5625.565159,-962.267725,-229.828649
3622.962610,-8216.285956,296.082377,2451.505594
3622.962940,-11621.233289,1924.535449,3064.381992
3622.963270,-12139.377449,2146.597232,612.876398
3622.963600,-10881.027347,1480.411884,-2221.676944
3622.963929,-11103.089130,370.102971,-2528.115143
3622.964259,-11547.212695,-592.164754,-842.705048
3622.964589,-11251.130318,-1110.308913,-306.438199
3622.964919,-8068.244768,-1776.494261,-689.485948
3622.965249,-5699.585753,-1776.494261,-153.219100
3622.965579,-6365.771101,-740.205942,1149.143247
3622.965909,-9474.636058,592.164754,2451.505594
3622.966238,-11843.295072,1628.453072,2451.505594
3622.966568,-11843.295072,2146.597232,383.047749
3622.966898,-10807.006753,1036.288319,-919.314598
3622.967228,-10955.047942,370.102971,76.609550
3622.967558,-11917.315666,-296.082377,536.266849
3622.967888,-10955.047942,-1036.288319,-229.828649
3622.968217,-7994.224174,-1480.411884,-1762.019645
3622.968547,-5773.606348,-1184.329507,-1838.629195
3622.968877,-6513.812290,0.000000,1225.752797
3622.969207,-9548.656652,1480.411884,3140.991542
3622.969537,-11843.295072,2220.617826,2374.896044
3622.969867,-11399.171507,2294.638420,-306.438199
3622.970196,-10807.006753,1332.370696,-1991.848295
3622.970526,-11029.068536,148.041188,-1685.410096
3622.970856,-11843.295072,-1036.288319,-306.438199
3622.971186,-10214.842000,-1554.432478,229.828649
3622.971516,-7105.977043,-1850.514855,229.828649
3622.971846,-5403.503377,-1332.370696,995.924147
3622.972175,-7402.059420,74.020594,2374.896044
3622.972505,-10807.006753,1332.370696,2681.334243
3622.972835,-12287.418637,2220.617826,1225.752797
3622.973165,-11621.233289,1702.473667,-766.095498
3622.973495,-10658.965565,814.226536,-459.657299
3622.973825,-11473.192101,74.020594,0.000000
3622.974155,-11251.130318,-1036.288319,0.000000
3622.974484,-9178.553681,-1776.494261,-1072.533697
3622.974814,-6661.853478,-1480.411884,-995.924147
3622.975144,-5995.668130,-962.267725,0.000000
3622.975474,-8438.347739,370.102971,2681.334243
3622.975804,-11325.150913,1406.391290,3447.429741
3622.976134,-11917.315666,2146.597232,1072.533697
3622.976463,-11177.109724,1110.308913,-1532.190996
3622.976793,-10732.986159,222.061783,-2374.896044
3622.977123,-11695.253884,-814.226536,-1149.143247
3622.977453,-11399.171507,-1480.411884,-459.657299
3622.977783,-8438.347739,-2220.617826,76.609550
3622.978113,-5403.503377,-2368.659014,306.438199
3622.978442,-5921.647536,-1036.288319,1685.410096
3622.978772,-9104.533087,296.082377,2834.553343
3622.979102,-11695.253884,1628.453072,1685.410096
3622.979432,-11991.336260,1850.514855,689.485948
3622.979762,-11177.109724,814.226536,-383.047749
3622.980092,-10955.047942,222.061783,0.000000
3622.980421,-11473.192101,-814.226536,-306.438199
3622.980751,-10288.862594,-1480.411884,-612.876398
3622.981081,-7920.203579,-1628.453072,-2068.457845
3622.981411,-6069.688724,-1480.411884,-1685.410096
3622.981741,-6735.874072,-592.164754,1149.143247
3622.982071,-10214.842000,1184.329507,3294.210641
3622.982401,-12139.377449,1924.535449,2451.505594
3622.982730,-11917.315666,1998.556043,0.000000
3622.983060,-11029.068536,740.205942,-2068.457845
3622.983390,-10881.027347,0.000000,-1991.848295
3622.983720,-11103.089130,-1258.350101,0.000000
3622.984050,-9770.718434,-1776.494261,766.095498
3622.984380,-6957.935855,-1998.556043,536.266849
3622.984709,-5551.544565,-1332.370696,1378.971896
3622.985039,-7698.141797,222.061783,2757.943793
3622.985369,-11103.089130,1184.329507,2757.943793
3622.985699,-12583.501014,1998.556043,1225.752797
3622.986029,-11695.253884,1184.329507,-306.438199
3622.986359,-10362.883188,518.144159,0.000000
3622.986688,-10955.047942,-74.020594,459.657299
3622.987018,-11325.150913,-888.247130,306.438199
3622.987348,-9252.574275,-1184.329507,-1302.362347
3622.987678,-6217.729913,-1258.350101,-1762.019645
3622.988008,-6587.832884,-296.082377,0.000000
3622.988338,-8956.491898,814.226536,2757.943793
3622.988668,-11917.315666,1850.514855,3830.477490
3622.988997,-12287.418637,2294.638420,1762.019645
3622.989327,-10881.027347,1332.370696,-2298.286494
3622.989657,-10436.903782,74.020594,-2528.115143
3622.989987,-11029.068536,-740.205942,-1378.971896
3622.990317,-10732.986159,-1036.288319,-459.657299
3622.990647,-7846.182985,-1406.391290,0.000000
3622.990976,-5699.585753,-1184.329507,0.000000
3622.991306,-6143.709319,0.000000,766.095498
3622.991636,-9474.636058,1332.370696,2221.676944
3622.991966,-12213.398043,2516.700203,1378.971896
3622.992296,-12213.398043,2368.659014,0.000000
3622.992626,-11325.150913,1406.391290,-1225.752797
3622.992955,-10955.047942,592.164754,-306.438199
3622.993285,-11399.171507,-296.082377,383.047749
3622.993615,-10214.842000,-962.267725,-383.047749
3622.993945,-7698.141797,-1184.329507,-1915.238745
3622.994275,-5921.647536,-740.205942,-1685.410096
3622.994605,-7031.956449,444.123565,995.924147
3622.994934,-9918.759623,1924.535449,3217.601092
3622.995264,-12213.398043,2516.700203,2451.505594
3622.995594,-11547.212695,1924.535449,-689.485948
3622.995924,-10436.903782,1110.308913,-2604.724693
3622.996254,-10362.883188,518.144159,-2221.676944
3622.996584,-11325.150913,-888.247130,-536.266849
3622.996914,-10066.800811,-1184.329507,383.047749
3622.997243,-7105.977043,-1554.432478,383.047749
3622.997573,-5477.523971,-1184.329507,842.705048
3622.997903,-7179.997637,0.000000,2451.505594
3622.998233,-10807.006753,1480.411884,2528.115143
3622.998563,-12213.398043,1998.556043,1378.971896
3622.998893,-11695.253884,1628.453072,76.609550
3622.999222,-10510.924376,666.185348,-459.657299
3622.999552,-11177.109724,-148.041188,0.000000
3622.999882,-11399.171507,-888.247130,-306.438199
3623.000212,-9400.615463,-1554.432478,-1378.971896
3623.000542,-6513.812290,-1406.391290,-2221.676944
3623.000872,-6069.688724,-1036.288319,536.266849
3623.001201,-8364.327145,0.000000,3217.601092
3623.001531,-11473.192101,888.247130,3907.087040
3623.001861,-12213.398043,1554.432478,1302.362347
3623.002191,-11177.109724,518.144159,-1991.848295
3623.002521,-10732.986159,-222.061783,-2374.896044
3623.002851,-11103.089130,-1332.370696,-1072.533697
3623.003180,-11177.109724,-1924.535449,306.438199
3623.003510,-8142.265362,-2368.659014,536.266849
3623.003840,-5921.647536,-2072.576638,306.438199
3623.004170,-6291.750507,-1184.329507,995.924147
3623.004500,-9474.636058,148.041188,1762.019645
3623.004830,-11621.233289,814.226536,995.924147
3623.005160,-11917.315666,1110.308913,0.000000
3623.005489,-10732.986159,444.123565,-459.657299
3623.005819,-10510.924376,0.000000,153.219100
3623.006149,-11103.089130,-296.082377,-153.219100
3623.006479,-10584.944971,-1258.350101,-1072.533697
3623.006809,-8364.327145,-1406.391290,-2298.286494
3623.007139,-6735.874072,-1110.308913,-1762.019645
3623.007468,-7476.080014,-296.082377,1608.800546
3623.007798,-10510.924376,1036.288319,3753.867940
3623.008128,-12139.377449,1850.514855,2451.505594
3623.008458,-11843.295072,1554.432478,-995.924147
3623.008788,-10584.944971,518.144159,-3064.381992
3623.009118,-10658.965565,0.000000,-2221.676944
3623.009447,-11547.212695,-740.205942,76.609550
3623.009777,-9992.780217,-1258.350101,612.876398
3623.010107,-6809.894666,-1554.432478,0.000000
3623.010437,-5329.482782,-444.123565,-536.266849
3623.010767,-7772.162391,0.000000,1532.190996
3623.011097,-10732.986159,1332.370696,2298.286494
3623.011426,-11991.336260,1998.556043,1149.143247
3623.011756,-11473.192101,1850.514855,-76.609550
3623.012086,-10288.862594,518.144159,-612.876398
3623.012416,-10658.965565,0.000000,306.438199
3623.012746,-10881.027347,-666.185348,459.657299
3623.013076,-9252.574275,-1184.329507,-306.438199
3623.013406,-6587.832884,-962.267725,-1072.533697
3623.013735,-6069.688724,-518.144159,229.828649
3623.014065,-8512.368333,888.247130,2604.724693
3623.014395,-11769.274478,1628.453072,2834.553343
3623.014725,-11843.295072,1998.556043,0.000000
3623.015055,-10510.924376,1258.350101,-2298.286494
3623.015385,-9770.718434,518.144159,-2374.896044
3623.015714,-10807.006753,-148.041188,-995.924147
3623.016044,-10362.883188,-666.185348,153.219100
3623.016374,-8290.306550,-1036.288319,76.609550
3623.016704,-5847.626942,-666.185348,76.609550
3623.017034,-6883.915261,0.000000,1225.752797
3623.017364,-10288.862594,1702.473667,2757.943793
3623.017693,-12287.418637,2368.659014,1838.629195
3623.018023,-11991.336260,2294.638420,229.828649
3623.018353,-10436.903782,1258.350101,-383.047749
3623.018683,-10732.986159,148.041188,153.219100
3623.019013,-11473.192101,74.020594,459.657299
3623.019343,-10510.924376,-296.082377,0.000000
3623.019673,-8216.285956,-592.164754,-1149.143247
3623.020002,-6587.832884,-592.164754,-919.314598
3623.020332,-7698.141797,888.247130,919.314598
3623.020662,-10584.944971,1184.329507,3447.429741
3623.020992,-12361.439231,1850.514855,2528.115143
3623.021322,-11473.192101,1332.370696,-612.876398
3623.021652,-10658.965565,666.185348,-2451.505594
3623.021981,-10732.986159,-296.082377,-1685.410096
3623.022311,-11547.212695,-740.205942,0.000000
3623.022641,-10066.800811,-1258.350101,229.828649
3623.022971,-7105.977043,-1776.494261,-229.828649
3623.023301,-6069.688724,-888.247130,76.609550
3623.023631,-8068.244768,0.000000,1838.629195
3623.023961,-11029.068536,666.185348,1915.238745
3623.024291,-11917.315666,1406.391290,536.266849
3623.024620,-10584.944971,888.247130,-842.705048
3623.024950,-9696.697840,0.000000,-536.266849
3623.025280,-10732.986159,-666.185348,536.266849
3623.025610,-11103.089130,-1110.308913,612.876398
3623.025940,-9326.594869,-1480.411884,-919.314598
3623.026270,-7105.977043,-1480.411884,-1991.848295
3623.026600,-6661.853478,-814.226536,-306.438199
3623.026930,-8956.491898,296.082377,2528.115143
3623.027260,-11547.212695,1110.308913,2911.162892
3623.027590,-11843.295072,1406.391290,536.266849
3623.027920,-10658.965565,222.061783,-1991.848295
3623.028249,-10140.821405,-222.061783,-2374.896044
3623.028579,-11103.089130,-962.267725,-1225.752797
3623.028909,-10881.027347,-1184.329507,-919.314598
3623.029239,-8734.430116,-1776.494261,76.609550
3623.029569,-6217.729913,-1554.432478,0.000000
3623.029899,-6661.853478,-888.247130,1378.971896
3623.030229,-9770.718434,518.144159,2374.896044
3623.030559,-12065.356855,666.185348,2068.457845
3623.030889,-11843.295072,888.247130,153.219100
3623.031219,-10510.924376,74.020594,-689.485948
3623.031549,-10362.883188,-518.144159,0.000000
3623.031879,-10807.006753,-888.247130,459.657299
3623.032208,-10214.842000,-1110.308913,0.000000
3623.032538,-8068.244768,-1332.370696,-1608.800546
3623.032868,-6735.874072,-888.247130,-1455.581446
3623.033198,-7328.038826,296.082377,766.095498
3623.033528,-10584.944971,1554.432478,2757.943793
3623.033858,-11843.295072,1332.370696,1991.848295
3623.034188,-11177.109724,1332.370696,-689.485948
3623.034518,-9696.697840,518.144159,-3447.429741
3623.034848,-9844.739029,-518.144159,-2221.676944
3623.035178,-10732.986159,-814.226536,-383.047749
3623.035508,-9918.759623,-888.247130,76.609550
3623.035837,-7328.038826,-1184.329507,76.609550
3623.036167,-6217.729913,-296.082377,766.095498
3623.036497,-8142.265362,592.164754,1991.848295
3623.036827,-11325.150913,1480.411884,1915.238745
3623.037157,-12287.418637,1998.556043,459.657299
3623.037487,-10732.986159,1554.432478,-919.314598
3623.037817,-10214.842000,814.226536,-766.095498
3623.038147,-10955.047942,370.102971,229.828649
3623.038477,-11473.192101,0.000000,306.438199
3623.038807,-9178.553681,222.061783,-1838.629195
3623.039137,-7402.059420,-370.102971,-2451.505594
3623.039466,-7031.956449,74.020594,0.000000
3623.039796,-9474.636058,1110.308913,2757.943793
3623.040126,-11917.315666,2072.576638,3830.477490
3623.040456,-11769.274478,1924.535449,1915.238745
3623.040786,-10436.903782,1184.329507,-995.924147
3623.041116,-10140.821405,296.082377,-1762.019645
3623.041446,-11621.233289,0.000000,-76.609550
3623.041776,-10955.047942,-296.082377,1072.533697
3623.042106,-8512.368333,-1036.288319,612.876398
3623.042436,-5921.647536,-740.205942,689.485948
3623.042766,-6587.832884,0.000000,1915.238745
3623.043095,-9252.574275,962.267725,2604.724693
3623.043425,-11325.150913,1258.350101,1532.190996
3623.043755,-10881.027347,1776.494261,-76.609550
3623.044085,-9548.656652,814.226536,-919.314598
3623.044415,-9474.636058,444.123565,766.095498
3623.044745,-11325.150913,-74.020594,1838.629195
3623.045075,-10732.986159,-444.123565,689.485948
3623.045405,-8216.285956,-814.226536,-1149.143247
3623.045735,-6883.915261,-370.102971,-1302.362347
3623.046065,-7846.182985,518.144159,2374.896044
3623.046395,-10658.965565,1406.391290,3830.477490
3623.046725,-11843.295072,2072.576638,2911.162892
3623.047054,-10658.965565,1628.453072,-383.047749
3623.047384,-9400.615463,888.247130,-2528.115143
3623.047714,-10732.986159,74.020594,-1838.629195
3623.048044,-11621.233289,-518.144159,-459.657299
3623.048374,-10288.862594,-888.247130,0.000000
3623.048704,-7105.977043,-1258.350101,153.219100
3623.049034,-5995.668130,-1184.329507,919.314598
3623.049364,-8290.306550,222.061783,2298.286494
3623.049694,-11251.130318,666.185348,2221.676944
3623.050024,-12287.418637,1332.370696,1149.143247
3623.050354,-11029.068536,962.267725,-383.047749
3623.050683,-10362.883188,370.102971,459.657299
3623.051013,-11177.109724,0.000000,1378.971896
3623.051343,-11621.233289,-518.144159,766.095498
3623.051673,-9696.697840,-1480.411884,-1455.581446
3623.052003,-7476.080014,-1332.370696,-2374.896044
3623.052333,-7179.997637,-962.267725,-383.047749
3623.052663,-9622.677246,148.041188,2451.505594
3623.052993,-11251.130318,888.247130,2834.553343
3623.053323,-11177.109724,740.205942,229.828649
3623.053653,-9844.739029,0.000000,-2221.676944
3623.053983,-9844.739029,-740.205942,-2451.505594
3623.054312,-11103.089130,-1184.329507,-1532.190996
3623.054642,-10732.986159,-1702.473667,0.000000
3623.054972,-8734.430116,-2220.617826,76.609550
3623.055302,-6661.853478,-1924.535449,-306.438199
3623.055632,-7031.956449,-1184.329507,306.438199
3623.055962,-9178.553681,0.000000,1072.533697
3623.056292,-11029.068536,444.123565,919.314598
3623.056622,-10807.006753,592.164754,0.000000
3623.056952,-9548.656652,0.000000,-459.657299
3623.057282,-9696.697840,-518.144159,0.000000
3623.057612,-10881.027347,-1110.308913,306.438199
3623.057941,-10140.821405,-1184.329507,-766.095498
3623.058271,-8290.306550,-1332.370696,-1991.848295
3623.058601,-7105.977043,-1036.288319,-1455.581446
3623.058931,-7920.203579,-148.041188,1532.190996
3623.059261,-10881.027347,962.267725,3370.820191
3623.059591,-11843.295072,1850.514855,1991.848295
3623.059921,-11325.150913,1628.453072,-1225.752797
3623.060251,-10214.842000,814.226536,-2451.505594
3623.060581,-11029.068536,370.102971,-2145.067394
3623.060911,-11325.150913,-814.226536,-536.266849
3623.061241,-9696.697840,-1332.370696,0.000000
3623.061571,-7402.059420,-1332.370696,76.609550
3623.061900,-6217.729913,-1184.329507,919.314598
3623.062230,-8438.347739,148.041188,1915.238745
3623.062560,-10807.006753,814.226536,2068.457845
3623.062890,-11769.274478,962.267725,842.705048
3623.063220,-10881.027347,1036.288319,229.828649
3623.063550,-10214.842000,148.041188,536.266849
3623.063880,-11177.109724,-222.061783,1455.581446
3623.064210,-11177.109724,-592.164754,1225.752797
3623.064540,-9548.656652,-888.247130,-766.095498
3623.064870,-6957.935855,-962.267725,-1915.238745
3623.065200,-6809.894666,0.000000,-383.047749
3623.065529,-9252.574275,962.267725,2528.115143
3623.065859,-11399.171507,1628.453072,3294.210641
3623.066189,-11473.192101,2146.597232,995.924147
3623.066519,-10214.842000,1332.370696,-1838.629195
3623.066849,-10214.842000,666.185348,-2757.943793
3623.067179,-11473.192101,-296.082377,-1302.362347
3623.067509,-11251.130318,-666.185348,-229.828649
3623.067839,-8808.450710,-1036.288319,0.000000
3623.068169,-6291.750507,-1110.308913,689.485948
3623.068499,-6957.935855,-222.061783,1608.800546
3623.068829,-9770.718434,888.247130,2068.457845
3623.069158,-11843.295072,1406.391290,1149.143247
3623.069488,-11399.171507,1480.411884,-383.047749
3623.069818,-10510.924376,1036.288319,-689.485948
3623.070148,-10140.821405,148.041188,459.657299
3623.070478,-11547.212695,0.000000,842.705048
3623.070808,-10436.903782,-296.082377,-995.924147
3623.071138,-8142.265362,-666.185348,-1838.629195
3623.071468,-6661.853478,-370.102971,-1762.019645
3623.071798,-7772.162391,222.061783,2068.457845
3623.072128,-10584.944971,1184.329507,2911.162892
3623.072458,-11695.253884,1998.556043,2451.505594
3623.072788,-11177.109724,1702.473667,-689.485948
3623.073117,-9844.739029,888.247130,-2528.115143
3623.073447,-10881.027347,296.082377,-2068.457845
3623.073777,-11621.233289,-740.205942,-153.219100
3623.074107,-10288.862594,-1184.329507,766.095498
3623.074437,-7328.038826,-1406.391290,842.705048
3623.074767,-6143.709319,-666.185348,1149.143247
3623.075097,-7920.203579,0.000000,1685.410096
3623.075427,-10955.047942,888.247130,2374.896044
3623.075757,-11843.295072,1406.391290,1225.752797
3623.076087,-10732.986159,666.185348,76.609550
3623.076417,-9918.759623,370.102971,612.876398
3623.076746,-11029.068536,-296.082377,1149.143247
3623.077076,-11547.212695,-592.164754,612.876398
3623.077406,-9474.636058,-962.267725,-766.095498
3623.077736,-7031.956449,-1258.350101,-2068.457845
3623.078066,-6513.812290,-592.164754,229.828649
3623.078396,-9474.636058,518.144159,3524.039291
3623.078726,-11621.233289,962.267725,3983.696590
3623.079056,-11695.253884,1628.453072,1225.752797
3623.079386,-10214.842000,814.226536,-1762.019645
3623.079716,-10362.883188,74.020594,-2451.505594
3623.080046,-11547.212695,-814.226536,-383.047749
3623.080375,-11029.068536,-814.226536,919.314598
3623.080705,-8438.347739,-1628.453072,689.485948
3623.081035,-5995.668130,-1776.494261,612.876398
3623.081365,-7031.956449,-814.226536,1302.362347
3623.081695,-10362.883188,814.226536,2604.724693
3623.082025,-11843.295072,1036.288319,1225.752797
3623.082355,-11399.171507,1406.391290,-76.609550
3623.082685,-9918.759623,296.082377,-612.876398
3623.083015,-10584.944971,0.000000,0.000000
3623.083345,-11695.253884,-148.041188,153.219100
3623.083675,-10732.986159,-592.164754,-919.314598
3623.084004,-8068.244768,-1258.350101,-2451.505594
3623.084334,-6661.853478,-888.247130,-1532.190996
3623.084664,-7624.121203,0.000000,1608.800546
3623.084994,-10732.986159,814.226536,3524.039291
3623.085324,-11991.336260,1850.514855,1991.848295
3623.085654,-11251.130318,1258.350101,-1149.143247
3623.085984,-10436.903782,444.123565,-3064.381992
3623.086314,-11325.150913,-296.082377,-2221.676944
3623.086644,-11695.253884,-1036.288319,-766.095498
3623.086974,-9844.739029,-1480.411884,-306.438199
3623.087304,-6883.915261,-2072.576638,-383.047749
3623.087634,-5403.503377,-1406.391290,229.828649
3623.087963,-7920.203579,-222.061783,1149.143247
3623.088293,-10658.965565,592.164754,1532.190996
3623.088623,-11251.130318,1258.350101,612.876398
3623.088953,-10584.944971,814.226536,-459.657299
3623.089283,-10436.903782,74.020594,0.000000
3623.089613,-11695.253884,-222.061783,995.924147
3623.089943,-11399.171507,-666.185348,842.705048
3623.090273,-9178.553681,-1628.453072,-1225.752797
3623.090603,-6587.832884,-1332.370696,-2068.457845
3623.090933,-6365.771101,-518.144159,229.828649
3623.091263,-8882.471304,814.226536,3064.381992
3623.091592,-11399.171507,1998.556043,3677.258390
3623.091922,-11695.253884,2368.659014,229.828649
3623.092252,-10881.027347,1258.350101,-2374.896044
3623.092582,-10732.986159,592.164754,-2757.943793
3623.092912,-11695.253884,-444.123565,-1072.533697
3623.093242,-10955.047942,-1036.288319,0.000000
3623.093572,-8142.265362,-1332.370696,-76.609550
3623.093902,-5699.585753,-1258.350101,459.657299
3623.094232,-7031.956449,-370.102971,1455.581446
3623.094562,-10214.842000,666.185348,2681.334243
3623.094892,-11991.336260,1480.411884,1915.238745
3623.095221,-11177.109724,1554.432478,536.266849
3623.095551,-9918.759623,740.205942,153.219100
3623.095881,-10362.883188,0.000000,1149.143247
3623.096211,-11621.233289,-222.061783,536.266849
3623.096541,-10807.006753,-666.185348,-689.485948
3623.096871,-8068.244768,-888.247130,-2221.676944
3623.097201,-6957.935855,-740.205942,-766.095498
3623.097531,-7994.224174,222.061783,2221.676944
3623.097861,-10807.006753,1332.370696,4290.134789
3623.098191,-11843.295072,2072.576638,2221.676944
3623.098521,-10881.027347,1184.329507,-1072.533697
3623.098850,-10510.924376,444.123565,-2681.334243
3623.099180,-10955.047942,0.000000,-1532.190996
