#time,accel_x,accel_y,accel_z
4066.482041,-8882.471304,-2812.782580,459.657299
4066.482371,-8586.388927,-1850.514855,1608.800546
4066.482701,-9178.553681,-1480.411884,3524.039291
4066.483031,-10510.924376,-148.041188,4136.915689
4066.483361,-10955.047942,74.020594,2834.553343
4066.483691,-11029.068536,444.123565,1915.238745
4066.484021,-11473.192101,592.164754,766.095498
4066.484352,-10510.924376,0.000000,766.095498
4066.484682,-9326.594869,-444.123565,1302.362347
4066.485012,-8512.368333,-444.123565,1532.190996
4066.485342,-8734.430116,-222.061783,536.266849
4066.485672,-9474.636058,-444.123565,459.657299
4066.486002,-9622.677246,-370.102971,-383.047749
4066.486332,-9474.636058,-370.102971,-153.219100
4066.486662,-9178.553681,-148.041188,689.485948
4066.486992,-10288.862594,0.000000,2451.505594
4066.487322,-10214.842000,74.020594,2681.334243
4066.487652,-10066.800811,-74.020594,2374.896044
4066.487982,-10362.883188,0.000000,2451.505594
4066.488312,-11103.089130,-222.061783,2757.943793
4066.488642,-11769.274478,-370.102971,3217.601092
4066.488972,-10658.965565,-370.102971,3370.820191
4066.489302,-9844.739029,-740.205942,2911.162892
4066.489632,-9400.615463,-1480.411884,1838.629195
4066.489962,-9844.739029,-1702.473667,1455.581446
4066.490292,-9548.656652,-1702.473667,766.095498
4066.490623,-8882.471304,-1776.494261,1072.533697
4066.490953,-8290.306550,-2220.617826,995.924147
4066.491283,-8734.430116,-2220.617826,2604.724693
4066.491613,-9474.636058,-2294.638420,3600.648841
4066.491943,-10288.862594,-2220.617826,4366.744339
4066.492273,-10510.924376,-2442.679609,4673.182538
4066.492603,-10436.903782,-3108.864956,4749.792088
4066.492933,-10658.965565,-2664.741391,3600.648841
4066.493263,-10658.965565,-2664.741391,3064.381992
4066.493593,-9400.615463,-2960.823768,2374.896044
4066.493923,-9474.636058,-2738.761985,689.485948
4066.494253,-8734.430116,-2590.720797,-306.438199
4066.494583,-8882.471304,-2516.700203,229.828649
4066.494913,-10362.883188,-2516.700203,1532.190996
4066.495243,-9104.533087,-3182.885551,3753.867940
4066.495573,-9326.594869,-4145.153275,4443.353888
4066.495903,-10066.800811,-4441.235652,2834.553343
4066.496233,-10510.924376,-4589.276840,1915.238745
4066.496564,-10807.006753,-4071.132681,3294.210641
4066.496894,-10881.027347,-3775.050304,4903.011187
4066.497224,-10881.027347,-3108.864956,4596.572988
4066.497554,-10955.047942,-2960.823768,2681.334243
4066.497884,-10658.965565,-2368.659014,1532.190996
4066.498214,-10066.800811,-2886.803174,536.266849
4066.498544,-10288.862594,-3182.885551,1762.019645
4066.498874,-9918.759623,-3775.050304,3294.210641
4066.499204,-9252.574275,-4441.235652,3524.039291
4066.499534,-8438.347739,-4885.359217,2911.162892
4066.499864,-9030.512492,-5107.421000,1915.238745
4066.500194,-9770.718434,-4737.318029,2834.553343
4066.500524,-11177.109724,-3997.112087,3983.696590
4066.500854,-10658.965565,-2960.823768,4290.134789
4066.501184,-10288.862594,-2738.761985,2757.943793
4066.501514,-9326.594869,-2738.761985,2528.115143
4066.501844,-9548.656652,-2664.741391,2528.115143
4066.502174,-9992.780217,-2960.823768,2681.334243
4066.502504,-9770.718434,-3552.988522,3064.381992
4066.502835,-8734.430116,-3701.029710,3600.648841
4066.503165,-8142.265362,-3478.967927,3064.381992
4066.503495,-8808.450710,-3182.885551,2298.286494
4066.503825,-9474.636058,-2442.679609,1838.629195
4066.504155,-10288.862594,-1776.494261,1455.581446
4066.504485,-10140.821405,-1480.411884,1455.581446
4066.504815,-9844.739029,-814.226536,2145.067394
4066.505145,-9918.759623,-518.144159,3370.820191
4066.505475,-10658.965565,-962.267725,3140.991542
4066.505805,-10288.862594,-1628.453072,1838.629195
4066.506135,-9992.780217,-1924.535449,689.485948
4066.506465,-9252.574275,-1776.494261,1608.800546
4066.506795,-9178.553681,-1998.556043,3140.991542
4066.507125,-8734.430116,-1406.391290,4443.353888
4066.507455,-9030.512492,-1036.288319,4060.306139
4066.507785,-9992.780217,0.000000,2221.676944
4066.508115,-10510.924376,0.000000,536.266849
4066.508445,-11029.068536,148.041188,-459.657299
4066.508775,-11251.130318,518.144159,1072.533697
4066.509105,-10807.006753,518.144159,1455.581446
4066.509435,-10288.862594,0.000000,1378.971896
4066.509765,-9622.677246,74.020594,306.438199
4066.510095,-9474.636058,-370.102971,0.000000
4066.510425,-9252.574275,-370.102971,0.000000
4066.510755,-9548.656652,-518.144159,1225.752797
4066.511085,-9844.739029,-518.144159,2451.505594
4066.511415,-9918.759623,-296.082377,2604.724693
4066.511745,-9474.636058,-592.164754,1225.752797
4066.512075,-9400.615463,-444.123565,0.000000
4066.512405,-9548.656652,-1184.329507,-689.485948
4066.512735,-9918.759623,222.061783,842.705048
4066.513065,-10362.883188,0.000000,2451.505594
4066.513395,-9918.759623,1332.370696,2451.505594
4066.513725,-10214.842000,74.020594,1455.581446
4066.514055,-10140.821405,-222.061783,-153.219100
4066.514385,-9770.718434,-296.082377,-153.219100
4066.514715,-9844.739029,-296.082377,0.000000
4066.515045,-9622.677246,-370.102971,1455.581446
4066.515374,-8438.347739,-592.164754,1455.581446
4066.515704,-8882.471304,222.061783,383.047749
4066.516034,-10214.842000,370.102971,-1149.143247
4066.516364,-11917.315666,444.123565,0.000000
4066.516694,-11917.315666,962.267725,0.000000
4066.517024,-10436.903782,-222.061783,229.828649
4066.517354,-9030.512492,-444.123565,766.095498
4066.517684,-8364.327145,-1036.288319,1225.752797
4066.518014,-9992.780217,-74.020594,1378.971896
4066.518344,-9992.780217,-296.082377,-153.219100
4066.518674,-9622.677246,-370.102971,-1685.410096
4066.519004,-9104.533087,0.000000,-1455.581446
4066.519334,-9326.594869,-888.247130,306.438199
4066.519664,-10140.821405,-222.061783,1378.971896
4066.519994,-10658.965565,-666.185348,1225.752797
4066.520324,-9992.780217,-814.226536,229.828649
4066.520654,-9030.512492,-1036.288319,536.266849
4066.520984,-9400.615463,-740.205942,842.705048
4066.521314,-10214.842000,0.000000,2451.505594
4066.521644,-10362.883188,74.020594,2374.896044
4066.521974,-9844.739029,74.020594,459.657299
4066.522304,-10362.883188,74.020594,-689.485948
4066.522634,-10288.862594,0.000000,306.438199
4066.522964,-10732.986159,-518.144159,612.876398
4066.523294,-10436.903782,-518.144159,612.876398
4066.523624,-8734.430116,-1184.329507,76.609550
4066.523954,-7994.224174,-962.267725,-306.438199
4066.524284,-8068.244768,-1036.288319,0.000000
4066.524614,-10140.821405,0.000000,306.438199
4066.524944,-10288.862594,148.041188,1685.410096
4066.525274,-9696.697840,0.000000,919.314598
4066.525604,-9918.759623,-148.041188,995.924147
4066.525934,-10066.800811,-296.082377,1149.143247
4066.526264,-10658.965565,-592.164754,1225.752797
4066.526594,-10140.821405,-888.247130,229.828649
4066.526924,-9474.636058,-370.102971,0.000000
4066.527254,-9548.656652,-740.205942,0.000000
4066.527584,-9474.636058,-296.082377,229.828649
4066.527914,-9918.759623,0.000000,383.047749
4066.528244,-9770.718434,148.041188,0.000000
4066.528574,-9474.636058,296.082377,-536.266849
4066.528904,-9696.697840,518.144159,76.609550
4066.529234,-9622.677246,0.000000,1072.533697
4066.529564,-10288.862594,74.020594,766.095498
4066.529894,-10362.883188,0.000000,153.219100
4066.530224,-10362.883188,-444.123565,-383.047749
4066.530554,-9918.759623,0.000000,-153.219100
4066.530884,-9696.697840,0.000000,689.485948
4066.531214,-9474.636058,222.061783,229.828649
4066.531544,-8734.430116,370.102971,153.219100
4066.531874,-9030.512492,370.102971,0.000000
4066.532204,-9474.636058,592.164754,459.657299
4066.532534,-10584.944971,888.247130,1532.190996
4066.532864,-11325.150913,888.247130,1378.971896
4066.533194,-10732.986159,518.144159,-1225.752797
4066.533524,-9474.636058,444.123565,-1762.019645
4066.533854,-9474.636058,-444.123565,-1149.143247
4066.534184,-9918.759623,-296.082377,459.657299
4066.534514,-9400.615463,814.226536,766.095498
4066.534844,-8734.430116,222.061783,536.266849
4066.535174,-8956.491898,814.226536,-229.828649
4066.535504,-9474.636058,888.247130,0.000000
4066.535834,-10140.821405,518.144159,0.000000
4066.536163,-10807.006753,962.267725,306.438199
4066.536493,-9622.677246,666.185348,383.047749
4066.536823,-9548.656652,962.267725,459.657299
4066.537153,-10584.944971,592.164754,-76.609550
4066.537483,-11029.068536,740.205942,76.609550
4066.537813,-9696.697840,370.102971,-1072.533697
4066.538143,-9030.512492,962.267725,-1149.143247
4066.538473,-9030.512492,666.185348,-306.438199
4066.538803,-9030.512492,592.164754,842.705048
4066.539133,-9474.636058,518.144159,919.314598
4066.539463,-9770.718434,666.185348,306.438199
4066.539793,-9622.677246,592.164754,-1378.971896
4066.540123,-9696.697840,518.144159,-1532.190996
4066.540453,-10288.862594,666.185348,76.609550
4066.540783,-10955.047942,814.226536,1149.143247
4066.541113,-10140.821405,592.164754,689.485948
4066.541443,-9326.594869,740.205942,-459.657299
4066.541773,-9400.615463,370.102971,-1149.143247
4066.542103,-9844.739029,222.061783,689.485948
4066.542433,-10732.986159,370.102971,1915.238745
4066.542763,-9844.739029,370.102971,1455.581446
4066.543093,-9030.512492,0.000000,229.828649
4066.543423,-9622.677246,222.061783,-689.485948
4066.543753,-9918.759623,222.061783,-306.438199
4066.544083,-11251.130318,592.164754,76.609550
4066.544413,-9918.759623,148.041188,459.657299
4066.544743,-9400.615463,148.041188,0.000000
4066.545073,-9252.574275,148.041188,-229.828649
4066.545403,-9474.636058,0.000000,612.876398
4066.545733,-10066.800811,-370.102971,1455.581446
4066.546063,-9548.656652,-592.164754,689.485948
4066.546393,-9252.574275,-962.267725,0.000000
4066.546723,-9474.636058,-814.226536,383.047749
4066.547053,-9844.739029,-148.041188,1378.971896
4066.547383,-10510.924376,-148.041188,1225.752797
4066.547713,-10436.903782,-148.041188,459.657299
4066.548043,-10658.965565,-222.061783,-766.095498
4066.548373,-9844.739029,-370.102971,-306.438199
4066.548703,-9548.656652,-518.144159,1225.752797
4066.549033,-9844.739029,-222.061783,2528.115143
4066.549363,-9548.656652,-1184.329507,306.438199
4066.549693,-8734.430116,-1110.308913,-1378.971896
4066.550023,-8882.471304,-962.267725,-1838.629195
4066.550353,-9918.759623,-666.185348,-383.047749
4066.550683,-10362.883188,-370.102971,612.876398
4066.551013,-9770.718434,-518.144159,612.876398
4066.551343,-9326.594869,-444.123565,0.000000
4066.551673,-9474.636058,-518.144159,76.609550
4066.552003,-10584.944971,-296.082377,1608.800546
4066.552333,-10658.965565,-592.164754,995.924147
4066.552663,-9400.615463,-962.267725,153.219100
4066.552993,-9030.512492,-518.144159,-383.047749
4066.553323,-9548.656652,-666.185348,306.438199
4066.553653,-10732.986159,-74.020594,842.705048
4066.553983,-10362.883188,-74.020594,0.000000
4066.554313,-9104.533087,0.000000,-1225.752797
4066.554643,-8808.450710,222.061783,-995.924147
4066.554973,-8956.491898,0.000000,229.828649
4066.555303,-11029.068536,444.123565,1608.800546
4066.555633,-10955.047942,74.020594,1302.362347
4066.555963,-10066.800811,0.000000,-459.657299
4066.556293,-9252.574275,-370.102971,-995.924147
4066.556623,-10066.800811,-370.102971,306.438199
4066.556952,-10510.924376,148.041188,1302.362347
4066.557282,-9326.594869,148.041188,612.876398
4066.557612,-9104.533087,296.082377,-612.876398
4066.557942,-9252.574275,592.164754,-1149.143247
4066.558272,-10140.821405,370.102971,0.000000
4066.558602,-11177.109724,740.205942,1532.190996
4066.558932,-10214.842000,148.041188,2068.457845
4066.559262,-9474.636058,148.041188,0.000000
4066.559592,-8956.491898,-296.082377,-383.047749
4066.559922,-9844.739029,0.000000,459.657299
4066.560252,-10584.944971,148.041188,1302.362347
4066.560582,-9252.574275,296.082377,766.095498
4066.560912,-8290.306550,296.082377,-919.314598
4066.561242,-8512.368333,296.082377,-536.266849
4066.561572,-10510.924376,666.185348,842.705048
4066.561902,-11103.089130,518.144159,612.876398
4066.562232,-9918.759623,0.000000,-306.438199
4066.562562,-8660.409521,-148.041188,-689.485948
4066.562892,-8512.368333,-370.102971,-153.219100
4066.563222,-9622.677246,0.000000,1072.533697
4066.563552,-10140.821405,148.041188,1072.533697
4066.563882,-9548.656652,370.102971,0.000000
4066.564212,-9474.636058,296.082377,-383.047749
4066.564542,-10066.800811,296.082377,0.000000
4066.564872,-10881.027347,74.020594,1838.629195
4066.565202,-10658.965565,0.000000,1378.971896
4066.565532,-8586.388927,0.000000,-612.876398
4066.565862,-8512.368333,0.000000,-1685.410096
4066.566192,-9622.677246,0.000000,-1378.971896
4066.566522,-11251.130318,740.205942,612.876398
4066.566852,-11325.150913,740.205942,766.095498
4066.567182,-9992.780217,518.144159,-842.705048
4066.567512,-9104.533087,222.061783,-842.705048
4066.567842,-9252.574275,0.000000,-153.219100
4066.568172,-10955.047942,74.020594,995.924147
4066.568502,-10362.883188,-296.082377,1302.362347
4066.568832,-8734.430116,-814.226536,0.000000
4066.569162,-8364.327145,-814.226536,-536.266849
4066.569492,-9252.574275,0.000000,536.266849
4066.569822,-11251.130318,370.102971,1302.362347
4066.570152,-10510.924376,296.082377,306.438199
4066.570482,-9326.594869,0.000000,-459.657299
4066.570812,-9104.533087,148.041188,0.000000
4066.571142,-10214.842000,222.061783,1685.410096
4066.571472,-10955.047942,148.041188,1838.629195
4066.571802,-9918.759623,0.000000,689.485948
4066.572132,-8660.409521,-740.205942,-1149.143247
4066.572462,-8512.368333,-666.185348,-689.485948
4066.572792,-9918.759623,0.000000,383.047749
4066.573122,-10436.903782,296.082377,1532.190996
4066.573452,-9844.739029,74.020594,76.609550
4066.573782,-9178.553681,0.000000,-536.266849
4066.574112,-9326.594869,0.000000,0.000000
4066.574442,-10510.924376,222.061783,1455.581446
4066.574772,-11029.068536,222.061783,2145.067394
4066.575102,-9474.636058,-222.061783,689.485948
4066.575432,-8808.450710,-666.185348,0.000000
4066.575762,-9474.636058,-518.144159,153.219100
4066.576092,-10658.965565,148.041188,995.924147
4066.576422,-10658.965565,0.000000,612.876398
4066.576752,-9252.574275,-296.082377,-153.219100
4066.577082,-8068.244768,0.000000,-842.705048
4066.577412,-8734.430116,296.082377,-536.266849
4066.577741,-11251.130318,740.205942,1225.752797
4066.578071,-11843.295072,444.123565,689.485948
4066.578401,-10066.800811,-296.082377,-689.485948
4066.578731,-8808.450710,-444.123565,-459.657299
4066.579061,-8956.491898,-666.185348,612.876398
4066.579391,-11029.068536,-444.123565,2068.457845
4066.579721,-10066.800811,-814.226536,919.314598
4066.580051,-8512.368333,-518.144159,0.000000
4066.580381,-8660.409521,-666.185348,0.000000
4066.580711,-9770.718434,-74.020594,1225.752797
4066.581041,-11251.130318,74.020594,2528.115143
4066.581371,-10288.862594,-296.082377,1378.971896
4066.581701,-8956.491898,-370.102971,229.828649
4066.582031,-9178.553681,-444.123565,-536.266849
4066.582361,-10436.903782,-74.020594,0.000000
4066.582691,-11029.068536,370.102971,459.657299
4066.583021,-10140.821405,148.041188,0.000000
4066.583351,-9326.594869,370.102971,-1302.362347
4066.583681,-8512.368333,0.000000,-689.485948
4066.584011,-9326.594869,148.041188,306.438199
4066.584341,-10658.965565,0.000000,1762.019645
4066.584671,-9992.780217,-148.041188,766.095498
4066.585001,-8882.471304,-740.205942,-306.438199
4066.585331,-8734.430116,-444.123565,0.000000
4066.585661,-10140.821405,222.061783,919.314598
4066.585991,-11547.212695,1036.288319,842.705048
4066.586321,-10362.883188,740.205942,-995.924147
4066.586651,-9326.594869,666.185348,-1685.410096
4066.586981,-9178.553681,962.267725,-612.876398
4066.587311,-10362.883188,962.267725,1608.800546
4066.587641,-11177.109724,666.185348,1225.752797
4066.587971,-10066.800811,222.061783,-306.438199
4066.588301,-8734.430116,0.000000,-1225.752797
4066.588631,-8660.409521,0.000000,-1072.533697
4066.588961,-9844.739029,666.185348,229.828649
4066.589291,-10584.944971,888.247130,459.657299
4066.589621,-9622.677246,814.226536,-536.266849
4066.589951,-9326.594869,888.247130,-689.485948
4066.590281,-9992.780217,962.267725,536.266849
4066.590611,-11251.130318,814.226536,1225.752797
4066.590941,-11029.068536,444.123565,689.485948
4066.591271,-9030.512492,0.000000,-612.876398
4066.591601,-7846.182985,-518.144159,0.000000
4066.591931,-8882.471304,0.000000,766.095498
4066.592261,-10362.883188,592.164754,1225.752797
4066.592591,-10362.883188,666.185348,0.000000
4066.592921,-8808.450710,222.061783,-1149.143247
4066.593251,-9030.512492,666.185348,-919.314598
4066.593581,-10584.944971,814.226536,1225.752797
4066.593911,-11547.212695,888.247130,2068.457845
4066.594241,-10732.986159,0.000000,612.876398
4066.594571,-9252.574275,0.000000,-459.657299
4066.594901,-8438.347739,-370.102971,-842.705048
4066.595231,-9474.636058,-296.082377,459.657299
4066.595561,-10807.006753,0.000000,1838.629195
4066.595891,-10658.965565,74.020594,1378.971896
4066.596221,-9548.656652,0.000000,-229.828649
4066.596551,-9104.533087,-148.041188,-153.219100
4066.596881,-9770.718434,-148.041188,766.095498
4066.597211,-10584.944971,-148.041188,1838.629195
4066.597541,-9326.594869,-444.123565,459.657299
4066.597871,-8586.388927,-740.205942,-306.438199
4066.598201,-8438.347739,-666.185348,306.438199
4066.598531,-9844.739029,-370.102971,1072.533697
4066.598860,-11251.130318,0.000000,1378.971896
4066.599190,-10288.862594,-222.061783,-306.438199
4066.599520,-9252.574275,-592.164754,-766.095498
4066.599850,-8660.409521,-740.205942,-306.438199
4066.600180,-9622.677246,-296.082377,1225.752797
4066.600510,-10584.944971,-370.102971,1915.238745
4066.600840,-9400.615463,-666.185348,0.000000
4066.601170,-8956.491898,-370.102971,-459.657299
4066.601500,-9770.718434,-370.102971,459.657299
4066.601830,-11547.212695,0.000000,1838.629195
4066.602160,-11325.150913,-148.041188,1378.971896
4066.602490,-9918.759623,-518.144159,0.000000
4066.602820,-9104.533087,-222.061783,-536.266849
4066.603150,-8808.450710,-370.102971,-306.438199
4066.603480,-10436.903782,296.082377,383.047749
4066.603810,-10807.006753,444.123565,0.000000
4066.604140,-10066.800811,370.102971,-919.314598
4066.604470,-8956.491898,-222.061783,-536.266849
4066.604800,-9770.718434,74.020594,766.095498
4066.605129,-10658.965565,222.061783,1072.533697
4066.605459,-10362.883188,0.000000,306.438199
4066.605789,-8956.491898,74.020594,-766.095498
4066.606118,-9178.553681,0.000000,-842.705048
4066.606448,-9622.677246,74.020594,306.438199
4066.606778,-10881.027347,592.164754,1915.238745
4066.607107,-10140.821405,296.082377,1149.143247
4066.607437,-8956.491898,74.020594,-306.438199
4066.607767,-8956.491898,-148.041188,-153.219100
4066.608096,-9474.636058,0.000000,76.609550
4066.608426,-10140.821405,296.082377,689.485948
4066.608756,-9400.615463,222.061783,153.219100
4066.609085,-8956.491898,74.020594,-919.314598
4066.609415,-8734.430116,444.123565,-919.314598
4066.609744,-9548.656652,592.164754,229.828649
4066.610074,-10732.986159,814.226536,766.095498
4066.610404,-10066.800811,518.144159,-536.266849
4066.610733,-9178.553681,666.185348,-919.314598
4066.611063,-8882.471304,666.185348,-306.438199
4066.611393,-10066.800811,740.205942,1225.752797
4066.611722,-10881.027347,592.164754,612.876398
4066.612052,-10288.862594,444.123565,-229.828649
4066.612382,-9400.615463,592.164754,-919.314598
4066.612711,-8660.409521,592.164754,-689.485948
4066.613041,-9770.718434,814.226536,612.876398
4066.613371,-10436.903782,962.267725,306.438199
4066.613700,-9992.780217,592.164754,-229.828649
4066.614030,-9474.636058,296.082377,-689.485948
4066.614359,-9178.553681,0.000000,153.219100
4066.614689,-10362.883188,74.020594,1685.410096
4066.615019,-10732.986159,0.000000,1149.143247
4066.615348,-10140.821405,0.000000,459.657299
4066.615678,-9178.553681,74.020594,-459.657299
4066.616008,-8882.471304,370.102971,-383.047749
4066.616337,-10288.862594,592.164754,842.705048
4066.616667,-10881.027347,518.144159,1072.533697
4066.616997,-10288.862594,518.144159,383.047749
4066.617326,-9252.574275,0.000000,-306.438199
4066.617656,-9252.574275,0.000000,0.000000
4066.617986,-10584.944971,0.000000,536.266849
4066.618315,-10288.862594,-444.123565,306.438199
4066.618645,-9326.594869,-592.164754,-383.047749
4066.618974,-8068.244768,-370.102971,0.000000
4066.619304,-8956.491898,0.000000,842.705048
4066.619634,-10807.006753,814.226536,1149.143247
4066.619963,-10955.047942,444.123565,536.266849
4066.620293,-10066.800811,148.041188,-383.047749
4066.620623,-9400.615463,-148.041188,0.000000
4066.620952,-9844.739029,-296.082377,1225.752797
4066.621282,-10584.944971,-296.082377,1378.971896
4066.621612,-9844.739029,-518.144159,229.828649
4066.621941,-8660.409521,-666.185348,-1225.752797
4066.622271,-8438.347739,-222.061783,-1225.752797
4066.622601,-9918.759623,0.000000,153.219100
4066.622930,-11177.109724,296.082377,1685.410096
4066.623260,-10584.944971,370.102971,612.876398
4066.623589,-9030.512492,74.020594,-459.657299
4066.623919,-8956.491898,-444.123565,-919.314598
4066.624249,-10362.883188,0.000000,229.828649
4066.624578,-10658.965565,0.000000,919.314598
4066.624908,-9696.697840,-74.020594,306.438199
4066.625238,-9252.574275,-444.123565,-536.266849
4066.625567,-9178.553681,-814.226536,0.000000
4066.625897,-10362.883188,-444.123565,1302.362347
4066.626227,-10510.924376,-370.102971,919.314598
4066.626556,-9030.512492,-592.164754,76.609550
4066.626886,-8068.244768,-666.185348,0.000000
4066.627216,-8586.388927,-370.102971,383.047749
4066.627545,-10214.842000,296.082377,1608.800546
4066.627875,-11325.150913,148.041188,1378.971896
4066.628204,-10955.047942,74.020594,0.000000
4066.628534,-9474.636058,-444.123565,-612.876398
4066.628864,-8660.409521,-74.020594,-383.047749
4066.629193,-9770.718434,-222.061783,612.876398
4066.629523,-9622.677246,-148.041188,459.657299
4066.629853,-9400.615463,0.000000,-612.876398
4066.630182,-9104.533087,0.000000,-919.314598
4066.630512,-9622.677246,0.000000,0.000000
4066.630842,-10584.944971,148.041188,919.314598
4066.631171,-10214.842000,0.000000,919.314598
4066.631501,-9178.553681,0.000000,-459.657299
4066.631830,-8290.306550,0.000000,-1149.143247
4066.632160,-9252.574275,74.020594,0.000000
4066.632490,-10732.986159,666.185348,1149.143247
4066.632819,-11029.068536,370.102971,612.876398
4066.633149,-9474.636058,222.061783,-76.609550
4066.633479,-9030.512492,0.000000,-229.828649
4066.633808,-9178.553681,74.020594,153.219100
4066.634138,-9844.739029,222.061783,536.266849
4066.634468,-9696.697840,370.102971,-459.657299
4066.634797,-9622.677246,740.205942,-842.705048
4066.635127,-9474.636058,592.164754,-229.828649
4066.635457,-10584.944971,666.185348,306.438199
4066.635786,-11325.150913,666.185348,1072.533697
4066.636116,-10436.903782,518.144159,76.609550
4066.636445,-9622.677246,814.226536,-689.485948
4066.636775,-9104.533087,592.164754,-612.876398
4066.637105,-9844.739029,666.185348,459.657299
4066.637434,-10732.986159,814.226536,1072.533697
4066.637764,-10214.842000,740.205942,0.000000
4066.638094,-9474.636058,814.226536,-1225.752797
4066.638423,-8882.471304,740.205942,-612.876398
4066.638753,-9918.759623,518.144159,229.828649
4066.639083,-10510.924376,222.061783,689.485948
4066.639412,-9030.512492,74.020594,-689.485948
4066.639742,-8216.285956,222.061783,-919.314598
4066.640072,-9252.574275,74.020594,76.609550
4066.640401,-10807.006753,518.144159,1838.629195
4066.640731,-10807.006753,222.061783,1149.143247
4066.641060,-9696.697840,296.082377,-229.828649
4066.641390,-8808.450710,-148.041188,-766.095498
4066.641720,-8882.471304,-148.041188,0.000000
4066.642049,-9992.780217,148.041188,919.314598
4066.642379,-9770.718434,0.000000,689.485948
4066.642709,-9178.553681,0.000000,-229.828649
4066.643038,-8438.347739,-518.144159,-536.266849
4066.643368,-9252.574275,-370.102971,153.219100
4066.643698,-10288.862594,-222.061783,1149.143247
4066.644027,-10362.883188,0.000000,612.876398
4066.644357,-9844.739029,-518.144159,0.000000
4066.644687,-9104.533087,-740.205942,-536.266849
4066.645016,-9252.574275,-740.205942,383.047749
4066.645346,-10584.944971,-296.082377,842.705048
4066.645675,-10436.903782,-740.205942,459.657299
4066.646005,-9696.697840,-370.102971,-612.876398
4066.646335,-8956.491898,-666.185348,-536.266849
4066.646664,-9696.697840,-740.205942,995.924147
4066.646994,-11103.089130,-592.164754,2221.676944
4066.647324,-10288.862594,-444.123565,1149.143247
4066.647653,-9178.553681,-740.205942,-153.219100
4066.647983,-8438.347739,-1184.329507,-766.095498
4066.648313,-9770.718434,-1184.329507,459.657299
4066.648642,-10510.924376,-592.164754,1378.971896
4066.648972,-10066.800811,-370.102971,995.924147
4066.649302,-9178.553681,-74.020594,0.000000
4066.649631,-9104.533087,-444.123565,229.828649
4066.649961,-10732.986159,0.000000,1225.752797
4066.650290,-11251.130318,74.020594,1302.362347
4066.650620,-10584.944971,-296.082377,76.609550
4066.650950,-9030.512492,-740.205942,-229.828649
4066.651279,-8660.409521,-1110.308913,919.314598
4066.651609,-9622.677246,-370.102971,1838.629195
4066.651939,-10584.944971,-370.102971,995.924147
4066.652268,-9548.656652,-370.102971,0.000000
4066.652598,-8808.450710,-296.082377,-536.266849
4066.652928,-9474.636058,-222.061783,1072.533697
4066.653257,-11177.109724,0.000000,2221.676944
4066.653587,-11029.068536,74.020594,2221.676944
4066.653917,-10066.800811,0.000000,383.047749
4066.654246,-8882.471304,0.000000,-919.314598
4066.654576,-9326.594869,-148.041188,-995.924147
4066.654905,-11177.109724,74.020594,536.266849
4066.655235,-10732.986159,222.061783,842.705048
4066.655565,-9474.636058,148.041188,0.000000
4066.655894,-8142.265362,0.000000,-76.609550
4066.656224,-9548.656652,222.061783,306.438199
4066.656554,-10732.986159,444.123565,1225.752797
4066.656883,-10362.883188,148.041188,153.219100
4066.657213,-9770.718434,148.041188,-536.266849
4066.657543,-8808.450710,-74.020594,-306.438199
4066.657872,-9474.636058,222.061783,919.314598
4066.658202,-10140.821405,518.144159,1685.410096
4066.658531,-9844.739029,518.144159,-383.047749
4066.658861,-9104.533087,592.164754,-1838.629195
4066.659191,-9104.533087,814.226536,-1838.629195
4066.659520,-9770.718434,814.226536,0.000000
4066.659850,-10436.903782,740.205942,995.924147
4066.660180,-9770.718434,222.061783,995.924147
4066.660509,-8956.491898,222.061783,-689.485948
4066.660839,-8734.430116,296.082377,-1149.143247
4066.661169,-9992.780217,666.185348,0.000000
4066.661498,-10955.047942,592.164754,919.314598
4066.661828,-10140.821405,814.226536,0.000000
4066.662158,-8660.409521,592.164754,-459.657299
4066.662487,-9030.512492,666.185348,0.000000
4066.662817,-10362.883188,1554.432478,1378.971896
4066.663146,-10807.006753,666.185348,153.219100
4066.663476,-9844.739029,370.102971,-1072.533697
4066.663806,-8734.430116,814.226536,-995.924147
4066.664135,-9252.574275,370.102971,-76.609550
4066.664465,-10214.842000,592.164754,919.314598
4066.664795,-10732.986159,518.144159,0.000000
4066.665124,-9992.780217,666.185348,-919.314598
4066.665454,-9030.512492,592.164754,-1072.533697
4066.665784,-10066.800811,814.226536,153.219100
4066.666113,-10732.986159,518.144159,1838.629195
4066.666443,-10658.965565,444.123565,1225.752797
4066.666773,-10140.821405,0.000000,229.828649
4066.667102,-8438.347739,0.000000,-153.219100
4066.667432,-8808.450710,74.020594,0.000000
4066.667761,-10288.862594,296.082377,842.705048
4066.668091,-10732.986159,518.144159,383.047749
4066.668421,-9252.574275,296.082377,-153.219100
4066.668750,-9104.533087,592.164754,-229.828649
4066.669080,-9770.718434,370.102971,0.000000
4066.669410,-11621.233289,740.205942,1072.533697
4066.669739,-10436.903782,74.020594,0.000000
4066.670069,-8882.471304,0.000000,-766.095498
4066.670399,-8734.430116,-444.123565,-306.438199
4066.670728,-10066.800811,222.061783,1149.143247
4066.671058,-11251.130318,0.000000,1378.971896
4066.671388,-10658.965565,0.000000,-153.219100
4066.671717,-9104.533087,-444.123565,-766.095498
4066.672047,-8808.450710,-814.226536,0.000000
4066.672376,-9696.697840,-370.102971,1149.143247
4066.672706,-10510.924376,-666.185348,2374.896044
4066.673036,-9770.718434,-518.144159,536.266849
4066.673365,-9474.636058,-518.144159,-536.266849
4066.673695,-9252.574275,-962.267725,-76.609550
4066.674025,-9992.780217,-592.164754,459.657299
4066.674354,-10510.924376,-370.102971,1149.143247
4066.674684,-9622.677246,-592.164754,0.000000
4066.675014,-8956.491898,-888.247130,-612.876398
4066.675343,-8882.471304,-1184.329507,-536.266849
4066.675673,-10140.821405,-592.164754,383.047749
4066.676003,-10066.800811,-666.185348,842.705048
4066.676332,-9696.697840,-370.102971,459.657299
4066.676662,-8734.430116,-666.185348,459.657299
4066.676991,-9178.553681,-1036.288319,919.314598
4066.677321,-10510.924376,-444.123565,919.314598
4066.677651,-10955.047942,-666.185348,153.219100
4066.677980,-9844.739029,-592.164754,-612.876398
4066.678310,-8882.471304,-888.247130,-612.876398
4066.678640,-9030.512492,-592.164754,536.266849
4066.678969,-9770.718434,-148.041188,1455.581446
4066.679299,-10140.821405,-74.020594,536.266849
4066.679629,-9770.718434,-296.082377,-459.657299
4066.679958,-8956.491898,-740.205942,0.000000
4066.680288,-9326.594869,0.000000,1225.752797
4066.680617,-10288.862594,74.020594,2145.067394
4066.680947,-11251.130318,74.020594,1072.533697
4066.681277,-9992.780217,-444.123565,-459.657299
4066.681606,-9030.512492,0.000000,-1225.752797
4066.681936,-9400.615463,222.061783,0.000000
4066.682266,-10436.903782,740.205942,995.924147
4066.682595,-10510.924376,74.020594,1302.362347
4066.682925,-9918.759623,740.205942,536.266849
4066.683255,-9474.636058,444.123565,536.266849
4066.683584,-9992.780217,296.082377,536.266849
4066.683914,-11399.171507,814.226536,842.705048
4066.684244,-10584.944971,148.041188,229.828649
4066.684573,-9104.533087,518.144159,-153.219100
4066.684903,-8512.368333,444.123565,153.219100
4066.685232,-10066.800811,962.267725,229.828649
4066.685562,-10807.006753,740.205942,536.266849
4066.685892,-10140.821405,740.205942,0.000000
4066.686221,-9326.594869,370.102971,-229.828649
4066.686551,-9400.615463,444.123565,459.657299
4066.686881,-10066.800811,74.020594,1149.143247
4066.687210,-10436.903782,518.144159,306.438199
4066.687540,-9474.636058,74.020594,-995.924147
4066.687870,-9326.594869,518.144159,-842.705048
4066.688199,-9548.656652,666.185348,-306.438199
4066.688529,-9844.739029,1036.288319,536.266849
4066.688859,-9622.677246,962.267725,612.876398
4066.689188,-9400.615463,962.267725,0.000000
4066.689518,-9104.533087,888.247130,-842.705048
4066.689847,-9326.594869,74.020594,-919.314598
4066.690177,-9992.780217,518.144159,-689.485948
4066.690507,-10584.944971,518.144159,-919.314598
4066.690836,-9548.656652,518.144159,-919.314598
4066.691166,-8734.430116,0.000000,0.000000
4066.691496,-9252.574275,296.082377,153.219100
4066.691825,-9844.739029,666.185348,459.657299
4066.692155,-10362.883188,296.082377,153.219100
4066.692485,-9548.656652,518.144159,459.657299
4066.692814,-9474.636058,370.102971,0.000000
4066.693144,-9918.759623,296.082377,919.314598
4066.693474,-10732.986159,0.000000,919.314598
4066.693803,-10807.006753,-148.041188,-612.876398
4066.694133,-9326.594869,-592.164754,-1608.800546
4066.694462,-9178.553681,-148.041188,-1532.190996
4066.694792,-9252.574275,-148.041188,383.047749
4066.695122,-9844.739029,74.020594,1455.581446
4066.695451,-10436.903782,-444.123565,1225.752797
4066.695781,-9770.718434,-444.123565,459.657299
4066.696111,-9622.677246,-666.185348,76.609550
4066.696440,-9844.739029,-814.226536,919.314598
4066.696770,-10362.883188,-1110.308913,2451.505594
4066.697100,-10066.800811,-1110.308913,1915.238745
4066.697429,-9400.615463,-888.247130,1532.190996
4066.697759,-9030.512492,-888.247130,536.266849
4066.698089,-9696.697840,-222.061783,0.000000
4066.698418,-10140.821405,-222.061783,-306.438199
4066.698748,-9770.718434,0.000000,-153.219100
4066.699077,-9474.636058,-74.020594,0.000000
4066.699407,-9252.574275,-518.144159,229.828649
4066.699737,-10658.965565,-370.102971,689.485948
4066.700066,-10658.965565,-296.082377,689.485948
4066.700396,-10140.821405,-740.205942,-229.828649
4066.700726,-9104.533087,-740.205942,-383.047749
4066.701055,-8956.491898,-962.267725,995.924147
4066.701385,-10436.903782,-370.102971,2528.115143
4066.701715,-10584.944971,-592.164754,2145.067394
4066.702044,-10214.842000,-518.144159,1072.533697
4066.702374,-9400.615463,-592.164754,0.000000
4066.702704,-9400.615463,-518.144159,459.657299
4066.703033,-10362.883188,0.000000,1225.752797
4066.703363,-10955.047942,-148.041188,1455.581446
4066.703692,-10362.883188,-74.020594,306.438199
4066.704022,-9178.553681,0.000000,-842.705048
4066.704352,-9474.636058,0.000000,-612.876398
4066.704681,-10584.944971,222.061783,229.828649
4066.705011,-10807.006753,74.020594,766.095498
4066.705341,-9474.636058,0.000000,919.314598
4066.705670,-8586.388927,-222.061783,536.266849
4066.706000,-9030.512492,-222.061783,459.657299
4066.706330,-10510.924376,-296.082377,919.314598
4066.706659,-10584.944971,-666.185348,536.266849
4066.706989,-9252.574275,0.000000,-306.438199
4066.707318,-8512.368333,148.041188,0.000000
4066.707648,-9030.512492,444.123565,766.095498
4066.707978,-10214.842000,814.226536,689.485948
4066.708307,-9992.780217,666.185348,76.609550
4066.708637,-9548.656652,444.123565,-919.314598
4066.708967,-8956.491898,296.082377,-1149.143247
4066.709296,-9474.636058,74.020594,0.000000
4066.709626,-9474.636058,0.000000,995.924147
4066.709956,-8882.471304,518.144159,0.000000
4066.710285,-8734.430116,666.185348,-1149.143247
4066.710615,-9104.533087,888.247130,-1225.752797
4066.710945,-10436.903782,1110.308913,0.000000
4066.711274,-11325.150913,1332.370696,459.657299
4066.711604,-10658.965565,962.267725,306.438199
4066.711933,-9770.718434,592.164754,153.219100
4066.712263,-8956.491898,0.000000,-383.047749
4066.712593,-9696.697840,370.102971,0.000000
4066.712922,-10362.883188,518.144159,0.000000
4066.713252,-9622.677246,518.144159,-919.314598
4066.713582,-8956.491898,1110.308913,-689.485948
4066.713911,-8882.471304,814.226536,0.000000
4066.714241,-10362.883188,1406.391290,612.876398
4066.714571,-11399.171507,888.247130,766.095498
4066.714900,-10362.883188,592.164754,0.000000
4066.715230,-9030.512492,0.000000,-306.438199
4066.715559,-9400.615463,0.000000,306.438199
4066.715889,-10436.903782,74.020594,1378.971896
4066.716219,-10510.924376,0.000000,1149.143247
4066.716548,-8956.491898,0.000000,76.609550
4066.716878,-8438.347739,148.041188,-153.219100
4066.717208,-9400.615463,666.185348,383.047749
4066.717537,-10732.986159,444.123565,1225.752797
4066.717867,-11177.109724,518.144159,919.314598
4066.718197,-9844.739029,-370.102971,76.609550
4066.718526,-9252.574275,-740.205942,-383.047749
4066.718856,-8882.471304,-962.267725,536.266849
4066.719185,-9696.697840,-296.082377,1225.752797
4066.719515,-9770.718434,-444.123565,842.705048
4066.719845,-9400.615463,-148.041188,-153.219100
4066.720174,-9178.553681,-74.020594,-536.266849
4066.720504,-9770.718434,296.082377,689.485948
4066.720834,-11029.068536,148.041188,2145.067394
4066.721163,-10881.027347,148.041188,1455.581446
4066.721493,-9326.594869,-444.123565,-612.876398
4066.721823,-8438.347739,-888.247130,-689.485948
4066.722152,-8956.491898,-666.185348,-76.609550
4066.722482,-10436.903782,-296.082377,612.876398
4066.722812,-10584.944971,-74.020594,-383.047749
4066.723141,-9252.574275,-222.061783,-689.485948
4066.723471,-9104.533087,-296.082377,-306.438199
4066.723800,-10140.821405,0.000000,919.314598
4066.724130,-10658.965565,-74.020594,1378.971896
4066.724460,-9696.697840,-444.123565,76.609550
4066.724789,-9178.553681,-370.102971,0.000000
4066.725119,-9252.574275,-814.226536,1072.533697
4066.725449,-10807.006753,-518.144159,1915.238745
4066.725778,-11177.109724,0.000000,1685.410096
4066.726108,-9844.739029,-518.144159,-306.438199
4066.726438,-8882.471304,-370.102971,-1225.752797
4066.726767,-8660.409521,-444.123565,-536.266849
4066.727097,-9696.697840,0.000000,919.314598
4066.727426,-10288.862594,296.082377,1302.362347
4066.727756,-10140.821405,0.000000,306.438199
4066.728086,-9622.677246,-370.102971,-612.876398
4066.728415,-9030.512492,-814.226536,-229.828649
4066.728745,-10140.821405,-592.164754,1072.533697
4066.729075,-10140.821405,-740.205942,1532.190996
4066.729404,-8660.409521,-1184.329507,153.219100
4066.729734,-8142.265362,-296.082377,0.000000
4066.730064,-9030.512492,0.000000,306.438199
4066.730393,-11103.089130,518.144159,919.314598
4066.730723,-11177.109724,444.123565,0.000000
4066.731053,-9400.615463,0.000000,-995.924147
4066.731382,-8290.306550,0.000000,-1072.533697
4066.731712,-8956.491898,74.020594,306.438199
4066.732041,-10584.944971,222.061783,919.314598
4066.732371,-10658.965565,444.123565,229.828649
4066.732701,-9918.759623,296.082377,-1149.143247
4066.733030,-9178.553681,296.082377,-1225.752797
4066.733360,-9844.739029,666.185348,-306.438199
4066.733690,-10288.862594,296.082377,1608.800546
4066.734019,-10140.821405,222.061783,766.095498
4066.734349,-9326.594869,666.185348,-306.438199
4066.734679,-8734.430116,296.082377,-459.657299
4066.735008,-9918.759623,592.164754,536.266849
4066.735338,-11695.253884,962.267725,766.095498
4066.735667,-10436.903782,0.000000,-229.828649
4066.735997,-9178.553681,222.061783,-919.314598
4066.736327,-8586.388927,0.000000,-306.438199
4066.736656,-9178.553681,444.123565,995.924147
4066.736986,-9918.759623,444.123565,919.314598
4066.737316,-9622.677246,518.144159,229.828649
4066.737645,-9548.656652,222.061783,-229.828649
4066.737975,-9622.677246,0.000000,306.438199
4066.738305,-10881.027347,222.061783,1532.190996
4066.738634,-10658.965565,222.061783,1378.971896
4066.738964,-9104.533087,-222.061783,-76.609550
4066.739293,-8216.285956,222.061783,-1072.533697
4066.739623,-9400.615463,222.061783,-766.095498
4066.739953,-11103.089130,814.226536,919.314598
4066.740282,-11621.233289,962.267725,612.876398
4066.740612,-10214.842000,518.144159,-689.485948
4066.740942,-8734.430116,222.061783,-153.219100
4066.741271,-8438.347739,74.020594,0.000000
4066.741601,-9844.739029,148.041188,1072.533697
4066.741931,-10881.027347,222.061783,76.609550
4066.742260,-9770.718434,148.041188,-1149.143247
4066.742590,-9178.553681,296.082377,-1532.190996
4066.742920,-9178.553681,74.020594,-612.876398
4066.743249,-10288.862594,370.102971,306.438199
4066.743579,-10288.862594,74.020594,383.047749
4066.743908,-9548.656652,-148.041188,-383.047749
4066.744238,-8660.409521,-222.061783,-612.876398
4066.744568,-9178.553681,-444.123565,1149.143247
4066.744897,-10362.883188,0.000000,2221.676944
4066.745227,-10955.047942,-74.020594,1149.143247
4066.745557,-9474.636058,-222.061783,-153.219100
4066.745886,-9178.553681,-222.061783,-766.095498
4066.746216,-9622.677246,-222.061783,153.219100
4066.746546,-10658.965565,0.000000,1302.362347
4066.746875,-10288.862594,0.000000,536.266849
4066.747205,-9474.636058,-296.082377,-459.657299
4066.747534,-8586.388927,-740.205942,-536.266849
4066.747864,-9400.615463,-740.205942,383.047749
4066.748194,-10658.965565,-444.123565,1072.533697
4066.748523,-10584.944971,-592.164754,612.876398
4066.748853,-8956.491898,-1036.288319,0.000000
4066.749183,-9252.574275,-666.185348,459.657299
4066.749512,-10066.800811,-222.061783,1378.971896
4066.749842,-10510.924376,-296.082377,1608.800546
4066.750172,-10066.800811,0.000000,1072.533697
4066.750501,-9696.697840,-444.123565,536.266849
4066.750831,-9252.574275,-740.205942,0.000000
4066.751160,-10881.027347,-444.123565,919.314598
4066.751490,-10955.047942,-444.123565,689.485948
4066.751820,-10066.800811,-592.164754,-459.657299
4066.752149,-8660.409521,-296.082377,-1072.533697
4066.752479,-8512.368333,-148.041188,-459.657299
4066.752809,-9918.759623,222.061783,766.095498
4066.753138,-10732.986159,222.061783,1225.752797
4066.753468,-10140.821405,74.020594,459.657299
4066.753798,-9252.574275,0.000000,0.000000
4066.754127,-9548.656652,-370.102971,995.924147
4066.754457,-10807.006753,-148.041188,2068.457845
4066.754787,-10288.862594,-148.041188,766.095498
4066.755116,-8956.491898,-666.185348,-536.266849
4066.755446,-8438.347739,74.020594,-842.705048
4066.755775,-9326.594869,222.061783,306.438199
4066.756105,-11103.089130,592.164754,1225.752797
4066.756435,-10658.965565,814.226536,76.609550
4066.756764,-9252.574275,148.041188,-995.924147
4066.757094,-7920.203579,0.000000,-1149.143247
4066.757424,-8734.430116,74.020594,0.000000
4066.757753,-10584.944971,444.123565,766.095498
4066.758083,-10288.862594,0.000000,-306.438199
4066.758413,-9252.574275,74.020594,-1149.143247
4066.758742,-8956.491898,518.144159,-842.705048
4066.759072,-10362.883188,370.102971,383.047749
4066.759401,-11177.109724,444.123565,1072.533697
4066.759731,-9770.718434,592.164754,459.657299
4066.760061,-9030.512492,444.123565,0.000000
4066.760390,-8808.450710,666.185348,229.828649
4066.760720,-10436.903782,444.123565,459.657299
4066.761050,-11473.192101,666.185348,766.095498
4066.761379,-10510.924376,592.164754,-229.828649
4066.761709,-9178.553681,592.164754,-459.657299
4066.762039,-9104.533087,222.061783,-612.876398
4066.762368,-10288.862594,888.247130,0.000000
4066.762698,-10658.965565,666.185348,383.047749
4066.763027,-9770.718434,518.144159,-689.485948
4066.763357,-9178.553681,222.061783,-383.047749
4066.763687,-9474.636058,-444.123565,-153.219100
4066.764016,-10362.883188,296.082377,1072.533697
4066.764346,-10584.944971,0.000000,1149.143247
4066.764676,-9104.533087,-296.082377,76.609550
4066.765005,-8882.471304,74.020594,0.000000
4066.765335,-9696.697840,148.041188,229.828649
4066.765665,-10288.862594,370.102971,1072.533697
4066.765994,-10807.006753,444.123565,995.924147
4066.766324,-9770.718434,74.020594,0.000000
4066.766654,-9030.512492,222.061783,-153.219100
4066.766983,-8734.430116,74.020594,76.609550
4066.767313,-9918.759623,0.000000,612.876398
4066.767642,-10288.862594,148.041188,-76.609550
4066.767972,-9622.677246,-222.061783,-459.657299
4066.768302,-9178.553681,-222.061783,-459.657299
4066.768631,-10140.821405,222.061783,459.657299
4066.768961,-10732.986159,296.082377,1225.752797
4066.769291,-10362.883188,-296.082377,383.047749
4066.769620,-9326.594869,-370.102971,0.000000
4066.769950,-8364.327145,-444.123565,229.828649
4066.770280,-9474.636058,0.000000,1532.190996
4066.770609,-11029.068536,296.082377,2221.676944
4066.770939,-10658.965565,-518.144159,0.000000
4066.771268,-9178.553681,-666.185348,-919.314598
4066.771598,-9474.636058,-592.164754,0.000000
4066.771928,-10362.883188,-518.144159,995.924147
4066.772257,-9918.759623,-222.061783,1072.533697
4066.772587,-9326.594869,-296.082377,459.657299
4066.772917,-8956.491898,0.000000,229.828649
4066.773246,-9474.636058,-370.102971,-76.609550
4066.773576,-10881.027347,-296.082377,842.705048
4066.773906,-11547.212695,-370.102971,1455.581446
4066.774235,-10140.821405,-666.185348,842.705048
4066.774565,-8734.430116,-814.226536,383.047749
4066.774895,-8660.409521,-888.247130,612.876398
4066.775224,-9548.656652,-444.123565,536.266849
4066.775554,-10510.924376,-222.061783,459.657299
4066.775883,-10658.965565,222.061783,153.219100
4066.776213,-9770.718434,0.000000,0.000000
4066.776543,-8956.491898,0.000000,0.000000
4066.776872,-9696.697840,0.000000,689.485948
4066.777202,-10510.924376,-74.020594,153.219100
4066.777532,-9622.677246,-444.123565,-995.924147
4066.777861,-8734.430116,0.000000,-1532.190996
4066.778191,-8586.388927,-518.144159,-153.219100
4066.778521,-10288.862594,74.020594,1149.143247
4066.778850,-10362.883188,74.020594,612.876398
4066.779180,-9548.656652,296.082377,0.000000
4066.779509,-9178.553681,296.082377,-229.828649
4066.779839,-9548.656652,222.061783,229.828649
4066.780169,-10881.027347,296.082377,1378.971896
4066.780498,-10584.944971,74.020594,612.876398
4066.780828,-9474.636058,74.020594,-766.095498
4066.781158,-8734.430116,74.020594,-995.924147
4066.781487,-9474.636058,0.000000,-459.657299
4066.781817,-10362.883188,592.164754,306.438199
4066.782147,-9992.780217,592.164754,229.828649
4066.782476,-9548.656652,518.144159,-229.828649
4066.782806,-9474.636058,444.123565,306.438199
4066.783135,-9918.759623,296.082377,1072.533697
4066.783465,-10658.965565,370.102971,1072.533697
4066.783795,-10584.944971,0.000000,459.657299
4066.784124,-9400.615463,148.041188,0.000000
4066.784454,-8586.388927,0.000000,-459.657299
4066.784784,-9400.615463,666.185348,153.219100
4066.785113,-10436.903782,666.185348,1378.971896
4066.785443,-10732.986159,740.205942,536.266849
4066.785773,-9992.780217,1036.288319,-689.485948
4066.786102,-9104.533087,370.102971,-1149.143247
4066.786432,-9104.533087,222.061783,536.266849
4066.786762,-10214.842000,518.144159,919.314598
4066.787091,-9918.759623,0.000000,76.609550
4066.787421,-8734.430116,0.000000,-459.657299
4066.787750,-8512.368333,296.082377,-383.047749
4066.788080,-10362.883188,740.205942,459.657299
4066.788410,-11177.109724,888.247130,689.485948
4066.788739,-10732.986159,888.247130,229.828649
4066.789069,-9474.636058,592.164754,-383.047749
4066.789399,-9030.512492,296.082377,229.828649
4066.789728,-10066.800811,444.123565,1302.362347
4066.790058,-10510.924376,148.041188,766.095498
4066.790388,-9622.677246,74.020594,-689.485948
4066.790717,-8956.491898,222.061783,-1072.533697
4066.791047,-9400.615463,296.082377,-459.657299
4066.791376,-10584.944971,370.102971,689.485948
4066.791706,-10584.944971,148.041188,536.266849
4066.792036,-9548.656652,148.041188,0.000000
4066.792365,-8438.347739,74.020594,-995.924147
4066.792695,-8660.409521,0.000000,-383.047749
4066.793025,-10140.821405,148.041188,919.314598
4066.793354,-10658.965565,-370.102971,842.705048
4066.793684,-9622.677246,0.000000,0.000000
4066.794014,-9474.636058,-370.102971,-229.828649
4066.794343,-9770.718434,-518.144159,76.609550
4066.794673,-9992.780217,-296.082377,842.705048
4066.795002,-9622.677246,0.000000,919.314598
4066.795332,-9178.553681,0.000000,459.657299
4066.795662,-9400.615463,0.000000,0.000000
4066.795991,-9992.780217,0.000000,689.485948
4066.796321,-11103.089130,0.000000,1685.410096
4066.796651,-9696.697840,-666.185348,1149.143247
4066.796980,-9030.512492,-1110.308913,76.609550
4066.797310,-9030.512492,-1184.329507,-306.438199
4066.797640,-9844.739029,-592.164754,689.485948
4066.797969,-10214.842000,222.061783,995.924147
4066.798299,-9918.759623,-222.061783,766.095498
4066.798629,-9326.594869,-296.082377,-306.438199
4066.798958,-9400.615463,-444.123565,-76.609550
4066.799288,-10510.924376,-296.082377,1455.581446
4066.799617,-11251.130318,-740.205942,2221.676944
4066.799947,-10066.800811,-962.267725,919.314598
4066.800277,-8882.471304,-1110.308913,-612.876398
4066.800606,-8512.368333,-1184.329507,-1072.533697
4066.800936,-8882.471304,-592.164754,-536.266849
4066.801266,-9992.780217,74.020594,995.924147
4066.801595,-10066.800811,222.061783,0.000000
4066.801925,-9030.512492,0.000000,-383.047749
4066.802255,-8586.388927,0.000000,-612.876398
4066.802584,-10140.821405,0.000000,1532.190996
4066.802914,-11251.130318,-592.164754,1302.362347
4066.803243,-10140.821405,-888.247130,153.219100
4066.803573,-8438.347739,-518.144159,-1149.143247
4066.803903,-8290.306550,-370.102971,-306.438199
4066.804232,-10510.924376,592.164754,1072.533697
4066.804562,-11325.150913,370.102971,459.657299
4066.804892,-10214.842000,222.061783,-766.095498
4066.805221,-8660.409521,74.020594,-612.876398
4066.805551,-9474.636058,0.000000,306.438199
4066.805882,-10732.986159,74.020594,1685.410096
4066.806212,-10732.986159,-296.082377,689.485948
4066.806541,-9178.553681,0.000000,-766.095498
4066.806871,-8660.409521,-370.102971,-612.876398
4066.807201,-9474.636058,0.000000,-306.438199
4066.807531,-10955.047942,740.205942,1915.238745
4066.807860,-11251.130318,888.247130,1762.019645
4066.808190,-10214.842000,666.185348,536.266849
4066.808520,-8882.471304,666.185348,-689.485948
4066.808850,-9844.739029,444.123565,0.000000
4066.809179,-11325.150913,592.164754,842.705048
4066.809509,-10584.944971,0.000000,459.657299
4066.809839,-8956.491898,0.000000,-383.047749
4066.810169,-8438.347739,518.144159,-766.095498
4066.810498,-9474.636058,592.164754,229.828649
4066.810828,-10288.862594,1036.288319,229.828649
4066.811158,-10362.883188,888.247130,-459.657299
4066.811488,-9326.594869,740.205942,-995.924147
4066.811818,-8808.450710,444.123565,-383.047749
4066.812147,-9252.574275,518.144159,766.095498
4066.812477,-10214.842000,74.020594,1532.190996
4066.812807,-9844.739029,148.041188,-536.266849
4066.813137,-9104.533087,0.000000,-1608.800546
4066.813466,-8808.450710,74.020594,-689.485948
4066.813796,-9918.759623,814.226536,919.314598
4066.814126,-10807.006753,1184.329507,1685.410096
4066.814456,-9696.697840,666.185348,383.047749
4066.814785,-9030.512492,740.205942,-689.485948
4066.815115,-9178.553681,444.123565,-536.266849
4066.815445,-10658.965565,888.247130,536.266849
4066.815775,-11695.253884,666.185348,306.438199
4066.816104,-9992.780217,148.041188,-153.219100
4066.816434,-8882.471304,444.123565,-153.219100
4066.816764,-9178.553681,148.041188,-383.047749
4066.817094,-10510.924376,444.123565,919.314598
4066.817423,-11029.068536,592.164754,536.266849
4066.817753,-9770.718434,888.247130,383.047749
4066.818083,-9252.574275,148.041188,459.657299
4066.818413,-9918.759623,148.041188,1455.581446
4066.818742,-11325.150913,148.041188,2298.286494
4066.819072,-11103.089130,-222.061783,919.314598
4066.819402,-9474.636058,-814.226536,-766.095498
4066.819732,-8364.327145,-962.267725,-536.266849
4066.820062,-8808.450710,-296.082377,995.924147
4066.820391,-10066.800811,0.000000,2145.067394
4066.820721,-10140.821405,222.061783,1149.143247
4066.821051,-9770.718434,148.041188,-306.438199
4066.821381,-9474.636058,-296.082377,-306.438199
4066.821710,-9844.739029,-296.082377,1072.533697
4066.822040,-10807.006753,0.000000,2374.896044
4066.822370,-9844.739029,-1036.288319,612.876398
4066.822700,-8512.368333,-518.144159,-842.705048
4066.823029,-8290.306550,-666.185348,-919.314598
4066.823359,-9548.656652,-148.041188,76.609550
4066.823689,-10510.924376,74.020594,995.924147
4066.824019,-9770.718434,148.041188,153.219100
4066.824348,-9178.553681,0.000000,-536.266849
4066.824678,-8956.491898,-666.185348,-459.657299
4066.825008,-9918.759623,-592.164754,536.266849
4066.825338,-10510.924376,-222.061783,842.705048
4066.825667,-9326.594869,-592.164754,-306.438199
4066.825997,-8882.471304,-666.185348,-1225.752797
4066.826327,-9770.718434,296.082377,306.438199
4066.826657,-10955.047942,222.061783,689.485948
4066.826986,-11103.089130,148.041188,689.485948
4066.827316,-9992.780217,148.041188,-612.876398
4066.827646,-9104.533087,0.000000,-459.657299
4066.827976,-9252.574275,0.000000,383.047749
4066.828306,-10214.842000,-148.041188,919.314598
4066.828635,-10362.883188,-296.082377,383.047749
4066.828965,-9622.677246,-74.020594,76.609550
4066.829295,-8956.491898,-370.102971,-536.266849
4066.829625,-9400.615463,0.000000,229.828649
4066.829954,-10510.924376,74.020594,1378.971896
4066.830284,-10881.027347,444.123565,919.314598
4066.830614,-9918.759623,666.185348,459.657299
4066.830944,-9178.553681,74.020594,-229.828649
4066.831273,-9178.553681,148.041188,76.609550
4066.831603,-10584.944971,222.061783,1455.581446
4066.831933,-10140.821405,0.000000,1072.533697
4066.832263,-9178.553681,-222.061783,-919.314598
4066.832592,-8512.368333,-444.123565,-612.876398
4066.832922,-9474.636058,0.000000,536.266849
4066.833252,-10807.006753,74.020594,1762.019645
4066.833582,-10140.821405,0.000000,766.095498
4066.833911,-9030.512492,222.061783,0.000000
4066.834241,-8586.388927,148.041188,0.000000
4066.834571,-9548.656652,296.082377,1225.752797
4066.834901,-10955.047942,1184.329507,1762.019645
4066.835230,-10436.903782,592.164754,0.000000
4066.835560,-9474.636058,444.123565,-1149.143247
4066.835890,-9622.677246,444.123565,0.000000
4066.836220,-10658.965565,666.185348,689.485948
4066.836550,-10288.862594,888.247130,612.876398
4066.836879,-9252.574275,740.205942,-536.266849
4066.837209,-8364.327145,888.247130,-1072.533697
4066.837539,-8808.450710,1036.288319,-1378.971896
4066.837869,-10362.883188,1184.329507,0.000000
4066.838198,-11991.336260,1258.350101,306.438199
4066.838528,-10807.006753,592.164754,-76.609550
4066.838858,-9252.574275,296.082377,-612.876398
4066.839188,-8216.285956,0.000000,0.000000
4066.839517,-9622.677246,0.000000,383.047749
4066.839847,-10214.842000,148.041188,612.876398
4066.840177,-9844.739029,296.082377,0.000000
4066.840507,-9326.594869,740.205942,0.000000
4066.840836,-9252.574275,296.082377,766.095498
4066.841166,-10807.006753,444.123565,1149.143247
4066.841496,-10955.047942,0.000000,229.828649
4066.841826,-9326.594869,-592.164754,-1072.533697
4066.842155,-8364.327145,-518.144159,-995.924147
4066.842485,-9178.553681,-444.123565,0.000000
4066.842815,-10066.800811,148.041188,919.314598
4066.843145,-10732.986159,296.082377,383.047749
4066.843474,-9622.677246,74.020594,-842.705048
4066.843804,-9030.512492,-518.144159,-766.095498
4066.844134,-9326.594869,-666.185348,689.485948
4066.844464,-9844.739029,-222.061783,2145.067394
4066.844794,-10288.862594,-222.061783,1225.752797
4066.845123,-9474.636058,-296.082377,0.000000
4066.845453,-9104.533087,-592.164754,-919.314598
4066.845783,-10584.944971,74.020594,-306.438199
4066.846113,-11177.109724,222.061783,919.314598
4066.846442,-10584.944971,0.000000,76.609550
4066.846772,-9474.636058,-74.020594,0.000000
4066.847102,-8660.409521,-444.123565,0.000000
4066.847432,-9770.718434,-592.164754,689.485948
4066.847761,-10807.006753,-370.102971,612.876398
4066.848091,-10732.986159,-592.164754,0.000000
4066.848421,-9252.574275,-888.247130,0.000000
4066.848751,-8956.491898,-740.205942,766.095498
4066.849080,-9104.533087,-592.164754,1225.752797
4066.849410,-9992.780217,-222.061783,919.314598
4066.849740,-9992.780217,-148.041188,-76.609550
4066.850070,-9844.739029,-444.123565,153.219100
4066.850399,-9770.718434,-666.185348,1225.752797
4066.850729,-9770.718434,-740.205942,1838.629195
4066.851059,-9548.656652,-740.205942,1225.752797
4066.851389,-8512.368333,-814.226536,-612.876398
4066.851718,-8216.285956,-518.144159,-1302.362347
4066.852048,-8956.491898,-222.061783,-612.876398
4066.852378,-11177.109724,740.205942,1455.581446
4066.852708,-11399.171507,444.123565,1762.019645
4066.853038,-10510.924376,370.102971,459.657299
4066.853367,-8808.450710,0.000000,-383.047749
4066.853697,-9030.512492,-370.102971,0.000000
4066.854027,-10214.842000,-222.061783,1302.362347
4066.854357,-10732.986159,-666.185348,1532.190996
4066.854686,-9548.656652,-296.082377,1072.533697
4066.855016,-8364.327145,-444.123565,612.876398
4066.855346,-9400.615463,0.000000,383.047749
4066.855676,-10955.047942,666.185348,536.266849
4066.856005,-10955.047942,444.123565,306.438199
4066.856335,-9622.677246,296.082377,-459.657299
4066.856665,-8956.491898,370.102971,-383.047749
4066.856995,-9770.718434,444.123565,919.314598
4066.857324,-11251.130318,592.164754,1685.410096
4066.857654,-10584.944971,0.000000,0.000000
4066.857984,-9104.533087,0.000000,-1685.410096
4066.858314,-9252.574275,74.020594,-1302.362347
4066.858643,-9622.677246,0.000000,612.876398
4066.858973,-9548.656652,296.082377,1762.019645
4066.859303,-9622.677246,518.144159,766.095498
4066.859633,-9474.636058,666.185348,-229.828649
4066.859962,-9326.594869,444.123565,-1072.533697
4066.860292,-10066.800811,370.102971,0.000000
4066.860622,-10362.883188,518.144159,383.047749
4066.860952,-10140.821405,370.102971,0.000000
4066.861282,-9326.594869,222.061783,-153.219100
4066.861611,-8882.471304,0.000000,-842.705048
4066.861941,-9474.636058,296.082377,-612.876398
4066.862271,-9844.739029,888.247130,0.000000
4066.862601,-9326.594869,740.205942,-612.876398
4066.862930,-8660.409521,888.247130,-536.266849
4066.863260,-8734.430116,888.247130,0.000000
4066.863590,-10807.006753,740.205942,919.314598
4066.863920,-11621.233289,592.164754,842.705048
4066.864249,-10807.006753,-148.041188,-383.047749
4066.864579,-9474.636058,-296.082377,-689.485948
4066.864909,-8808.450710,-296.082377,-76.609550
4066.865239,-9252.574275,444.123565,1072.533697
4066.865568,-10214.842000,518.144159,766.095498
4066.865898,-10288.862594,1036.288319,-383.047749
4066.866228,-9252.574275,666.185348,-919.314598
4066.866558,-9622.677246,370.102971,306.438199
4066.866887,-10732.986159,296.082377,1838.629195
4066.867217,-10955.047942,-518.144159,1302.362347
4066.867547,-9400.615463,-592.164754,306.438199
4066.867877,-7920.203579,-740.205942,-766.095498
4066.868206,-8882.471304,-222.061783,229.828649
4066.868536,-10436.903782,592.164754,1072.533697
4066.868866,-10955.047942,370.102971,1072.533697
4066.869196,-10066.800811,592.164754,383.047749
4066.869526,-9030.512492,74.020594,76.609550
4066.869855,-9474.636058,0.000000,766.095498
4066.870185,-10732.986159,-518.144159,2068.457845
4066.870515,-10436.903782,-814.226536,689.485948
4066.870845,-9030.512492,-888.247130,-459.657299
4066.871174,-8438.347739,-444.123565,-383.047749
4066.871504,-9400.615463,-222.061783,0.000000
4066.871834,-10362.883188,74.020594,689.485948
4066.872164,-10658.965565,296.082377,536.266849
4066.872493,-9770.718434,370.102971,-306.438199
4066.872823,-9030.512492,-74.020594,-536.266849
4066.873153,-9474.636058,-74.020594,995.924147
4066.873483,-11325.150913,-518.144159,1532.190996
4066.873812,-10436.903782,-814.226536,0.000000
4066.874142,-8882.471304,-814.226536,-1455.581446
4066.874472,-8290.306550,-1184.329507,-536.266849
4066.874802,-9548.656652,-148.041188,919.314598
4066.875131,-10584.944971,592.164754,1225.752797
4066.875461,-10140.821405,296.082377,306.438199
4066.875791,-9622.677246,518.144159,-689.485948
4066.876121,-9400.615463,0.000000,-536.266849
4066.876450,-10955.047942,-444.123565,1072.533697
4066.876780,-11399.171507,-592.164754,1302.362347
4066.877110,-9400.615463,-740.205942,-76.609550
4066.877440,-7772.162391,-962.267725,-1072.533697
4066.877770,-8364.327145,-518.144159,-612.876398
4066.878099,-10436.903782,222.061783,842.705048
4066.878429,-11325.150913,814.226536,1608.800546
4066.878759,-10214.842000,592.164754,459.657299
4066.879089,-9696.697840,444.123565,459.657299
4066.879418,-9326.594869,-148.041188,766.095498
4066.879748,-10288.862594,0.000000,1225.752797
4066.880078,-10584.944971,0.000000,536.266849
4066.880408,-9326.594869,-370.102971,-612.876398
4066.880737,-8364.327145,0.000000,-1225.752797
4066.881067,-9030.512492,0.000000,-536.266849
4066.881397,-10584.944971,666.185348,842.705048
4066.881727,-10807.006753,296.082377,0.000000
4066.882056,-9474.636058,0.000000,-1225.752797
4066.882386,-8438.347739,0.000000,-995.924147
4066.882716,-9104.533087,148.041188,766.095498
4066.883046,-10436.903782,296.082377,2374.896044
4066.883375,-10658.965565,222.061783,1991.848295
4066.883705,-9474.636058,740.205942,76.609550
4066.884035,-9326.594869,296.082377,-1378.971896
4066.884365,-10436.903782,74.020594,-689.485948
4066.884694,-11251.130318,296.082377,842.705048
4066.885024,-10140.821405,222.061783,459.657299
4066.885354,-8142.265362,592.164754,-842.705048
4066.885684,-7476.080014,444.123565,-1072.533697
4066.886014,-8882.471304,222.061783,229.828649
4066.886343,-11103.089130,888.247130,919.314598
4066.886673,-10881.027347,444.123565,0.000000
4066.887003,-9548.656652,148.041188,-612.876398
4066.887333,-9252.574275,74.020594,153.219100
4066.887662,-9992.780217,0.000000,1762.019645
4066.887992,-11103.089130,296.082377,1762.019645
4066.888322,-9770.718434,0.000000,0.000000
4066.888652,-8438.347739,0.000000,-612.876398
4066.888981,-8586.388927,148.041188,-306.438199
4066.889311,-10066.800811,740.205942,1149.143247
4066.889641,-11177.109724,666.185348,1378.971896
4066.889971,-10510.924376,444.123565,-229.828649
4066.890300,-9178.553681,0.000000,-1072.533697
4066.890630,-9252.574275,0.000000,-995.924147
4066.890960,-10584.944971,222.061783,306.438199
4066.891290,-11029.068536,370.102971,766.095498
4066.891619,-9918.759623,370.102971,-766.095498
4066.891949,-8808.450710,222.061783,-995.924147
4066.892279,-9178.553681,222.061783,383.047749
4066.892609,-10510.924376,74.020594,1762.019645
4066.892938,-10732.986159,-296.082377,1608.800546
4066.893268,-9474.636058,-518.144159,0.000000
4066.893598,-8586.388927,-740.205942,-229.828649
4066.893928,-9104.533087,-740.205942,459.657299
4066.894258,-10436.903782,-148.041188,2221.676944
4066.894587,-10510.924376,0.000000,689.485948
4066.894917,-9474.636058,-222.061783,-153.219100
4066.895247,-8438.347739,-148.041188,-842.705048
4066.895577,-9178.553681,222.061783,306.438199
4066.895906,-10807.006753,740.205942,1149.143247
4066.896236,-10807.006753,-74.020594,383.047749
4066.896566,-9844.739029,-296.082377,-229.828649
4066.896896,-8808.450710,-1110.308913,-459.657299
4066.897225,-9622.677246,0.000000,919.314598
4066.897555,-10214.842000,0.000000,995.924147
4066.897885,-10214.842000,296.082377,-306.438199
4066.898215,-9474.636058,148.041188,-612.876398
4066.898544,-9326.594869,148.041188,153.219100
4066.898874,-10881.027347,370.102971,1149.143247
4066.899204,-11251.130318,444.123565,2145.067394
4066.899534,-9992.780217,-518.144159,459.657299
4066.899863,-8586.388927,-666.185348,-612.876398
4066.900193,-8512.368333,-814.226536,0.000000
4066.900523,-10140.821405,-222.061783,1072.533697
4066.900853,-11029.068536,0.000000,1302.362347
4066.901182,-10436.903782,0.000000,229.828649
4066.901512,-8882.471304,0.000000,-459.657299
4066.901842,-8586.388927,0.000000,229.828649
4066.902172,-9696.697840,74.020594,1685.410096
4066.902502,-10658.965565,0.000000,1302.362347
4066.902831,-9770.718434,-370.102971,459.657299
4066.903161,-8882.471304,-296.082377,-842.705048
4066.903491,-9400.615463,0.000000,76.609550
4066.903821,-11029.068536,0.000000,1149.143247
4066.904150,-10881.027347,222.061783,689.485948
4066.904480,-9400.615463,0.000000,0.000000
4066.904810,-8290.306550,0.000000,-383.047749
4066.905140,-8734.430116,-222.061783,229.828649
4066.905469,-10658.965565,370.102971,1455.581446
4066.905799,-11029.068536,370.102971,1608.800546
4066.906129,-9770.718434,0.000000,0.000000
4066.906459,-9030.512492,-222.061783,-842.705048
4066.906788,-9104.533087,-444.123565,-383.047749
4066.907118,-10510.924376,148.041188,766.095498
4066.907448,-10732.986159,222.061783,306.438199
4066.907778,-9400.615463,296.082377,-459.657299
4066.908107,-9030.512492,518.144159,0.000000
4066.908437,-9918.759623,148.041188,842.705048
4066.908767,-11473.192101,370.102971,1302.362347
4066.909097,-10881.027347,148.041188,536.266849
4066.909426,-9252.574275,-592.164754,-459.657299
4066.909756,-8216.285956,-518.144159,0.000000
4066.910086,-9474.636058,0.000000,1149.143247
4066.910415,-11103.089130,370.102971,1532.190996
4066.910745,-10066.800811,370.102971,-383.047749
4066.911075,-9104.533087,370.102971,-1072.533697
4066.911405,-9178.553681,814.226536,-229.828649
4066.911734,-9918.759623,518.144159,612.876398
4066.912064,-10955.047942,666.185348,1378.971896
4066.912394,-10288.862594,0.000000,229.828649
4066.912723,-8660.409521,0.000000,-842.705048
4066.913053,-8660.409521,-370.102971,-995.924147
4066.913383,-9474.636058,74.020594,-306.438199
4066.913712,-10584.944971,370.102971,459.657299
4066.914042,-10066.800811,0.000000,306.438199
4066.914372,-8956.491898,148.041188,0.000000
4066.914702,-8882.471304,222.061783,76.609550
4066.915031,-10362.883188,222.061783,842.705048
4066.915361,-11399.171507,370.102971,459.657299
4066.915691,-9622.677246,74.020594,0.000000
4066.916020,-8734.430116,-296.082377,-766.095498
4066.916350,-9252.574275,0.000000,76.609550
4066.916680,-10362.883188,222.061783,1149.143247
4066.917010,-11029.068536,370.102971,689.485948
4066.917339,-9918.759623,296.082377,-995.924147
4066.917669,-8882.471304,0.000000,-842.705048
4066.917999,-9474.636058,0.000000,383.047749
4066.918328,-11029.068536,444.123565,2681.334243
4066.918658,-11029.068536,0.000000,842.705048
4066.918988,-9770.718434,-518.144159,-306.438199
4066.919318,-8734.430116,-592.164754,-689.485948
4066.919647,-9326.594869,-666.185348,306.438199
4066.919977,-9696.697840,0.000000,1225.752797
4066.920307,-10362.883188,-296.082377,766.095498
4066.920636,-9696.697840,0.000000,76.609550
4066.920966,-8808.450710,-370.102971,0.000000
4066.921296,-9474.636058,0.000000,306.438199
4066.921626,-10510.924376,0.000000,842.705048
4066.921955,-10288.862594,-370.102971,459.657299
4066.922285,-8808.450710,-888.247130,76.609550
4066.922615,-8512.368333,-1110.308913,459.657299
4066.922944,-9992.780217,-296.082377,1532.190996
4066.923274,-10584.944971,74.020594,1072.533697
4066.923604,-9918.759623,0.000000,0.000000
4066.923934,-9252.574275,0.000000,-766.095498
4066.924263,-8808.450710,0.000000,-306.438199
4066.924593,-9992.780217,74.020594,1149.143247
4066.924923,-10658.965565,444.123565,766.095498
4066.925252,-10066.800811,74.020594,-459.657299
4066.925582,-8512.368333,-370.102971,-1225.752797
4066.925912,-8808.450710,-444.123565,0.000000
4066.926242,-10658.965565,148.041188,842.705048
4066.926571,-10807.006753,0.000000,1838.629195
4066.926901,-9844.739029,0.000000,459.657299
4066.927231,-8882.471304,444.123565,-536.266849
4066.927560,-9030.512492,370.102971,-229.828649
4066.927890,-10881.027347,666.185348,689.485948
4066.928220,-11473.192101,444.123565,766.095498
4066.928550,-9770.718434,740.205942,-689.485948
4066.928879,-9030.512492,740.205942,-306.438199
4066.929209,-9696.697840,444.123565,0.000000
4066.929539,-10732.986159,518.144159,383.047749
4066.929868,-10510.924376,370.102971,0.000000
4066.930198,-9548.656652,74.020594,-306.438199
4066.930528,-9104.533087,0.000000,0.000000
4066.930857,-9622.677246,0.000000,1149.143247
4066.931187,-10732.986159,444.123565,2604.724693
4066.931517,-10584.944971,0.000000,1225.752797
4066.931847,-9844.739029,-444.123565,-306.438199
4066.932176,-9178.553681,-444.123565,-229.828649
4066.932506,-9104.533087,-370.102971,1302.362347
4066.932836,-10140.821405,0.000000,1685.410096
4066.933165,-10510.924376,74.020594,766.095498
4066.933495,-9474.636058,0.000000,-689.485948
4066.933825,-8364.327145,-222.061783,-1225.752797
4066.934155,-9104.533087,0.000000,-383.047749
4066.934484,-10214.842000,296.082377,229.828649
4066.934814,-10140.821405,0.000000,0.000000
4066.935144,-9326.594869,74.020594,-536.266849
4066.935473,-8512.368333,-444.123565,-536.266849
4066.935803,-10066.800811,0.000000,76.609550
4066.936133,-11177.109724,-74.020594,383.047749
4066.936463,-10510.924376,74.020594,153.219100
4066.936792,-9548.656652,0.000000,229.828649
4066.937122,-8734.430116,-296.082377,459.657299
4066.937452,-9770.718434,148.041188,1149.143247
4066.937781,-10658.965565,222.061783,383.047749
4066.938111,-10362.883188,74.020594,-689.485948
4066.938441,-9252.574275,0.000000,-766.095498
4066.938771,-9474.636058,-74.020594,0.000000
4066.939100,-10214.842000,74.020594,842.705048
4066.939430,-10584.944971,0.000000,536.266849
4066.939760,-9622.677246,0.000000,-612.876398
4066.940089,-8808.450710,-296.082377,-612.876398
4066.940419,-9252.574275,296.082377,306.438199
4066.940749,-10955.047942,740.205942,1225.752797
4066.941079,-11695.253884,1036.288319,1915.238745
4066.941408,-10436.903782,370.102971,76.609550
4066.941738,-9474.636058,222.061783,-383.047749
4066.942068,-8956.491898,-74.020594,0.000000
4066.942397,-10066.800811,222.061783,842.705048
4066.942727,-10140.821405,-370.102971,1225.752797
4066.943057,-9178.553681,-148.041188,153.219100
4066.943387,-8290.306550,0.000000,-612.876398
4066.943716,-9474.636058,296.082377,0.000000
4066.944046,-11177.109724,444.123565,1532.190996
4066.944376,-10807.006753,0.000000,919.314598
4066.944705,-9104.533087,0.000000,0.000000
4066.945035,-7846.182985,-222.061783,-306.438199
4066.945365,-9104.533087,296.082377,766.095498
4066.945694,-10362.883188,148.041188,689.485948
4066.946024,-10881.027347,148.041188,0.000000
4066.946354,-9918.759623,0.000000,-766.095498
4066.946684,-9104.533087,-444.123565,0.000000
4066.947013,-9474.636058,-222.061783,842.705048
4066.947343,-9992.780217,296.082377,1608.800546
4066.947673,-9696.697840,74.020594,229.828649
4066.948002,-9252.574275,148.041188,-689.485948
4066.948332,-9326.594869,74.020594,-536.266849
4066.948662,-10140.821405,444.123565,919.314598
4066.948992,-11177.109724,740.205942,1149.143247
4066.949321,-10732.986159,0.000000,-76.609550
4066.949651,-8882.471304,-74.020594,-919.314598
4066.949981,-8512.368333,-592.164754,-766.095498
4066.950310,-9622.677246,0.000000,842.705048
4066.950640,-10436.903782,0.000000,1149.143247
4066.950970,-9548.656652,740.205942,536.266849
4066.951300,-9178.553681,0.000000,383.047749
4066.951629,-9474.636058,0.000000,536.266849
4066.951959,-10955.047942,222.061783,1378.971896
4066.952289,-11103.089130,0.000000,995.924147
4066.952618,-10214.842000,222.061783,306.438199
4066.952948,-8808.450710,0.000000,-229.828649
4066.953278,-8956.491898,0.000000,-536.266849
4066.953608,-10214.842000,222.061783,0.000000
4066.953937,-10732.986159,-74.020594,229.828649
4066.954267,-9474.636058,-74.020594,-306.438199
4066.954597,-8512.368333,-148.041188,-383.047749
4066.954926,-8586.388927,-222.061783,536.266849
4066.955256,-9992.780217,444.123565,1532.190996
4066.955586,-11251.130318,148.041188,1149.143247
4066.955916,-10658.965565,-148.041188,229.828649
4066.956245,-9474.636058,-222.061783,-383.047749
4066.956575,-9030.512492,0.000000,766.095498
4066.956905,-10214.842000,222.061783,919.314598
4066.957234,-10066.800811,0.000000,153.219100
4066.957564,-9326.594869,0.000000,-919.314598
4066.957894,-8364.327145,0.000000,-766.095498
4066.958224,-9474.636058,74.020594,-306.438199
4066.958553,-10955.047942,296.082377,1685.410096
4066.958883,-10955.047942,518.144159,995.924147
4066.959213,-9326.594869,222.061783,76.609550
4066.959542,-8068.244768,0.000000,-842.705048
4066.959872,-9474.636058,0.000000,153.219100
4066.960202,-10955.047942,0.000000,1225.752797
4066.960532,-10658.965565,370.102971,459.657299
4066.960861,-8734.430116,740.205942,-306.438199
4066.961191,-8216.285956,222.061783,-689.485948
4066.961521,-9622.677246,444.123565,459.657299
4066.961850,-11547.212695,592.164754,1225.752797
4066.962180,-10658.965565,148.041188,459.657299
4066.962510,-9548.656652,148.041188,-306.438199
4066.962839,-8808.450710,0.000000,-383.047749
4066.963169,-9622.677246,296.082377,76.609550
4066.963499,-10807.006753,444.123565,383.047749
4066.963829,-10658.965565,666.185348,-459.657299
4066.964158,-9844.739029,666.185348,-919.314598
4066.964488,-9252.574275,74.020594,-383.047749
4066.964818,-9992.780217,74.020594,919.314598
4066.965147,-10658.965565,740.205942,1455.581446
4066.965477,-10214.842000,0.000000,383.047749
4066.965807,-9178.553681,222.061783,-612.876398
4066.966137,-9326.594869,-444.123565,-153.219100
4066.966466,-9992.780217,0.000000,1149.143247
4066.966796,-10881.027347,-370.102971,1302.362347
4066.967126,-10066.800811,0.000000,306.438199
4066.967455,-8142.265362,-444.123565,-459.657299
4066.967785,-8216.285956,-592.164754,0.000000
4066.968115,-10140.821405,0.000000,1225.752797
4066.968445,-10955.047942,0.000000,1532.190996
4066.968774,-10214.842000,222.061783,0.000000
4066.969104,-8956.491898,-148.041188,-1378.971896
4066.969434,-9178.553681,148.041188,-766.095498
4066.969763,-10584.944971,222.061783,1378.971896
4066.970093,-10658.965565,0.000000,153.219100
4066.970423,-9104.533087,0.000000,-1072.533697
4066.970753,-8438.347739,518.144159,-1072.533697
4066.971082,-9474.636058,370.102971,-306.438199
4066.971412,-10881.027347,296.082377,689.485948
4066.971742,-10732.986159,0.000000,306.438199
4066.972071,-9400.615463,-148.041188,0.000000
4066.972401,-8808.450710,-592.164754,-459.657299
4066.972731,-9696.697840,-370.102971,536.266849
4066.973061,-11103.089130,0.000000,1685.410096
4066.973390,-10732.986159,148.041188,842.705048
4066.973720,-9474.636058,370.102971,0.000000
4066.974050,-9104.533087,518.144159,-383.047749
4066.974379,-9992.780217,296.082377,229.828649
4066.974709,-10584.944971,148.041188,995.924147
4066.975039,-9992.780217,518.144159,76.609550
4066.975369,-9326.594869,0.000000,-1072.533697
4066.975698,-8882.471304,-666.185348,-919.314598
4066.976028,-9770.718434,-222.061783,842.705048
4066.976358,-10732.986159,74.020594,1991.848295
4066.976687,-10140.821405,0.000000,306.438199
4066.977017,-8586.388927,0.000000,-612.876398
4066.977347,-8438.347739,-296.082377,76.609550
4066.977677,-10066.800811,222.061783,1991.848295
4066.978006,-11325.150913,370.102971,2374.896044
4066.978336,-11177.109724,148.041188,1225.752797
4066.978666,-9252.574275,0.000000,-842.705048
4066.978995,-8660.409521,-370.102971,-995.924147
4066.979325,-9918.759623,-74.020594,842.705048
4066.979655,-10881.027347,-148.041188,612.876398
4066.979984,-9400.615463,0.000000,-229.828649
4066.980314,-8068.244768,-370.102971,-919.314598
4066.980644,-8956.491898,296.082377,153.219100
4066.980974,-10955.047942,518.144159,995.924147
4066.981303,-10881.027347,148.041188,689.485948
4066.981633,-10066.800811,296.082377,0.000000
4066.981963,-9030.512492,-444.123565,0.000000
4066.982292,-9178.553681,-518.144159,766.095498
4066.982622,-10436.903782,0.000000,1991.848295
4066.982952,-10807.006753,0.000000,995.924147
4066.983282,-9400.615463,222.061783,-459.657299
4066.983611,-8364.327145,0.000000,-383.047749
4066.983941,-9474.636058,592.164754,0.000000
4066.984271,-10955.047942,962.267725,766.095498
4066.984600,-10881.027347,592.164754,229.828649
4066.984930,-9400.615463,74.020594,-995.924147
4066.985260,-8364.327145,-296.082377,-1762.019645
4066.985590,-9178.553681,-148.041188,0.000000
4066.985919,-10881.027347,74.020594,919.314598
4066.986249,-10807.006753,0.000000,306.438199
4066.986579,-8956.491898,0.000000,-76.609550
4066.986908,-8364.327145,-222.061783,459.657299
4066.987238,-9992.780217,74.020594,1991.848295
4066.987568,-11103.089130,518.144159,3140.991542
4066.987898,-10881.027347,296.082377,995.924147
4066.988227,-9326.594869,0.000000,-766.095498
4066.988557,-9178.553681,-74.020594,-1532.190996
4066.988887,-10066.800811,0.000000,153.219100
4066.989216,-10288.862594,148.041188,-76.609550
4066.989546,-9326.594869,0.000000,-229.828649
4066.989876,-8586.388927,296.082377,-689.485948
4066.990206,-9474.636058,222.061783,229.828649
4066.990535,-10955.047942,1036.288319,1532.190996
4066.990865,-11399.171507,222.061783,1685.410096
4066.991195,-10955.047942,222.061783,612.876398
4066.991524,-9104.533087,-296.082377,0.000000
4066.991854,-8438.347739,-370.102971,383.047749
4066.992184,-9474.636058,444.123565,1149.143247
4066.992514,-10658.965565,592.164754,-383.047749
4066.992843,-9918.759623,370.102971,-1685.410096
4066.993173,-9030.512492,518.144159,-1762.019645
4066.993503,-9178.553681,666.185348,-842.705048
4066.993832,-10362.883188,592.164754,1532.190996
4066.994162,-10807.006753,-370.102971,1072.533697
4066.994492,-9622.677246,-222.061783,-306.438199
4066.994821,-8364.327145,0.000000,-76.609550
4066.995151,-8808.450710,-222.061783,306.438199
4066.995481,-10807.006753,222.061783,1685.410096
4066.995811,-10807.006753,74.020594,1072.533697
4066.996140,-9696.697840,592.164754,0.000000
4066.996470,-8956.491898,370.102971,-383.047749
4066.996800,-9844.739029,518.144159,0.000000
4066.997129,-11029.068536,740.205942,919.314598
4066.997459,-10436.903782,148.041188,383.047749
4066.997789,-9326.594869,518.144159,0.000000
4066.998119,-8808.450710,0.000000,-229.828649
4066.998448,-9918.759623,222.061783,459.657299
4066.998778,-11103.089130,592.164754,459.657299
4066.999108,-10362.883188,222.061783,-1225.752797
4066.999437,-9030.512492,0.000000,-1991.848295
4066.999767,-8512.368333,0.000000,-383.047749
4067.000097,-9400.615463,222.061783,1149.143247
4067.000427,-10436.903782,592.164754,1455.581446
4067.000756,-10436.903782,0.000000,383.047749
4067.001086,-9474.636058,-444.123565,-536.266849
4067.001416,-9474.636058,-518.144159,0.000000
4067.001745,-9918.759623,-592.164754,1225.752797
4067.002075,-10436.903782,-666.185348,1455.581446
4067.002405,-9252.574275,-296.082377,76.609550
4067.002735,-8216.285956,0.000000,-1072.533697
4067.003064,-8734.430116,148.041188,-383.047749
4067.003394,-10288.862594,740.205942,612.876398
4067.003724,-10881.027347,444.123565,383.047749
4067.004053,-10658.965565,518.144159,0.000000
4067.004383,-9104.533087,-222.061783,-1225.752797
4067.004713,-8882.471304,-814.226536,-689.485948
4067.005043,-10140.821405,-592.164754,919.314598
4067.005372,-10288.862594,-962.267725,919.314598
4067.005702,-9548.656652,-518.144159,306.438199
4067.006032,-8512.368333,74.020594,536.266849
4067.006361,-9252.574275,148.041188,1149.143247
4067.006691,-10510.924376,370.102971,1378.971896
4067.007021,-11251.130318,370.102971,76.609550
4067.007351,-10140.821405,0.000000,-229.828649
4067.007681,-9178.553681,-518.144159,-612.876398
4067.008011,-9178.553681,-444.123565,0.000000
4067.008340,-10140.821405,-444.123565,1149.143247
4067.008670,-9844.739029,-592.164754,-153.219100
4067.009000,-8586.388927,0.000000,-766.095498
4067.009330,-8808.450710,148.041188,-536.266849
4067.009660,-9844.739029,518.144159,689.485948
4067.009990,-11251.130318,592.164754,1838.629195
4067.010320,-10955.047942,518.144159,1149.143247
4067.010650,-9474.636058,0.000000,0.000000
4067.010979,-8660.409521,-518.144159,-383.047749
4067.011309,-9622.677246,0.000000,459.657299
4067.011639,-10362.883188,0.000000,919.314598
4067.011969,-10436.903782,0.000000,612.876398
4067.012299,-8882.471304,370.102971,229.828649
4067.012629,-8956.491898,74.020594,0.000000
4067.012959,-10066.800811,518.144159,536.266849
4067.013288,-11251.130318,222.061783,612.876398
4067.013618,-9992.780217,0.000000,229.828649
4067.013948,-8660.409521,0.000000,-306.438199
4067.014278,-8364.327145,-222.061783,-459.657299
4067.014608,-9696.697840,74.020594,1225.752797
4067.014938,-11103.089130,0.000000,1072.533697
4067.015268,-10510.924376,222.061783,-229.828649
4067.015598,-9252.574275,74.020594,-536.266849
4067.015927,-9326.594869,296.082377,153.219100
4067.016257,-10362.883188,222.061783,1608.800546
4067.016587,-9844.739029,296.082377,1915.238745
4067.016917,-9622.677246,444.123565,-459.657299
4067.017247,-9252.574275,222.061783,-995.924147
4067.017577,-9252.574275,0.000000,-612.876398
4067.017907,-9548.656652,222.061783,459.657299
4067.018237,-10288.862594,296.082377,0.000000
4067.018566,-8956.491898,0.000000,-689.485948
4067.018896,-8290.306550,-370.102971,-919.314598
4067.019226,-9104.533087,0.000000,0.000000
4067.019556,-10658.965565,296.082377,842.705048
4067.019886,-11325.150913,0.000000,842.705048
4067.020216,-9918.759623,-296.082377,536.266849
4067.020546,-8438.347739,-74.020594,0.000000
4067.020875,-8438.347739,0.000000,842.705048
4067.021205,-10732.986159,222.061783,1072.533697
4067.021535,-11029.068536,0.000000,0.000000
4067.021865,-9622.677246,296.082377,-995.924147
4067.022195,-8586.388927,592.164754,-995.924147
4067.022525,-9844.739029,222.061783,459.657299
4067.022855,-10881.027347,222.061783,919.314598
4067.023185,-9992.780217,-222.061783,76.609550
4067.023514,-9252.574275,-296.082377,-1072.533697
4067.023844,-8512.368333,-666.185348,-612.876398
4067.024174,-9474.636058,-518.144159,1225.752797
4067.024504,-10658.965565,0.000000,2221.676944
4067.024834,-10288.862594,0.000000,1072.533697
4067.025164,-9622.677246,0.000000,-459.657299
4067.025494,-9548.656652,-222.061783,0.000000
4067.025824,-10066.800811,0.000000,612.876398
4067.026153,-10584.944971,-148.041188,1302.362347
4067.026483,-9770.718434,296.082377,459.657299
4067.026813,-9030.512492,-74.020594,76.609550
4067.027143,-8438.347739,296.082377,-459.657299
4067.027473,-9918.759623,370.102971,229.828649
4067.027803,-11695.253884,740.205942,-612.876398
4067.028133,-11177.109724,518.144159,0.000000
4067.028462,-9178.553681,0.000000,153.219100
4067.028792,-8956.491898,0.000000,612.876398
4067.029122,-9918.759623,222.061783,919.314598
4067.029452,-10955.047942,148.041188,995.924147
4067.029782,-10214.842000,0.000000,0.000000
4067.030112,-8586.388927,-370.102971,-306.438199
4067.030442,-8586.388927,-592.164754,536.266849
4067.030772,-9474.636058,0.000000,1532.190996
4067.031101,-10510.924376,148.041188,1149.143247
4067.031431,-9622.677246,222.061783,-536.266849
4067.031761,-8808.450710,74.020594,-1225.752797
4067.032091,-9474.636058,444.123565,-536.266849
4067.032421,-10658.965565,814.226536,842.705048
4067.032751,-10658.965565,148.041188,536.266849
4067.033081,-9622.677246,148.041188,76.609550
4067.033410,-8586.388927,-148.041188,-919.314598
4067.033740,-9474.636058,-148.041188,-383.047749
4067.034070,-10584.944971,0.000000,995.924147
4067.034400,-11177.109724,0.000000,536.266849
4067.034730,-8808.450710,222.061783,-153.219100
4067.035060,-7994.224174,0.000000,-842.705048
4067.035390,-9474.636058,0.000000,0.000000
4067.035720,-10881.027347,296.082377,1378.971896
4067.036049,-11029.068536,518.144159,766.095498
4067.036379,-10214.842000,518.144159,-612.876398
4067.036709,-9548.656652,148.041188,-766.095498
4067.037039,-9992.780217,74.020594,229.828649
4067.037369,-10881.027347,0.000000,1302.362347
4067.037699,-10140.821405,0.000000,306.438199
4067.038029,-8882.471304,-148.041188,-766.095498
4067.038359,-8290.306550,-592.164754,-536.266849
4067.038688,-9326.594869,222.061783,1149.143247
4067.039018,-10436.903782,444.123565,1378.971896
4067.039348,-10436.903782,592.164754,229.828649
4067.039678,-9548.656652,222.061783,-919.314598
4067.040008,-8660.409521,0.000000,-612.876398
4067.040338,-10066.800811,0.000000,1149.143247
4067.040668,-10881.027347,0.000000,1302.362347
4067.040997,-10066.800811,-74.020594,229.828649
4067.041327,-8290.306550,-296.082377,-766.095498
4067.041657,-8364.327145,-518.144159,-153.219100
4067.041987,-9548.656652,74.020594,1455.581446
4067.042317,-10807.006753,296.082377,1685.410096
4067.042647,-10066.800811,222.061783,459.657299
4067.042977,-9030.512492,148.041188,-612.876398
4067.043307,-9474.636058,0.000000,-306.438199
4067.043636,-10732.986159,296.082377,459.657299
4067.043966,-10807.006753,74.020594,153.219100
4067.044296,-9918.759623,0.000000,-459.657299
4067.044626,-8586.388927,0.000000,-766.095498
4067.044956,-8956.491898,-148.041188,153.219100
4067.045286,-10584.944971,296.082377,1838.629195
4067.045616,-11473.192101,0.000000,1838.629195
4067.045946,-10214.842000,0.000000,536.266849
4067.046275,-8290.306550,-148.041188,0.000000
4067.046605,-9326.594869,370.102971,306.438199
4067.046935,-10658.965565,148.041188,1378.971896
4067.047265,-11177.109724,0.000000,689.485948
4067.047595,-9474.636058,-148.041188,-919.314598
4067.047925,-8142.265362,-592.164754,-1455.581446
4067.048255,-8956.491898,74.020594,459.657299
4067.048584,-10658.965565,888.247130,1685.410096
4067.048914,-10584.944971,296.082377,612.876398
4067.049244,-9178.553681,222.061783,-1149.143247
4067.049574,-8512.368333,-222.061783,-689.485948
4067.049904,-9992.780217,74.020594,766.095498
4067.050234,-10807.006753,222.061783,1608.800546
4067.050564,-9474.636058,296.082377,612.876398
4067.050894,-8512.368333,222.061783,-995.924147
4067.051223,-8734.430116,296.082377,-995.924147
4067.051553,-10436.903782,518.144159,153.219100
4067.051883,-11399.171507,814.226536,459.657299
4067.052213,-10436.903782,370.102971,76.609550
4067.052543,-9030.512492,0.000000,-536.266849
4067.052873,-8512.368333,-666.185348,-459.657299
4067.053203,-9918.759623,-370.102971,919.314598
4067.053533,-10584.944971,-370.102971,1072.533697
4067.053862,-9474.636058,-370.102971,-383.047749
4067.054192,-7698.141797,-370.102971,-459.657299
4067.054522,-8364.327145,-296.082377,842.705048
4067.054852,-10584.944971,518.144159,1838.629195
4067.055182,-11917.315666,518.144159,1378.971896
4067.055512,-10955.047942,222.061783,0.000000
4067.055842,-8882.471304,-74.020594,-536.266849
4067.056171,-8956.491898,296.082377,-153.219100
4067.056501,-10510.924376,148.041188,1838.629195
4067.056831,-10955.047942,0.000000,459.657299
4067.057161,-9326.594869,444.123565,-919.314598
4067.057491,-8142.265362,0.000000,-1608.800546
4067.057821,-9770.718434,592.164754,-383.047749
4067.058151,-11029.068536,814.226536,919.314598
4067.058481,-10732.986159,518.144159,383.047749
4067.058810,-9178.553681,296.082377,-306.438199
4067.059140,-8734.430116,0.000000,-229.828649
4067.059470,-10140.821405,-222.061783,919.314598
4067.059800,-11325.150913,-148.041188,1915.238745
4067.060130,-10658.965565,-74.020594,459.657299
4067.060460,-9400.615463,0.000000,-306.438199
4067.060790,-8438.347739,-296.082377,0.000000
4067.061119,-9918.759623,148.041188,919.314598
4067.061449,-10807.006753,888.247130,919.314598
4067.061779,-10732.986159,592.164754,-995.924147
4067.062109,-9252.574275,296.082377,-1532.190996
4067.062439,-8438.347739,74.020594,-1532.190996
4067.062769,-9918.759623,148.041188,0.000000
4067.063099,-10881.027347,74.020594,995.924147
4067.063429,-10362.883188,0.000000,229.828649
4067.063758,-8734.430116,-296.082377,-689.485948
4067.064088,-8808.450710,-444.123565,0.000000
4067.064418,-10362.883188,592.164754,1915.238745
4067.064748,-10807.006753,148.041188,2451.505594
4067.065078,-10658.965565,296.082377,689.485948
4067.065408,-9030.512492,148.041188,-536.266849
4067.065738,-9104.533087,-296.082377,76.609550
4067.066068,-10362.883188,296.082377,383.047749
4067.066397,-10658.965565,0.000000,459.657299
4067.066727,-9104.533087,-370.102971,-1072.533697
4067.067057,-7846.182985,74.020594,-1072.533697
4067.067387,-8956.491898,148.041188,0.000000
4067.067717,-10881.027347,296.082377,995.924147
4067.068047,-11029.068536,518.144159,153.219100
4067.068377,-9844.739029,518.144159,-612.876398
4067.068706,-8364.327145,0.000000,-306.438199
4067.069036,-8808.450710,222.061783,612.876398
4067.069366,-10881.027347,518.144159,1608.800546
4067.069696,-10881.027347,0.000000,76.609550
4067.070026,-9844.739029,74.020594,-919.314598
4067.070356,-8882.471304,74.020594,-1378.971896
4067.070686,-9400.615463,0.000000,536.266849
4067.071016,-10214.842000,370.102971,1685.410096
4067.071345,-10362.883188,518.144159,766.095498
4067.071675,-9400.615463,74.020594,-536.266849
4067.072005,-8660.409521,-592.164754,-383.047749
4067.072335,-9474.636058,-296.082377,383.047749
4067.072665,-11103.089130,-222.061783,1378.971896
4067.072995,-10584.944971,-370.102971,459.657299
4067.073325,-8734.430116,-444.123565,-383.047749
4067.073655,-8216.285956,-740.205942,536.266849
4067.073984,-9770.718434,-74.020594,1608.800546
4067.074314,-11103.089130,370.102971,1685.410096
4067.074644,-10732.986159,148.041188,612.876398
4067.074974,-9178.553681,0.000000,0.000000
4067.075304,-9474.636058,74.020594,0.000000
4067.075634,-10584.944971,-222.061783,1302.362347
4067.075964,-11177.109724,-444.123565,536.266849
4067.076293,-9992.780217,-370.102971,-383.047749
4067.076623,-8586.388927,-666.185348,-689.485948
4067.076953,-9104.533087,-666.185348,153.219100
4067.077283,-10584.944971,222.061783,1838.629195
4067.077613,-11473.192101,296.082377,1685.410096
4067.077943,-9918.759623,0.000000,0.000000
4067.078273,-9030.512492,0.000000,-153.219100
4067.078603,-9400.615463,-518.144159,383.047749
4067.078932,-10362.883188,-74.020594,536.266849
4067.079262,-10510.924376,0.000000,229.828649
4067.079592,-9770.718434,0.000000,-766.095498
4067.079922,-8586.388927,-74.020594,-1072.533697
4067.080252,-8882.471304,0.000000,-536.266849
4067.080582,-10881.027347,666.185348,766.095498
4067.080912,-10658.965565,296.082377,153.219100
4067.081242,-9400.615463,0.000000,-76.609550
4067.081571,-8290.306550,0.000000,-536.266849
4067.081901,-9030.512492,148.041188,306.438199
4067.082231,-11103.089130,222.061783,459.657299
4067.082561,-10807.006753,0.000000,-842.705048
4067.082891,-9104.533087,-518.144159,-1685.410096
4067.083221,-7772.162391,0.000000,-459.657299
4067.083551,-8808.450710,0.000000,306.438199
4067.083880,-9918.759623,666.185348,1378.971896
4067.084210,-10214.842000,962.267725,536.266849
4067.084540,-9918.759623,1036.288319,0.000000
4067.084870,-9918.759623,592.164754,-612.876398
4067.085200,-10955.047942,518.144159,76.609550
4067.085530,-10881.027347,148.041188,995.924147
4067.085860,-9474.636058,0.000000,-306.438199
4067.086190,-8216.285956,0.000000,-459.657299
4067.086519,-8216.285956,148.041188,-459.657299
4067.086849,-9548.656652,370.102971,306.438199
4067.087179,-10807.006753,740.205942,459.657299
4067.087509,-10436.903782,592.164754,0.000000
4067.087839,-9548.656652,296.082377,229.828649
4067.088169,-9104.533087,-296.082377,612.876398
4067.088499,-9844.739029,-370.102971,1302.362347
4067.088828,-10732.986159,0.000000,612.876398
4067.089158,-9548.656652,-592.164754,-459.657299
4067.089488,-8586.388927,-296.082377,-459.657299
4067.089818,-9252.574275,0.000000,306.438199
4067.090148,-10732.986159,740.205942,2298.286494
4067.090478,-11251.130318,222.061783,1762.019645
4067.090808,-10288.862594,148.041188,0.000000
4067.091138,-8512.368333,0.000000,-995.924147
4067.091467,-8734.430116,-74.020594,-459.657299
4067.091797,-9918.759623,0.000000,766.095498
4067.092127,-10881.027347,148.041188,689.485948
4067.092457,-9696.697840,-296.082377,-306.438199
4067.092787,-8956.491898,0.000000,-536.266849
4067.093117,-9400.615463,0.000000,459.657299
4067.093447,-10955.047942,148.041188,1225.752797
4067.093777,-11029.068536,0.000000,1532.190996
4067.094106,-9844.739029,74.020594,612.876398
4067.094436,-9030.512492,0.000000,-76.609550
4067.094766,-8956.491898,0.000000,306.438199
4067.095096,-10436.903782,74.020594,842.705048
4067.095426,-11399.171507,222.061783,-229.828649
4067.095756,-9770.718434,0.000000,-1378.971896
4067.096086,-9030.512492,-370.102971,-1072.533697
4067.096415,-9400.615463,0.000000,-153.219100
4067.096745,-10510.924376,518.144159,766.095498
4067.097075,-10288.862594,148.041188,76.609550
4067.097405,-9252.574275,296.082377,0.000000
4067.097735,-8956.491898,0.000000,0.000000
4067.098065,-10658.965565,148.041188,1378.971896
4067.098395,-11695.253884,0.000000,1455.581446
4067.098725,-10436.903782,370.102971,0.000000
4067.099054,-8660.409521,-370.102971,-612.876398
4067.099384,-8290.306550,-592.164754,-612.876398
4067.099714,-9696.697840,0.000000,536.266849
4067.100044,-9992.780217,148.041188,536.266849
4067.100374,-9696.697840,222.061783,229.828649
4067.100704,-9030.512492,148.041188,0.000000
4067.101034,-9030.512492,0.000000,0.000000
4067.101364,-9918.759623,0.000000,459.657299
4067.101693,-10436.903782,0.000000,612.876398
4067.102023,-9622.677246,-74.020594,-459.657299
4067.102353,-8586.388927,0.000000,-842.705048
4067.102683,-8882.471304,-148.041188,0.000000
4067.103013,-9918.759623,518.144159,459.657299
4067.103343,-10436.903782,518.144159,536.266849
4067.103673,-9770.718434,444.123565,-229.828649
4067.104002,-8882.471304,296.082377,-612.876398
4067.104332,-9178.553681,518.144159,0.000000
4067.104662,-10881.027347,592.164754,383.047749
4067.104992,-11547.212695,74.020594,383.047749
4067.105322,-9696.697840,148.041188,-459.657299
4067.105652,-8512.368333,-370.102971,-842.705048
4067.105982,-9178.553681,0.000000,-459.657299
4067.106311,-10658.965565,518.144159,995.924147
4067.106641,-10955.047942,444.123565,766.095498
4067.106971,-9696.697840,74.020594,-153.219100
4067.107301,-8956.491898,370.102971,0.000000
4067.107630,-9548.656652,444.123565,689.485948
4067.107960,-10510.924376,222.061783,1608.800546
4067.108290,-11177.109724,0.000000,1072.533697
4067.108620,-9992.780217,74.020594,0.000000
4067.108950,-8808.450710,-222.061783,-842.705048
4067.109279,-9326.594869,-148.041188,0.000000
4067.109609,-10510.924376,148.041188,842.705048
4067.109939,-10658.965565,296.082377,689.485948
4067.110269,-9400.615463,0.000000,0.000000
4067.110598,-9252.574275,74.020594,0.000000
4067.110928,-9918.759623,0.000000,536.266849
4067.111258,-11251.130318,0.000000,1302.362347
4067.111588,-10436.903782,-518.144159,1149.143247
4067.111917,-8882.471304,-518.144159,459.657299
4067.112247,-8438.347739,-592.164754,0.000000
4067.112577,-9326.594869,-592.164754,459.657299
4067.112907,-10510.924376,-222.061783,229.828649
4067.113237,-10362.883188,148.041188,76.609550
4067.113566,-8882.471304,370.102971,-612.876398
4067.113896,-8512.368333,0.000000,-306.438199
4067.114226,-9622.677246,0.000000,689.485948
4067.114556,-10510.924376,74.020594,1378.971896
4067.114885,-10436.903782,0.000000,0.000000
4067.115215,-9548.656652,-74.020594,-766.095498
4067.115545,-9030.512492,-296.082377,-612.876398
4067.115875,-9622.677246,0.000000,766.095498
4067.116204,-10807.006753,296.082377,919.314598
4067.116534,-10436.903782,74.020594,0.000000
4067.116864,-9030.512492,0.000000,-919.314598
4067.117194,-8438.347739,0.000000,153.219100
4067.117524,-10362.883188,518.144159,1378.971896
4067.117853,-11177.109724,148.041188,1149.143247
4067.118183,-10066.800811,444.123565,0.000000
4067.118513,-8586.388927,0.000000,-1225.752797
4067.118843,-9178.553681,0.000000,-842.705048
4067.119172,-10510.924376,592.164754,612.876398
4067.119502,-10955.047942,222.061783,1072.533697
4067.119832,-9696.697840,370.102971,229.828649
4067.120162,-8660.409521,0.000000,76.609550
4067.120491,-9770.718434,444.123565,612.876398
4067.120821,-10881.027347,296.082377,1685.410096
4067.121151,-10807.006753,148.041188,766.095498
4067.121481,-9326.594869,0.000000,-459.657299
4067.121811,-8882.471304,0.000000,-612.876398
4067.122140,-9400.615463,-592.164754,76.609550
4067.122470,-10066.800811,-296.082377,842.705048
4067.122800,-9992.780217,-666.185348,153.219100
4067.123130,-8734.430116,-370.102971,0.000000
4067.123459,-8364.327145,-370.102971,-153.219100
4067.123789,-9400.615463,0.000000,1072.533697
4067.124119,-10658.965565,0.000000,1838.629195
4067.124449,-10732.986159,148.041188,842.705048
4067.124778,-9178.553681,-148.041188,-995.924147
4067.125108,-8364.327145,-444.123565,-1225.752797
4067.125438,-9548.656652,0.000000,0.000000
4067.125768,-11473.192101,740.205942,1072.533697
4067.126098,-10584.944971,296.082377,459.657299
4067.126427,-8660.409521,-148.041188,-766.095498
4067.126757,-8808.450710,-148.041188,-842.705048
4067.127087,-9992.780217,0.000000,306.438199
4067.127417,-11695.253884,222.061783,1762.019645
4067.127746,-10288.862594,-296.082377,459.657299
4067.128076,-8808.450710,-444.123565,-153.219100
4067.128406,-9104.533087,-444.123565,459.657299
4067.128736,-10658.965565,370.102971,995.924147
4067.129065,-11473.192101,222.061783,842.705048
4067.129395,-10362.883188,0.000000,-383.047749
4067.129725,-9104.533087,296.082377,-612.876398
4067.130055,-9252.574275,0.000000,-612.876398
4067.130385,-10436.903782,148.041188,995.924147
4067.130714,-11029.068536,0.000000,1149.143247
4067.131044,-9770.718434,0.000000,-383.047749
4067.131374,-8216.285956,-370.102971,-1225.752797
4067.131704,-8660.409521,0.000000,-459.657299
4067.132033,-10732.986159,592.164754,383.047749
4067.132363,-11103.089130,444.123565,383.047749
4067.132693,-9918.759623,666.185348,76.609550
4067.133023,-8586.388927,148.041188,-689.485948
4067.133353,-9548.656652,0.000000,306.438199
4067.133682,-10510.924376,148.041188,1608.800546
4067.134012,-10362.883188,-74.020594,459.657299
4067.134342,-8438.347739,-296.082377,-612.876398
4067.134672,-7920.203579,0.000000,-842.705048
4067.135001,-9844.739029,222.061783,153.219100
4067.135331,-11103.089130,666.185348,995.924147
4067.135661,-10881.027347,592.164754,306.438199
4067.135991,-9104.533087,296.082377,-689.485948
4067.136320,-8808.450710,0.000000,-306.438199
4067.136650,-10066.800811,370.102971,1378.971896
4067.136980,-10955.047942,222.061783,1838.629195
4067.137310,-10584.944971,74.020594,306.438199
4067.137640,-8734.430116,148.041188,-919.314598
4067.137969,-8882.471304,74.020594,-612.876398
4067.138299,-10140.821405,592.164754,842.705048
4067.138629,-10807.006753,222.061783,1608.800546
4067.138959,-10362.883188,296.082377,306.438199
4067.139288,-9178.553681,-148.041188,-76.609550
4067.139618,-8734.430116,-222.061783,306.438199
4067.139948,-10214.842000,74.020594,1455.581446
4067.140278,-11103.089130,0.000000,1378.971896
4067.140607,-9992.780217,-370.102971,153.219100
4067.140937,-7846.182985,-592.164754,-1072.533697
4067.141267,-8438.347739,-592.164754,306.438199
4067.141597,-10658.965565,370.102971,1455.581446
4067.141927,-11029.068536,222.061783,1302.362347
4067.142256,-10066.800811,74.020594,-229.828649
4067.142586,-8586.388927,-592.164754,-689.485948
4067.142916,-9548.656652,-518.144159,306.438199
4067.143246,-10732.986159,0.000000,1608.800546
4067.143575,-10955.047942,-296.082377,1225.752797
4067.143905,-9474.636058,0.000000,-229.828649
4067.144235,-8586.388927,-74.020594,-1072.533697
4067.144565,-9400.615463,-74.020594,0.000000
4067.144894,-10881.027347,148.041188,689.485948
4067.145224,-10881.027347,222.061783,153.219100
4067.145554,-9474.636058,-666.185348,-459.657299
4067.145884,-8586.388927,-666.185348,0.000000
4067.146214,-8956.491898,-888.247130,1455.581446
4067.146543,-10584.944971,0.000000,1455.581446
4067.146873,-10658.965565,-740.205942,0.000000
4067.147203,-9030.512492,-666.185348,-995.924147
4067.147533,-8142.265362,-370.102971,-229.828649
4067.147862,-9918.759623,370.102971,1072.533697
4067.148192,-11547.212695,592.164754,1302.362347
4067.148522,-11251.130318,370.102971,-229.828649
4067.148852,-9622.677246,222.061783,-1608.800546
4067.149181,-9030.512492,-148.041188,-1302.362347
4067.149511,-10066.800811,74.020594,766.095498
4067.149841,-10436.903782,148.041188,1455.581446
4067.150171,-9918.759623,296.082377,229.828649
4067.150501,-8068.244768,74.020594,-1378.971896
4067.150830,-8734.430116,148.041188,-459.657299
4067.151160,-10732.986159,222.061783,1685.410096
4067.151490,-11547.212695,222.061783,1149.143247
4067.151820,-10288.862594,74.020594,0.000000
4067.152149,-8216.285956,0.000000,0.000000
4067.152479,-7772.162391,-296.082377,383.047749
4067.152809,-9770.718434,148.041188,1608.800546
4067.153139,-11103.089130,296.082377,995.924147
4067.153468,-10288.862594,148.041188,-306.438199
4067.153798,-8734.430116,222.061783,-612.876398
4067.154128,-9178.553681,0.000000,76.609550
4067.154458,-10140.821405,444.123565,1685.410096
4067.154788,-10362.883188,148.041188,1072.533697
4067.155117,-9252.574275,222.061783,-536.266849
4067.155447,-8512.368333,518.144159,-306.438199
4067.155777,-9474.636058,444.123565,689.485948
4067.156107,-11029.068536,592.164754,1608.800546
4067.156436,-11251.130318,74.020594,689.485948
4067.156766,-9178.553681,0.000000,-306.438199
4067.157096,-8512.368333,-148.041188,-689.485948
4067.157426,-9030.512492,148.041188,459.657299
4067.157755,-11029.068536,592.164754,995.924147
4067.158085,-11177.109724,444.123565,229.828649
4067.158415,-9474.636058,0.000000,-612.876398
4067.158745,-8290.306550,148.041188,0.000000
4067.159075,-9400.615463,296.082377,995.924147
4067.159404,-11103.089130,740.205942,1455.581446
4067.159734,-10362.883188,444.123565,306.438199
4067.160064,-9104.533087,296.082377,-1302.362347
4067.160394,-8956.491898,296.082377,-995.924147
4067.160723,-10510.924376,296.082377,153.219100
4067.161053,-11399.171507,592.164754,842.705048
4067.161383,-10436.903782,0.000000,-306.438199
4067.161713,-9030.512492,-296.082377,-1072.533697
4067.162042,-8660.409521,-222.061783,0.000000
4067.162372,-9844.739029,-296.082377,1915.238745
4067.162702,-10955.047942,148.041188,1991.848295
4067.163032,-10436.903782,0.000000,0.000000
4067.163362,-9104.533087,-296.082377,-919.314598
4067.163691,-9474.636058,-296.082377,-536.266849
4067.164021,-10955.047942,0.000000,995.924147
4067.164351,-10658.965565,74.020594,1302.362347
4067.164681,-9474.636058,-74.020594,76.609550
4067.165010,-8068.244768,-444.123565,-383.047749
4067.165340,-8882.471304,-370.102971,76.609550
4067.165670,-10732.986159,74.020594,919.314598
4067.166000,-11029.068536,-444.123565,612.876398
4067.166330,-9770.718434,-444.123565,-536.266849
4067.166659,-8290.306550,-962.267725,229.828649
4067.166989,-9326.594869,-814.226536,919.314598
4067.167319,-10658.965565,-74.020594,1455.581446
4067.167649,-10732.986159,-444.123565,842.705048
4067.167978,-9400.615463,148.041188,-229.828649
4067.168308,-8734.430116,0.000000,-153.219100
4067.168638,-9770.718434,444.123565,919.314598
4067.168968,-11029.068536,148.041188,1302.362347
4067.169297,-10436.903782,-296.082377,0.000000
4067.169627,-8586.388927,-814.226536,-1302.362347
4067.169957,-8216.285956,-592.164754,-1225.752797
4067.170287,-9252.574275,0.000000,0.000000
4067.170617,-10214.842000,370.102971,612.876398
4067.170946,-10436.903782,0.000000,1225.752797
4067.171276,-9548.656652,0.000000,0.000000
4067.171606,-9326.594869,-148.041188,306.438199
4067.171936,-9548.656652,0.000000,842.705048
4067.172265,-10436.903782,0.000000,1225.752797
4067.172595,-10140.821405,-592.164754,306.438199
4067.172925,-8586.388927,-444.123565,-536.266849
4067.173255,-8438.347739,-592.164754,0.000000
4067.173584,-9696.697840,74.020594,842.705048
4067.173914,-10881.027347,518.144159,1378.971896
4067.174244,-10066.800811,148.041188,306.438199
4067.174574,-8660.409521,0.000000,-153.219100
4067.174904,-9104.533087,0.000000,153.219100
4067.175233,-10584.944971,444.123565,1762.019645
4067.175563,-11251.130318,222.061783,1532.190996
4067.175893,-10510.924376,0.000000,689.485948
4067.176223,-9104.533087,-222.061783,-536.266849
4067.176552,-8660.409521,-518.144159,0.000000
4067.176882,-9844.739029,0.000000,459.657299
4067.177212,-10584.944971,222.061783,536.266849
4067.177542,-9844.739029,222.061783,306.438199
4067.177871,-9030.512492,370.102971,0.000000
4067.178201,-9326.594869,222.061783,0.000000
4067.178531,-10732.986159,296.082377,842.705048
4067.178861,-11399.171507,0.000000,306.438199
4067.179191,-10214.842000,-222.061783,0.000000
4067.179520,-8586.388927,-592.164754,-459.657299
4067.179850,-8882.471304,-370.102971,0.000000
4067.180180,-10214.842000,444.123565,689.485948
4067.180510,-10732.986159,222.061783,76.609550
4067.180839,-9548.656652,74.020594,76.609550
4067.181169,-8512.368333,370.102971,-459.657299
4067.181499,-9252.574275,296.082377,459.657299
4067.181829,-10658.965565,814.226536,995.924147
4067.182158,-10510.924376,74.020594,459.657299
4067.182488,-9548.656652,444.123565,-1455.581446
4067.182818,-9178.553681,0.000000,-2298.286494
4067.183148,-9548.656652,148.041188,-1302.362347
4067.183478,-10066.800811,370.102971,76.609550
4067.183807,-10362.883188,518.144159,536.266849
4067.184137,-9622.677246,740.205942,229.828649
4067.184467,-9178.553681,444.123565,0.000000
4067.184797,-9696.697840,148.041188,0.000000
4067.185126,-10658.965565,148.041188,1149.143247
4067.185456,-10362.883188,0.000000,766.095498
4067.185786,-9326.594869,0.000000,459.657299
4067.186116,-8438.347739,-222.061783,0.000000
4067.186445,-8734.430116,74.020594,0.000000
4067.186775,-10140.821405,370.102971,383.047749
4067.187105,-10288.862594,962.267725,-383.047749
4067.187435,-9770.718434,1036.288319,-383.047749
4067.187765,-9326.594869,740.205942,-229.828649
4067.188094,-10362.883188,518.144159,919.314598
4067.188424,-11177.109724,814.226536,1149.143247
4067.188754,-10214.842000,-296.082377,-229.828649
4067.189084,-9178.553681,-74.020594,-1225.752797
4067.189413,-8364.327145,-518.144159,-689.485948
4067.189743,-9622.677246,518.144159,1302.362347
4067.190073,-10510.924376,592.164754,1302.362347
4067.190403,-9992.780217,518.144159,459.657299
4067.190732,-9104.533087,666.185348,0.000000
4067.191062,-9474.636058,370.102971,-842.705048
4067.191392,-10584.944971,74.020594,-153.219100
4067.191722,-11103.089130,-148.041188,842.705048
4067.192052,-9696.697840,-296.082377,459.657299
4067.192381,-8290.306550,-518.144159,-612.876398
4067.192711,-8290.306550,-962.267725,-536.266849
4067.193041,-9918.759623,0.000000,306.438199
4067.193371,-11103.089130,296.082377,612.876398
4067.193700,-10436.903782,0.000000,612.876398
4067.194030,-9030.512492,0.000000,153.219100
4067.194360,-9326.594869,-518.144159,766.095498
4067.194690,-10436.903782,-296.082377,1149.143247
4067.195020,-10584.944971,-888.247130,459.657299
4067.195349,-9622.677246,-592.164754,-612.876398
4067.195679,-8142.265362,-666.185348,-689.485948
4067.196009,-9474.636058,-518.144159,0.000000
4067.196339,-11251.130318,74.020594,1302.362347
4067.196668,-11103.089130,-148.041188,919.314598
4067.196998,-9400.615463,-74.020594,0.000000
4067.197328,-8068.244768,-370.102971,-842.705048
4067.197658,-9696.697840,0.000000,766.095498
4067.197987,-11029.068536,-148.041188,1991.848295
4067.198317,-11473.192101,-666.185348,1608.800546
4067.198647,-9770.718434,-666.185348,76.609550
4067.198977,-8438.347739,-962.267725,-536.266849
4067.199307,-9178.553681,-518.144159,459.657299
4067.199636,-10955.047942,222.061783,1149.143247
4067.199966,-10584.944971,296.082377,689.485948
4067.200296,-9030.512492,0.000000,-229.828649
4067.200626,-8364.327145,0.000000,-612.876398
4067.200955,-10214.842000,222.061783,1072.533697
4067.201285,-11325.150913,0.000000,1991.848295
4067.201615,-10140.821405,-296.082377,536.266849
4067.201945,-8438.347739,-740.205942,-689.485948
4067.202274,-8438.347739,-1036.288319,-536.266849
4067.202604,-10436.903782,-370.102971,1149.143247
4067.202934,-10807.006753,148.041188,1302.362347
4067.203264,-9474.636058,444.123565,0.000000
4067.203594,-8068.244768,592.164754,0.000000
4067.203923,-8586.388927,518.144159,0.000000
4067.204253,-10732.986159,962.267725,766.095498
4067.204583,-11473.192101,74.020594,919.314598
4067.204913,-10140.821405,148.041188,0.000000
4067.205242,-8364.327145,-296.082377,-842.705048
4067.205572,-7994.224174,-518.144159,-459.657299
4067.205902,-9474.636058,0.000000,919.314598
4067.206232,-10436.903782,592.164754,229.828649
4067.206561,-9918.759623,814.226536,-919.314598
4067.206891,-9030.512492,1110.308913,-689.485948
4067.207221,-9770.718434,1110.308913,153.219100
4067.207551,-11843.295072,1036.288319,1685.410096
4067.207881,-12213.398043,888.247130,1149.143247
4067.208210,-9696.697840,0.000000,-919.314598
4067.208540,-8142.265362,-222.061783,-1762.019645
4067.208870,-9252.574275,-296.082377,-612.876398
4067.209200,-10584.944971,1036.288319,2068.457845
4067.209530,-10732.986159,444.123565,842.705048
4067.209860,-9474.636058,666.185348,0.000000
4067.210189,-8808.450710,518.144159,-919.314598
4067.210519,-10214.842000,296.082377,229.828649
4067.210849,-11177.109724,148.041188,1072.533697
4067.211179,-10436.903782,-74.020594,842.705048
4067.211509,-8660.409521,-370.102971,306.438199
4067.211839,-8290.306550,-888.247130,306.438199
4067.212169,-9918.759623,0.000000,919.314598
4067.212498,-10955.047942,74.020594,919.314598
4067.212828,-10732.986159,296.082377,-153.219100
4067.213158,-9400.615463,0.000000,-612.876398
4067.213488,-9030.512492,148.041188,612.876398
4067.213818,-9400.615463,296.082377,1225.752797
4067.214148,-10807.006753,370.102971,842.705048
4067.214478,-10584.944971,-296.082377,-766.095498
4067.214807,-8586.388927,0.000000,-1608.800546
4067.215137,-8142.265362,-296.082377,-1685.410096
4067.215467,-10066.800811,148.041188,1072.533697
4067.215797,-11399.171507,222.061783,1762.019645
4067.216127,-10140.821405,592.164754,229.828649
4067.216457,-8734.430116,370.102971,-1378.971896
4067.216787,-9474.636058,444.123565,-1072.533697
4067.217116,-11177.109724,518.144159,995.924147
4067.217446,-11399.171507,222.061783,536.266849
4067.217776,-9622.677246,296.082377,229.828649
4067.218106,-8364.327145,-148.041188,-612.876398
4067.218436,-9622.677246,0.000000,76.609550
4067.218766,-11177.109724,148.041188,306.438199
4067.219095,-10807.006753,296.082377,919.314598
4067.219425,-9178.553681,148.041188,0.000000
4067.219755,-8290.306550,148.041188,153.219100
4067.220085,-9252.574275,296.082377,1378.971896
4067.220415,-11399.171507,592.164754,1532.190996
4067.220745,-11473.192101,148.041188,153.219100
4067.221075,-9844.739029,-148.041188,-1072.533697
4067.221404,-8660.409521,-370.102971,-766.095498
4067.221734,-8660.409521,-592.164754,383.047749
4067.222064,-9918.759623,74.020594,1762.019645
4067.222394,-10658.965565,148.041188,1072.533697
4067.222724,-9622.677246,-370.102971,-306.438199
4067.223054,-8734.430116,-222.061783,-766.095498
4067.223384,-9548.656652,148.041188,1532.190996
4067.223713,-10955.047942,0.000000,2374.896044
4067.224043,-10214.842000,-592.164754,1608.800546
4067.224373,-8290.306550,-592.164754,0.000000
4067.224703,-7920.203579,-666.185348,-459.657299
4067.225033,-10066.800811,-370.102971,459.657299
4067.225363,-11547.212695,0.000000,766.095498
4067.225692,-10436.903782,74.020594,-306.438199
4067.226022,-8586.388927,-74.020594,-766.095498
4067.226352,-8438.347739,148.041188,-689.485948
4067.226682,-10066.800811,666.185348,842.705048
4067.227012,-11547.212695,148.041188,459.657299
4067.227342,-10807.006753,0.000000,-536.266849
4067.227672,-8808.450710,-518.144159,-766.095498
4067.228001,-8956.491898,-666.185348,229.828649
4067.228331,-9992.780217,-740.205942,1991.848295
4067.228661,-11251.130318,-74.020594,1838.629195
4067.228991,-9992.780217,0.000000,459.657299
4067.229321,-8956.491898,74.020594,153.219100
4067.229651,-9474.636058,592.164754,536.266849
4067.229981,-11473.192101,1110.308913,1378.971896
4067.230310,-11769.274478,592.164754,766.095498
4067.230640,-10362.883188,222.061783,-612.876398
4067.230970,-8882.471304,148.041188,-1302.362347
4067.231300,-9030.512492,-518.144159,-383.047749
4067.231630,-10436.903782,0.000000,689.485948
4067.231960,-10362.883188,518.144159,689.485948
4067.232290,-9400.615463,0.000000,0.000000
4067.232619,-8734.430116,222.061783,842.705048
4067.232949,-9548.656652,74.020594,1838.629195
4067.233279,-11325.150913,444.123565,2987.772442
4067.233609,-10955.047942,0.000000,842.705048
4067.233939,-9104.533087,0.000000,-766.095498
4067.234269,-8142.265362,74.020594,-995.924147
4067.234598,-9178.553681,222.061783,383.047749
4067.234928,-10140.821405,518.144159,689.485948
4067.235258,-10066.800811,518.144159,-229.828649
4067.235588,-8956.491898,222.061783,-1302.362347
4067.235918,-8512.368333,74.020594,-383.047749
4067.236248,-10066.800811,148.041188,612.876398
4067.236578,-11029.068536,148.041188,1455.581446
4067.236907,-10584.944971,0.000000,459.657299
4067.237237,-9030.512492,0.000000,0.000000
4067.237567,-8216.285956,-148.041188,383.047749
4067.237897,-9548.656652,0.000000,842.705048
4067.238227,-10881.027347,296.082377,536.266849
4067.238557,-10510.924376,444.123565,-766.095498
4067.238887,-9252.574275,296.082377,-919.314598
4067.239216,-8808.450710,74.020594,-306.438199
4067.239546,-10214.842000,222.061783,1149.143247
4067.239876,-10807.006753,370.102971,842.705048
4067.240206,-9696.697840,0.000000,-766.095498
4067.240536,-8290.306550,-296.082377,-1302.362347
4067.240866,-9178.553681,0.000000,0.000000
4067.241196,-11473.192101,370.102971,1685.410096
4067.241525,-12065.356855,296.082377,1455.581446
4067.241855,-10214.842000,74.020594,-229.828649
4067.242185,-8808.450710,74.020594,-919.314598
4067.242515,-9400.615463,0.000000,0.000000
4067.242845,-10732.986159,0.000000,1225.752797
4067.243175,-10584.944971,-370.102971,919.314598
4067.243504,-8882.471304,0.000000,0.000000
4067.243834,-8734.430116,222.061783,0.000000
4067.244164,-9696.697840,0.000000,0.000000
4067.244494,-11103.089130,370.102971,306.438199
4067.244824,-10807.006753,444.123565,-459.657299
4067.245154,-9696.697840,222.061783,-766.095498
4067.245484,-9030.512492,74.020594,-612.876398
4067.245813,-9474.636058,74.020594,229.828649
4067.246143,-10510.924376,444.123565,306.438199
4067.246473,-10362.883188,0.000000,-612.876398
4067.246803,-9474.636058,-148.041188,-1149.143247
4067.247133,-8734.430116,-74.020594,0.000000
4067.247463,-8660.409521,-296.082377,1532.190996
4067.247793,-10214.842000,148.041188,1915.238745
4067.248122,-10288.862594,0.000000,919.314598
4067.248452,-9474.636058,0.000000,-536.266849
4067.248782,-9104.533087,-296.082377,-153.219100
4067.249112,-9622.677246,0.000000,919.314598
4067.249442,-10510.924376,444.123565,1762.019645
4067.249772,-10214.842000,222.061783,229.828649
4067.250101,-9030.512492,148.041188,-1072.533697
4067.250431,-8734.430116,444.123565,-1225.752797
4067.250761,-9992.780217,296.082377,76.609550
4067.251091,-10955.047942,518.144159,536.266849
4067.251421,-10066.800811,148.041188,0.000000
4067.251751,-8438.347739,296.082377,229.828649
4067.252081,-8882.471304,296.082377,-229.828649
4067.252410,-10881.027347,74.020594,995.924147
4067.252740,-11547.212695,0.000000,842.705048
4067.253070,-10436.903782,-296.082377,919.314598
4067.253400,-8660.409521,0.000000,842.705048
4067.253730,-9326.594869,-74.020594,1532.190996
4067.254060,-10584.944971,0.000000,1225.752797
4067.254390,-10881.027347,74.020594,76.609550
4067.254719,-9992.780217,0.000000,-459.657299
4067.255049,-9326.594869,-222.061783,0.000000
4067.255379,-9622.677246,-518.144159,612.876398
4067.255709,-10140.821405,0.000000,1608.800546
4067.256039,-10510.924376,-814.226536,1608.800546
4067.256369,-9770.718434,-370.102971,-229.828649
4067.256699,-8956.491898,-518.144159,-1072.533697
4067.257028,-9178.553681,-370.102971,-153.219100
4067.257358,-9622.677246,-370.102971,1608.800546
4067.257688,-10732.986159,74.020594,1149.143247
4067.258018,-9992.780217,-296.082377,306.438199
4067.258348,-8882.471304,-888.247130,-306.438199
4067.258678,-9474.636058,-666.185348,0.000000
4067.259007,-10362.883188,-370.102971,689.485948
4067.259337,-10214.842000,-740.205942,689.485948
4067.259667,-8512.368333,-370.102971,-383.047749
4067.259997,-7994.224174,-296.082377,-536.266849
4067.260327,-9770.718434,74.020594,0.000000
4067.260657,-11177.109724,148.041188,306.438199
4067.260987,-11251.130318,74.020594,-612.876398
4067.261316,-9326.594869,0.000000,-536.266849
4067.261646,-8512.368333,-222.061783,459.657299
4067.261976,-9622.677246,74.020594,842.705048
4067.262306,-10658.965565,370.102971,536.266849
4067.262636,-10584.944971,222.061783,-76.609550
4067.262966,-9548.656652,0.000000,-766.095498
4067.263296,-9400.615463,0.000000,-842.705048
4067.263625,-10362.883188,518.144159,995.924147
4067.263955,-10807.006753,518.144159,1378.971896
4067.264285,-10362.883188,148.041188,766.095498
4067.264615,-9548.656652,296.082377,-306.438199
4067.264945,-9622.677246,0.000000,0.000000
4067.265275,-10214.842000,370.102971,76.609550
4067.265604,-10807.006753,592.164754,842.705048
4067.265934,-10362.883188,888.247130,689.485948
4067.266264,-9178.553681,222.061783,306.438199
4067.266594,-9252.574275,0.000000,76.609550
4067.266924,-10066.800811,222.061783,76.609550
4067.267254,-11103.089130,74.020594,689.485948
4067.267584,-10140.821405,74.020594,842.705048
4067.267913,-8512.368333,0.000000,0.000000
4067.268243,-8586.388927,0.000000,383.047749
4067.268573,-10066.800811,444.123565,1225.752797
4067.268903,-10881.027347,222.061783,459.657299
4067.269233,-9548.656652,74.020594,0.000000
4067.269563,-8290.306550,0.000000,-459.657299
4067.269893,-9178.553681,0.000000,306.438199
4067.270222,-10288.862594,296.082377,1532.190996
4067.270552,-10362.883188,74.020594,383.047749
4067.270882,-9400.615463,0.000000,-919.314598
4067.271212,-8068.244768,-222.061783,-1455.581446
4067.271542,-9030.512492,-296.082377,0.000000
4067.271872,-10362.883188,444.123565,1302.362347
4067.272202,-10436.903782,222.061783,842.705048
4067.272531,-9178.553681,74.020594,-536.266849
4067.272861,-8512.368333,0.000000,-1302.362347
4067.273191,-9474.636058,222.061783,-536.266849
4067.273521,-11177.109724,222.061783,459.657299
4067.273851,-10658.965565,0.000000,306.438199
4067.274181,-9474.636058,0.000000,76.609550
4067.274510,-8808.450710,296.082377,-459.657299
4067.274840,-9770.718434,0.000000,842.705048
4067.275170,-11029.068536,296.082377,1302.362347
4067.275500,-11399.171507,444.123565,459.657299
4067.275830,-9696.697840,222.061783,-612.876398
4067.276160,-8882.471304,-148.041188,-229.828649
4067.276490,-9918.759623,0.000000,612.876398
4067.276819,-11177.109724,74.020594,689.485948
4067.277149,-10436.903782,0.000000,153.219100
4067.277479,-8734.430116,-222.061783,-612.876398
4067.277809,-8586.388927,0.000000,-536.266849
4067.278139,-10214.842000,0.000000,1455.581446
4067.278469,-11547.212695,370.102971,1915.238745
4067.278799,-10732.986159,0.000000,1225.752797
4067.279128,-9030.512492,-370.102971,-459.657299
4067.279458,-8586.388927,-444.123565,-536.266849
4067.279788,-9844.739029,-296.082377,766.095498
4067.280118,-10584.944971,-296.082377,842.705048
4067.280448,-9918.759623,-296.082377,383.047749
4067.280778,-8586.388927,-666.185348,-383.047749
4067.281107,-8290.306550,-666.185348,0.000000
4067.281437,-9622.677246,370.102971,995.924147
4067.281767,-10658.965565,0.000000,842.705048
4067.282097,-9622.677246,0.000000,-306.438199
4067.282427,-8142.265362,-370.102971,-383.047749
4067.282757,-8882.471304,0.000000,229.828649
4067.283087,-10881.027347,370.102971,1072.533697
4067.283416,-11695.253884,-444.123565,842.705048
4067.283746,-9622.677246,-592.164754,-229.828649
4067.284076,-7920.203579,-962.267725,-842.705048
4067.284406,-8068.244768,-888.247130,306.438199
4067.284736,-10288.862594,148.041188,1532.190996
4067.285066,-10658.965565,222.061783,995.924147
4067.285396,-9474.636058,296.082377,-383.047749
4067.285725,-8290.306550,0.000000,-536.266849
4067.286055,-10288.862594,222.061783,383.047749
4067.286385,-11251.130318,74.020594,1302.362347
4067.286715,-10436.903782,-444.123565,1149.143247
4067.287045,-8586.388927,-592.164754,-306.438199
4067.287375,-8142.265362,-592.164754,-612.876398
4067.287705,-9844.739029,-444.123565,612.876398
4067.288034,-10732.986159,370.102971,1302.362347
4067.288364,-10807.006753,814.226536,689.485948
4067.288694,-9622.677246,148.041188,-766.095498
4067.289024,-9104.533087,0.000000,-919.314598
4067.289354,-10066.800811,74.020594,612.876398
4067.289684,-11547.212695,296.082377,995.924147
4067.290013,-11325.150913,0.000000,459.657299
4067.290343,-9178.553681,0.000000,-919.314598
4067.290673,-8290.306550,-296.082377,-919.314598
4067.291003,-9770.718434,0.000000,766.095498
4067.291333,-11547.212695,0.000000,612.876398
4067.291663,-10732.986159,148.041188,153.219100
4067.291993,-8512.368333,-370.102971,-383.047749
4067.292322,-8364.327145,0.000000,306.438199
4067.292652,-10140.821405,222.061783,1991.848295
4067.292982,-11547.212695,222.061783,1455.581446
4067.293312,-10288.862594,0.000000,-306.438199
4067.293642,-8364.327145,-370.102971,-1225.752797
4067.293972,-8808.450710,-222.061783,-383.047749
4067.294302,-10510.924376,-296.082377,689.485948
4067.294631,-11177.109724,0.000000,919.314598
4067.294961,-9474.636058,296.082377,-536.266849
4067.295291,-8216.285956,-74.020594,-766.095498
4067.295621,-8808.450710,0.000000,0.000000
4067.295951,-10362.883188,0.000000,1072.533697
4067.296281,-10288.862594,148.041188,536.266849
4067.296610,-8882.471304,-74.020594,-766.095498
4067.296940,-8290.306550,-518.144159,-536.266849
4067.297270,-9326.594869,222.061783,383.047749
4067.297600,-11029.068536,370.102971,1225.752797
4067.297930,-11103.089130,370.102971,229.828649
4067.298260,-9696.697840,296.082377,-1072.533697
4067.298590,-8586.388927,370.102971,-766.095498
4067.298919,-9400.615463,592.164754,612.876398
4067.299249,-11251.130318,1110.308913,1149.143247
4067.299579,-11621.233289,666.185348,306.438199
4067.299909,-9992.780217,518.144159,-1532.190996
4067.300239,-8808.450710,0.000000,-1225.752797
4067.300569,-9622.677246,74.020594,459.657299
4067.300899,-11029.068536,370.102971,1915.238745
4067.301228,-10288.862594,74.020594,153.219100
4067.301558,-8216.285956,0.000000,-153.219100
4067.301888,-9252.574275,0.000000,229.828649
4067.302218,-11325.150913,370.102971,2298.286494
4067.302548,-12287.418637,592.164754,1838.629195
4067.302878,-9992.780217,444.123565,306.438199
4067.303208,-7994.224174,-296.082377,-919.314598
4067.303537,-8364.327145,0.000000,0.000000
4067.303867,-10066.800811,-296.082377,1149.143247
4067.304197,-10807.006753,0.000000,1378.971896
4067.304527,-10066.800811,0.000000,0.000000
4067.304857,-8290.306550,-222.061783,-1225.752797
4067.305187,-8512.368333,-444.123565,0.000000
4067.305516,-9770.718434,0.000000,1378.971896
4067.305846,-11029.068536,222.061783,1608.800546
4067.306176,-10140.821405,-370.102971,0.000000
4067.306506,-7994.224174,-518.144159,-612.876398
4067.306836,-8512.368333,-444.123565,536.266849
4067.307166,-9992.780217,0.000000,1302.362347
4067.307496,-11251.130318,-148.041188,383.047749
4067.307825,-9178.553681,-222.061783,-919.314598
4067.308155,-8068.244768,-592.164754,-766.095498
4067.308485,-9474.636058,0.000000,536.266849
4067.308815,-11251.130318,370.102971,1532.190996
4067.309145,-11769.274478,0.000000,306.438199
4067.309475,-9622.677246,0.000000,-612.876398
4067.309804,-9030.512492,0.000000,-1225.752797
4067.310134,-10066.800811,-296.082377,76.609550
4067.310464,-10807.006753,-444.123565,1149.143247
4067.310794,-10214.842000,0.000000,153.219100
4067.311124,-9326.594869,0.000000,-689.485948
4067.311454,-9030.512492,0.000000,-153.219100
4067.311784,-10510.924376,222.061783,842.705048
