#time,accel_x,accel_y,accel_z
4012.534950,-8882.471304,-1628.453072,1302.362347
4012.535280,-8438.347739,-1924.535449,153.219100
4012.535610,-7105.977043,-1702.473667,689.485948
4012.535940,-8882.471304,-1110.308913,2068.457845
4012.536270,-9844.739029,-518.144159,2604.724693
4012.536600,-9918.759623,518.144159,2834.553343
4012.536929,-10140.821405,-296.082377,2374.896044
4012.537259,-10436.903782,592.164754,1608.800546
4012.537589,-9622.677246,-296.082377,1991.848295
4012.537919,-8882.471304,0.000000,2374.896044
4012.538249,-9770.718434,74.020594,919.314598
4012.538579,-10066.800811,444.123565,766.095498
4012.538909,-10140.821405,666.185348,-766.095498
4012.539239,-10584.944971,1184.329507,-1149.143247
4012.539568,-10955.047942,1332.370696,-383.047749
4012.539898,-11103.089130,1110.308913,612.876398
4012.540228,-9918.759623,0.000000,1915.238745
4012.540558,-9474.636058,-592.164754,3140.991542
4012.540888,-9400.615463,-1110.308913,3753.867940
4012.541218,-9696.697840,-740.205942,3370.820191
4012.541548,-9474.636058,-592.164754,2145.067394
4012.541878,-9992.780217,0.000000,1762.019645
4012.542207,-11251.130318,518.144159,2528.115143
4012.542537,-11621.233289,888.247130,2374.896044
4012.542867,-11325.150913,518.144159,1991.848295
4012.543197,-10140.821405,148.041188,766.095498
4012.543527,-9252.574275,-888.247130,1072.533697
4012.543857,-8882.471304,-1406.391290,1915.238745
4012.544187,-8956.491898,-2220.617826,2757.943793
4012.544517,-8808.450710,-2294.638420,3677.258390
4012.544846,-9178.553681,-2368.659014,3677.258390
4012.545176,-9696.697840,-2294.638420,2757.943793
4012.545506,-11251.130318,-1406.391290,1225.752797
4012.545836,-8364.327145,-370.102971,1762.019645
4012.546166,-9696.697840,-1258.350101,3217.601092
4012.546496,-9696.697840,-2294.638420,4290.134789
4012.546826,-8660.409521,-3627.009116,4366.744339
4012.547156,-9474.636058,-4145.153275,4749.792088
4012.547485,-9622.677246,-5033.400406,4443.353888
4012.547815,-10436.903782,-5107.421000,3753.867940
4012.548145,-8956.491898,-5477.523971,3370.820191
4012.548475,-8882.471304,-4737.318029,3983.696590
4012.548805,-10066.800811,-4071.132681,4903.011187
4012.549135,-11103.089130,-2664.741391,4826.401637
4012.549465,-11621.233289,-2442.679609,2911.162892
4012.549795,-10362.883188,-2590.720797,-919.314598
4012.550124,-10214.842000,-4071.132681,-1072.533697
4012.550454,-10436.903782,-4441.235652,1302.362347
4012.550784,-9992.780217,-5551.544565,3753.867940
4012.551114,-8734.430116,-6069.688724,5132.839837
4012.551444,-7476.080014,-6587.832884,2757.943793
4012.551774,-7698.141797,-6143.709319,2145.067394
4012.552104,-9252.574275,-5699.585753,1838.629195
4012.552434,-10066.800811,-5033.400406,2911.162892
4012.552763,-11103.089130,-3182.885551,5362.668486
4012.553093,-10436.903782,-4071.132681,3983.696590
4012.553423,-10436.903782,-3256.906145,842.705048
4012.553753,-9770.718434,-3182.885551,-2221.676944
4012.554083,-10658.965565,-3182.885551,-2834.553343
4012.554413,-10140.821405,-3330.926739,-766.095498
4012.554743,-9400.615463,-3775.050304,919.314598
4012.555073,-8660.409521,-4145.153275,2528.115143
4012.555402,-7920.203579,-4737.318029,3524.039291
4012.555732,-8586.388927,-4367.215058,3140.991542
4012.556062,-9918.759623,-3997.112087,2068.457845
4012.556392,-9992.780217,-2516.700203,1532.190996
4012.556722,-10214.842000,-1998.556043,2451.505594
4012.557052,-11251.130318,74.020594,3370.820191
4012.557382,-11843.295072,592.164754,2681.334243
4012.557712,-12361.439231,888.247130,-383.047749
4012.558042,-11325.150913,592.164754,-2451.505594
4012.558372,-9770.718434,-888.247130,-2911.162892
4012.558702,-8586.388927,-888.247130,-612.876398
4012.559032,-8068.244768,-592.164754,995.924147
4012.559362,-7254.018232,-518.144159,459.657299
4012.559692,-7624.121203,0.000000,-536.266849
4012.560022,-9326.594869,962.267725,-1302.362347
4012.560352,-10214.842000,1110.308913,-1072.533697
4012.560682,-11251.130318,1776.494261,612.876398
4012.561012,-11177.109724,2146.597232,2298.286494
4012.561342,-10510.924376,2516.700203,2987.772442
4012.561672,-10436.903782,2368.659014,766.095498
4012.562002,-9918.759623,2590.720797,-383.047749
4012.562332,-9844.739029,2960.823768,-536.266849
4012.562662,-9400.615463,3330.926739,-383.047749
4012.562992,-8956.491898,3404.947333,-689.485948
4012.563323,-8808.450710,3552.988522,-612.876398
4012.563653,-9178.553681,3627.009116,-1302.362347
4012.563983,-9918.759623,3552.988522,-1915.238745
4012.564313,-9548.656652,3330.926739,-2834.553343
4012.564643,-8956.491898,3182.885551,-3524.039291
4012.564973,-8438.347739,3627.009116,-2528.115143
4012.565303,-9474.636058,3627.009116,-1225.752797
4012.565633,-10362.883188,4293.194464,153.219100
4012.565963,-10436.903782,3923.091493,0.000000
4012.566293,-10732.986159,3775.050304,0.000000
4012.566623,-10955.047942,3627.009116,383.047749
4012.566953,-11473.192101,3256.906145,689.485948
4012.567283,-10362.883188,2812.782580,-229.828649
4012.567613,-9030.512492,2590.720797,-1838.629195
4012.567943,-8512.368333,2368.659014,-2528.115143
4012.568273,-9622.677246,2886.803174,-2298.286494
4012.568603,-9696.697840,2442.679609,-1532.190996
4012.568933,-9326.594869,2442.679609,-1532.190996
4012.569263,-9400.615463,2146.597232,-995.924147
4012.569593,-10140.821405,1850.514855,-459.657299
4012.569923,-11251.130318,1480.411884,459.657299
4012.570253,-10362.883188,888.247130,1149.143247
4012.570583,-9326.594869,0.000000,1455.581446
4012.570913,-9400.615463,-444.123565,1225.752797
4012.571243,-9770.718434,-1036.288319,2451.505594
4012.571573,-9548.656652,-1036.288319,1455.581446
4012.571903,-9474.636058,-1036.288319,1072.533697
4012.572233,-8734.430116,-1480.411884,229.828649
4012.572563,-8660.409521,-1554.432478,995.924147
4012.572893,-8808.450710,-1480.411884,689.485948
4012.573223,-9770.718434,-1184.329507,1072.533697
4012.573553,-10140.821405,-1258.350101,1225.752797
4012.573883,-10807.006753,-1480.411884,689.485948
4012.574213,-10732.986159,-1332.370696,536.266849
4012.574543,-10658.965565,-2220.617826,229.828649
4012.574873,-11251.130318,-2368.659014,1072.533697
4012.575203,-10436.903782,-2738.761985,919.314598
4012.575533,-9474.636058,-2738.761985,1072.533697
4012.575863,-8734.430116,-2886.803174,459.657299
4012.576193,-9548.656652,-2590.720797,1225.752797
4012.576523,-10807.006753,-2368.659014,1685.410096
4012.576853,-10436.903782,-2146.597232,1838.629195
4012.577183,-9918.759623,-2590.720797,995.924147
4012.577513,-9770.718434,-2738.761985,1225.752797
4012.577843,-10140.821405,-3034.844362,1685.410096
4012.578173,-10362.883188,-3108.864956,1225.752797
4012.578503,-10732.986159,-3256.906145,766.095498
4012.578833,-10214.842000,-2442.679609,1378.971896
4012.579163,-9770.718434,-2368.659014,1608.800546
4012.579493,-9696.697840,-1850.514855,1838.629195
4012.579823,-10066.800811,-1776.494261,1225.752797
4012.580153,-10510.924376,-1184.329507,459.657299
4012.580483,-10066.800811,-1036.288319,76.609550
4012.580813,-9326.594869,-814.226536,-383.047749
4012.581143,-8956.491898,-888.247130,612.876398
4012.581473,-10288.862594,-370.102971,842.705048
4012.581804,-10732.986159,-518.144159,995.924147
4012.582134,-9918.759623,-666.185348,689.485948
4012.582464,-9178.553681,-1036.288319,229.828649
4012.582794,-8660.409521,-1036.288319,612.876398
4012.583124,-9178.553681,-592.164754,612.876398
4012.583454,-8882.471304,-370.102971,766.095498
4012.583784,-8512.368333,0.000000,919.314598
4012.584114,-9178.553681,814.226536,1532.190996
4012.584444,-10066.800811,814.226536,383.047749
4012.584774,-9844.739029,1258.350101,-383.047749
4012.585104,-10066.800811,1332.370696,-919.314598
4012.585434,-10140.821405,1480.411884,229.828649
4012.585764,-9770.718434,1554.432478,-689.485948
4012.586094,-9326.594869,1406.391290,-995.924147
4012.586424,-8216.285956,1628.453072,-1915.238745
4012.586754,-8956.491898,1258.350101,-1072.533697
4012.587084,-9770.718434,1702.473667,-383.047749
4012.587414,-9622.677246,1998.556043,-383.047749
4012.587744,-8956.491898,2072.576638,-766.095498
4012.588074,-9252.574275,2368.659014,-383.047749
4012.588404,-10214.842000,1998.556043,-689.485948
4012.588734,-10066.800811,2368.659014,0.000000
4012.589064,-9918.759623,2368.659014,-612.876398
4012.589394,-10140.821405,2590.720797,-919.314598
4012.589724,-10066.800811,2516.700203,-306.438199
4012.590054,-10510.924376,2516.700203,-612.876398
4012.590384,-10066.800811,2368.659014,-1225.752797
4012.590714,-9770.718434,2368.659014,-1149.143247
4012.591044,-9696.697840,1924.535449,-995.924147
4012.591374,-9474.636058,2368.659014,-1608.800546
4012.591704,-9178.553681,2146.597232,-1149.143247
4012.592034,-9992.780217,1702.473667,-459.657299
4012.592364,-11029.068536,2368.659014,153.219100
4012.592694,-11029.068536,1406.391290,-306.438199
4012.593024,-10066.800811,1332.370696,-612.876398
4012.593354,-9548.656652,1036.288319,229.828649
4012.593684,-10140.821405,814.226536,689.485948
4012.594014,-10436.903782,1110.308913,1225.752797
4012.594344,-9474.636058,444.123565,76.609550
4012.594674,-9252.574275,518.144159,0.000000
4012.595004,-9030.512492,592.164754,0.000000
4012.595334,-9770.718434,444.123565,842.705048
4012.595664,-10510.924376,296.082377,0.000000
4012.595994,-10584.944971,148.041188,153.219100
4012.596324,-10140.821405,-148.041188,0.000000
4012.596654,-8734.430116,-296.082377,-229.828649
4012.596984,-8956.491898,-962.267725,-306.438199
4012.597314,-9844.739029,-1036.288319,766.095498
4012.597644,-10140.821405,-740.205942,995.924147
4012.597974,-9992.780217,-740.205942,919.314598
4012.598304,-10140.821405,-814.226536,612.876398
4012.598634,-9844.739029,-1184.329507,612.876398
4012.598964,-10140.821405,-1332.370696,383.047749
4012.599294,-10362.883188,-1332.370696,842.705048
4012.599624,-9548.656652,-1406.391290,1455.581446
4012.599954,-9622.677246,-1554.432478,766.095498
4012.600285,-9252.574275,-1554.432478,1302.362347
4012.600615,-9622.677246,-1702.473667,1149.143247
4012.600945,-9918.759623,-1924.535449,842.705048
4012.601275,-10362.883188,-1776.494261,689.485948
4012.601605,-9918.759623,-1924.535449,842.705048
4012.601935,-9030.512492,-1924.535449,1072.533697
4012.602265,-9104.533087,-1998.556043,995.924147
4012.602595,-9548.656652,-1998.556043,919.314598
4012.602925,-9992.780217,-1776.494261,1685.410096
4012.603255,-10214.842000,-1406.391290,1225.752797
4012.603585,-9696.697840,-1702.473667,689.485948
4012.603915,-9548.656652,-1702.473667,842.705048
4012.604245,-9992.780217,-1480.411884,612.876398
4012.604575,-10214.842000,-1036.288319,995.924147
4012.604905,-9622.677246,-1406.391290,612.876398
4012.605235,-9548.656652,-1480.411884,1225.752797
4012.605565,-9474.636058,-1258.350101,1072.533697
4012.605895,-10066.800811,-1184.329507,689.485948
4012.606225,-10658.965565,-888.247130,1225.752797
4012.606555,-10732.986159,-962.267725,1149.143247
4012.606885,-9474.636058,-814.226536,536.266849
4012.607215,-9030.512492,-1036.288319,76.609550
4012.607545,-9252.574275,-814.226536,612.876398
4012.607875,-9770.718434,-592.164754,1149.143247
4012.608205,-9918.759623,-444.123565,1378.971896
4012.608535,-9548.656652,-222.061783,153.219100
4012.608865,-9548.656652,0.000000,-383.047749
4012.609195,-9696.697840,-222.061783,-536.266849
4012.609525,-9696.697840,148.041188,306.438199
4012.609855,-9992.780217,222.061783,153.219100
4012.610185,-9548.656652,592.164754,76.609550
4012.610515,-9474.636058,888.247130,-76.609550
4012.610845,-9622.677246,1110.308913,0.000000
4012.611175,-10214.842000,1036.288319,-306.438199
4012.611505,-10288.862594,814.226536,0.000000
4012.611835,-10140.821405,1110.308913,-383.047749
4012.612165,-9178.553681,1036.288319,-689.485948
4012.612495,-8660.409521,888.247130,-1225.752797
4012.612825,-9474.636058,1184.329507,-995.924147
4012.613155,-9992.780217,1184.329507,-383.047749
4012.613485,-10214.842000,1702.473667,0.000000
4012.613815,-9474.636058,1184.329507,0.000000
4012.614145,-10066.800811,1554.432478,-76.609550
4012.614475,-10066.800811,1406.391290,0.000000
4012.614805,-10214.842000,1258.350101,-689.485948
4012.615135,-9548.656652,1406.391290,-919.314598
4012.615465,-9400.615463,1776.494261,-612.876398
4012.615795,-9252.574275,1628.453072,-153.219100
4012.616125,-9548.656652,1628.453072,-383.047749
4012.616455,-10066.800811,1258.350101,-919.314598
4012.616785,-10140.821405,1184.329507,-995.924147
4012.617115,-10214.842000,1332.370696,-689.485948
4012.617445,-9030.512492,1258.350101,-766.095498
4012.617775,-8586.388927,888.247130,-459.657299
4012.618105,-8956.491898,888.247130,-229.828649
4012.618435,-9770.718434,1036.288319,459.657299
4012.618766,-10362.883188,1110.308913,766.095498
4012.619096,-10214.842000,1110.308913,0.000000
4012.619426,-9918.759623,666.185348,229.828649
4012.619756,-9622.677246,444.123565,306.438199
4012.620086,-10140.821405,666.185348,766.095498
4012.620416,-9992.780217,666.185348,306.438199
4012.620746,-9400.615463,666.185348,-459.657299
4012.621076,-8882.471304,740.205942,-76.609550
4012.621406,-9400.615463,740.205942,76.609550
4012.621736,-10362.883188,592.164754,612.876398
4012.622066,-10881.027347,666.185348,383.047749
4012.622396,-10510.924376,-370.102971,-306.438199
4012.622726,-9548.656652,0.000000,-153.219100
4012.623056,-9030.512492,-740.205942,229.828649
4012.623386,-9400.615463,-814.226536,766.095498
4012.623716,-9548.656652,-592.164754,2145.067394
4012.624046,-9992.780217,-444.123565,1762.019645
4012.624376,-9622.677246,-666.185348,766.095498
4012.624706,-9918.759623,-592.164754,306.438199
4012.625036,-10732.986159,-814.226536,536.266849
4012.625366,-10807.006753,-518.144159,689.485948
4012.625696,-10362.883188,-962.267725,612.876398
4012.626026,-9474.636058,-962.267725,536.266849
4012.626356,-9474.636058,-1332.370696,229.828649
4012.626686,-9770.718434,-1036.288319,766.095498
4012.627016,-10436.903782,-1184.329507,995.924147
4012.627346,-10362.883188,-888.247130,1225.752797
4012.627676,-9918.759623,-962.267725,536.266849
4012.628006,-9400.615463,-1406.391290,689.485948
4012.628336,-9400.615463,-1258.350101,689.485948
4012.628666,-10066.800811,-1332.370696,689.485948
4012.628996,-10362.883188,-1258.350101,1072.533697
4012.629326,-9770.718434,-1554.432478,1608.800546
4012.629656,-9474.636058,-1406.391290,1378.971896
4012.629986,-9252.574275,-1332.370696,919.314598
4012.630316,-9844.739029,-1110.308913,612.876398
4012.630646,-10436.903782,-1036.288319,842.705048
4012.630976,-9548.656652,-1258.350101,306.438199
4012.631306,-9474.636058,-888.247130,229.828649
4012.631636,-9326.594869,-962.267725,536.266849
4012.631966,-9400.615463,-888.247130,995.924147
4012.632296,-9696.697840,-1110.308913,1072.533697
4012.632626,-10510.924376,-74.020594,612.876398
4012.632956,-10066.800811,-518.144159,-153.219100
4012.633286,-9030.512492,-592.164754,-153.219100
4012.633616,-8882.471304,-666.185348,306.438199
4012.633946,-9474.636058,0.000000,536.266849
4012.634276,-10066.800811,74.020594,919.314598
4012.634606,-9844.739029,148.041188,459.657299
4012.634936,-9696.697840,148.041188,-383.047749
4012.635266,-9992.780217,296.082377,0.000000
4012.635596,-9992.780217,222.061783,76.609550
4012.635926,-9918.759623,444.123565,536.266849
4012.636256,-9474.636058,518.144159,76.609550
4012.636586,-10214.842000,888.247130,0.000000
4012.636916,-9844.739029,592.164754,0.000000
4012.637247,-10066.800811,962.267725,153.219100
4012.637577,-10066.800811,1184.329507,229.828649
4012.637907,-10436.903782,888.247130,919.314598
4012.638237,-9844.739029,888.247130,-536.266849
4012.638567,-9400.615463,888.247130,-995.924147
4012.638897,-9474.636058,740.205942,-919.314598
4012.639227,-9992.780217,962.267725,0.000000
4012.639557,-9918.759623,1258.350101,612.876398
4012.639887,-9696.697840,740.205942,153.219100
4012.640217,-9104.533087,962.267725,-76.609550
4012.640547,-9622.677246,1036.288319,0.000000
4012.640877,-10436.903782,1332.370696,-153.219100
4012.641207,-10658.965565,1258.350101,0.000000
4012.641537,-10140.821405,1184.329507,0.000000
4012.641867,-9548.656652,1036.288319,0.000000
4012.642197,-9548.656652,1258.350101,612.876398
4012.642527,-9770.718434,740.205942,229.828649
4012.642857,-10288.862594,666.185348,-306.438199
4012.643187,-10214.842000,1184.329507,-612.876398
4012.643517,-9770.718434,1036.288319,-1072.533697
4012.643847,-9104.533087,1036.288319,-1072.533697
4012.644177,-9104.533087,740.205942,-842.705048
4012.644507,-10140.821405,814.226536,229.828649
4012.644837,-10066.800811,518.144159,306.438199
4012.645167,-9474.636058,370.102971,0.000000
4012.645497,-9326.594869,296.082377,0.000000
4012.645827,-9770.718434,296.082377,153.219100
4012.646157,-9992.780217,222.061783,383.047749
4012.646487,-9770.718434,0.000000,229.828649
4012.646817,-9474.636058,0.000000,76.609550
4012.647147,-9326.594869,0.000000,612.876398
4012.647477,-9696.697840,370.102971,1149.143247
4012.647807,-9992.780217,0.000000,1072.533697
4012.648137,-10732.986159,0.000000,306.438199
4012.648467,-10732.986159,222.061783,76.609550
4012.648797,-9844.739029,0.000000,-459.657299
4012.649127,-8734.430116,-296.082377,-383.047749
4012.649457,-9326.594869,0.000000,0.000000
4012.649787,-9992.780217,-148.041188,919.314598
4012.650117,-10510.924376,0.000000,1532.190996
4012.650447,-10066.800811,-74.020594,1149.143247
4012.650777,-9844.739029,-888.247130,536.266849
4012.651107,-10362.883188,-666.185348,536.266849
4012.651437,-9992.780217,-814.226536,766.095498
4012.651767,-9622.677246,-740.205942,612.876398
4012.652097,-9252.574275,-1110.308913,612.876398
4012.652427,-9400.615463,-518.144159,689.485948
4012.652757,-9696.697840,-518.144159,1225.752797
4012.653087,-10436.903782,-518.144159,995.924147
4012.653417,-10658.965565,-1036.288319,995.924147
4012.653747,-10732.986159,-740.205942,383.047749
4012.654077,-9548.656652,-1110.308913,-306.438199
4012.654407,-8586.388927,-1110.308913,-536.266849
4012.654737,-8882.471304,-1258.350101,306.438199
4012.655067,-9844.739029,-1184.329507,1762.019645
4012.655397,-9770.718434,-444.123565,1685.410096
4012.655728,-9474.636058,-888.247130,689.485948
4012.656058,-9474.636058,-518.144159,76.609550
4012.656388,-9844.739029,-814.226536,536.266849
4012.656718,-10362.883188,-370.102971,536.266849
4012.657048,-9918.759623,-518.144159,766.095498
4012.657378,-9474.636058,-444.123565,536.266849
4012.657708,-9400.615463,-518.144159,1072.533697
4012.658038,-9474.636058,-148.041188,306.438199
4012.658368,-9992.780217,-148.041188,459.657299
4012.658697,-10955.047942,296.082377,0.000000
4012.659027,-10362.883188,148.041188,-153.219100
4012.659357,-9252.574275,0.000000,-229.828649
4012.659687,-8734.430116,-296.082377,-536.266849
4012.660017,-9548.656652,-148.041188,153.219100
4012.660346,-10510.924376,0.000000,842.705048
4012.660676,-10881.027347,444.123565,1149.143247
4012.661006,-9844.739029,222.061783,229.828649
4012.661336,-9770.718434,444.123565,383.047749
4012.661666,-9918.759623,148.041188,153.219100
4012.661995,-10732.986159,666.185348,766.095498
4012.662325,-9844.739029,296.082377,0.000000
4012.662655,-9622.677246,518.144159,-76.609550
4012.662985,-9474.636058,592.164754,153.219100
4012.663315,-9548.656652,518.144159,919.314598
4012.663644,-9844.739029,296.082377,153.219100
4012.663974,-10140.821405,444.123565,0.000000
4012.664304,-9770.718434,222.061783,-766.095498
4012.664634,-8364.327145,296.082377,-1149.143247
4012.664964,-8734.430116,296.082377,-842.705048
4012.665293,-9548.656652,666.185348,229.828649
4012.665623,-10436.903782,888.247130,995.924147
4012.665953,-10214.842000,740.205942,995.924147
4012.666283,-9918.759623,370.102971,0.000000
4012.666613,-9696.697840,814.226536,-766.095498
4012.666942,-9992.780217,666.185348,-995.924147
4012.667272,-9918.759623,740.205942,-306.438199
4012.667602,-9548.656652,962.267725,0.000000
4012.667932,-9252.574275,592.164754,-306.438199
4012.668262,-9548.656652,814.226536,-76.609550
4012.668591,-9696.697840,1036.288319,612.876398
4012.668921,-10362.883188,1036.288319,0.000000
4012.669251,-10436.903782,888.247130,-536.266849
4012.669581,-10140.821405,962.267725,-995.924147
4012.669911,-9104.533087,814.226536,-1072.533697
4012.670241,-8808.450710,518.144159,-612.876398
4012.670570,-9548.656652,814.226536,76.609550
4012.670900,-10881.027347,814.226536,536.266849
4012.671230,-10436.903782,444.123565,766.095498
4012.671560,-9622.677246,0.000000,0.000000
4012.671890,-9474.636058,444.123565,-306.438199
4012.672219,-9770.718434,0.000000,0.000000
4012.672549,-10362.883188,0.000000,612.876398
4012.672879,-9696.697840,0.000000,0.000000
4012.673209,-9474.636058,148.041188,76.609550
4012.673539,-9770.718434,0.000000,536.266849
4012.673868,-10362.883188,0.000000,842.705048
4012.674198,-10362.883188,148.041188,306.438199
4012.674528,-10214.842000,-222.061783,536.266849
4012.674858,-9400.615463,-740.205942,-919.314598
4012.675188,-8882.471304,-814.226536,-536.266849
4012.675517,-8808.450710,-1110.308913,0.000000
4012.675847,-9548.656652,-740.205942,1072.533697
4012.676177,-9844.739029,-592.164754,1378.971896
4012.676507,-9992.780217,-518.144159,1608.800546
4012.676837,-9326.594869,-962.267725,1149.143247
4012.677166,-9696.697840,-592.164754,459.657299
4012.677496,-10066.800811,-518.144159,153.219100
4012.677826,-10214.842000,-666.185348,459.657299
4012.678156,-9622.677246,-814.226536,229.828649
4012.678486,-9252.574275,-370.102971,229.828649
4012.678815,-9474.636058,-296.082377,306.438199
4012.679145,-9622.677246,-444.123565,153.219100
4012.679475,-10214.842000,-444.123565,-383.047749
4012.679805,-10288.862594,-444.123565,-306.438199
4012.680135,-9696.697840,-740.205942,-689.485948
4012.680464,-8734.430116,-444.123565,-536.266849
4012.680794,-8956.491898,-370.102971,383.047749
4012.681124,-10214.842000,0.000000,1149.143247
4012.681454,-11103.089130,-222.061783,1302.362347
4012.681784,-10807.006753,-148.041188,995.924147
4012.682113,-10066.800811,-518.144159,229.828649
4012.682443,-9622.677246,-296.082377,0.000000
4012.682773,-9918.759623,-148.041188,383.047749
4012.683103,-10214.842000,-296.082377,689.485948
4012.683433,-9326.594869,-296.082377,842.705048
4012.683762,-9622.677246,222.061783,459.657299
4012.684092,-9844.739029,222.061783,612.876398
4012.684422,-10584.944971,-296.082377,153.219100
4012.684752,-10288.862594,-296.082377,306.438199
4012.685082,-10288.862594,-296.082377,306.438199
4012.685411,-9474.636058,74.020594,-689.485948
4012.685741,-8586.388927,-370.102971,-536.266849
4012.686071,-8438.347739,-296.082377,383.047749
4012.686401,-9770.718434,0.000000,1225.752797
4012.686731,-10214.842000,148.041188,1302.362347
4012.687060,-9844.739029,0.000000,536.266849
4012.687390,-9548.656652,0.000000,-153.219100
4012.687720,-9548.656652,222.061783,0.000000
4012.688050,-9918.759623,222.061783,-153.219100
4012.688380,-9548.656652,222.061783,0.000000
4012.688709,-9474.636058,370.102971,229.828649
4012.689039,-8956.491898,370.102971,689.485948
4012.689369,-9770.718434,370.102971,383.047749
4012.689699,-10436.903782,444.123565,306.438199
4012.690029,-10362.883188,222.061783,0.000000
4012.690358,-9992.780217,518.144159,-842.705048
4012.690688,-8808.450710,74.020594,-995.924147
4012.691018,-8364.327145,222.061783,-536.266849
4012.691348,-9400.615463,296.082377,306.438199
4012.691678,-10362.883188,740.205942,536.266849
4012.692007,-10510.924376,666.185348,612.876398
4012.692337,-9844.739029,740.205942,0.000000
4012.692667,-9918.759623,666.185348,-229.828649
4012.692997,-9918.759623,592.164754,-153.219100
4012.693327,-9696.697840,296.082377,0.000000
4012.693656,-9844.739029,592.164754,76.609550
4012.693986,-9474.636058,666.185348,-229.828649
4012.694316,-9770.718434,814.226536,76.609550
4012.694646,-9548.656652,888.247130,689.485948
4012.694976,-10066.800811,148.041188,153.219100
4012.695305,-10362.883188,296.082377,0.000000
4012.695635,-10066.800811,370.102971,-459.657299
4012.695965,-8956.491898,222.061783,-306.438199
4012.696295,-8512.368333,222.061783,-689.485948
4012.696625,-8882.471304,148.041188,0.000000
4012.696954,-9992.780217,518.144159,612.876398
4012.697284,-10584.944971,518.144159,995.924147
4012.697614,-10362.883188,370.102971,383.047749
4012.697944,-9844.739029,0.000000,229.828649
4012.698274,-9844.739029,0.000000,153.219100
4012.698603,-9770.718434,0.000000,229.828649
4012.698933,-9400.615463,222.061783,689.485948
4012.699263,-9474.636058,222.061783,383.047749
4012.699593,-9548.656652,296.082377,536.266849
4012.699923,-10288.862594,666.185348,306.438199
4012.700252,-10436.903782,518.144159,-153.219100
4012.700582,-11103.089130,222.061783,0.000000
4012.700912,-10140.821405,0.000000,-306.438199
4012.701242,-8882.471304,-518.144159,-153.219100
4012.701572,-8364.327145,-518.144159,76.609550
4012.701901,-9030.512492,-592.164754,536.266849
4012.702231,-10288.862594,-74.020594,1225.752797
4012.702561,-10140.821405,-592.164754,1532.190996
4012.702891,-9770.718434,-740.205942,689.485948
4012.703221,-9474.636058,-444.123565,383.047749
4012.703550,-9696.697840,-814.226536,612.876398
4012.703880,-10066.800811,-444.123565,1225.752797
4012.704210,-10066.800811,-148.041188,995.924147
4012.704540,-9474.636058,0.000000,383.047749
4012.704870,-9474.636058,-74.020594,306.438199
4012.705199,-10140.821405,148.041188,76.609550
4012.705529,-10881.027347,-74.020594,383.047749
4012.705859,-10881.027347,-222.061783,-229.828649
4012.706189,-9548.656652,-444.123565,-306.438199
4012.706519,-8660.409521,-666.185348,-383.047749
4012.706849,-8512.368333,-740.205942,0.000000
4012.707178,-9474.636058,-666.185348,1072.533697
4012.707508,-10584.944971,-296.082377,1149.143247
4012.707838,-10288.862594,-592.164754,1302.362347
4012.708168,-9622.677246,-888.247130,842.705048
4012.708498,-9400.615463,-740.205942,612.876398
4012.708827,-9474.636058,-518.144159,383.047749
4012.709157,-10066.800811,-666.185348,842.705048
4012.709487,-9844.739029,-444.123565,842.705048
4012.709817,-9474.636058,0.000000,153.219100
4012.710147,-9696.697840,0.000000,0.000000
4012.710476,-9992.780217,74.020594,76.609550
4012.710806,-10066.800811,0.000000,-459.657299
4012.711136,-9992.780217,0.000000,-383.047749
4012.711466,-9400.615463,0.000000,-842.705048
4012.711796,-8882.471304,0.000000,-995.924147
4012.712125,-9178.553681,0.000000,-383.047749
4012.712455,-9844.739029,0.000000,612.876398
4012.712785,-10807.006753,148.041188,1149.143247
4012.713115,-10066.800811,-444.123565,306.438199
4012.713445,-9474.636058,0.000000,-153.219100
4012.713774,-9400.615463,0.000000,-76.609550
4012.714104,-9696.697840,0.000000,153.219100
4012.714434,-9770.718434,222.061783,306.438199
4012.714764,-9474.636058,0.000000,1149.143247
4012.715094,-9548.656652,148.041188,0.000000
4012.715423,-9770.718434,222.061783,0.000000
4012.715753,-9844.739029,148.041188,383.047749
4012.716083,-10140.821405,222.061783,0.000000
4012.716413,-10214.842000,666.185348,0.000000
4012.716743,-9548.656652,592.164754,-612.876398
4012.717072,-8882.471304,592.164754,-842.705048
4012.717402,-8660.409521,0.000000,-383.047749
4012.717732,-9844.739029,518.144159,383.047749
4012.718062,-10658.965565,962.267725,612.876398
4012.718392,-10066.800811,444.123565,306.438199
4012.718721,-9326.594869,444.123565,-689.485948
4012.719051,-9030.512492,148.041188,76.609550
4012.719381,-9770.718434,222.061783,0.000000
4012.719711,-10288.862594,666.185348,536.266849
4012.720041,-9622.677246,444.123565,306.438199
4012.720370,-9326.594869,370.102971,306.438199
4012.720700,-9326.594869,740.205942,153.219100
4012.721030,-10066.800811,888.247130,-153.219100
4012.721360,-10510.924376,962.267725,-306.438199
4012.721690,-10436.903782,1110.308913,-612.876398
4012.722019,-9474.636058,518.144159,-306.438199
4012.722349,-9104.533087,592.164754,0.000000
4012.722679,-9252.574275,74.020594,0.000000
4012.723009,-10214.842000,370.102971,536.266849
4012.723339,-10362.883188,444.123565,383.047749
4012.723668,-10066.800811,444.123565,0.000000
4012.723998,-9178.553681,370.102971,0.000000
4012.724328,-9770.718434,0.000000,536.266849
4012.724658,-9992.780217,-296.082377,1149.143247
4012.724988,-10214.842000,222.061783,536.266849
4012.725317,-9622.677246,0.000000,383.047749
4012.725647,-9326.594869,74.020594,-229.828649
4012.725977,-9474.636058,0.000000,612.876398
4012.726307,-9992.780217,222.061783,689.485948
4012.726637,-10584.944971,74.020594,766.095498
4012.726966,-10436.903782,0.000000,689.485948
4012.727296,-9548.656652,148.041188,-383.047749
4012.727626,-9178.553681,-74.020594,-919.314598
4012.727956,-9548.656652,0.000000,-153.219100
4012.728286,-10214.842000,0.000000,689.485948
4012.728615,-10066.800811,0.000000,919.314598
4012.728945,-9178.553681,-592.164754,153.219100
4012.729275,-9104.533087,-518.144159,-229.828649
4012.729605,-9400.615463,-518.144159,76.609550
4012.729935,-10066.800811,-666.185348,383.047749
4012.730264,-9844.739029,-666.185348,1149.143247
4012.730594,-9400.615463,-814.226536,842.705048
4012.730924,-9474.636058,-222.061783,995.924147
4012.731254,-10066.800811,-222.061783,995.924147
4012.731584,-10510.924376,-296.082377,536.266849
4012.731913,-10510.924376,-296.082377,459.657299
4012.732243,-10510.924376,-148.041188,153.219100
4012.732573,-9548.656652,-222.061783,-459.657299
4012.732903,-8956.491898,-666.185348,-306.438199
4012.733233,-9252.574275,-888.247130,-153.219100
4012.733562,-10066.800811,-592.164754,383.047749
4012.733892,-10288.862594,-518.144159,536.266849
4012.734222,-9474.636058,-814.226536,229.828649
4012.734552,-8660.409521,-1110.308913,766.095498
4012.734882,-9474.636058,-888.247130,459.657299
4012.735211,-10214.842000,-666.185348,1072.533697
4012.735541,-10288.862594,-518.144159,995.924147
4012.735871,-9696.697840,-666.185348,612.876398
4012.736201,-9326.594869,-814.226536,306.438199
4012.736531,-9548.656652,-444.123565,459.657299
4012.736860,-9992.780217,-296.082377,229.828649
4012.737190,-10140.821405,0.000000,0.000000
4012.737520,-10584.944971,296.082377,-306.438199
4012.737850,-9474.636058,74.020594,-1225.752797
4012.738180,-9178.553681,-370.102971,-1072.533697
4012.738509,-9474.636058,0.000000,-153.219100
4012.738839,-10510.924376,0.000000,459.657299
4012.739169,-9918.759623,148.041188,383.047749
4012.739499,-9104.533087,0.000000,0.000000
4012.739829,-8808.450710,-74.020594,0.000000
4012.740158,-9844.739029,0.000000,689.485948
4012.740488,-10732.986159,370.102971,1302.362347
4012.740818,-10510.924376,222.061783,1455.581446
4012.741148,-9992.780217,222.061783,153.219100
4012.741478,-9622.677246,518.144159,0.000000
4012.741807,-9844.739029,148.041188,76.609550
4012.742137,-10066.800811,814.226536,0.000000
4012.742467,-9992.780217,814.226536,0.000000
4012.742797,-9770.718434,1110.308913,-995.924147
4012.743127,-9178.553681,1036.288319,-1225.752797
4012.743456,-9178.553681,814.226536,-1532.190996
4012.743786,-9992.780217,592.164754,-919.314598
4012.744116,-10140.821405,666.185348,-229.828649
4012.744446,-10066.800811,296.082377,306.438199
4012.744776,-8882.471304,148.041188,0.000000
4012.745106,-9178.553681,296.082377,0.000000
4012.745435,-9770.718434,370.102971,459.657299
4012.745765,-10140.821405,666.185348,536.266849
4012.746095,-10288.862594,1036.288319,842.705048
4012.746425,-10288.862594,962.267725,229.828649
4012.746755,-10140.821405,962.267725,306.438199
4012.747084,-10140.821405,592.164754,459.657299
4012.747414,-9844.739029,74.020594,-76.609550
4012.747744,-9844.739029,74.020594,0.000000
4012.748074,-9548.656652,148.041188,-459.657299
4012.748404,-8512.368333,148.041188,-689.485948
4012.748733,-8364.327145,0.000000,-766.095498
4012.749063,-9400.615463,518.144159,0.000000
4012.749393,-10436.903782,444.123565,995.924147
4012.749723,-10436.903782,296.082377,1225.752797
4012.750053,-9696.697840,370.102971,306.438199
4012.750382,-9548.656652,0.000000,229.828649
4012.750712,-9844.739029,0.000000,76.609550
4012.751042,-9918.759623,74.020594,76.609550
4012.751372,-9548.656652,0.000000,0.000000
4012.751702,-9178.553681,0.000000,-919.314598
4012.752031,-9474.636058,0.000000,0.000000
4012.752361,-9992.780217,74.020594,306.438199
4012.752691,-10288.862594,-296.082377,383.047749
4012.753021,-10140.821405,-296.082377,229.828649
4012.753351,-9770.718434,0.000000,153.219100
4012.753680,-9474.636058,-518.144159,0.000000
4012.754010,-9104.533087,-296.082377,153.219100
4012.754340,-9548.656652,-444.123565,1072.533697
4012.754670,-10807.006753,0.000000,1532.190996
4012.755000,-10362.883188,74.020594,1378.971896
4012.755329,-9696.697840,-222.061783,459.657299
4012.755659,-9770.718434,0.000000,-229.828649
4012.755989,-10214.842000,-370.102971,0.000000
4012.756319,-10214.842000,-370.102971,0.000000
4012.756649,-9474.636058,-592.164754,306.438199
4012.756978,-9104.533087,-444.123565,383.047749
4012.757308,-9104.533087,-444.123565,919.314598
4012.757637,-10288.862594,-148.041188,766.095498
4012.757967,-10658.965565,-296.082377,919.314598
4012.758296,-10955.047942,148.041188,919.314598
4012.758626,-10140.821405,-296.082377,689.485948
4012.758956,-9474.636058,-592.164754,76.609550
4012.759286,-8956.491898,-814.226536,153.219100
4012.759615,-9474.636058,-444.123565,766.095498
4012.759945,-9844.739029,-444.123565,842.705048
4012.760275,-9400.615463,-296.082377,612.876398
4012.760605,-9030.512492,-666.185348,153.219100
4012.760935,-9474.636058,0.000000,689.485948
4012.761264,-10584.944971,0.000000,612.876398
4012.761594,-10288.862594,-518.144159,229.828649
4012.761924,-9252.574275,-296.082377,0.000000
4012.762254,-9326.594869,0.000000,0.000000
4012.762584,-9400.615463,-444.123565,153.219100
4012.762913,-9770.718434,-222.061783,1302.362347
4012.763243,-10140.821405,-74.020594,995.924147
4012.763573,-10214.842000,148.041188,383.047749
4012.763903,-9918.759623,222.061783,-383.047749
4012.764232,-9178.553681,-222.061783,-1072.533697
4012.764562,-9326.594869,-296.082377,-383.047749
4012.764892,-9992.780217,74.020594,536.266849
4012.765222,-10288.862594,148.041188,1378.971896
4012.765552,-9918.759623,74.020594,612.876398
4012.765881,-9548.656652,148.041188,383.047749
4012.766211,-9770.718434,148.041188,76.609550
4012.766541,-10436.903782,148.041188,0.000000
4012.766871,-10066.800811,222.061783,0.000000
4012.767201,-9326.594869,74.020594,229.828649
4012.767530,-9030.512492,222.061783,153.219100
4012.767860,-9622.677246,444.123565,766.095498
4012.768190,-10066.800811,148.041188,1149.143247
4012.768520,-10510.924376,0.000000,459.657299
4012.768850,-10214.842000,444.123565,0.000000
4012.769179,-9918.759623,370.102971,-842.705048
4012.769509,-9030.512492,370.102971,-612.876398
4012.769839,-9030.512492,814.226536,0.000000
4012.770169,-9844.739029,666.185348,76.609550
4012.770498,-10510.924376,1184.329507,689.485948
4012.770828,-10214.842000,888.247130,76.609550
4012.771158,-9474.636058,444.123565,-459.657299
4012.771488,-9326.594869,148.041188,-306.438199
4012.771818,-9844.739029,370.102971,-306.438199
4012.772147,-9770.718434,370.102971,76.609550
4012.772477,-9104.533087,444.123565,0.000000
4012.772807,-9326.594869,518.144159,76.609550
4012.773137,-9770.718434,1110.308913,306.438199
4012.773467,-10510.924376,814.226536,153.219100
4012.773796,-11103.089130,666.185348,536.266849
4012.774126,-11177.109724,888.247130,306.438199
4012.774456,-9992.780217,518.144159,-842.705048
4012.774786,-9030.512492,148.041188,-919.314598
4012.775116,-9252.574275,370.102971,-383.047749
4012.775445,-9918.759623,444.123565,0.000000
4012.775775,-10214.842000,592.164754,842.705048
4012.776105,-9770.718434,222.061783,383.047749
4012.776435,-9548.656652,-74.020594,229.828649
4012.776764,-9992.780217,-444.123565,383.047749
4012.777094,-10362.883188,74.020594,306.438199
4012.777424,-9770.718434,-296.082377,766.095498
4012.777754,-9326.594869,-592.164754,536.266849
4012.778084,-9104.533087,-148.041188,612.876398
4012.778413,-9696.697840,74.020594,1532.190996
4012.778743,-10436.903782,0.000000,1225.752797
4012.779073,-10807.006753,74.020594,612.876398
4012.779403,-10362.883188,-222.061783,-76.609550
4012.779733,-9400.615463,-296.082377,-842.705048
4012.780062,-8734.430116,-444.123565,-766.095498
4012.780392,-8956.491898,-814.226536,0.000000
4012.780722,-9844.739029,-222.061783,995.924147
4012.781052,-10362.883188,-74.020594,766.095498
4012.781382,-9696.697840,-592.164754,0.000000
4012.781711,-9474.636058,-814.226536,-229.828649
4012.782041,-10066.800811,-592.164754,536.266849
4012.782371,-10214.842000,-666.185348,995.924147
4012.782701,-9622.677246,-370.102971,1532.190996
4012.783030,-8734.430116,-814.226536,842.705048
4012.783360,-9104.533087,-592.164754,766.095498
4012.783690,-9992.780217,-148.041188,842.705048
4012.784020,-10436.903782,-296.082377,766.095498
4012.784350,-10436.903782,0.000000,229.828649
4012.784679,-10140.821405,0.000000,-536.266849
4012.785009,-8956.491898,0.000000,-1302.362347
4012.785339,-8660.409521,0.000000,-1149.143247
4012.785669,-9918.759623,0.000000,229.828649
4012.785999,-10658.965565,0.000000,689.485948
4012.786328,-10362.883188,74.020594,1225.752797
4012.786658,-9696.697840,-222.061783,842.705048
4012.786988,-9548.656652,0.000000,1149.143247
4012.787318,-9992.780217,-444.123565,689.485948
4012.787648,-9918.759623,-370.102971,459.657299
4012.787977,-9548.656652,0.000000,689.485948
4012.788307,-9326.594869,0.000000,536.266849
4012.788637,-9400.615463,0.000000,1149.143247
4012.788967,-10288.862594,444.123565,1455.581446
4012.789296,-10584.944971,444.123565,919.314598
4012.789626,-10955.047942,0.000000,0.000000
4012.789956,-10288.862594,0.000000,-459.657299
4012.790286,-8734.430116,-222.061783,-1149.143247
4012.790616,-8364.327145,0.000000,-383.047749
4012.790945,-8882.471304,0.000000,0.000000
4012.791275,-9992.780217,222.061783,1378.971896
4012.791605,-10362.883188,444.123565,842.705048
4012.791935,-9696.697840,74.020594,0.000000
4012.792265,-9548.656652,-222.061783,0.000000
4012.792594,-9844.739029,-222.061783,995.924147
4012.792924,-9770.718434,-296.082377,459.657299
4012.793254,-9474.636058,-74.020594,536.266849
4012.793584,-9030.512492,296.082377,76.609550
4012.793914,-9474.636058,148.041188,153.219100
4012.794243,-10584.944971,740.205942,229.828649
4012.794573,-10362.883188,740.205942,76.609550
4012.794903,-10436.903782,888.247130,0.000000
4012.795233,-9770.718434,518.144159,-1149.143247
4012.795562,-8216.285956,148.041188,-1685.410096
4012.795892,-8438.347739,148.041188,-1225.752797
4012.796222,-9548.656652,296.082377,0.000000
4012.796552,-10881.027347,444.123565,766.095498
4012.796882,-10807.006753,370.102971,1455.581446
4012.797211,-9918.759623,222.061783,229.828649
4012.797541,-9918.759623,222.061783,0.000000
4012.797871,-10362.883188,74.020594,536.266849
4012.798201,-10436.903782,0.000000,689.485948
4012.798531,-9548.656652,0.000000,536.266849
4012.798860,-9030.512492,0.000000,306.438199
4012.799190,-9548.656652,296.082377,306.438199
4012.799520,-10214.842000,296.082377,689.485948
4012.799850,-9992.780217,148.041188,459.657299
4012.800180,-10436.903782,296.082377,306.438199
4012.800509,-10066.800811,222.061783,-229.828649
4012.800839,-9030.512492,0.000000,-612.876398
4012.801169,-8808.450710,0.000000,-306.438199
4012.801499,-9770.718434,222.061783,766.095498
4012.801828,-10584.944971,222.061783,1302.362347
4012.802158,-10214.842000,370.102971,536.266849
4012.802488,-9252.574275,0.000000,612.876398
4012.802818,-9474.636058,0.000000,-153.219100
4012.803148,-9844.739029,0.000000,0.000000
4012.803477,-9770.718434,0.000000,306.438199
4012.803807,-9548.656652,0.000000,383.047749
4012.804137,-9252.574275,74.020594,383.047749
4012.804467,-9548.656652,0.000000,612.876398
4012.804797,-9844.739029,296.082377,459.657299
4012.805126,-9992.780217,74.020594,306.438199
4012.805456,-10658.965565,592.164754,766.095498
4012.805786,-9770.718434,370.102971,-766.095498
4012.806116,-9178.553681,74.020594,-919.314598
4012.806446,-9104.533087,148.041188,-459.657299
4012.806775,-10066.800811,444.123565,1378.971896
4012.807105,-10807.006753,518.144159,612.876398
4012.807435,-10362.883188,222.061783,459.657299
4012.807765,-9326.594869,-222.061783,0.000000
4012.808094,-9474.636058,-222.061783,383.047749
4012.808424,-10214.842000,-444.123565,229.828649
4012.808754,-10066.800811,-296.082377,689.485948
4012.809084,-9474.636058,-592.164754,995.924147
4012.809414,-9326.594869,0.000000,766.095498
4012.809743,-9770.718434,0.000000,1762.019645
4012.810073,-9844.739029,-74.020594,919.314598
4012.810403,-10066.800811,-222.061783,536.266849
4012.810733,-10066.800811,0.000000,0.000000
4012.811063,-9622.677246,0.000000,0.000000
4012.811392,-9104.533087,-222.061783,-766.095498
4012.811722,-8956.491898,-296.082377,-383.047749
4012.812052,-9918.759623,-148.041188,689.485948
4012.812382,-10436.903782,0.000000,842.705048
4012.812711,-9696.697840,-296.082377,306.438199
4012.813041,-8956.491898,-222.061783,153.219100
4012.813371,-9474.636058,-222.061783,0.000000
4012.813701,-10584.944971,0.000000,76.609550
4012.814031,-10584.944971,-518.144159,229.828649
4012.814360,-9474.636058,-518.144159,459.657299
4012.814690,-9252.574275,-74.020594,612.876398
4012.815020,-9992.780217,0.000000,995.924147
4012.815350,-10584.944971,0.000000,919.314598
4012.815680,-10362.883188,0.000000,76.609550
4012.816009,-10510.924376,296.082377,-153.219100
4012.816339,-9918.759623,222.061783,-1072.533697
4012.816669,-9104.533087,74.020594,-1149.143247
4012.816999,-9178.553681,148.041188,0.000000
4012.817329,-10066.800811,74.020594,689.485948
4012.817658,-11029.068536,296.082377,842.705048
4012.817988,-10362.883188,0.000000,76.609550
4012.818318,-9474.636058,0.000000,-383.047749
4012.818648,-9622.677246,0.000000,229.828649
4012.818977,-10140.821405,148.041188,612.876398
4012.819307,-10214.842000,74.020594,1072.533697
4012.819637,-9252.574275,370.102971,459.657299
4012.819967,-9252.574275,370.102971,0.000000
4012.820297,-9770.718434,592.164754,383.047749
4012.820626,-10436.903782,444.123565,459.657299
4012.820956,-10362.883188,592.164754,0.000000
4012.821286,-10362.883188,518.144159,0.000000
4012.821616,-9178.553681,296.082377,-689.485948
4012.821946,-8660.409521,222.061783,-689.485948
4012.822275,-9548.656652,222.061783,-153.219100
4012.822605,-10658.965565,518.144159,153.219100
4012.822935,-10288.862594,592.164754,842.705048
4012.823265,-9696.697840,444.123565,229.828649
4012.823595,-9178.553681,148.041188,0.000000
4012.823924,-9474.636058,370.102971,0.000000
4012.824254,-9622.677246,0.000000,229.828649
4012.824584,-9474.636058,370.102971,383.047749
4012.824914,-9474.636058,518.144159,536.266849
4012.825243,-9696.697840,814.226536,229.828649
4012.825573,-9622.677246,518.144159,153.219100
4012.825903,-10214.842000,518.144159,0.000000
4012.826233,-10510.924376,518.144159,-459.657299
4012.826563,-10362.883188,296.082377,-612.876398
4012.826892,-9400.615463,222.061783,-306.438199
4012.827222,-8882.471304,222.061783,-383.047749
4012.827552,-9326.594869,222.061783,383.047749
4012.827882,-10288.862594,296.082377,1072.533697
4012.828212,-10584.944971,444.123565,919.314598
4012.828541,-10214.842000,370.102971,0.000000
4012.828871,-9622.677246,0.000000,-153.219100
4012.829201,-10066.800811,-74.020594,153.219100
4012.829531,-10288.862594,222.061783,842.705048
4012.829861,-9992.780217,0.000000,919.314598
4012.830190,-9252.574275,-296.082377,536.266849
4012.830520,-9474.636058,0.000000,306.438199
4012.830850,-9696.697840,0.000000,919.314598
4012.831180,-10066.800811,0.000000,383.047749
4012.831509,-10436.903782,74.020594,383.047749
4012.831839,-10140.821405,-296.082377,0.000000
4012.832169,-9252.574275,-148.041188,-612.876398
4012.832499,-9104.533087,-666.185348,0.000000
4012.832829,-9400.615463,-370.102971,-383.047749
4012.833158,-10362.883188,-444.123565,842.705048
4012.833488,-10214.842000,-74.020594,383.047749
4012.833818,-9696.697840,0.000000,0.000000
4012.834148,-9326.594869,-740.205942,536.266849
4012.834478,-9992.780217,-518.144159,612.876398
4012.834807,-10140.821405,-296.082377,1455.581446
4012.835137,-10214.842000,-74.020594,919.314598
4012.835467,-10066.800811,-222.061783,383.047749
4012.835797,-9844.739029,-222.061783,383.047749
4012.836127,-10214.842000,0.000000,229.828649
4012.836456,-10362.883188,-74.020594,229.828649
4012.836786,-10732.986159,0.000000,-306.438199
4012.837116,-10140.821405,-148.041188,-153.219100
4012.837446,-9104.533087,-370.102971,-306.438199
4012.837775,-9178.553681,0.000000,153.219100
4012.838105,-9918.759623,-296.082377,689.485948
4012.838435,-10732.986159,0.000000,1302.362347
4012.838765,-9918.759623,0.000000,612.876398
4012.839095,-9548.656652,-148.041188,-76.609550
4012.839424,-9844.739029,74.020594,0.000000
4012.839754,-9918.759623,-444.123565,0.000000
4012.840084,-9770.718434,-370.102971,459.657299
4012.840414,-9104.533087,-148.041188,766.095498
4012.840744,-9326.594869,0.000000,229.828649
4012.841073,-9548.656652,0.000000,612.876398
4012.841403,-9844.739029,0.000000,383.047749
4012.841733,-10288.862594,222.061783,153.219100
4012.842063,-10436.903782,444.123565,229.828649
4012.842393,-9918.759623,0.000000,153.219100
4012.842722,-8734.430116,0.000000,0.000000
4012.843052,-8956.491898,0.000000,-153.219100
4012.843382,-9844.739029,74.020594,459.657299
4012.843712,-10658.965565,444.123565,995.924147
4012.844041,-10066.800811,444.123565,383.047749
4012.844371,-9326.594869,592.164754,-229.828649
4012.844701,-9326.594869,444.123565,0.000000
4012.845031,-10066.800811,370.102971,0.000000
4012.845361,-9992.780217,222.061783,459.657299
4012.845690,-9622.677246,222.061783,383.047749
4012.846020,-9548.656652,148.041188,459.657299
4012.846350,-9696.697840,148.041188,153.219100
4012.846680,-10436.903782,740.205942,229.828649
4012.847010,-10214.842000,296.082377,0.000000
4012.847339,-10140.821405,592.164754,153.219100
4012.847669,-9844.739029,592.164754,-76.609550
4012.847999,-9474.636058,592.164754,0.000000
4012.848329,-9474.636058,518.144159,-229.828649
4012.848659,-10288.862594,444.123565,0.000000
4012.848988,-11029.068536,444.123565,153.219100
4012.849318,-9770.718434,0.000000,0.000000
4012.849648,-9326.594869,0.000000,-459.657299
4012.849978,-9252.574275,222.061783,0.000000
4012.850307,-9696.697840,0.000000,229.828649
4012.850637,-9696.697840,148.041188,536.266849
4012.850967,-9474.636058,370.102971,153.219100
4012.851297,-9474.636058,296.082377,306.438199
4012.851627,-9992.780217,370.102971,459.657299
4012.851956,-9548.656652,0.000000,383.047749
4012.852286,-9918.759623,222.061783,229.828649
4012.852616,-9992.780217,592.164754,229.828649
4012.852946,-9622.677246,148.041188,-842.705048
4012.853276,-9622.677246,74.020594,-689.485948
4012.853605,-9622.677246,0.000000,-229.828649
4012.853935,-9918.759623,0.000000,459.657299
4012.854265,-9992.780217,148.041188,1149.143247
4012.854595,-9622.677246,74.020594,689.485948
4012.854925,-9104.533087,0.000000,76.609550
4012.855254,-9252.574275,0.000000,0.000000
4012.855584,-10214.842000,0.000000,306.438199
4012.855914,-10288.862594,74.020594,536.266849
4012.856244,-10066.800811,0.000000,612.876398
4012.856573,-9696.697840,222.061783,459.657299
4012.856903,-9548.656652,-444.123565,536.266849
4012.857233,-9992.780217,-370.102971,306.438199
4012.857563,-10214.842000,-296.082377,0.000000
4012.857893,-9992.780217,-296.082377,0.000000
4012.858222,-9474.636058,0.000000,-229.828649
4012.858552,-9030.512492,0.000000,0.000000
4012.858882,-9696.697840,0.000000,153.219100
4012.859212,-10510.924376,-296.082377,612.876398
4012.859542,-10214.842000,-148.041188,306.438199
4012.859872,-9474.636058,-444.123565,459.657299
4012.860201,-9326.594869,-444.123565,536.266849
4012.860531,-9104.533087,-740.205942,536.266849
4012.860861,-9400.615463,-296.082377,766.095498
4012.861191,-9992.780217,0.000000,1072.533697
4012.861521,-9844.739029,0.000000,689.485948
4012.861851,-9696.697840,-222.061783,306.438199
4012.862181,-9474.636058,0.000000,536.266849
4012.862511,-10066.800811,370.102971,842.705048
4012.862841,-10288.862594,222.061783,612.876398
4012.863171,-10214.842000,222.061783,0.000000
4012.863501,-9474.636058,0.000000,-153.219100
4012.863831,-9474.636058,0.000000,-536.266849
4012.864161,-9992.780217,0.000000,-383.047749
4012.864491,-10214.842000,0.000000,306.438199
4012.864821,-9992.780217,-296.082377,766.095498
4012.865151,-9104.533087,-222.061783,459.657299
4012.865481,-8956.491898,-74.020594,536.266849
4012.865811,-9474.636058,-444.123565,612.876398
4012.866141,-10436.903782,0.000000,612.876398
4012.866471,-10658.965565,148.041188,689.485948
4012.866801,-10214.842000,74.020594,766.095498
4012.867131,-10066.800811,0.000000,612.876398
4012.867461,-9696.697840,-148.041188,689.485948
4012.867791,-9548.656652,-296.082377,306.438199
4012.868121,-9992.780217,-148.041188,-229.828649
4012.868451,-9770.718434,0.000000,-383.047749
4012.868781,-9696.697840,370.102971,-306.438199
4012.869110,-9104.533087,0.000000,76.609550
4012.869440,-9548.656652,0.000000,153.219100
4012.869770,-10436.903782,74.020594,383.047749
4012.870100,-10066.800811,0.000000,383.047749
4012.870430,-9178.553681,-296.082377,0.000000
4012.870760,-9252.574275,-518.144159,0.000000
4012.871090,-9474.636058,0.000000,383.047749
4012.871420,-9770.718434,0.000000,383.047749
4012.871750,-9770.718434,296.082377,306.438199
4012.872080,-10288.862594,74.020594,76.609550
4012.872410,-9844.739029,222.061783,306.438199
4012.872740,-9696.697840,148.041188,383.047749
4012.873070,-9918.759623,148.041188,76.609550
4012.873400,-10214.842000,296.082377,1149.143247
4012.873730,-9992.780217,370.102971,-536.266849
4012.874060,-9252.574275,74.020594,-612.876398
4012.874390,-9030.512492,222.061783,-842.705048
4012.874720,-10066.800811,592.164754,-229.828649
4012.875050,-10955.047942,518.144159,689.485948
4012.875380,-10436.903782,444.123565,919.314598
4012.875710,-9622.677246,222.061783,383.047749
4012.876040,-9548.656652,0.000000,76.609550
4012.876370,-9696.697840,-296.082377,153.219100
4012.876700,-9992.780217,222.061783,536.266849
4012.877030,-9844.739029,0.000000,842.705048
4012.877360,-9548.656652,0.000000,459.657299
4012.877690,-9474.636058,222.061783,383.047749
4012.878019,-9844.739029,222.061783,766.095498
4012.878349,-10288.862594,370.102971,612.876398
4012.878679,-10436.903782,222.061783,76.609550
4012.879009,-10362.883188,222.061783,76.609550
4012.879339,-9252.574275,0.000000,-306.438199
4012.879669,-8956.491898,0.000000,-766.095498
4012.879999,-9326.594869,0.000000,-153.219100
4012.880329,-10140.821405,148.041188,306.438199
4012.880659,-9326.594869,74.020594,229.828649
4012.880989,-9326.594869,0.000000,76.609550
4012.881319,-9252.574275,296.082377,0.000000
4012.881649,-9400.615463,0.000000,229.828649
4012.881979,-10066.800811,0.000000,306.438199
4012.882309,-9696.697840,296.082377,383.047749
4012.882639,-9474.636058,74.020594,0.000000
4012.882969,-9400.615463,0.000000,0.000000
4012.883299,-9696.697840,148.041188,536.266849
4012.883629,-10140.821405,296.082377,612.876398
4012.883959,-10658.965565,296.082377,229.828649
4012.884289,-10510.924376,370.102971,-459.657299
4012.884619,-9326.594869,74.020594,-1302.362347
4012.884949,-9104.533087,74.020594,-1378.971896
4012.885279,-9622.677246,370.102971,-612.876398
4012.885609,-10658.965565,222.061783,536.266849
4012.885939,-10214.842000,74.020594,689.485948
4012.886269,-9474.636058,-148.041188,383.047749
4012.886599,-9770.718434,0.000000,689.485948
4012.886928,-10658.965565,-592.164754,919.314598
4012.887258,-10510.924376,-370.102971,995.924147
4012.887588,-9548.656652,-222.061783,766.095498
4012.887918,-8956.491898,0.000000,1072.533697
4012.888248,-9622.677246,0.000000,1455.581446
4012.888578,-9696.697840,-444.123565,1455.581446
4012.888908,-10066.800811,-148.041188,842.705048
4012.889238,-10510.924376,74.020594,306.438199
4012.889568,-10288.862594,0.000000,-459.657299
4012.889898,-9178.553681,-444.123565,-919.314598
4012.890228,-8734.430116,-592.164754,-383.047749
4012.890558,-9400.615463,-370.102971,306.438199
4012.890888,-9696.697840,-444.123565,1149.143247
4012.891218,-9918.759623,-296.082377,995.924147
4012.891548,-9252.574275,0.000000,459.657299
4012.891878,-9400.615463,0.000000,536.266849
4012.892208,-9844.739029,0.000000,306.438199
4012.892538,-10362.883188,0.000000,383.047749
4012.892868,-9622.677246,0.000000,0.000000
4012.893198,-9400.615463,0.000000,76.609550
4012.893528,-9400.615463,74.020594,0.000000
4012.893858,-9770.718434,0.000000,306.438199
4012.894188,-10214.842000,0.000000,766.095498
4012.894518,-10436.903782,0.000000,612.876398
4012.894848,-9844.739029,74.020594,-306.438199
4012.895178,-8808.450710,0.000000,-612.876398
4012.895508,-9474.636058,222.061783,-766.095498
4012.895837,-9844.739029,222.061783,153.219100
4012.896167,-10658.965565,370.102971,919.314598
4012.896497,-9918.759623,518.144159,1149.143247
4012.896827,-9844.739029,0.000000,229.828649
4012.897157,-9918.759623,0.000000,459.657299
4012.897487,-9844.739029,-370.102971,0.000000
4012.897817,-9622.677246,148.041188,536.266849
4012.898147,-9400.615463,-74.020594,0.000000
4012.898477,-9178.553681,296.082377,536.266849
4012.898807,-9326.594869,0.000000,612.876398
4012.899137,-9918.759623,148.041188,1149.143247
4012.899467,-10436.903782,444.123565,536.266849
4012.899797,-10807.006753,444.123565,0.000000
4012.900127,-9696.697840,148.041188,-1072.533697
4012.900457,-8734.430116,148.041188,-1225.752797
4012.900787,-8586.388927,444.123565,-383.047749
4012.901117,-9474.636058,148.041188,-229.828649
4012.901447,-10436.903782,518.144159,306.438199
4012.901777,-9770.718434,296.082377,229.828649
4012.902107,-8956.491898,0.000000,-612.876398
4012.902437,-9622.677246,222.061783,0.000000
4012.902767,-9992.780217,74.020594,0.000000
4012.903097,-9622.677246,-148.041188,76.609550
4012.903427,-9178.553681,0.000000,-383.047749
4012.903757,-9030.512492,518.144159,0.000000
4012.904087,-9696.697840,518.144159,383.047749
4012.904416,-10362.883188,740.205942,689.485948
4012.904746,-11103.089130,518.144159,612.876398
4012.905076,-10658.965565,518.144159,306.438199
4012.905406,-9844.739029,222.061783,-306.438199
4012.905736,-8956.491898,0.000000,-306.438199
4012.906066,-9400.615463,0.000000,306.438199
4012.906396,-9548.656652,222.061783,995.924147
4012.906726,-10140.821405,740.205942,1225.752797
4012.907056,-9770.718434,148.041188,612.876398
4012.907386,-9548.656652,444.123565,-306.438199
4012.907716,-10214.842000,74.020594,76.609550
4012.908046,-10658.965565,296.082377,0.000000
4012.908376,-10066.800811,-148.041188,612.876398
4012.908706,-9622.677246,0.000000,1072.533697
4012.909036,-8808.450710,-296.082377,842.705048
4012.909366,-9178.553681,222.061783,1072.533697
4012.909696,-9622.677246,-222.061783,766.095498
4012.910026,-10807.006753,0.000000,536.266849
4012.910356,-10658.965565,74.020594,459.657299
4012.910686,-9622.677246,0.000000,0.000000
4012.911016,-8956.491898,0.000000,-612.876398
4012.911346,-9178.553681,-148.041188,-153.219100
4012.911676,-9622.677246,0.000000,0.000000
4012.912006,-9992.780217,74.020594,536.266849
4012.912336,-9844.739029,-222.061783,689.485948
4012.912666,-9326.594869,-296.082377,229.828649
4012.912996,-9918.759623,-370.102971,306.438199
4012.913325,-10214.842000,-370.102971,383.047749
4012.913655,-10066.800811,-518.144159,306.438199
4012.913985,-9622.677246,-444.123565,383.047749
4012.914315,-9326.594869,-592.164754,919.314598
4012.914645,-9400.615463,-518.144159,1378.971896
4012.914975,-10066.800811,-370.102971,1378.971896
4012.915305,-10658.965565,-370.102971,919.314598
4012.915635,-10362.883188,-296.082377,0.000000
4012.915965,-9696.697840,0.000000,-766.095498
4012.916295,-8660.409521,-518.144159,-612.876398
4012.916625,-9622.677246,0.000000,229.828649
4012.916955,-10436.903782,0.000000,842.705048
4012.917285,-10510.924376,148.041188,842.705048
4012.917615,-9918.759623,0.000000,306.438199
4012.917945,-9548.656652,-296.082377,-153.219100
4012.918275,-9474.636058,-370.102971,-306.438199
4012.918605,-9770.718434,-222.061783,-306.438199
4012.918935,-9400.615463,-518.144159,76.609550
4012.919265,-9696.697840,74.020594,153.219100
4012.919595,-9474.636058,0.000000,1072.533697
4012.919925,-9548.656652,-148.041188,1608.800546
4012.920255,-10140.821405,0.000000,919.314598
4012.920585,-10881.027347,518.144159,459.657299
4012.920915,-10658.965565,222.061783,0.000000
4012.921245,-9400.615463,0.000000,-459.657299
4012.921575,-8660.409521,0.000000,-459.657299
4012.921905,-9696.697840,222.061783,-766.095498
4012.922234,-10140.821405,370.102971,842.705048
4012.922564,-10214.842000,444.123565,536.266849
4012.922894,-9474.636058,444.123565,-229.828649
4012.923224,-9400.615463,148.041188,-459.657299
4012.923554,-9918.759623,148.041188,-383.047749
4012.923884,-10066.800811,0.000000,0.000000
4012.924214,-9844.739029,74.020594,76.609550
4012.924544,-9326.594869,296.082377,536.266849
4012.924874,-8882.471304,592.164754,383.047749
4012.925204,-9400.615463,296.082377,1378.971896
4012.925534,-10214.842000,518.144159,1072.533697
4012.925864,-11029.068536,592.164754,689.485948
4012.926194,-10732.986159,814.226536,-1532.190996
4012.926524,-9104.533087,222.061783,-1225.752797
4012.926854,-8364.327145,74.020594,-842.705048
4012.927184,-9104.533087,444.123565,-229.828649
4012.927514,-10214.842000,370.102971,689.485948
4012.927844,-9992.780217,370.102971,229.828649
4012.928174,-9622.677246,222.061783,-536.266849
4012.928504,-9918.759623,740.205942,-306.438199
4012.928834,-10584.944971,296.082377,153.219100
4012.929164,-10066.800811,444.123565,766.095498
4012.929494,-9474.636058,370.102971,459.657299
4012.929824,-9474.636058,444.123565,459.657299
4012.930154,-9252.574275,0.000000,306.438199
4012.930484,-9474.636058,444.123565,0.000000
4012.930814,-10066.800811,148.041188,229.828649
4012.931143,-10658.965565,740.205942,229.828649
4012.931473,-10140.821405,296.082377,-536.266849
4012.931803,-9548.656652,0.000000,-995.924147
4012.932133,-8956.491898,0.000000,-919.314598
4012.932463,-9474.636058,74.020594,383.047749
4012.932793,-10362.883188,148.041188,1532.190996
4012.933123,-10436.903782,148.041188,1685.410096
4012.933453,-9622.677246,0.000000,536.266849
4012.933783,-9548.656652,-370.102971,-383.047749
4012.934113,-10066.800811,-222.061783,-383.047749
4012.934443,-9992.780217,-222.061783,0.000000
4012.934773,-9326.594869,-296.082377,536.266849
4012.935103,-8808.450710,-222.061783,459.657299
4012.935433,-9178.553681,0.000000,995.924147
4012.935763,-9770.718434,222.061783,919.314598
4012.936093,-10584.944971,148.041188,459.657299
4012.936423,-10955.047942,148.041188,76.609550
4012.936753,-10510.924376,-148.041188,-229.828649
4012.937083,-8956.491898,-148.041188,0.000000
4012.937413,-8660.409521,-518.144159,0.000000
4012.937743,-9178.553681,0.000000,153.219100
4012.938073,-10510.924376,0.000000,612.876398
4012.938403,-10584.944971,74.020594,536.266849
4012.938733,-9622.677246,-222.061783,0.000000
4012.939063,-9548.656652,-592.164754,0.000000
4012.939393,-9844.739029,-148.041188,229.828649
4012.939723,-10140.821405,0.000000,383.047749
4012.940052,-9696.697840,-592.164754,229.828649
4012.940382,-9696.697840,0.000000,0.000000
4012.940712,-9548.656652,-222.061783,1149.143247
4012.941042,-10066.800811,-518.144159,1225.752797
4012.941372,-10436.903782,0.000000,1225.752797
4012.941702,-10362.883188,74.020594,766.095498
4012.942032,-9770.718434,0.000000,-306.438199
4012.942362,-8882.471304,0.000000,-536.266849
4012.942692,-9326.594869,-222.061783,-306.438199
4012.943022,-10362.883188,148.041188,689.485948
4012.943352,-10807.006753,0.000000,1225.752797
4012.943682,-9992.780217,-148.041188,536.266849
4012.944012,-8882.471304,-296.082377,-919.314598
4012.944342,-8660.409521,-296.082377,-766.095498
4012.944672,-9844.739029,0.000000,-383.047749
4012.945002,-9918.759623,-518.144159,919.314598
4012.945332,-9400.615463,-296.082377,919.314598
4012.945662,-9400.615463,74.020594,1302.362347
4012.945992,-9696.697840,0.000000,536.266849
4012.946322,-10140.821405,0.000000,612.876398
4012.946652,-10584.944971,0.000000,229.828649
4012.946982,-10584.944971,296.082377,0.000000
4012.947312,-10066.800811,370.102971,-306.438199
4012.947642,-9252.574275,222.061783,-459.657299
4012.947972,-9104.533087,370.102971,0.000000
4012.948302,-10066.800811,296.082377,229.828649
4012.948632,-10362.883188,148.041188,536.266849
4012.948961,-9548.656652,370.102971,0.000000
4012.949291,-9474.636058,-74.020594,-153.219100
4012.949621,-9696.697840,-148.041188,0.000000
4012.949951,-10288.862594,0.000000,0.000000
4012.950281,-9770.718434,0.000000,383.047749
4012.950611,-9622.677246,-148.041188,536.266849
4012.950941,-9252.574275,74.020594,766.095498
4012.951271,-9474.636058,222.061783,995.924147
4012.951601,-10436.903782,592.164754,1378.971896
4012.951931,-10658.965565,444.123565,459.657299
4012.952261,-10510.924376,518.144159,-536.266849
4012.952591,-9770.718434,444.123565,-1302.362347
4012.952921,-9104.533087,74.020594,-1072.533697
4012.953251,-9030.512492,0.000000,-1302.362347
4012.953581,-9696.697840,148.041188,76.609550
4012.953911,-9992.780217,222.061783,612.876398
4012.954241,-9548.656652,0.000000,306.438199
4012.954571,-8734.430116,0.000000,0.000000
4012.954901,-9474.636058,0.000000,-153.219100
4012.955231,-9992.780217,148.041188,153.219100
4012.955561,-10066.800811,0.000000,842.705048
4012.955891,-9696.697840,74.020594,842.705048
4012.956221,-9178.553681,148.041188,612.876398
4012.956551,-9622.677246,222.061783,1149.143247
4012.956881,-10288.862594,444.123565,842.705048
4012.957211,-10510.924376,370.102971,153.219100
4012.957541,-10140.821405,296.082377,-383.047749
4012.957870,-9400.615463,518.144159,-1149.143247
4012.958200,-9104.533087,592.164754,-612.876398
4012.958530,-9474.636058,518.144159,0.000000
4012.958860,-10140.821405,370.102971,0.000000
4012.959190,-10436.903782,888.247130,306.438199
4012.959520,-10214.842000,888.247130,-536.266849
4012.959850,-9844.739029,222.061783,-842.705048
4012.960180,-10066.800811,74.020594,-766.095498
4012.960510,-9918.759623,148.041188,536.266849
4012.960840,-9548.656652,0.000000,689.485948
4012.961170,-9326.594869,0.000000,689.485948
4012.961500,-9252.574275,0.000000,995.924147
4012.961830,-9770.718434,222.061783,766.095498
4012.962160,-10584.944971,370.102971,612.876398
4012.962490,-11103.089130,148.041188,536.266849
4012.962819,-10732.986159,148.041188,766.095498
4012.963149,-9326.594869,-148.041188,-612.876398
4012.963479,-8586.388927,-370.102971,-306.438199
4012.963809,-9400.615463,-444.123565,0.000000
4012.964139,-10140.821405,0.000000,842.705048
4012.964469,-10066.800811,222.061783,842.705048
4012.964798,-9696.697840,222.061783,-76.609550
4012.965128,-9548.656652,0.000000,153.219100
4012.965458,-9770.718434,-296.082377,153.219100
4012.965788,-9992.780217,-296.082377,612.876398
4012.966118,-9696.697840,0.000000,919.314598
4012.966447,-9696.697840,-296.082377,459.657299
4012.966777,-9400.615463,-592.164754,612.876398
4012.967107,-9696.697840,-592.164754,1072.533697
4012.967437,-9918.759623,-222.061783,766.095498
4012.967767,-10436.903782,-222.061783,459.657299
4012.968096,-10288.862594,-296.082377,76.609550
4012.968426,-9326.594869,-296.082377,-459.657299
4012.968756,-8586.388927,-370.102971,-689.485948
4012.969086,-9326.594869,-222.061783,536.266849
4012.969416,-10510.924376,0.000000,995.924147
4012.969746,-10732.986159,444.123565,766.095498
4012.970075,-9992.780217,0.000000,-612.876398
4012.970405,-9474.636058,-740.205942,-842.705048
4012.970735,-10066.800811,-592.164754,-306.438199
4012.971065,-10362.883188,-370.102971,842.705048
4012.971395,-9474.636058,-814.226536,1225.752797
4012.971724,-9030.512492,-296.082377,689.485948
4012.972054,-9104.533087,0.000000,919.314598
4012.972384,-9696.697840,-296.082377,459.657299
4012.972714,-10362.883188,-296.082377,306.438199
4012.973044,-10658.965565,0.000000,229.828649
4012.973373,-10066.800811,0.000000,536.266849
4012.973703,-9178.553681,0.000000,229.828649
4012.974033,-8882.471304,-74.020594,0.000000
4012.974363,-9696.697840,0.000000,383.047749
4012.974693,-10214.842000,0.000000,689.485948
4012.975023,-10214.842000,148.041188,766.095498
4012.975352,-9548.656652,370.102971,0.000000
4012.975682,-9844.739029,148.041188,0.000000
4012.976012,-9918.759623,0.000000,-76.609550
4012.976342,-9770.718434,0.000000,229.828649
4012.976672,-9400.615463,0.000000,76.609550
4012.977001,-9326.594869,0.000000,229.828649
4012.977331,-9400.615463,222.061783,229.828649
4012.977661,-9696.697840,222.061783,919.314598
4012.977991,-10584.944971,444.123565,612.876398
4012.978321,-10955.047942,518.144159,689.485948
4012.978650,-10214.842000,444.123565,229.828649
4012.978980,-9178.553681,-296.082377,0.000000
4012.979310,-8956.491898,74.020594,-383.047749
4012.979640,-9474.636058,370.102971,306.438199
4012.979970,-10288.862594,666.185348,689.485948
4012.980300,-9548.656652,518.144159,-612.876398
4012.980629,-9400.615463,740.205942,-919.314598
4012.980959,-9548.656652,296.082377,-1072.533697
4012.981289,-10214.842000,444.123565,-995.924147
4012.981619,-9918.759623,0.000000,0.000000
4012.981949,-9400.615463,0.000000,536.266849
4012.982278,-9252.574275,0.000000,459.657299
4012.982608,-9104.533087,-222.061783,76.609550
4012.982938,-9474.636058,0.000000,306.438199
4012.983268,-9844.739029,74.020594,689.485948
4012.983598,-10436.903782,592.164754,612.876398
4012.983927,-9918.759623,592.164754,0.000000
4012.984257,-9326.594869,296.082377,-459.657299
4012.984587,-9252.574275,444.123565,-919.314598
4012.984917,-10066.800811,148.041188,-612.876398
4012.985247,-10362.883188,444.123565,-383.047749
4012.985577,-10288.862594,296.082377,-229.828649
4012.985906,-9474.636058,296.082377,-1149.143247
4012.986236,-9474.636058,0.000000,0.000000
4012.986566,-9918.759623,0.000000,76.609550
4012.986896,-10066.800811,74.020594,383.047749
4012.987226,-9622.677246,-148.041188,995.924147
4012.987555,-9252.574275,0.000000,919.314598
4012.987885,-9548.656652,-148.041188,1225.752797
4012.988215,-9696.697840,-296.082377,919.314598
4012.988545,-10436.903782,0.000000,919.314598
4012.988875,-10658.965565,370.102971,0.000000
4012.989204,-10066.800811,0.000000,0.000000
4012.989534,-9178.553681,222.061783,-229.828649
4012.989864,-9178.553681,0.000000,153.219100
4012.990194,-10066.800811,740.205942,689.485948
4012.990524,-10658.965565,592.164754,919.314598
4012.990854,-10140.821405,148.041188,383.047749
4012.991183,-9326.594869,0.000000,0.000000
4012.991513,-9770.718434,0.000000,0.000000
4012.991843,-10140.821405,-148.041188,229.828649
4012.992173,-9696.697840,0.000000,612.876398
4012.992503,-9474.636058,-74.020594,306.438199
4012.992832,-9326.594869,0.000000,153.219100
4012.993162,-9400.615463,222.061783,1072.533697
4012.993492,-9918.759623,74.020594,306.438199
4012.993822,-10732.986159,0.000000,536.266849
4012.994152,-10732.986159,-222.061783,536.266849
4012.994482,-9622.677246,-222.061783,-306.438199
4012.994811,-8882.471304,-962.267725,0.000000
4012.995141,-8808.450710,-740.205942,0.000000
4012.995471,-9474.636058,-444.123565,383.047749
4012.995801,-9844.739029,0.000000,612.876398
4012.996131,-9696.697840,-74.020594,0.000000
4012.996460,-9548.656652,-296.082377,153.219100
4012.996790,-9622.677246,-222.061783,153.219100
4012.997120,-9696.697840,-296.082377,153.219100
4012.997450,-9474.636058,-148.041188,153.219100
4012.997780,-9548.656652,-222.061783,0.000000
4012.998109,-9474.636058,0.000000,76.609550
4012.998439,-9622.677246,-222.061783,383.047749
4012.998769,-9548.656652,148.041188,0.000000
4012.999099,-10362.883188,0.000000,689.485948
4012.999429,-10658.965565,-148.041188,383.047749
4012.999759,-9770.718434,0.000000,-153.219100
4013.000088,-8734.430116,0.000000,-229.828649
4013.000418,-8808.450710,-296.082377,-536.266849
4013.000748,-9844.739029,74.020594,383.047749
4013.001078,-10362.883188,74.020594,1302.362347
4013.001408,-9918.759623,74.020594,689.485948
4013.001737,-9696.697840,74.020594,383.047749
4013.002067,-9844.739029,74.020594,153.219100
4013.002397,-10436.903782,222.061783,229.828649
4013.002727,-9918.759623,0.000000,612.876398
4013.003057,-9178.553681,-222.061783,0.000000
4013.003386,-9030.512492,0.000000,459.657299
4013.003716,-9474.636058,222.061783,383.047749
4013.004046,-10066.800811,222.061783,229.828649
4013.004376,-10288.862594,518.144159,0.000000
4013.004706,-10066.800811,444.123565,-459.657299
4013.005036,-9696.697840,740.205942,-536.266849
4013.005365,-9400.615463,518.144159,-689.485948
4013.005695,-9548.656652,592.164754,-153.219100
4013.006025,-10140.821405,962.267725,536.266849
4013.006355,-10362.883188,814.226536,536.266849
4013.006685,-10066.800811,814.226536,0.000000
4013.007014,-9696.697840,370.102971,-306.438199
4013.007344,-9770.718434,592.164754,-612.876398
4013.007674,-10066.800811,148.041188,-76.609550
4013.008004,-9918.759623,296.082377,229.828649
4013.008334,-9474.636058,370.102971,153.219100
4013.008663,-9474.636058,296.082377,766.095498
4013.008993,-9548.656652,296.082377,306.438199
4013.009323,-9918.759623,444.123565,153.219100
4013.009653,-10658.965565,444.123565,153.219100
4013.009983,-10658.965565,296.082377,76.609550
4013.010313,-9696.697840,148.041188,306.438199
4013.010642,-8734.430116,-296.082377,76.609550
4013.010972,-8808.450710,-370.102971,306.438199
4013.011302,-9474.636058,74.020594,766.095498
4013.011632,-9770.718434,0.000000,995.924147
4013.011962,-9474.636058,0.000000,306.438199
4013.012291,-9844.739029,296.082377,0.000000
4013.012621,-9992.780217,0.000000,-383.047749
4013.012951,-9252.574275,0.000000,76.609550
4013.013281,-9400.615463,-148.041188,-153.219100
4013.013611,-9252.574275,0.000000,0.000000
4013.013940,-9474.636058,0.000000,0.000000
4013.014270,-9548.656652,0.000000,153.219100
4013.014600,-9770.718434,-222.061783,229.828649
4013.014930,-10066.800811,0.000000,153.219100
4013.015260,-10214.842000,0.000000,-229.828649
4013.015590,-9622.677246,-148.041188,-612.876398
4013.015919,-9178.553681,-518.144159,-536.266849
4013.016249,-9474.636058,-74.020594,0.000000
4013.016579,-10140.821405,-222.061783,612.876398
4013.016909,-10214.842000,74.020594,766.095498
4013.017239,-9178.553681,-222.061783,766.095498
4013.017568,-9474.636058,0.000000,153.219100
4013.017898,-10214.842000,-148.041188,459.657299
4013.018228,-10436.903782,222.061783,689.485948
4013.018558,-10362.883188,-148.041188,536.266849
4013.018888,-9474.636058,-222.061783,76.609550
4013.019217,-9696.697840,-370.102971,536.266849
4013.019547,-9400.615463,-592.164754,995.924147
4013.019877,-9770.718434,-444.123565,919.314598
4013.020207,-10362.883188,-74.020594,1149.143247
4013.020537,-10214.842000,-222.061783,306.438199
4013.020867,-9474.636058,0.000000,0.000000
4013.021196,-9104.533087,0.000000,153.219100
4013.021526,-9622.677246,148.041188,919.314598
4013.021856,-10658.965565,296.082377,2068.457845
4013.022186,-10362.883188,74.020594,1455.581446
4013.022516,-9770.718434,-296.082377,689.485948
4013.022845,-9474.636058,0.000000,-919.314598
4013.023175,-9992.780217,-370.102971,0.000000
4013.023505,-9770.718434,0.000000,0.000000
4013.023835,-9252.574275,0.000000,229.828649
4013.024165,-9104.533087,666.185348,306.438199
4013.024494,-9474.636058,222.061783,306.438199
4013.024824,-9844.739029,148.041188,459.657299
4013.025154,-10214.842000,74.020594,153.219100
4013.025484,-10584.944971,222.061783,153.219100
4013.025814,-9474.636058,-296.082377,-536.266849
4013.026144,-8364.327145,-370.102971,-536.266849
4013.026473,-8660.409521,-370.102971,-536.266849
4013.026803,-9474.636058,0.000000,459.657299
4013.027133,-9844.739029,370.102971,153.219100
4013.027463,-10066.800811,0.000000,995.924147
4013.027793,-9548.656652,74.020594,153.219100
4013.028122,-9696.697840,296.082377,-383.047749
4013.028452,-9844.739029,666.185348,-842.705048
4013.028782,-10066.800811,592.164754,-383.047749
4013.029112,-9992.780217,518.144159,-459.657299
4013.029442,-9548.656652,740.205942,-76.609550
4013.029771,-9696.697840,592.164754,0.000000
4013.030101,-9992.780217,444.123565,306.438199
4013.030431,-9918.759623,518.144159,153.219100
4013.030761,-10288.862594,592.164754,-153.219100
4013.031091,-9770.718434,74.020594,-842.705048
4013.031421,-8438.347739,222.061783,-153.219100
4013.031750,-8882.471304,0.000000,76.609550
4013.032080,-9844.739029,296.082377,1149.143247
4013.032410,-10436.903782,518.144159,1072.533697
4013.032740,-10140.821405,444.123565,1225.752797
4013.033070,-9770.718434,222.061783,229.828649
4013.033399,-9918.759623,222.061783,153.219100
4013.033729,-10362.883188,74.020594,229.828649
4013.034059,-9770.718434,0.000000,229.828649
4013.034389,-9770.718434,0.000000,0.000000
4013.034719,-8660.409521,0.000000,76.609550
4013.035048,-8956.491898,74.020594,459.657299
4013.035378,-9474.636058,0.000000,689.485948
4013.035708,-10362.883188,148.041188,1072.533697
4013.036038,-10436.903782,296.082377,383.047749
4013.036368,-10214.842000,666.185348,76.609550
4013.036698,-9474.636058,592.164754,-612.876398
4013.037027,-9030.512492,370.102971,0.000000
4013.037357,-9770.718434,518.144159,229.828649
4013.037687,-10510.924376,518.144159,459.657299
4013.038017,-10066.800811,370.102971,306.438199
4013.038347,-9844.739029,444.123565,76.609550
4013.038676,-9844.739029,0.000000,153.219100
4013.039006,-9992.780217,74.020594,-229.828649
4013.039336,-10066.800811,0.000000,-306.438199
4013.039666,-9548.656652,0.000000,0.000000
4013.039996,-9178.553681,296.082377,459.657299
4013.040325,-9770.718434,296.082377,1149.143247
4013.040655,-10140.821405,74.020594,1072.533697
4013.040985,-10732.986159,0.000000,689.485948
4013.041315,-10807.006753,148.041188,0.000000
4013.041645,-10066.800811,0.000000,0.000000
4013.041975,-9178.553681,-370.102971,0.000000
4013.042304,-9104.533087,-518.144159,306.438199
4013.042634,-9622.677246,74.020594,995.924147
4013.042964,-9844.739029,-444.123565,1608.800546
4013.043294,-9474.636058,-444.123565,459.657299
4013.043624,-9474.636058,-444.123565,153.219100
4013.043953,-9696.697840,-444.123565,0.000000
4013.044283,-9400.615463,-666.185348,0.000000
4013.044613,-9548.656652,-222.061783,0.000000
4013.044943,-9178.553681,-592.164754,76.609550
4013.045273,-9104.533087,-370.102971,766.095498
4013.045602,-9252.574275,-444.123565,229.828649
4013.045932,-9696.697840,-518.144159,459.657299
4013.046262,-10214.842000,-148.041188,153.219100
4013.046592,-10140.821405,-222.061783,0.000000
4013.046922,-9104.533087,0.000000,-1532.190996
4013.047252,-8660.409521,-370.102971,-612.876398
4013.047581,-9178.553681,0.000000,-459.657299
4013.047911,-10066.800811,370.102971,612.876398
4013.048241,-10732.986159,666.185348,919.314598
4013.048571,-10362.883188,370.102971,383.047749
4013.048901,-10214.842000,0.000000,0.000000
4013.049230,-10140.821405,-370.102971,-229.828649
4013.049560,-10140.821405,-444.123565,383.047749
4013.049890,-9770.718434,-222.061783,459.657299
4013.050220,-9696.697840,-814.226536,383.047749
4013.050550,-9474.636058,-74.020594,536.266849
4013.050880,-9548.656652,0.000000,1225.752797
4013.051209,-10658.965565,74.020594,1225.752797
4013.051539,-11177.109724,222.061783,689.485948
4013.051869,-10732.986159,0.000000,459.657299
4013.052199,-9474.636058,-370.102971,-383.047749
4013.052529,-8956.491898,0.000000,-383.047749
4013.052858,-9474.636058,-148.041188,459.657299
4013.053188,-9770.718434,0.000000,919.314598
4013.053518,-9992.780217,74.020594,1532.190996
4013.053848,-9622.677246,0.000000,842.705048
4013.054178,-9474.636058,-148.041188,0.000000
4013.054507,-9474.636058,0.000000,0.000000
4013.054837,-9918.759623,0.000000,229.828649
4013.055167,-9474.636058,0.000000,383.047749
4013.055497,-9400.615463,74.020594,306.438199
4013.055827,-9178.553681,296.082377,306.438199
4013.056157,-9622.677246,370.102971,536.266849
4013.056486,-9918.759623,444.123565,306.438199
4013.056816,-10436.903782,370.102971,0.000000
4013.057146,-9918.759623,518.144159,-919.314598
4013.057476,-9178.553681,222.061783,-1149.143247
4013.057806,-8882.471304,222.061783,-995.924147
4013.058135,-9104.533087,444.123565,76.609550
4013.058465,-9992.780217,370.102971,689.485948
4013.058795,-10140.821405,888.247130,1149.143247
4013.059125,-9918.759623,444.123565,459.657299
4013.059455,-10214.842000,592.164754,0.000000
4013.059784,-10214.842000,518.144159,-842.705048
4013.060114,-9918.759623,518.144159,-459.657299
4013.060444,-9696.697840,814.226536,-383.047749
4013.060774,-9622.677246,814.226536,0.000000
4013.061104,-9474.636058,444.123565,306.438199
4013.061434,-9400.615463,74.020594,-229.828649
4013.061763,-10140.821405,0.000000,229.828649
4013.062093,-10510.924376,148.041188,0.000000
4013.062423,-10066.800811,0.000000,-153.219100
4013.062753,-8882.471304,0.000000,-459.657299
4013.063083,-8734.430116,74.020594,-153.219100
4013.063413,-9548.656652,148.041188,612.876398
4013.063742,-10807.006753,296.082377,1378.971896
4013.064072,-10436.903782,148.041188,1225.752797
4013.064402,-10288.862594,518.144159,383.047749
4013.064732,-9400.615463,0.000000,229.828649
4013.065062,-9326.594869,0.000000,0.000000
4013.065392,-9474.636058,0.000000,-153.219100
4013.065722,-9844.739029,74.020594,0.000000
4013.066051,-9622.677246,296.082377,76.609550
4013.066381,-9474.636058,296.082377,153.219100
4013.066711,-9770.718434,296.082377,612.876398
4013.067041,-10436.903782,444.123565,689.485948
4013.067371,-10807.006753,296.082377,153.219100
4013.067701,-10436.903782,148.041188,0.000000
4013.068030,-9474.636058,-370.102971,-76.609550
4013.068360,-9178.553681,-444.123565,383.047749
4013.068690,-9696.697840,-370.102971,1455.581446
4013.069020,-10288.862594,-148.041188,1762.019645
4013.069350,-9992.780217,-592.164754,995.924147
4013.069680,-9548.656652,-592.164754,153.219100
4013.070009,-9252.574275,-296.082377,306.438199
4013.070339,-9622.677246,0.000000,76.609550
4013.070669,-9770.718434,-148.041188,229.828649
4013.070999,-9474.636058,-370.102971,383.047749
4013.071329,-9030.512492,222.061783,-153.219100
4013.071659,-9252.574275,74.020594,153.219100
4013.071989,-9918.759623,0.000000,0.000000
4013.072318,-10658.965565,222.061783,0.000000
4013.072648,-10881.027347,222.061783,76.609550
4013.072978,-9992.780217,148.041188,-459.657299
4013.073308,-9252.574275,0.000000,-995.924147
4013.073638,-8660.409521,-296.082377,-153.219100
4013.073968,-9622.677246,0.000000,1149.143247
4013.074297,-10362.883188,-444.123565,1685.410096
4013.074627,-10288.862594,0.000000,1302.362347
4013.074957,-10066.800811,-148.041188,689.485948
4013.075287,-9918.759623,0.000000,306.438199
4013.075617,-9918.759623,-444.123565,0.000000
4013.075947,-9844.739029,-592.164754,842.705048
4013.076277,-9474.636058,-740.205942,766.095498
4013.076606,-9252.574275,0.000000,1225.752797
4013.076936,-9400.615463,0.000000,1378.971896
4013.077266,-9918.759623,74.020594,536.266849
4013.077596,-10214.842000,0.000000,153.219100
4013.077926,-10436.903782,0.000000,-612.876398
4013.078256,-9548.656652,-370.102971,-766.095498
4013.078585,-8808.450710,-592.164754,-229.828649
4013.078915,-8734.430116,-370.102971,306.438199
4013.079245,-9548.656652,-148.041188,842.705048
4013.079575,-10436.903782,0.000000,1225.752797
4013.079905,-10214.842000,296.082377,229.828649
4013.080235,-9992.780217,0.000000,229.828649
4013.080564,-9770.718434,0.000000,229.828649
4013.080894,-9844.739029,0.000000,76.609550
4013.081224,-9844.739029,0.000000,-536.266849
4013.081554,-9548.656652,148.041188,0.000000
4013.081884,-9178.553681,296.082377,-306.438199
4013.082214,-9474.636058,444.123565,0.000000
4013.082544,-9548.656652,222.061783,-306.438199
4013.082873,-10066.800811,666.185348,-612.876398
4013.083203,-10362.883188,296.082377,-689.485948
4013.083533,-9844.739029,518.144159,-1225.752797
4013.083863,-9178.553681,222.061783,-383.047749
4013.084193,-9104.533087,444.123565,536.266849
4013.084523,-10214.842000,296.082377,1378.971896
4013.084852,-10732.986159,296.082377,1762.019645
4013.085182,-10436.903782,370.102971,919.314598
4013.085512,-9844.739029,370.102971,76.609550
4013.085842,-10214.842000,444.123565,0.000000
4013.086172,-10510.924376,370.102971,536.266849
4013.086502,-10214.842000,518.144159,689.485948
4013.086831,-9770.718434,518.144159,0.000000
4013.087161,-9400.615463,296.082377,153.219100
4013.087491,-9622.677246,0.000000,306.438199
4013.087821,-9844.739029,74.020594,383.047749
4013.088151,-10140.821405,0.000000,459.657299
4013.088481,-9622.677246,-296.082377,536.266849
4013.088811,-9474.636058,592.164754,76.609550
4013.089140,-8586.388927,148.041188,-459.657299
4013.089470,-9030.512492,222.061783,153.219100
4013.089800,-9696.697840,222.061783,1302.362347
4013.090130,-10510.924376,518.144159,1072.533697
4013.090460,-10140.821405,296.082377,612.876398
4013.090790,-9548.656652,148.041188,0.000000
4013.091119,-9474.636058,148.041188,0.000000
4013.091449,-9992.780217,296.082377,0.000000
4013.091779,-9918.759623,0.000000,306.438199
4013.092109,-9548.656652,222.061783,229.828649
4013.092439,-9400.615463,0.000000,306.438199
4013.092769,-9252.574275,0.000000,0.000000
4013.093099,-9548.656652,0.000000,0.000000
4013.093428,-10436.903782,0.000000,0.000000
4013.093758,-9844.739029,-370.102971,-229.828649
4013.094088,-9178.553681,-518.144159,0.000000
4013.094418,-8586.388927,-740.205942,612.876398
4013.094748,-9030.512492,-592.164754,689.485948
4013.095078,-10436.903782,-148.041188,1072.533697
4013.095407,-10807.006753,0.000000,536.266849
4013.095737,-9992.780217,0.000000,0.000000
4013.096067,-9252.574275,-148.041188,-306.438199
4013.096397,-9400.615463,-296.082377,-306.438199
4013.096727,-9844.739029,0.000000,383.047749
4013.097057,-9770.718434,0.000000,-153.219100
4013.097386,-9992.780217,0.000000,-612.876398
4013.097716,-10066.800811,222.061783,-383.047749
4013.098046,-9918.759623,-74.020594,76.609550
4013.098376,-9918.759623,-222.061783,0.000000
4013.098706,-10658.965565,-296.082377,459.657299
4013.099036,-9918.759623,-666.185348,153.219100
4013.099366,-9474.636058,-518.144159,459.657299
4013.099695,-8586.388927,-370.102971,0.000000
4013.100025,-9474.636058,-518.144159,1149.143247
4013.100355,-10140.821405,0.000000,1455.581446
4013.100685,-10436.903782,0.000000,995.924147
4013.101015,-10066.800811,0.000000,612.876398
4013.101345,-9844.739029,296.082377,0.000000
4013.101674,-9918.759623,0.000000,0.000000
4013.102004,-10066.800811,0.000000,0.000000
4013.102334,-9548.656652,74.020594,229.828649
4013.102664,-9030.512492,370.102971,153.219100
4013.102994,-9326.594869,592.164754,-153.219100
4013.103324,-9696.697840,222.061783,0.000000
4013.103653,-10436.903782,592.164754,153.219100
4013.103983,-10584.944971,370.102971,919.314598
4013.104313,-10214.842000,0.000000,0.000000
4013.104643,-9104.533087,0.000000,153.219100
4013.104973,-8734.430116,0.000000,-76.609550
4013.105303,-9400.615463,222.061783,689.485948
4013.105633,-10140.821405,444.123565,995.924147
4013.105962,-10066.800811,666.185348,1149.143247
4013.106292,-9252.574275,444.123565,76.609550
4013.106622,-9400.615463,888.247130,153.219100
4013.106952,-9696.697840,592.164754,-153.219100
4013.107282,-10214.842000,592.164754,-229.828649
4013.107612,-10140.821405,444.123565,0.000000
4013.107941,-9770.718434,888.247130,0.000000
4013.108271,-9178.553681,888.247130,306.438199
4013.108601,-9696.697840,962.267725,306.438199
4013.108931,-9844.739029,740.205942,76.609550
4013.109261,-10584.944971,814.226536,306.438199
4013.109591,-10658.965565,518.144159,0.000000
4013.109920,-9844.739029,148.041188,76.609550
4013.110250,-8956.491898,-370.102971,0.000000
4013.110580,-8956.491898,0.000000,383.047749
4013.110910,-9548.656652,-296.082377,766.095498
4013.111240,-9622.677246,0.000000,995.924147
4013.111570,-9178.553681,0.000000,229.828649
4013.111900,-9474.636058,0.000000,153.219100
4013.112229,-10362.883188,0.000000,0.000000
4013.112559,-10807.006753,296.082377,0.000000
4013.112889,-9770.718434,-148.041188,0.000000
4013.113219,-9104.533087,0.000000,0.000000
4013.113549,-8956.491898,-296.082377,-76.609550
4013.113879,-9548.656652,222.061783,-383.047749
4013.114208,-9844.739029,148.041188,-306.438199
4013.114538,-10288.862594,74.020594,0.000000
4013.114868,-10066.800811,296.082377,-306.438199
4013.115198,-9474.636058,-222.061783,-766.095498
4013.115528,-8956.491898,-518.144159,-459.657299
4013.115858,-9622.677246,-592.164754,153.219100
4013.116188,-10288.862594,-592.164754,995.924147
4013.116517,-10214.842000,-666.185348,536.266849
4013.116847,-9474.636058,-222.061783,153.219100
4013.117177,-9474.636058,-370.102971,153.219100
4013.117507,-9770.718434,-666.185348,612.876398
4013.117837,-10732.986159,-370.102971,842.705048
4013.118167,-10066.800811,222.061783,536.266849
4013.118496,-9548.656652,-296.082377,536.266849
4013.118826,-9622.677246,-222.061783,536.266849
4013.119156,-9474.636058,0.000000,306.438199
4013.119486,-10288.862594,444.123565,536.266849
4013.119816,-10584.944971,0.000000,536.266849
4013.120146,-10510.924376,0.000000,0.000000
4013.120475,-9770.718434,-296.082377,229.828649
4013.120805,-9400.615463,-444.123565,153.219100
4013.121135,-9770.718434,0.000000,1302.362347
4013.121465,-10214.842000,0.000000,1302.362347
4013.121795,-10140.821405,0.000000,1455.581446
4013.122125,-9252.574275,0.000000,383.047749
4013.122455,-8734.430116,0.000000,-306.438199
4013.122784,-9992.780217,148.041188,306.438199
4013.123114,-10436.903782,296.082377,1072.533697
4013.123444,-10362.883188,74.020594,612.876398
4013.123774,-9548.656652,592.164754,229.828649
4013.124104,-9770.718434,296.082377,153.219100
4013.124434,-9992.780217,74.020594,-153.219100
4013.124763,-10066.800811,148.041188,0.000000
4013.125093,-9548.656652,222.061783,0.000000
4013.125423,-9622.677246,666.185348,-766.095498
4013.125753,-8956.491898,222.061783,-229.828649
4013.126083,-9326.594869,148.041188,-76.609550
4013.126413,-10288.862594,592.164754,306.438199
4013.126742,-10288.862594,666.185348,229.828649
4013.127072,-9696.697840,148.041188,612.876398
4013.127402,-9178.553681,74.020594,306.438199
4013.127732,-9252.574275,148.041188,0.000000
4013.128062,-9104.533087,740.205942,-306.438199
4013.128392,-10214.842000,518.144159,-306.438199
4013.128722,-9844.739029,444.123565,-306.438199
4013.129051,-9548.656652,666.185348,0.000000
4013.129381,-9474.636058,444.123565,0.000000
4013.129711,-10214.842000,814.226536,0.000000
4013.130041,-10584.944971,148.041188,76.609550
4013.130371,-9844.739029,296.082377,-459.657299
4013.130701,-9474.636058,444.123565,-766.095498
4013.131030,-8956.491898,148.041188,-459.657299
4013.131360,-9474.636058,0.000000,536.266849
4013.131690,-10066.800811,74.020594,919.314598
4013.132020,-10362.883188,148.041188,1225.752797
4013.132350,-9474.636058,370.102971,536.266849
4013.132680,-9474.636058,0.000000,306.438199
4013.133010,-9548.656652,0.000000,0.000000
4013.133339,-9548.656652,148.041188,306.438199
4013.133669,-10066.800811,222.061783,612.876398
4013.133999,-9918.759623,444.123565,383.047749
4013.134329,-9474.636058,518.144159,0.000000
4013.134659,-10140.821405,518.144159,0.000000
4013.134989,-10584.944971,222.061783,0.000000
4013.135318,-10732.986159,296.082377,459.657299
4013.135648,-10436.903782,148.041188,536.266849
4013.135978,-9474.636058,-74.020594,-459.657299
4013.136308,-8882.471304,-148.041188,-612.876398
4013.136638,-8956.491898,0.000000,-689.485948
4013.136968,-9918.759623,-222.061783,536.266849
4013.137297,-10288.862594,-296.082377,919.314598
4013.137627,-9548.656652,-222.061783,766.095498
4013.137957,-8882.471304,-222.061783,383.047749
4013.138287,-9548.656652,-888.247130,766.095498
4013.138617,-10066.800811,-444.123565,306.438199
4013.138947,-10214.842000,-296.082377,306.438199
4013.139277,-9770.718434,0.000000,306.438199
4013.139606,-9548.656652,-148.041188,229.828649
4013.139936,-9474.636058,-444.123565,383.047749
4013.140266,-9844.739029,-296.082377,306.438199
4013.140596,-10436.903782,-74.020594,229.828649
4013.140926,-9844.739029,0.000000,0.000000
4013.141256,-9252.574275,74.020594,-536.266849
4013.141585,-8734.430116,0.000000,-229.828649
4013.141915,-9474.636058,0.000000,383.047749
4013.142245,-10584.944971,0.000000,689.485948
4013.142575,-10362.883188,-148.041188,689.485948
4013.142905,-9696.697840,-222.061783,229.828649
4013.143235,-9400.615463,-444.123565,76.609550
4013.143564,-9770.718434,0.000000,536.266849
4013.143894,-9844.739029,74.020594,612.876398
4013.144224,-10066.800811,0.000000,536.266849
4013.144554,-9622.677246,0.000000,76.609550
4013.144884,-9770.718434,74.020594,0.000000
4013.145214,-9548.656652,74.020594,0.000000
4013.145544,-9770.718434,0.000000,0.000000
4013.145873,-10510.924376,370.102971,153.219100
4013.146203,-10066.800811,74.020594,-229.828649
4013.146533,-8808.450710,0.000000,-689.485948
4013.146863,-8660.409521,0.000000,-612.876398
4013.147193,-9252.574275,0.000000,0.000000
4013.147523,-10584.944971,444.123565,919.314598
4013.147852,-10140.821405,0.000000,919.314598
4013.148182,-10066.800811,222.061783,306.438199
4013.148512,-9622.677246,-148.041188,306.438199
4013.148842,-10214.842000,0.000000,383.047749
4013.149172,-10288.862594,0.000000,612.876398
4013.149502,-9770.718434,74.020594,459.657299
4013.149832,-9326.594869,222.061783,306.438199
4013.150161,-9104.533087,74.020594,153.219100
4013.150491,-9474.636058,444.123565,842.705048
4013.150821,-9696.697840,814.226536,229.828649
4013.151151,-10510.924376,592.164754,459.657299
4013.151481,-10288.862594,444.123565,-306.438199
4013.151811,-9104.533087,74.020594,-766.095498
4013.152140,-8660.409521,0.000000,-995.924147
4013.152470,-9474.636058,74.020594,229.828649
4013.152800,-9918.759623,222.061783,919.314598
4013.153130,-10214.842000,296.082377,1072.533697
4013.153460,-9622.677246,296.082377,536.266849
4013.153790,-9770.718434,296.082377,383.047749
4013.154119,-10214.842000,222.061783,76.609550
4013.154449,-10584.944971,370.102971,306.438199
4013.154779,-9622.677246,296.082377,0.000000
4013.155109,-9326.594869,0.000000,0.000000
4013.155439,-9326.594869,222.061783,76.609550
4013.155769,-9770.718434,222.061783,229.828649
4013.156099,-10214.842000,370.102971,-383.047749
4013.156428,-10362.883188,518.144159,-536.266849
4013.156758,-9844.739029,370.102971,-306.438199
4013.157088,-9178.553681,0.000000,-536.266849
4013.157418,-8956.491898,0.000000,0.000000
4013.157748,-10066.800811,518.144159,536.266849
4013.158078,-10584.944971,444.123565,1608.800546
4013.158407,-10362.883188,222.061783,919.314598
4013.158737,-10214.842000,444.123565,0.000000
4013.159067,-10140.821405,296.082377,0.000000
4013.159397,-9844.739029,148.041188,0.000000
4013.159727,-10066.800811,222.061783,0.000000
4013.160057,-9474.636058,0.000000,76.609550
4013.160386,-9400.615463,444.123565,-76.609550
4013.160716,-8882.471304,0.000000,306.438199
4013.161046,-9992.780217,222.061783,536.266849
4013.161376,-10288.862594,74.020594,536.266849
4013.161706,-10214.842000,0.000000,459.657299
4013.162035,-9844.739029,0.000000,-383.047749
4013.162365,-8808.450710,-518.144159,-612.876398
4013.162695,-9178.553681,-370.102971,-306.438199
4013.163025,-9696.697840,-296.082377,842.705048
4013.163355,-10066.800811,148.041188,1378.971896
4013.163684,-9548.656652,0.000000,995.924147
4013.164014,-9326.594869,-74.020594,306.438199
4013.164344,-9400.615463,0.000000,0.000000
4013.164674,-10436.903782,148.041188,76.609550
4013.165004,-10214.842000,444.123565,229.828649
4013.165333,-9622.677246,148.041188,76.609550
4013.165663,-9178.553681,0.000000,-459.657299
4013.165993,-9178.553681,0.000000,0.000000
4013.166323,-9696.697840,74.020594,0.000000
4013.166653,-10288.862594,0.000000,153.219100
4013.166982,-10510.924376,0.000000,383.047749
4013.167312,-9844.739029,-296.082377,-153.219100
4013.167642,-9178.553681,-370.102971,-383.047749
4013.167972,-9252.574275,-518.144159,229.828649
4013.168302,-10066.800811,-370.102971,995.924147
4013.168631,-10436.903782,-148.041188,1608.800546
4013.168961,-9992.780217,-148.041188,1302.362347
4013.169291,-9400.615463,-444.123565,306.438199
4013.169621,-9844.739029,-296.082377,306.438199
4013.169951,-10436.903782,74.020594,153.219100
4013.170280,-10510.924376,0.000000,383.047749
4013.170610,-9400.615463,0.000000,-306.438199
4013.170940,-8882.471304,-148.041188,-612.876398
4013.171270,-9252.574275,148.041188,0.000000
4013.171600,-10066.800811,74.020594,612.876398
4013.171930,-10436.903782,0.000000,612.876398
4013.172259,-10362.883188,0.000000,459.657299
4013.172589,-9696.697840,0.000000,-536.266849
4013.172919,-9400.615463,0.000000,-536.266849
4013.173249,-9548.656652,-296.082377,229.828649
4013.173579,-9770.718434,-148.041188,1455.581446
4013.173908,-10288.862594,-296.082377,1991.848295
4013.174238,-9548.656652,-444.123565,1838.629195
4013.174568,-9326.594869,-296.082377,842.705048
4013.174898,-9622.677246,-518.144159,383.047749
4013.175228,-10140.821405,0.000000,229.828649
4013.175557,-10362.883188,296.082377,76.609550
4013.175887,-9474.636058,296.082377,-459.657299
4013.176217,-9252.574275,296.082377,-306.438199
4013.176547,-9474.636058,222.061783,76.609550
4013.176877,-10140.821405,296.082377,459.657299
4013.177206,-10362.883188,0.000000,306.438199
4013.177536,-9992.780217,222.061783,-229.828649
4013.177866,-9030.512492,148.041188,-842.705048
4013.178196,-8438.347739,0.000000,-459.657299
4013.178526,-9178.553681,148.041188,536.266849
4013.178855,-10288.862594,592.164754,1455.581446
4013.179185,-10584.944971,592.164754,1455.581446
4013.179515,-9696.697840,296.082377,919.314598
4013.179845,-9326.594869,74.020594,-459.657299
4013.180175,-9622.677246,0.000000,-383.047749
4013.180504,-9992.780217,222.061783,-306.438199
4013.180834,-9474.636058,0.000000,383.047749
4013.181164,-9474.636058,222.061783,-229.828649
4013.181494,-8956.491898,222.061783,0.000000
4013.181824,-9548.656652,296.082377,306.438199
4013.182153,-10436.903782,444.123565,1149.143247
4013.182483,-11103.089130,296.082377,459.657299
4013.182813,-10658.965565,148.041188,0.000000
4013.183143,-9326.594869,0.000000,-842.705048
4013.183473,-8586.388927,-296.082377,-842.705048
4013.183802,-9252.574275,0.000000,0.000000
4013.184132,-10362.883188,0.000000,1149.143247
4013.184462,-10140.821405,74.020594,1225.752797
4013.184792,-9770.718434,0.000000,612.876398
4013.185122,-9918.759623,0.000000,0.000000
4013.185451,-10140.821405,0.000000,76.609550
4013.185781,-10288.862594,74.020594,306.438199
4013.186111,-9770.718434,0.000000,0.000000
4013.186441,-9770.718434,-296.082377,0.000000
4013.186771,-9400.615463,0.000000,0.000000
4013.187100,-9770.718434,74.020594,229.828649
4013.187430,-10214.842000,370.102971,306.438199
4013.187760,-10658.965565,296.082377,153.219100
4013.188090,-10214.842000,296.082377,-612.876398
4013.188420,-8956.491898,74.020594,-1225.752797
4013.188749,-8660.409521,74.020594,-153.219100
4013.189079,-9252.574275,74.020594,1149.143247
4013.189409,-10658.965565,0.000000,1302.362347
4013.189739,-10732.986159,222.061783,1455.581446
4013.190069,-9770.718434,148.041188,383.047749
4013.190398,-9326.594869,0.000000,-383.047749
4013.190728,-9770.718434,-222.061783,229.828649
4013.191058,-10140.821405,296.082377,383.047749
4013.191388,-9252.574275,148.041188,153.219100
4013.191718,-9030.512492,222.061783,76.609550
4013.192047,-9474.636058,814.226536,0.000000
4013.192377,-10140.821405,444.123565,306.438199
4013.192707,-11029.068536,518.144159,383.047749
4013.193037,-11103.089130,222.061783,0.000000
4013.193367,-10732.986159,0.000000,76.609550
4013.193696,-8586.388927,-148.041188,-459.657299
4013.194026,-8364.327145,-518.144159,-383.047749
4013.194356,-9178.553681,0.000000,1072.533697
4013.194686,-10362.883188,0.000000,1608.800546
4013.195016,-9770.718434,74.020594,1225.752797
4013.195346,-9844.739029,74.020594,153.219100
4013.195675,-9400.615463,0.000000,-153.219100
4013.196005,-10140.821405,-222.061783,0.000000
4013.196335,-10288.862594,-370.102971,612.876398
4013.196665,-9844.739029,-444.123565,536.266849
4013.196995,-9104.533087,-370.102971,536.266849
4013.197324,-9474.636058,-74.020594,306.438199
4013.197654,-10140.821405,-148.041188,995.924147
4013.197984,-10436.903782,296.082377,766.095498
4013.198314,-10955.047942,370.102971,459.657299
4013.198644,-10214.842000,296.082377,0.000000
4013.198973,-9400.615463,-222.061783,-689.485948
4013.199303,-9030.512492,-666.185348,-306.438199
4013.199633,-9400.615463,-444.123565,306.438199
4013.199963,-10066.800811,0.000000,766.095498
4013.200293,-9770.718434,0.000000,995.924147
4013.200622,-8808.450710,0.000000,-459.657299
4013.200952,-9474.636058,-148.041188,0.000000
4013.201282,-9992.780217,-370.102971,153.219100
4013.201612,-10510.924376,-148.041188,689.485948
4013.201942,-9992.780217,-296.082377,842.705048
4013.202271,-9326.594869,0.000000,612.876398
4013.202601,-9474.636058,0.000000,536.266849
4013.202931,-10288.862594,0.000000,459.657299
4013.203261,-10658.965565,222.061783,306.438199
4013.203591,-10510.924376,296.082377,0.000000
4013.203920,-9918.759623,148.041188,-612.876398
4013.204250,-9104.533087,74.020594,-459.657299
4013.204580,-8956.491898,0.000000,-229.828649
4013.204910,-9474.636058,0.000000,766.095498
4013.205240,-10214.842000,222.061783,842.705048
4013.205569,-9992.780217,0.000000,459.657299
4013.205899,-9622.677246,370.102971,0.000000
4013.206229,-9844.739029,222.061783,229.828649
4013.206559,-10288.862594,148.041188,0.000000
4013.206889,-10066.800811,296.082377,383.047749
4013.207218,-9696.697840,74.020594,459.657299
4013.207548,-9474.636058,444.123565,689.485948
4013.207878,-9474.636058,296.082377,306.438199
4013.208208,-9918.759623,444.123565,459.657299
4013.208538,-10362.883188,74.020594,383.047749
4013.208867,-10288.862594,296.082377,-153.219100
4013.209197,-9104.533087,0.000000,-1072.533697
4013.209527,-8438.347739,0.000000,-1455.581446
4013.209857,-8734.430116,0.000000,-153.219100
4013.210187,-9770.718434,518.144159,842.705048
4013.210516,-10066.800811,518.144159,1455.581446
4013.210846,-10140.821405,296.082377,612.876398
4013.211176,-9622.677246,0.000000,-306.438199
4013.211506,-10066.800811,0.000000,76.609550
4013.211836,-10510.924376,-148.041188,536.266849
4013.212165,-10140.821405,-370.102971,995.924147
4013.212495,-9326.594869,-148.041188,919.314598
4013.212825,-8660.409521,0.000000,306.438199
4013.213155,-9104.533087,296.082377,0.000000
4013.213485,-9918.759623,444.123565,-76.609550
4013.213814,-10732.986159,370.102971,0.000000
4013.214144,-10510.924376,296.082377,0.000000
4013.214474,-9252.574275,0.000000,-919.314598
4013.214804,-8586.388927,-296.082377,0.000000
4013.215134,-9104.533087,0.000000,0.000000
4013.215463,-10214.842000,222.061783,1072.533697
4013.215793,-10362.883188,74.020594,919.314598
4013.216123,-10140.821405,74.020594,383.047749
4013.216453,-9474.636058,222.061783,459.657299
4013.216783,-9474.636058,74.020594,0.000000
4013.217113,-9918.759623,74.020594,306.438199
4013.217442,-9844.739029,148.041188,229.828649
4013.217772,-9548.656652,0.000000,76.609550
4013.218102,-9400.615463,148.041188,153.219100
4013.218432,-9400.615463,148.041188,76.609550
4013.218762,-10066.800811,370.102971,229.828649
4013.219091,-10288.862594,222.061783,0.000000
4013.219421,-10510.924376,296.082377,0.000000
4013.219751,-9252.574275,74.020594,-306.438199
4013.220081,-9104.533087,148.041188,0.000000
4013.220411,-9844.739029,0.000000,229.828649
4013.220740,-10288.862594,74.020594,1532.190996
4013.221070,-10436.903782,0.000000,1225.752797
4013.221400,-9548.656652,0.000000,153.219100
4013.221730,-9178.553681,-222.061783,-306.438199
4013.222060,-9918.759623,-74.020594,0.000000
4013.222389,-10140.821405,74.020594,383.047749
4013.222719,-10214.842000,74.020594,766.095498
4013.223049,-9474.636058,0.000000,383.047749
4013.223379,-9622.677246,-148.041188,153.219100
4013.223709,-9548.656652,0.000000,76.609550
4013.224038,-9770.718434,0.000000,0.000000
4013.224368,-10140.821405,0.000000,0.000000
4013.224698,-9844.739029,-518.144159,76.609550
4013.225028,-9104.533087,-444.123565,-153.219100
4013.225358,-9178.553681,-148.041188,-153.219100
4013.225687,-9844.739029,-74.020594,0.000000
4013.226017,-10584.944971,0.000000,995.924147
4013.226347,-10510.924376,0.000000,612.876398
4013.226677,-9474.636058,-296.082377,383.047749
4013.227007,-9178.553681,-222.061783,-76.609550
4013.227336,-9696.697840,-370.102971,153.219100
4013.227666,-9770.718434,-444.123565,612.876398
4013.227996,-9918.759623,-296.082377,306.438199
4013.228326,-9696.697840,0.000000,459.657299
4013.228656,-9400.615463,0.000000,306.438199
4013.228985,-9252.574275,-518.144159,919.314598
4013.229315,-9918.759623,0.000000,306.438199
4013.229645,-10362.883188,74.020594,0.000000
4013.229975,-9992.780217,222.061783,0.000000
4013.230305,-9104.533087,-296.082377,0.000000
4013.230634,-8808.450710,0.000000,0.000000
4013.230964,-9844.739029,-74.020594,612.876398
4013.231294,-10436.903782,0.000000,1225.752797
4013.231624,-10066.800811,-518.144159,612.876398
4013.231954,-9030.512492,-370.102971,0.000000
4013.232283,-8956.491898,-296.082377,-76.609550
4013.232613,-9400.615463,-148.041188,306.438199
4013.232943,-9918.759623,0.000000,766.095498
4013.233273,-9622.677246,0.000000,1225.752797
4013.233603,-9622.677246,222.061783,153.219100
4013.233932,-9918.759623,444.123565,0.000000
4013.234262,-10140.821405,148.041188,153.219100
4013.234592,-10140.821405,370.102971,919.314598
4013.234922,-10436.903782,444.123565,76.609550
4013.235252,-9474.636058,370.102971,-459.657299
4013.235581,-8808.450710,222.061783,-612.876398
4013.235911,-9030.512492,370.102971,-383.047749
4013.236241,-10214.842000,296.082377,612.876398
4013.236571,-11251.130318,592.164754,842.705048
4013.236901,-10436.903782,296.082377,919.314598
4013.237230,-9178.553681,222.061783,0.000000
4013.237560,-9770.718434,222.061783,0.000000
4013.237890,-9770.718434,296.082377,0.000000
4013.238220,-10066.800811,296.082377,229.828649
4013.238550,-9918.759623,370.102971,306.438199
4013.238880,-9696.697840,222.061783,612.876398
4013.239209,-9622.677246,296.082377,383.047749
4013.239539,-10288.862594,370.102971,689.485948
4013.239869,-10510.924376,296.082377,76.609550
4013.240199,-9992.780217,74.020594,-76.609550
4013.240529,-9400.615463,222.061783,-536.266849
4013.240858,-8586.388927,74.020594,-153.219100
4013.241188,-9474.636058,296.082377,229.828649
4013.241518,-10436.903782,518.144159,842.705048
4013.241848,-11029.068536,444.123565,153.219100
4013.242178,-10362.883188,296.082377,0.000000
4013.242507,-9252.574275,0.000000,-229.828649
4013.242837,-9030.512492,0.000000,0.000000
4013.243167,-9474.636058,-296.082377,612.876398
4013.243497,-9548.656652,296.082377,612.876398
4013.243827,-9918.759623,222.061783,306.438199
4013.244156,-9918.759623,666.185348,-383.047749
4013.244486,-9992.780217,0.000000,-306.438199
4013.244816,-9992.780217,222.061783,0.000000
4013.245146,-10214.842000,518.144159,153.219100
4013.245476,-10214.842000,370.102971,0.000000
4013.245805,-9474.636058,518.144159,-306.438199
4013.246135,-8956.491898,444.123565,-689.485948
4013.246465,-9030.512492,74.020594,-383.047749
4013.246795,-10510.924376,0.000000,689.485948
4013.247125,-10510.924376,74.020594,842.705048
4013.247454,-9918.759623,-296.082377,766.095498
4013.247784,-9030.512492,-444.123565,0.000000
4013.248114,-9326.594869,-444.123565,536.266849
4013.248444,-9918.759623,-370.102971,919.314598
4013.248774,-10214.842000,-222.061783,1685.410096
4013.249103,-9918.759623,0.000000,995.924147
4013.249433,-9326.594869,-148.041188,306.438199
4013.249763,-9474.636058,0.000000,0.000000
4013.250093,-9696.697840,-148.041188,229.828649
4013.250423,-9844.739029,-370.102971,0.000000
4013.250752,-10362.883188,-74.020594,-76.609550
4013.251082,-9326.594869,-370.102971,-842.705048
4013.251412,-9178.553681,-370.102971,-766.095498
4013.251742,-9030.512492,-1036.288319,0.000000
4013.252072,-10288.862594,-370.102971,919.314598
4013.252401,-10140.821405,-444.123565,1072.533697
4013.252731,-9548.656652,-592.164754,689.485948
4013.253061,-8734.430116,-814.226536,459.657299
4013.253391,-9548.656652,-666.185348,612.876398
4013.253721,-10510.924376,0.000000,995.924147
4013.254050,-10362.883188,0.000000,1149.143247
4013.254380,-9770.718434,-222.061783,1149.143247
4013.254710,-9400.615463,0.000000,459.657299
4013.255040,-9474.636058,-74.020594,229.828649
4013.255370,-10214.842000,0.000000,383.047749
4013.255699,-10881.027347,222.061783,76.609550
4013.256029,-10658.965565,222.061783,-229.828649
4013.256359,-9844.739029,222.061783,-536.266849
4013.256689,-9030.512492,0.000000,-919.314598
4013.257019,-9622.677246,-444.123565,0.000000
4013.257348,-10881.027347,0.000000,995.924147
4013.257678,-10584.944971,222.061783,995.924147
4013.258008,-9548.656652,0.000000,766.095498
4013.258338,-9178.553681,0.000000,0.000000
4013.258668,-9548.656652,-222.061783,1072.533697
4013.258997,-10214.842000,-296.082377,536.266849
4013.259327,-9992.780217,-74.020594,842.705048
4013.259657,-9400.615463,-518.144159,842.705048
4013.259987,-9326.594869,0.000000,306.438199
4013.260317,-9622.677246,148.041188,459.657299
4013.260646,-9992.780217,74.020594,689.485948
4013.260976,-10807.006753,666.185348,229.828649
4013.261306,-10066.800811,592.164754,-76.609550
4013.261636,-9770.718434,296.082377,-995.924147
4013.261966,-8586.388927,296.082377,-919.314598
4013.262296,-9400.615463,148.041188,-153.219100
4013.262625,-10214.842000,296.082377,229.828649
4013.262955,-9992.780217,0.000000,919.314598
4013.263285,-9400.615463,296.082377,0.000000
4013.263615,-9252.574275,0.000000,-459.657299
4013.263945,-9548.656652,0.000000,153.219100
4013.264274,-9622.677246,148.041188,842.705048
4013.264604,-9622.677246,370.102971,919.314598
4013.264934,-9474.636058,592.164754,689.485948
4013.265264,-9918.759623,666.185348,459.657299
4013.265594,-9918.759623,148.041188,0.000000
4013.265923,-10584.944971,814.226536,536.266849
4013.266253,-10881.027347,444.123565,383.047749
4013.266583,-10288.862594,74.020594,153.219100
4013.266913,-8808.450710,148.041188,-612.876398
4013.267243,-8364.327145,74.020594,-459.657299
4013.267572,-9326.594869,222.061783,-383.047749
4013.267902,-10732.986159,592.164754,0.000000
4013.268232,-10658.965565,370.102971,689.485948
4013.268562,-9844.739029,296.082377,536.266849
4013.268892,-9844.739029,148.041188,153.219100
4013.269222,-10066.800811,-222.061783,306.438199
4013.269551,-10140.821405,-444.123565,612.876398
4013.269881,-9770.718434,-444.123565,842.705048
4013.270211,-9474.636058,-74.020594,766.095498
4013.270541,-9252.574275,0.000000,612.876398
4013.270871,-9326.594869,-222.061783,459.657299
4013.271200,-9992.780217,0.000000,689.485948
4013.271530,-10362.883188,0.000000,919.314598
4013.271860,-9992.780217,0.000000,0.000000
4013.272190,-9030.512492,0.000000,-842.705048
4013.272520,-8734.430116,-74.020594,-383.047749
4013.272849,-9696.697840,-518.144159,153.219100
4013.273179,-10658.965565,0.000000,153.219100
4013.273509,-10288.862594,-148.041188,76.609550
4013.273839,-9326.594869,-296.082377,0.000000
4013.274169,-9400.615463,0.000000,459.657299
4013.274499,-9770.718434,-222.061783,612.876398
4013.274828,-10140.821405,-148.041188,1072.533697
4013.275158,-9770.718434,-148.041188,459.657299
4013.275488,-9918.759623,74.020594,383.047749
4013.275818,-9918.759623,0.000000,306.438199
4013.276148,-10066.800811,0.000000,842.705048
4013.276477,-9918.759623,74.020594,612.876398
4013.276807,-10140.821405,148.041188,612.876398
4013.277137,-9844.739029,74.020594,459.657299
4013.277467,-9474.636058,148.041188,-536.266849
4013.277797,-9178.553681,0.000000,-229.828649
4013.278126,-9992.780217,0.000000,919.314598
4013.278456,-10732.986159,74.020594,1378.971896
4013.278786,-10288.862594,-148.041188,1072.533697
4013.279116,-9326.594869,-370.102971,306.438199
4013.279446,-9696.697840,-222.061783,536.266849
4013.279776,-9918.759623,0.000000,766.095498
4013.280105,-10362.883188,222.061783,1149.143247
4013.280435,-9696.697840,148.041188,766.095498
4013.280765,-9474.636058,370.102971,459.657299
4013.281095,-9326.594869,148.041188,153.219100
4013.281425,-9548.656652,-370.102971,306.438199
4013.281754,-10066.800811,74.020594,459.657299
4013.282084,-9844.739029,74.020594,306.438199
4013.282414,-9548.656652,222.061783,-383.047749
4013.282744,-8290.306550,0.000000,-919.314598
4013.283074,-8734.430116,222.061783,-842.705048
4013.283403,-9918.759623,518.144159,153.219100
4013.283733,-10658.965565,592.164754,689.485948
4013.284063,-10066.800811,444.123565,459.657299
4013.284393,-9548.656652,74.020594,0.000000
4013.284723,-9770.718434,148.041188,0.000000
4013.285052,-10362.883188,0.000000,0.000000
4013.285382,-10288.862594,-74.020594,153.219100
4013.285712,-9474.636058,-222.061783,76.609550
4013.286042,-9030.512492,0.000000,0.000000
4013.286372,-9030.512492,0.000000,306.438199
4013.286702,-9548.656652,0.000000,1072.533697
4013.287031,-9992.780217,0.000000,689.485948
4013.287361,-10658.965565,370.102971,306.438199
4013.287691,-9992.780217,0.000000,-919.314598
4013.288021,-9178.553681,0.000000,-1608.800546
4013.288351,-9030.512492,-148.041188,-612.876398
4013.288680,-10214.842000,518.144159,842.705048
4013.289010,-10658.965565,148.041188,1302.362347
4013.289340,-9992.780217,0.000000,842.705048
4013.289670,-9252.574275,-592.164754,383.047749
4013.290000,-9992.780217,0.000000,459.657299
4013.290329,-10732.986159,0.000000,842.705048
4013.290659,-10436.903782,0.000000,459.657299
4013.290989,-9474.636058,-222.061783,0.000000
4013.291319,-8808.450710,0.000000,-153.219100
4013.291649,-9326.594869,74.020594,153.219100
4013.291979,-9918.759623,148.041188,766.095498
4013.292308,-10510.924376,74.020594,612.876398
4013.292638,-10584.944971,222.061783,0.000000
4013.292968,-9696.697840,222.061783,-383.047749
4013.293298,-8808.450710,0.000000,-919.314598
4013.293628,-9030.512492,0.000000,-306.438199
4013.293957,-9548.656652,0.000000,766.095498
4013.294287,-10214.842000,296.082377,995.924147
4013.294617,-9770.718434,222.061783,459.657299
4013.294947,-9474.636058,296.082377,0.000000
4013.295277,-9992.780217,148.041188,306.438199
4013.295606,-10436.903782,0.000000,459.657299
4013.295936,-10066.800811,222.061783,0.000000
4013.296266,-9178.553681,-74.020594,-306.438199
4013.296596,-8956.491898,148.041188,229.828649
4013.296926,-9104.533087,0.000000,306.438199
4013.297255,-10140.821405,0.000000,1149.143247
4013.297585,-10881.027347,74.020594,1072.533697
4013.297915,-10510.924376,296.082377,229.828649
4013.298245,-9844.739029,74.020594,-766.095498
4013.298575,-9030.512492,0.000000,-995.924147
4013.298905,-9400.615463,0.000000,76.609550
4013.299234,-10510.924376,740.205942,1072.533697
4013.299564,-10214.842000,222.061783,1072.533697
4013.299894,-9844.739029,74.020594,0.000000
4013.300224,-9326.594869,0.000000,-919.314598
4013.300554,-10066.800811,296.082377,-306.438199
4013.300883,-10510.924376,74.020594,229.828649
4013.301213,-10214.842000,0.000000,229.828649
4013.301543,-8956.491898,-740.205942,612.876398
4013.301873,-8882.471304,-518.144159,766.095498
4013.302203,-9622.677246,0.000000,1072.533697
4013.302532,-10658.965565,-74.020594,536.266849
4013.302862,-10362.883188,-222.061783,842.705048
4013.303192,-9992.780217,74.020594,383.047749
4013.303522,-9326.594869,0.000000,-306.438199
4013.303852,-8734.430116,-222.061783,-306.438199
4013.304182,-9252.574275,0.000000,-76.609550
4013.304511,-9844.739029,0.000000,0.000000
4013.304841,-9992.780217,-74.020594,76.609550
4013.305171,-9474.636058,-74.020594,0.000000
4013.305501,-9178.553681,0.000000,-612.876398
4013.305831,-9400.615463,0.000000,153.219100
4013.306160,-10066.800811,0.000000,306.438199
4013.306490,-10436.903782,222.061783,689.485948
4013.306820,-9844.739029,148.041188,612.876398
4013.307150,-9770.718434,296.082377,536.266849
4013.307480,-9770.718434,0.000000,842.705048
4013.307809,-10140.821405,0.000000,1072.533697
4013.308139,-10881.027347,444.123565,536.266849
4013.308469,-10066.800811,0.000000,0.000000
4013.308799,-9104.533087,-74.020594,-1225.752797
4013.309129,-9030.512492,-222.061783,-842.705048
4013.309459,-9770.718434,148.041188,-229.828649
4013.309788,-10732.986159,740.205942,612.876398
4013.310118,-10362.883188,74.020594,766.095498
4013.310448,-9696.697840,0.000000,612.876398
4013.310778,-9474.636058,-296.082377,76.609550
4013.311108,-9844.739029,-74.020594,306.438199
4013.311437,-10732.986159,-148.041188,766.095498
4013.311767,-10288.862594,0.000000,919.314598
4013.312097,-9474.636058,0.000000,153.219100
4013.312427,-9104.533087,-444.123565,689.485948
4013.312757,-9548.656652,0.000000,1072.533697
4013.313086,-9918.759623,0.000000,689.485948
4013.313416,-10362.883188,444.123565,459.657299
4013.313746,-9696.697840,296.082377,-306.438199
4013.314076,-8882.471304,592.164754,-1915.238745
4013.314406,-8808.450710,222.061783,-919.314598
4013.314735,-9770.718434,0.000000,76.609550
4013.315065,-10362.883188,74.020594,689.485948
4013.315395,-9770.718434,74.020594,536.266849
4013.315725,-9326.594869,0.000000,383.047749
4013.316055,-9474.636058,0.000000,229.828649
4013.316385,-9918.759623,0.000000,383.047749
4013.316714,-10584.944971,740.205942,383.047749
4013.317044,-9548.656652,222.061783,229.828649
4013.317374,-9326.594869,222.061783,536.266849
4013.317704,-9474.636058,148.041188,229.828649
4013.318034,-9918.759623,222.061783,383.047749
4013.318363,-10510.924376,370.102971,0.000000
4013.318693,-10732.986159,592.164754,-76.609550
4013.319023,-10140.821405,0.000000,-612.876398
4013.319353,-9252.574275,0.000000,-842.705048
4013.319683,-8512.368333,0.000000,-612.876398
4013.320012,-9474.636058,148.041188,536.266849
4013.320342,-10436.903782,296.082377,1072.533697
4013.320672,-9992.780217,74.020594,689.485948
4013.321002,-9252.574275,0.000000,153.219100
4013.321332,-9696.697840,-296.082377,-76.609550
4013.321662,-10214.842000,-74.020594,76.609550
4013.321991,-10066.800811,0.000000,383.047749
4013.322321,-9326.594869,0.000000,306.438199
4013.322651,-8882.471304,222.061783,153.219100
4013.322981,-9252.574275,0.000000,-153.219100
4013.323311,-9918.759623,0.000000,689.485948
4013.323640,-10362.883188,222.061783,766.095498
4013.323970,-10214.842000,444.123565,153.219100
4013.324300,-9992.780217,0.000000,-229.828649
4013.324630,-9326.594869,0.000000,-689.485948
4013.324960,-8882.471304,0.000000,-766.095498
4013.325289,-9844.739029,666.185348,-689.485948
4013.325619,-10510.924376,444.123565,842.705048
4013.325949,-10066.800811,296.082377,766.095498
4013.326279,-9548.656652,296.082377,76.609550
4013.326609,-9992.780217,444.123565,76.609550
4013.326939,-10510.924376,0.000000,229.828649
4013.327268,-10436.903782,0.000000,153.219100
4013.327598,-9474.636058,-444.123565,383.047749
4013.327928,-9030.512492,0.000000,306.438199
4013.328258,-8882.471304,0.000000,383.047749
4013.328588,-10288.862594,222.061783,995.924147
4013.328917,-10807.006753,222.061783,612.876398
4013.329247,-11029.068536,370.102971,76.609550
4013.329577,-10066.800811,148.041188,-689.485948
4013.329907,-8882.471304,0.000000,-306.438199
4013.330237,-8734.430116,-370.102971,229.828649
4013.330566,-9326.594869,0.000000,995.924147
4013.330896,-10436.903782,74.020594,1302.362347
4013.331226,-9770.718434,0.000000,766.095498
4013.331556,-9474.636058,-222.061783,0.000000
4013.331886,-9770.718434,222.061783,229.828649
4013.332215,-10066.800811,-370.102971,153.219100
4013.332545,-9770.718434,-222.061783,689.485948
4013.332875,-9178.553681,-518.144159,612.876398
4013.333205,-8882.471304,-222.061783,229.828649
4013.333535,-9474.636058,0.000000,459.657299
4013.333865,-10362.883188,518.144159,536.266849
4013.334194,-10732.986159,148.041188,0.000000
4013.334524,-10288.862594,370.102971,0.000000
4013.334854,-9474.636058,222.061783,-383.047749
4013.335184,-8734.430116,370.102971,76.609550
4013.335514,-9326.594869,-148.041188,76.609550
4013.335843,-10214.842000,74.020594,536.266849
4013.336173,-10807.006753,0.000000,919.314598
4013.336503,-10140.821405,148.041188,383.047749
4013.336833,-9474.636058,0.000000,0.000000
4013.337163,-9622.677246,0.000000,229.828649
4013.337492,-9992.780217,0.000000,229.828649
4013.337822,-10214.842000,74.020594,76.609550
4013.338152,-9548.656652,-148.041188,383.047749
4013.338482,-9548.656652,296.082377,306.438199
4013.338812,-9622.677246,0.000000,459.657299
4013.339142,-10288.862594,296.082377,383.047749
4013.339471,-10436.903782,222.061783,459.657299
4013.339801,-10362.883188,296.082377,0.000000
4013.340131,-9326.594869,222.061783,-766.095498
4013.340461,-8734.430116,0.000000,-689.485948
4013.340791,-9104.533087,0.000000,76.609550
4013.341120,-10140.821405,222.061783,919.314598
4013.341450,-10510.924376,148.041188,919.314598
4013.341780,-9918.759623,148.041188,0.000000
4013.342110,-9474.636058,-592.164754,0.000000
4013.342440,-9696.697840,-370.102971,0.000000
4013.342769,-9992.780217,-74.020594,306.438199
4013.343099,-9474.636058,-222.061783,612.876398
4013.343429,-8956.491898,-222.061783,536.266849
4013.343759,-8586.388927,74.020594,842.705048
4013.344089,-9844.739029,444.123565,229.828649
4013.344418,-10881.027347,518.144159,306.438199
4013.344748,-11251.130318,370.102971,76.609550
4013.345078,-10732.986159,74.020594,-153.219100
4013.345408,-9326.594869,0.000000,-995.924147
4013.345738,-8364.327145,-814.226536,-459.657299
4013.346068,-9178.553681,-444.123565,383.047749
4013.346397,-10214.842000,0.000000,1072.533697
4013.346727,-10584.944971,296.082377,1532.190996
4013.347057,-9844.739029,0.000000,842.705048
4013.347387,-9844.739029,0.000000,536.266849
4013.347717,-9992.780217,0.000000,842.705048
4013.348046,-9622.677246,0.000000,459.657299
4013.348376,-9696.697840,-296.082377,383.047749
4013.348706,-9252.574275,-74.020594,459.657299
4013.349036,-9104.533087,222.061783,229.828649
4013.349366,-9844.739029,444.123565,536.266849
4013.349695,-10584.944971,370.102971,229.828649
4013.350025,-11029.068536,296.082377,-229.828649
4013.350355,-9992.780217,74.020594,-383.047749
4013.350685,-8660.409521,0.000000,-459.657299
4013.351015,-8290.306550,222.061783,-689.485948
4013.351345,-9474.636058,74.020594,229.828649
4013.351674,-10658.965565,444.123565,689.485948
4013.352004,-10362.883188,148.041188,689.485948
4013.352334,-9474.636058,148.041188,-229.828649
4013.352664,-9252.574275,0.000000,-306.438199
4013.352994,-9696.697840,0.000000,459.657299
4013.353323,-9548.656652,0.000000,766.095498
4013.353653,-9474.636058,518.144159,459.657299
4013.353983,-9622.677246,222.061783,536.266849
4013.354313,-9548.656652,74.020594,0.000000
4013.354643,-9770.718434,148.041188,383.047749
4013.354972,-10288.862594,666.185348,459.657299
4013.355302,-10510.924376,148.041188,0.000000
4013.355632,-9770.718434,-148.041188,0.000000
4013.355962,-8660.409521,0.000000,-306.438199
4013.356292,-8586.388927,0.000000,-306.438199
4013.356622,-9844.739029,74.020594,306.438199
4013.356951,-10807.006753,296.082377,1149.143247
4013.357281,-10362.883188,296.082377,919.314598
4013.357611,-9400.615463,-296.082377,0.000000
4013.357941,-8882.471304,0.000000,229.828649
4013.358271,-9548.656652,-592.164754,459.657299
4013.358600,-9770.718434,0.000000,306.438199
4013.358930,-9770.718434,222.061783,689.485948
4013.359260,-9326.594869,296.082377,459.657299
4013.359590,-9992.780217,222.061783,306.438199
4013.359920,-9770.718434,296.082377,536.266849
4013.360249,-10436.903782,74.020594,612.876398
4013.360579,-10881.027347,592.164754,536.266849
4013.360909,-10066.800811,0.000000,0.000000
4013.361239,-9030.512492,0.000000,-766.095498
4013.361569,-8660.409521,0.000000,-306.438199
4013.361898,-9622.677246,222.061783,76.609550
4013.362228,-10881.027347,592.164754,229.828649
4013.362558,-10066.800811,370.102971,153.219100
4013.362888,-9474.636058,370.102971,-766.095498
4013.363218,-9548.656652,0.000000,-689.485948
4013.363548,-9918.759623,222.061783,-153.219100
4013.363877,-10140.821405,-222.061783,459.657299
4013.364207,-9696.697840,0.000000,766.095498
4013.364537,-9252.574275,0.000000,766.095498
4013.364867,-9252.574275,-444.123565,536.266849
4013.365196,-10140.821405,-444.123565,766.095498
4013.365526,-10140.821405,-222.061783,766.095498
4013.365856,-10584.944971,0.000000,919.314598
4013.366186,-9548.656652,0.000000,612.876398
4013.366516,-8512.368333,148.041188,-306.438199
4013.366845,-8956.491898,-222.061783,-229.828649
4013.367175,-10140.821405,222.061783,153.219100
4013.367505,-10732.986159,296.082377,612.876398
4013.367835,-9622.677246,222.061783,-153.219100
4013.368164,-9030.512492,222.061783,-306.438199
4013.368494,-9252.574275,0.000000,0.000000
4013.368824,-10066.800811,148.041188,76.609550
4013.369154,-9844.739029,666.185348,306.438199
4013.369484,-9326.594869,0.000000,153.219100
4013.369813,-9474.636058,444.123565,689.485948
4013.370143,-9844.739029,74.020594,612.876398
4013.370473,-10140.821405,74.020594,536.266849
4013.370803,-10436.903782,74.020594,306.438199
4013.371132,-10658.965565,296.082377,0.000000
4013.371462,-9992.780217,74.020594,-612.876398
4013.371792,-9252.574275,370.102971,-689.485948
4013.372122,-9178.553681,296.082377,-306.438199
4013.372452,-10214.842000,444.123565,383.047749
