#time,accel_x,accel_y,accel_z
3649.353522,-10436.903782,-1036.288319,-2528.115143
3649.353852,-10140.821405,-1258.350101,-2451.505594
3649.354182,-9992.780217,-1258.350101,-2451.505594
3649.354513,-9252.574275,-1258.350101,-2221.676944
3649.354843,-8438.347739,-1628.453072,-2681.334243
3649.355173,-8142.265362,-1480.411884,-2681.334243
3649.355503,-8808.450710,-1258.350101,-1225.752797
3649.355833,-9696.697840,-592.164754,-459.657299
3649.356163,-9992.780217,-666.185348,-76.609550
3649.356493,-9696.697840,-1776.494261,-383.047749
3649.356823,-10955.047942,-962.267725,-1302.362347
3649.357153,-9474.636058,-370.102971,-459.657299
3649.357484,-10658.965565,0.000000,-1072.533697
3649.357814,-10732.986159,-222.061783,-1378.971896
3649.358144,-8660.409521,-222.061783,-1991.848295
3649.358474,-9548.656652,-296.082377,-2834.553343
3649.358804,-10436.903782,-222.061783,-3524.039291
3649.359134,-9992.780217,-148.041188,-2911.162892
3649.359464,-8734.430116,-222.061783,-2757.943793
3649.359794,-8438.347739,-814.226536,-1532.190996
3649.360124,-9474.636058,-1184.329507,-536.266849
3649.360455,-9622.677246,-1036.288319,-76.609550
3649.360785,-10066.800811,-962.267725,-383.047749
3649.361115,-9918.759623,-1110.308913,0.000000
3649.361445,-10214.842000,-1258.350101,153.219100
3649.361775,-10288.862594,-592.164754,229.828649
3649.362105,-10658.965565,-592.164754,-229.828649
3649.362435,-11029.068536,-444.123565,-919.314598
3649.362765,-10732.986159,-518.144159,-1915.238745
3649.363095,-10214.842000,-740.205942,-3064.381992
3649.363426,-9400.615463,-740.205942,-2451.505594
3649.363756,-9030.512492,-1258.350101,-2604.724693
3649.364086,-9474.636058,-1258.350101,-1455.581446
3649.364416,-8956.491898,-1776.494261,-842.705048
3649.364746,-8882.471304,-1184.329507,-612.876398
3649.365076,-9548.656652,-1110.308913,-689.485948
3649.365406,-11177.109724,-962.267725,-1915.238745
3649.365736,-11399.171507,-962.267725,-1838.629195
3649.366066,-10807.006753,-1258.350101,-2068.457845
3649.366396,-10510.924376,-1776.494261,-2451.505594
3649.366727,-9474.636058,-2368.659014,-2451.505594
3649.367057,-9548.656652,-2368.659014,-2221.676944
3649.367387,-9474.636058,-2146.597232,-2145.067394
3649.367717,-8660.409521,-2294.638420,-2451.505594
3649.368047,-8364.327145,-1998.556043,-2451.505594
3649.368377,-8734.430116,-1480.411884,-2145.067394
3649.368707,-9548.656652,-888.247130,-1455.581446
3649.369037,-10732.986159,0.000000,-1532.190996
3649.369367,-11547.212695,0.000000,-2911.162892
3649.369698,-11621.233289,-814.226536,-4979.620737
3649.370028,-11325.150913,-1554.432478,-6358.592633
3649.370358,-10807.006753,-2590.720797,-5975.544884
3649.370688,-9696.697840,-3404.947333,-3753.867940
3649.371018,-8142.265362,-4071.132681,-2145.067394
3649.371348,-6809.894666,-3849.070898,-1608.800546
3649.371678,-6587.832884,-3923.091493,-1991.848295
3649.372008,-7105.977043,-2516.700203,-459.657299
3649.372338,-10066.800811,-1406.391290,76.609550
3649.372669,-12435.459826,-666.185348,76.609550
3649.372999,-13249.686362,-1184.329507,-689.485948
3649.373329,-13397.727550,-2590.720797,-1302.362347
3649.373659,-12583.501014,-3997.112087,-1302.362347
3649.373989,-11103.089130,-5699.585753,-2068.457845
3649.374319,-8808.450710,-6365.771101,-2298.286494
3649.374649,-6217.729913,-6069.688724,-1608.800546
3649.374979,-5699.585753,-4515.256246,-229.828649
3649.375309,-7179.997637,-2886.803174,1378.971896
3649.375640,-9622.677246,-1480.411884,-459.657299
3649.375970,-11177.109724,-1332.370696,-2987.772442
3649.376300,-11251.130318,-2368.659014,-4903.011187
3649.376630,-11547.212695,-4145.153275,-4290.134789
3649.376960,-11621.233289,-5847.626942,-995.924147
3649.377290,-9474.636058,-7031.956449,1762.019645
3649.377620,-7031.956449,-7328.038826,2145.067394
3649.377950,-6661.853478,-6513.812290,536.266849
3649.378280,-7476.080014,-5477.523971,-459.657299
3649.378610,-8660.409521,-4071.132681,306.438199
3649.378939,-9918.759623,-3034.844362,766.095498
3649.379269,-10362.883188,-2442.679609,459.657299
3649.379599,-9400.615463,-3034.844362,306.438199
3649.379929,-8956.491898,-3182.885551,-383.047749
3649.380259,-9252.574275,-2960.823768,-689.485948
3649.380589,-10881.027347,-2368.659014,-995.924147
3649.380919,-11695.253884,-1998.556043,-306.438199
3649.381249,-11103.089130,-2368.659014,383.047749
3649.381579,-11325.150913,-2516.700203,2145.067394
3649.381909,-11621.233289,-1850.514855,3677.258390
3649.382239,-11251.130318,-1850.514855,3370.820191
3649.382568,-9104.533087,-1628.453072,1762.019645
3649.382898,-7698.141797,-740.205942,536.266849
3649.383228,-8364.327145,370.102971,766.095498
3649.383558,-9844.739029,1110.308913,2681.334243
3649.383888,-11177.109724,1332.370696,3600.648841
3649.384218,-12435.459826,1332.370696,2834.553343
3649.384548,-12435.459826,1110.308913,2451.505594
3649.384878,-11621.233289,1036.288319,3064.381992
3649.385208,-11621.233289,1036.288319,1838.629195
3649.385538,-10881.027347,1776.494261,306.438199
3649.385868,-9622.677246,2368.659014,0.000000
3649.386197,-7994.224174,2664.741391,612.876398
3649.386527,-8290.306550,3034.844362,689.485948
3649.386857,-8882.471304,3701.029710,1072.533697
3649.387187,-9844.739029,4219.173869,1072.533697
3649.387517,-9622.677246,4811.338623,-153.219100
3649.387847,-9918.759623,4663.297435,-2068.457845
3649.388177,-9992.780217,4145.153275,-1302.362347
3649.388507,-11177.109724,3701.029710,0.000000
3649.388837,-10510.924376,2812.782580,1455.581446
3649.389167,-8882.471304,2072.576638,383.047749
3649.389497,-7476.080014,2812.782580,0.000000
3649.389826,-7994.224174,3256.906145,-766.095498
3649.390156,-8438.347739,4219.173869,-1608.800546
3649.390486,-8216.285956,4737.318029,-2681.334243
3649.390816,-8882.471304,4885.359217,-2298.286494
3649.391146,-9474.636058,5551.544565,-766.095498
3649.391476,-10955.047942,5033.400406,-459.657299
3649.391806,-10881.027347,4959.379811,-2374.896044
3649.392136,-9770.718434,4589.276840,-4519.963438
3649.392466,-9400.615463,4367.215058,-5745.716235
3649.392796,-10510.924376,4219.173869,-4596.572988
3649.393126,-10955.047942,3849.070898,-2681.334243
3649.393455,-9696.697840,2590.720797,-689.485948
3649.393785,-8586.388927,2294.638420,-306.438199
3649.394115,-8660.409521,1850.514855,1455.581446
3649.394445,-9548.656652,2220.617826,1838.629195
3649.394775,-10214.842000,1702.473667,1072.533697
3649.395105,-11177.109724,1850.514855,153.219100
3649.395435,-10510.924376,1332.370696,306.438199
3649.395765,-10436.903782,518.144159,536.266849
3649.396095,-10658.965565,-518.144159,689.485948
3649.396425,-10214.842000,-1184.329507,1302.362347
3649.396754,-9400.615463,-1776.494261,612.876398
3649.397084,-8068.244768,-2072.576638,-383.047749
3649.397414,-8808.450710,-2146.597232,-76.609550
3649.397744,-9400.615463,-1924.535449,919.314598
3649.398074,-10658.965565,-1332.370696,2681.334243
3649.398404,-10066.800811,-2146.597232,2298.286494
3649.398734,-8438.347739,-3182.885551,1608.800546
3649.399064,-8956.491898,-2886.803174,1762.019645
3649.399394,-11029.068536,-3404.947333,2681.334243
3649.399724,-11769.274478,-3330.926739,2451.505594
3649.400054,-11103.089130,-3923.091493,1302.362347
3649.400383,-9548.656652,-3997.112087,842.705048
3649.400713,-9622.677246,-4145.153275,919.314598
3649.401043,-10140.821405,-3997.112087,1378.971896
3649.401373,-9548.656652,-4219.173869,1532.190996
3649.401703,-8734.430116,-3923.091493,536.266849
3649.402033,-8290.306550,-3775.050304,-689.485948
3649.402363,-8586.388927,-3627.009116,76.609550
3649.402693,-11177.109724,-2664.741391,1225.752797
3649.403023,-11843.295072,-2590.720797,1532.190996
3649.403353,-11251.130318,-2960.823768,1225.752797
3649.403683,-9622.677246,-3256.906145,1455.581446
3649.404012,-10510.924376,-2664.741391,2374.896044
3649.404342,-11547.212695,-1702.473667,1455.581446
3649.404672,-11029.068536,-1332.370696,459.657299
3649.405002,-10436.903782,-814.226536,-383.047749
3649.405332,-9770.718434,-666.185348,-459.657299
3649.405662,-9474.636058,-666.185348,536.266849
3649.405992,-9548.656652,-444.123565,842.705048
3649.406322,-8956.491898,-592.164754,76.609550
3649.406652,-8808.450710,-740.205942,-1378.971896
3649.406982,-9400.615463,-666.185348,-1072.533697
3649.407312,-10658.965565,222.061783,536.266849
3649.407641,-11177.109724,222.061783,1532.190996
3649.407971,-10066.800811,296.082377,1072.533697
3649.408301,-8142.265362,370.102971,919.314598
3649.408631,-8882.471304,1036.288319,1072.533697
3649.408961,-9696.697840,888.247130,0.000000
3649.409291,-9548.656652,1036.288319,-842.705048
3649.409621,-8808.450710,1258.350101,-1608.800546
3649.409951,-8364.327145,1406.391290,-1072.533697
3649.410281,-8068.244768,1776.494261,0.000000
3649.410611,-8882.471304,1776.494261,0.000000
3649.410941,-9178.553681,2294.638420,-1072.533697
3649.411270,-9326.594869,1776.494261,-2068.457845
3649.411600,-8956.491898,1776.494261,-2145.067394
3649.411930,-9696.697840,1850.514855,0.000000
3649.412260,-10066.800811,1998.556043,766.095498
3649.412590,-9474.636058,1554.432478,76.609550
3649.412920,-8142.265362,1406.391290,-766.095498
3649.413250,-7402.059420,2072.576638,-153.219100
3649.413580,-9400.615463,2442.679609,0.000000
3649.413910,-11177.109724,3108.864956,-1072.533697
3649.414240,-10807.006753,2738.761985,-2374.896044
3649.414570,-9992.780217,2812.782580,-1608.800546
3649.414899,-10066.800811,2294.638420,-1072.533697
3649.415229,-11029.068536,2442.679609,0.000000
3649.415559,-10732.986159,1776.494261,-383.047749
3649.415889,-9622.677246,1702.473667,-1991.848295
3649.416219,-9326.594869,1480.411884,-2374.896044
3649.416549,-9992.780217,1628.453072,-229.828649
3649.416879,-11547.212695,1998.556043,1455.581446
3649.417209,-11029.068536,1850.514855,1762.019645
3649.417539,-9548.656652,1332.370696,842.705048
3649.417869,-8660.409521,1480.411884,919.314598
3649.418199,-10510.924376,1702.473667,1149.143247
3649.418528,-11547.212695,1258.350101,306.438199
3649.418858,-10584.944971,1406.391290,-536.266849
3649.419188,-9992.780217,444.123565,-919.314598
3649.419518,-9918.759623,0.000000,919.314598
3649.419848,-10362.883188,-296.082377,2068.457845
3649.420178,-10436.903782,-370.102971,2681.334243
3649.420508,-9474.636058,0.000000,459.657299
3649.420838,-8808.450710,-296.082377,-536.266849
3649.421168,-9474.636058,-148.041188,459.657299
3649.421498,-10658.965565,74.020594,2757.943793
3649.421828,-11103.089130,0.000000,2987.772442
3649.422157,-10288.862594,-666.185348,1532.190996
3649.422487,-9252.574275,-1036.288319,1455.581446
3649.422817,-9844.739029,-1332.370696,2145.067394
3649.423147,-10732.986159,-1036.288319,1532.190996
3649.423477,-10288.862594,-1258.350101,383.047749
3649.423807,-9104.533087,-1702.473667,0.000000
3649.424137,-8956.491898,-1110.308913,612.876398
3649.424467,-9548.656652,-1258.350101,1991.848295
3649.424797,-9992.780217,-814.226536,1838.629195
3649.425127,-9548.656652,-1110.308913,383.047749
3649.425457,-9104.533087,-1258.350101,-1149.143247
3649.425786,-9178.553681,-1406.391290,-459.657299
3649.426116,-10362.883188,-1110.308913,1378.971896
3649.426446,-11177.109724,-888.247130,2145.067394
3649.426776,-10510.924376,-1184.329507,842.705048
3649.427106,-9030.512492,-1406.391290,0.000000
3649.427436,-8808.450710,-1332.370696,383.047749
3649.427766,-9474.636058,-1184.329507,1072.533697
3649.428096,-9918.759623,-1184.329507,0.000000
3649.428426,-9474.636058,-962.267725,-536.266849
3649.428756,-8512.368333,-888.247130,-153.219100
3649.429086,-8808.450710,-1036.288319,153.219100
3649.429415,-9622.677246,-814.226536,1072.533697
3649.429745,-9844.739029,-444.123565,383.047749
3649.430075,-9400.615463,-518.144159,-689.485948
3649.430405,-9400.615463,-592.164754,-1532.190996
3649.430735,-10214.842000,-592.164754,-229.828649
3649.431065,-11103.089130,-148.041188,306.438199
3649.431395,-10584.944971,-444.123565,-153.219100
3649.431725,-9030.512492,-740.205942,-995.924147
3649.432055,-8882.471304,-666.185348,-153.219100
3649.432385,-9474.636058,-148.041188,306.438199
3649.432715,-10214.842000,-74.020594,0.000000
3649.433044,-10140.821405,0.000000,-689.485948
3649.433374,-9696.697840,-74.020594,-1225.752797
3649.433704,-9770.718434,-370.102971,76.609550
3649.434034,-10510.924376,-148.041188,1225.752797
3649.434364,-10362.883188,-296.082377,1072.533697
3649.434694,-9548.656652,-444.123565,-919.314598
3649.435024,-9104.533087,-222.061783,-1838.629195
3649.435354,-9400.615463,-222.061783,-919.314598
3649.435684,-10584.944971,518.144159,459.657299
3649.436014,-10436.903782,518.144159,612.876398
3649.436343,-9474.636058,444.123565,-1149.143247
3649.436673,-8660.409521,296.082377,-459.657299
3649.437003,-9770.718434,444.123565,459.657299
3649.437333,-10881.027347,1036.288319,612.876398
3649.437663,-9844.739029,222.061783,-1149.143247
3649.437993,-9104.533087,740.205942,-1762.019645
3649.438323,-9622.677246,740.205942,-383.047749
3649.438653,-10658.965565,1110.308913,995.924147
3649.438983,-10510.924376,666.185348,1072.533697
3649.439313,-9474.636058,444.123565,0.000000
3649.439643,-8586.388927,518.144159,-842.705048
3649.439972,-9252.574275,740.205942,153.219100
3649.440302,-10362.883188,1036.288319,1302.362347
3649.440632,-10658.965565,1332.370696,1378.971896
3649.440962,-9844.739029,962.267725,153.219100
3649.441292,-9030.512492,740.205942,-383.047749
3649.441622,-8734.430116,518.144159,459.657299
3649.441952,-9696.697840,666.185348,1225.752797
3649.442282,-10288.862594,814.226536,766.095498
3649.442612,-9474.636058,740.205942,-229.828649
3649.442942,-9104.533087,296.082377,612.876398
3649.443272,-9474.636058,666.185348,1685.410096
3649.443601,-10140.821405,1036.288319,2834.553343
3649.443931,-10140.821405,1036.288319,2068.457845
3649.444261,-9770.718434,444.123565,76.609550
3649.444591,-9622.677246,814.226536,-536.266849
3649.444921,-9696.697840,296.082377,766.095498
3649.445251,-10732.986159,814.226536,1838.629195
3649.445581,-10362.883188,740.205942,766.095498
3649.445911,-8956.491898,0.000000,229.828649
3649.446241,-8882.471304,222.061783,383.047749
3649.446571,-9770.718434,148.041188,766.095498
3649.446901,-10510.924376,148.041188,0.000000
3649.447230,-9918.759623,222.061783,-612.876398
3649.447560,-9252.574275,0.000000,76.609550
3649.447890,-9400.615463,-222.061783,1532.190996
3649.448220,-10214.842000,-74.020594,2068.457845
3649.448550,-9918.759623,0.000000,1532.190996
3649.448880,-9326.594869,-444.123565,-383.047749
3649.449210,-9326.594869,-74.020594,-1302.362347
3649.449540,-9992.780217,-370.102971,-383.047749
3649.449870,-11103.089130,0.000000,536.266849
3649.450200,-10807.006753,-222.061783,153.219100
3649.450530,-9030.512492,-962.267725,-842.705048
3649.450859,-8216.285956,-592.164754,-306.438199
3649.451189,-9326.594869,-296.082377,306.438199
3649.451519,-10436.903782,222.061783,0.000000
3649.451849,-10288.862594,148.041188,-383.047749
3649.452179,-9770.718434,0.000000,-76.609550
3649.452509,-10584.944971,-74.020594,842.705048
3649.452839,-11029.068536,0.000000,2221.676944
3649.453169,-10732.986159,-592.164754,1608.800546
3649.453499,-9326.594869,-592.164754,0.000000
3649.453829,-9178.553681,-222.061783,-1532.190996
3649.454159,-9474.636058,0.000000,-383.047749
3649.454488,-10955.047942,518.144159,689.485948
3649.454818,-10955.047942,370.102971,919.314598
3649.455148,-10066.800811,0.000000,-229.828649
3649.455478,-9622.677246,-444.123565,-689.485948
3649.455808,-9770.718434,74.020594,842.705048
3649.456138,-10066.800811,-296.082377,766.095498
3649.456468,-10362.883188,296.082377,0.000000
3649.456798,-9548.656652,-148.041188,-612.876398
3649.457128,-9252.574275,296.082377,536.266849
3649.457458,-9622.677246,74.020594,1532.190996
3649.457788,-9992.780217,0.000000,1455.581446
3649.458117,-10066.800811,222.061783,612.876398
3649.458447,-9252.574275,0.000000,-306.438199
3649.458777,-9252.574275,0.000000,-306.438199
3649.459107,-9918.759623,296.082377,0.000000
3649.459437,-10436.903782,518.144159,536.266849
3649.459767,-9696.697840,148.041188,-383.047749
3649.460097,-8512.368333,0.000000,-689.485948
3649.460427,-8734.430116,222.061783,229.828649
3649.460757,-9770.718434,296.082377,766.095498
3649.461087,-10140.821405,74.020594,-689.485948
3649.461417,-9548.656652,518.144159,-1991.848295
3649.461746,-9252.574275,222.061783,-919.314598
3649.462076,-9252.574275,148.041188,612.876398
3649.462406,-9548.656652,148.041188,1762.019645
3649.462736,-9474.636058,888.247130,383.047749
3649.463066,-9474.636058,74.020594,-536.266849
3649.463396,-9844.739029,296.082377,-1072.533697
3649.463726,-10658.965565,222.061783,0.000000
3649.464056,-10955.047942,518.144159,689.485948
3649.464386,-10288.862594,222.061783,153.219100
3649.464716,-8808.450710,-222.061783,-536.266849
3649.465046,-8364.327145,0.000000,-459.657299
3649.465375,-9474.636058,222.061783,76.609550
3649.465705,-10140.821405,370.102971,-1072.533697
3649.466035,-10584.944971,148.041188,-1225.752797
3649.466365,-9844.739029,0.000000,-459.657299
3649.466695,-9622.677246,-370.102971,919.314598
3649.467025,-9770.718434,-296.082377,1149.143247
3649.467355,-9548.656652,-666.185348,2068.457845
3649.467685,-9622.677246,-222.061783,766.095498
3649.468015,-10066.800811,-74.020594,-766.095498
3649.468345,-10066.800811,0.000000,-536.266849
3649.468675,-10955.047942,74.020594,536.266849
3649.469004,-11399.171507,0.000000,612.876398
3649.469334,-9918.759623,-444.123565,-306.438199
3649.469664,-8734.430116,-666.185348,-383.047749
3649.469994,-8512.368333,-666.185348,-459.657299
3649.470324,-9474.636058,-222.061783,-612.876398
3649.470654,-9918.759623,-592.164754,-1378.971896
3649.470984,-10066.800811,-74.020594,-842.705048
3649.471314,-9622.677246,-444.123565,612.876398
3649.471644,-9992.780217,-1184.329507,1225.752797
3649.471974,-9844.739029,-1110.308913,2145.067394
3649.472303,-9844.739029,-888.247130,1225.752797
3649.472633,-9178.553681,-666.185348,0.000000
3649.472963,-9252.574275,-518.144159,0.000000
3649.473293,-10214.842000,74.020594,919.314598
3649.473623,-10881.027347,296.082377,1302.362347
3649.473953,-10658.965565,0.000000,306.438199
3649.474283,-9178.553681,0.000000,-229.828649
3649.474613,-9178.553681,-74.020594,0.000000
3649.474943,-9548.656652,74.020594,0.000000
3649.475273,-10066.800811,222.061783,-306.438199
3649.475603,-9104.533087,74.020594,-153.219100
3649.475932,-8956.491898,518.144159,383.047749
3649.476261,-9622.677246,518.144159,1685.410096
3649.476590,-10140.821405,296.082377,2604.724693
3649.476920,-9992.780217,518.144159,2145.067394
3649.477250,-10140.821405,518.144159,612.876398
3649.477579,-9622.677246,518.144159,-153.219100
3649.477909,-10288.862594,962.267725,1149.143247
3649.478239,-11029.068536,1036.288319,1838.629195
3649.478569,-10732.986159,814.226536,1455.581446
3649.478898,-9326.594869,666.185348,153.219100
3649.479228,-8808.450710,518.144159,0.000000
3649.479558,-9474.636058,962.267725,0.000000
3649.479887,-10288.862594,1036.288319,-766.095498
3649.480217,-9918.759623,740.205942,-1149.143247
3649.480547,-9252.574275,592.164754,-919.314598
3649.480877,-8956.491898,666.185348,383.047749
3649.481206,-9104.533087,370.102971,2374.896044
3649.481536,-9844.739029,592.164754,1991.848295
3649.481866,-10140.821405,814.226536,383.047749
3649.482196,-9770.718434,814.226536,-689.485948
3649.482525,-9992.780217,592.164754,-306.438199
3649.482855,-10436.903782,740.205942,689.485948
3649.483185,-10658.965565,1036.288319,536.266849
3649.483514,-8956.491898,370.102971,153.219100
3649.483844,-8216.285956,740.205942,-459.657299
3649.484174,-8660.409521,740.205942,-1302.362347
3649.484504,-10584.944971,1184.329507,-1532.190996
3649.484833,-11103.089130,814.226536,-2374.896044
3649.485163,-10436.903782,518.144159,-1762.019645
3649.485493,-8956.491898,74.020594,-536.266849
3649.485822,-9326.594869,-370.102971,1608.800546
3649.486152,-9474.636058,-74.020594,2068.457845
3649.486482,-9400.615463,0.000000,919.314598
3649.486812,-9696.697840,0.000000,-766.095498
3649.487141,-10140.821405,148.041188,-536.266849
3649.487471,-11473.192101,518.144159,612.876398
3649.487801,-11621.233289,0.000000,1302.362347
3649.488131,-10288.862594,-814.226536,536.266849
3649.488460,-8956.491898,-1036.288319,-153.219100
3649.488790,-8586.388927,-1036.288319,-689.485948
3649.489120,-9474.636058,-740.205942,-1149.143247
3649.489449,-9622.677246,-962.267725,-1225.752797
3649.489779,-9326.594869,-666.185348,-1302.362347
3649.490109,-9030.512492,-740.205942,-76.609550
3649.490439,-9622.677246,-1036.288319,1225.752797
3649.490768,-10066.800811,-962.267725,1838.629195
3649.491098,-9770.718434,-1110.308913,919.314598
3649.491428,-9992.780217,-962.267725,-153.219100
3649.491757,-9918.759623,-1036.288319,-612.876398
3649.492087,-10214.842000,-814.226536,766.095498
3649.492417,-10955.047942,-518.144159,1302.362347
3649.492747,-10288.862594,-740.205942,919.314598
3649.493076,-9178.553681,-888.247130,-459.657299
3649.493406,-8586.388927,-888.247130,-919.314598
3649.493736,-9178.553681,-444.123565,-995.924147
3649.494065,-10066.800811,0.000000,-1532.190996
3649.494395,-10066.800811,-592.164754,-1991.848295
3649.494725,-9474.636058,-814.226536,-1532.190996
3649.495055,-9252.574275,-1110.308913,536.266849
3649.495384,-9252.574275,-1480.411884,2145.067394
3649.495714,-9178.553681,-1258.350101,2298.286494
3649.496044,-9622.677246,-740.205942,1762.019645
3649.496374,-9622.677246,-370.102971,766.095498
3649.496703,-10140.821405,0.000000,1608.800546
3649.497033,-11473.192101,-74.020594,2374.896044
3649.497363,-11103.089130,0.000000,1378.971896
3649.497692,-9548.656652,0.000000,306.438199
3649.498022,-8438.347739,148.041188,-153.219100
3649.498352,-9104.533087,222.061783,-229.828649
3649.498682,-10288.862594,814.226536,-919.314598
3649.499011,-10584.944971,666.185348,-1762.019645
3649.499341,-9696.697840,296.082377,-766.095498
3649.499671,-9178.553681,74.020594,229.828649
3649.500000,-9104.533087,-296.082377,2604.724693
3649.500330,-9474.636058,222.061783,2757.943793
3649.500660,-9326.594869,0.000000,1225.752797
3649.500990,-9400.615463,444.123565,153.219100
3649.501319,-10436.903782,740.205942,1225.752797
3649.501649,-11325.150913,888.247130,2451.505594
3649.501979,-11695.253884,1036.288319,2681.334243
3649.502309,-9844.739029,888.247130,1225.752797
3649.502638,-8660.409521,444.123565,383.047749
3649.502968,-8882.471304,740.205942,-766.095498
3649.503298,-10288.862594,740.205942,-1149.143247
3649.503627,-10510.924376,814.226536,-1532.190996
3649.503957,-9622.677246,740.205942,-1455.581446
3649.504287,-9400.615463,518.144159,0.000000
3649.504617,-8956.491898,222.061783,842.705048
3649.504946,-9104.533087,222.061783,1378.971896
3649.505276,-9178.553681,592.164754,689.485948
3649.505606,-9326.594869,888.247130,-76.609550
3649.505935,-9548.656652,962.267725,-383.047749
3649.506265,-10807.006753,888.247130,766.095498
3649.506595,-11621.233289,1184.329507,1302.362347
3649.506925,-10807.006753,370.102971,1149.143247
3649.507254,-9326.594869,444.123565,-766.095498
3649.507584,-8734.430116,444.123565,-1072.533697
3649.507914,-9844.739029,814.226536,-919.314598
3649.508244,-10658.965565,814.226536,-1149.143247
3649.508573,-10140.821405,592.164754,-1532.190996
3649.508903,-9178.553681,518.144159,-1072.533697
3649.509233,-9400.615463,0.000000,306.438199
3649.509562,-9474.636058,0.000000,1991.848295
3649.509892,-9918.759623,-74.020594,1532.190996
3649.510222,-10066.800811,0.000000,383.047749
3649.510552,-9622.677246,-222.061783,229.828649
3649.510881,-10436.903782,0.000000,1685.410096
3649.511211,-11177.109724,0.000000,2451.505594
3649.511541,-10881.027347,0.000000,1378.971896
3649.511870,-9770.718434,-296.082377,0.000000
3649.512200,-9030.512492,-370.102971,-612.876398
3649.512530,-9474.636058,-296.082377,-766.095498
3649.512860,-10214.842000,0.000000,-1378.971896
3649.513189,-10214.842000,-370.102971,-2298.286494
3649.513519,-9326.594869,-296.082377,-1608.800546
3649.513849,-9326.594869,-74.020594,-229.828649
3649.514179,-9474.636058,-814.226536,1685.410096
3649.514508,-9696.697840,-888.247130,1762.019645
3649.514838,-9326.594869,-1110.308913,229.828649
3649.515168,-9178.553681,-666.185348,-612.876398
3649.515497,-9696.697840,-740.205942,919.314598
3649.515827,-10955.047942,-370.102971,1991.848295
3649.516157,-10881.027347,-814.226536,1608.800546
3649.516487,-9622.677246,-1110.308913,229.828649
3649.516816,-8512.368333,-740.205942,76.609550
3649.517146,-8956.491898,-1036.288319,-766.095498
3649.517476,-9918.759623,-296.082377,-1685.410096
3649.517805,-9918.759623,-148.041188,-1915.238745
3649.518135,-9548.656652,-74.020594,-2068.457845
3649.518465,-9474.636058,-296.082377,-1225.752797
3649.518795,-9622.677246,-592.164754,459.657299
3649.519124,-9696.697840,-518.144159,1608.800546
3649.519454,-9474.636058,-518.144159,536.266849
3649.519784,-9400.615463,-518.144159,-76.609550
3649.520114,-9548.656652,-592.164754,459.657299
3649.520443,-10658.965565,-74.020594,2145.067394
3649.520773,-11103.089130,0.000000,2528.115143
3649.521103,-10732.986159,0.000000,2068.457845
3649.521432,-9326.594869,0.000000,919.314598
3649.521762,-9252.574275,0.000000,459.657299
3649.522092,-10658.965565,370.102971,383.047749
3649.522422,-10807.006753,518.144159,-612.876398
3649.522751,-10288.862594,296.082377,-995.924147
3649.523081,-9474.636058,0.000000,-612.876398
3649.523411,-8882.471304,-666.185348,612.876398
3649.523740,-9252.574275,-370.102971,2145.067394
3649.524070,-9030.512492,-74.020594,1991.848295
3649.524400,-9474.636058,370.102971,689.485948
3649.524730,-9622.677246,74.020594,919.314598
3649.525059,-10436.903782,222.061783,2145.067394
3649.525389,-10807.006753,740.205942,3064.381992
3649.525719,-10807.006753,444.123565,2145.067394
3649.526049,-9474.636058,370.102971,766.095498
3649.526378,-8808.450710,370.102971,-459.657299
3649.526708,-9918.759623,962.267725,-995.924147
3649.527038,-10436.903782,1036.288319,-1685.410096
3649.527367,-10066.800811,888.247130,-2145.067394
3649.527697,-9326.594869,814.226536,-1302.362347
3649.528027,-9178.553681,962.267725,-459.657299
3649.528357,-9030.512492,370.102971,536.266849
3649.528686,-9548.656652,518.144159,536.266849
3649.529016,-9400.615463,666.185348,-689.485948
3649.529346,-9178.553681,888.247130,-1225.752797
3649.529675,-9844.739029,888.247130,689.485948
3649.530005,-11547.212695,1184.329507,2221.676944
3649.530335,-11103.089130,740.205942,1762.019645
3649.530665,-9844.739029,592.164754,306.438199
3649.530994,-9104.533087,592.164754,76.609550
3649.531324,-9252.574275,740.205942,0.000000
3649.531654,-10362.883188,1332.370696,-766.095498
3649.531984,-10214.842000,962.267725,-1685.410096
3649.532313,-9326.594869,962.267725,-1915.238745
3649.532643,-9030.512492,888.247130,-842.705048
3649.532973,-9770.718434,666.185348,153.219100
3649.533302,-9622.677246,148.041188,612.876398
3649.533632,-9326.594869,296.082377,0.000000
3649.533962,-8956.491898,296.082377,-536.266849
3649.534292,-9622.677246,74.020594,459.657299
3649.534621,-11177.109724,0.000000,2298.286494
3649.534951,-11695.253884,74.020594,2604.724693
3649.535281,-10436.903782,74.020594,1532.190996
3649.535610,-8586.388927,-666.185348,383.047749
3649.535940,-8808.450710,-296.082377,383.047749
3649.536270,-9918.759623,0.000000,-153.219100
3649.536600,-10584.944971,74.020594,-1149.143247
3649.536929,-9770.718434,-148.041188,-2221.676944
3649.537259,-9104.533087,-444.123565,-1915.238745
3649.537589,-9030.512492,-666.185348,0.000000
3649.537919,-9326.594869,-888.247130,1378.971896
3649.538248,-9252.574275,-666.185348,536.266849
3649.538578,-9252.574275,-1036.288319,-76.609550
3649.538908,-9622.677246,-740.205942,-229.828649
3649.539237,-10584.944971,-666.185348,1532.190996
3649.539567,-11325.150913,-222.061783,2528.115143
3649.539897,-10955.047942,-888.247130,1532.190996
3649.540227,-9252.574275,-1110.308913,459.657299
3649.540556,-8586.388927,-962.267725,0.000000
3649.540886,-9918.759623,-444.123565,153.219100
3649.541216,-10584.944971,-148.041188,-1302.362347
3649.541545,-10066.800811,-444.123565,-1915.238745
3649.541875,-9030.512492,-370.102971,-1762.019645
3649.542205,-9030.512492,-1110.308913,-306.438199
3649.542535,-9400.615463,-1258.350101,1378.971896
3649.542864,-9326.594869,-1406.391290,1149.143247
3649.543194,-8956.491898,-1184.329507,153.219100
3649.543524,-9030.512492,-1184.329507,0.000000
3649.543854,-9548.656652,-444.123565,1378.971896
3649.544183,-10807.006753,0.000000,2987.772442
3649.544513,-11399.171507,296.082377,2528.115143
3649.544843,-10436.903782,0.000000,1149.143247
3649.545172,-9696.697840,444.123565,459.657299
3649.545502,-10066.800811,222.061783,0.000000
3649.545832,-10436.903782,296.082377,-612.876398
3649.546162,-9918.759623,296.082377,-1225.752797
3649.546491,-9104.533087,370.102971,-1378.971896
3649.546821,-9104.533087,148.041188,0.000000
3649.547151,-9622.677246,222.061783,1455.581446
3649.547480,-9992.780217,370.102971,2374.896044
3649.547810,-9844.739029,296.082377,612.876398
3649.548140,-9326.594869,370.102971,229.828649
3649.548470,-9844.739029,370.102971,1455.581446
3649.548799,-11251.130318,666.185348,3600.648841
3649.549129,-11621.233289,592.164754,3370.820191
3649.549459,-10288.862594,592.164754,1685.410096
3649.549789,-8808.450710,148.041188,-306.438199
3649.550118,-8660.409521,740.205942,-766.095498
3649.550448,-10066.800811,1258.350101,-383.047749
3649.550778,-10214.842000,1702.473667,-1532.190996
3649.551107,-9474.636058,814.226536,-2451.505594
3649.551437,-8808.450710,814.226536,-2221.676944
3649.551767,-8808.450710,666.185348,-842.705048
3649.552097,-9252.574275,518.144159,229.828649
3649.552426,-9400.615463,444.123565,153.219100
3649.552756,-9178.553681,296.082377,-76.609550
3649.553086,-9474.636058,444.123565,0.000000
3649.553415,-10658.965565,592.164754,1991.848295
3649.553745,-10955.047942,740.205942,1991.848295
3649.554075,-10140.821405,296.082377,995.924147
3649.554405,-8956.491898,296.082377,-229.828649
3649.554734,-8882.471304,666.185348,0.000000
3649.555064,-9622.677246,666.185348,-306.438199
3649.555394,-10436.903782,1036.288319,-1302.362347
3649.555724,-10140.821405,1184.329507,-2145.067394
3649.556053,-9326.594869,888.247130,-2604.724693
3649.556383,-9844.739029,666.185348,-1302.362347
3649.556713,-9918.759623,518.144159,383.047749
3649.557042,-9548.656652,-74.020594,229.828649
3649.557372,-9030.512492,-74.020594,-383.047749
3649.557702,-9030.512492,-370.102971,0.000000
3649.558032,-10214.842000,74.020594,2221.676944
3649.558361,-11029.068536,296.082377,3217.601092
3649.558691,-11103.089130,148.041188,2374.896044
3649.559021,-10066.800811,-444.123565,1455.581446
3649.559350,-9474.636058,-518.144159,1762.019645
3649.559680,-10214.842000,-222.061783,1225.752797
3649.560010,-10955.047942,0.000000,0.000000
3649.560340,-10066.800811,-222.061783,-1838.629195
3649.560669,-9178.553681,-666.185348,-2068.457845
3649.560999,-9030.512492,-666.185348,-842.705048
3649.561329,-9474.636058,-1036.288319,459.657299
3649.561658,-10140.821405,-666.185348,1378.971896
3649.561988,-9474.636058,-814.226536,153.219100
3649.562318,-8364.327145,-1184.329507,-459.657299
3649.562648,-9104.533087,-1036.288319,766.095498
3649.562977,-10807.006753,-444.123565,2528.115143
3649.563307,-11103.089130,-962.267725,2451.505594
3649.563637,-10066.800811,-1036.288319,1302.362347
3649.563967,-8956.491898,-1184.329507,1225.752797
3649.564296,-9622.677246,-814.226536,995.924147
3649.564626,-11177.109724,0.000000,-229.828649
3649.564956,-10732.986159,0.000000,-1455.581446
3649.565285,-9326.594869,-370.102971,-2604.724693
3649.565615,-8216.285956,-592.164754,-2221.676944
3649.565945,-8956.491898,-518.144159,-383.047749
3649.566275,-9474.636058,-370.102971,995.924147
3649.566604,-9104.533087,-666.185348,0.000000
3649.566934,-8882.471304,-888.247130,-1072.533697
3649.567264,-9326.594869,-370.102971,-459.657299
3649.567593,-10732.986159,0.000000,2604.724693
3649.567923,-11473.192101,0.000000,2834.553343
3649.568253,-10436.903782,0.000000,1838.629195
3649.568583,-9252.574275,-148.041188,1149.143247
3649.568912,-9474.636058,148.041188,1149.143247
3649.569242,-10214.842000,518.144159,76.609550
3649.569572,-10658.965565,444.123565,-995.924147
3649.569902,-9622.677246,518.144159,-1608.800546
3649.570231,-9030.512492,592.164754,-995.924147
3649.570561,-9326.594869,370.102971,76.609550
3649.570891,-9548.656652,370.102971,919.314598
3649.571220,-9548.656652,444.123565,306.438199
3649.571550,-9104.533087,592.164754,-1149.143247
3649.571880,-9326.594869,444.123565,-612.876398
3649.572210,-10288.862594,444.123565,2298.286494
3649.572539,-11325.150913,814.226536,3140.991542
3649.572869,-10881.027347,518.144159,1915.238745
3649.573199,-9252.574275,0.000000,995.924147
3649.573528,-8586.388927,74.020594,536.266849
3649.573858,-9770.718434,666.185348,766.095498
3649.574188,-10807.006753,1110.308913,-306.438199
3649.574518,-9918.759623,888.247130,-1685.410096
3649.574847,-9326.594869,814.226536,-2068.457845
3649.575177,-9326.594869,148.041188,-995.924147
3649.575507,-9548.656652,296.082377,766.095498
3649.575837,-9474.636058,518.144159,153.219100
3649.576166,-8660.409521,296.082377,-1225.752797
3649.576496,-8364.327145,148.041188,-1685.410096
3649.576826,-9770.718434,814.226536,0.000000
3649.577155,-11621.233289,1184.329507,1991.848295
3649.577485,-11473.192101,592.164754,1378.971896
3649.577815,-9622.677246,0.000000,459.657299
3649.578145,-8808.450710,518.144159,612.876398
3649.578474,-9696.697840,592.164754,1149.143247
3649.578804,-10955.047942,814.226536,76.609550
3649.579134,-10510.924376,740.205942,-1302.362347
3649.579464,-9622.677246,740.205942,-2681.334243
3649.579793,-9400.615463,444.123565,-919.314598
3649.580123,-10362.883188,222.061783,383.047749
3649.580453,-10288.862594,0.000000,919.314598
3649.580783,-9104.533087,-74.020594,-459.657299
3649.581112,-8512.368333,-370.102971,-2374.896044
3649.581442,-8956.491898,74.020594,-306.438199
3649.581772,-10436.903782,148.041188,2145.067394
3649.582102,-10955.047942,592.164754,2451.505594
3649.582432,-9770.718434,0.000000,995.924147
3649.582761,-9400.615463,0.000000,919.314598
3649.583091,-10140.821405,0.000000,1149.143247
3649.583421,-11029.068536,0.000000,995.924147
3649.583751,-10881.027347,0.000000,-536.266849
3649.584080,-9474.636058,-222.061783,-1991.848295
3649.584410,-8734.430116,-370.102971,-1149.143247
3649.584740,-9104.533087,-370.102971,842.705048
3649.585070,-9474.636058,-296.082377,1149.143247
3649.585399,-9548.656652,-370.102971,0.000000
3649.585729,-8734.430116,-740.205942,-1838.629195
3649.586059,-8808.450710,-592.164754,-612.876398
3649.586389,-10288.862594,-370.102971,1532.190996
3649.586718,-10732.986159,-592.164754,2374.896044
3649.587048,-10214.842000,-666.185348,1225.752797
3649.587378,-8956.491898,-1036.288319,689.485948
3649.587708,-9178.553681,-666.185348,1149.143247
3649.588038,-10140.821405,-592.164754,1378.971896
3649.588367,-10807.006753,-444.123565,-306.438199
3649.588697,-9844.739029,-518.144159,-1532.190996
3649.589027,-9178.553681,-444.123565,-1608.800546
3649.589357,-9474.636058,-296.082377,0.000000
3649.589686,-9474.636058,-296.082377,766.095498
3649.590016,-9178.553681,-148.041188,306.438199
3649.590346,-8660.409521,-296.082377,-1378.971896
3649.590676,-8808.450710,0.000000,-1838.629195
3649.591005,-10066.800811,0.000000,536.266849
3649.591335,-11769.274478,444.123565,2374.896044
3649.591665,-10955.047942,-74.020594,2068.457845
3649.591995,-8956.491898,-740.205942,1225.752797
3649.592324,-7994.224174,-296.082377,919.314598
3649.592654,-9844.739029,148.041188,1455.581446
3649.592984,-10807.006753,444.123565,536.266849
3649.593314,-10436.903782,518.144159,-842.705048
3649.593643,-9844.739029,666.185348,-1149.143247
3649.593973,-9770.718434,370.102971,306.438199
3649.594303,-10436.903782,296.082377,1762.019645
3649.594633,-9918.759623,148.041188,995.924147
3649.594963,-8956.491898,148.041188,-995.924147
3649.595292,-8586.388927,222.061783,-1915.238745
3649.595622,-9622.677246,666.185348,0.000000
3649.595952,-11177.109724,592.164754,2068.457845
3649.596282,-11103.089130,444.123565,1915.238745
3649.596611,-9474.636058,0.000000,919.314598
3649.596941,-8808.450710,148.041188,919.314598
3649.597271,-9696.697840,444.123565,1149.143247
3649.597601,-11029.068536,962.267725,842.705048
3649.597930,-10510.924376,814.226536,-842.705048
3649.598260,-9992.780217,592.164754,-1302.362347
3649.598590,-9622.677246,370.102971,-919.314598
3649.598920,-9400.615463,296.082377,766.095498
3649.599249,-9474.636058,296.082377,1225.752797
3649.599579,-8734.430116,370.102971,-459.657299
3649.599909,-8364.327145,370.102971,-2298.286494
3649.600239,-8882.471304,666.185348,-995.924147
3649.600569,-10362.883188,888.247130,689.485948
3649.600898,-11029.068536,666.185348,1762.019645
3649.601228,-9992.780217,444.123565,1225.752797
3649.601558,-8512.368333,-296.082377,612.876398
3649.601888,-8882.471304,444.123565,995.924147
3649.602217,-10140.821405,518.144159,1302.362347
3649.602547,-11547.212695,740.205942,-383.047749
3649.602877,-10584.944971,814.226536,-1532.190996
3649.603207,-9548.656652,370.102971,-1225.752797
3649.603536,-9474.636058,74.020594,919.314598
3649.603866,-10066.800811,222.061783,1455.581446
3649.604196,-9474.636058,222.061783,0.000000
3649.604526,-8586.388927,222.061783,-2221.676944
3649.604855,-8956.491898,444.123565,-2451.505594
3649.605185,-10510.924376,296.082377,0.000000
3649.605515,-11695.253884,370.102971,1685.410096
3649.605845,-11103.089130,0.000000,1149.143247
3649.606174,-9252.574275,-666.185348,229.828649
3649.606504,-8364.327145,-666.185348,1685.410096
3649.606834,-9918.759623,-74.020594,766.095498
3649.607164,-11177.109724,0.000000,76.609550
3649.607494,-10584.944971,0.000000,-766.095498
3649.607823,-9474.636058,-370.102971,-459.657299
3649.608153,-9770.718434,-518.144159,536.266849
3649.608483,-10140.821405,-666.185348,842.705048
3649.608813,-9622.677246,-888.247130,76.609550
3649.609142,-8512.368333,-1036.288319,-1608.800546
3649.609472,-7624.121203,-1036.288319,-2681.334243
3649.609802,-9252.574275,-740.205942,-459.657299
3649.610132,-11029.068536,-222.061783,1378.971896
3649.610461,-11399.171507,-666.185348,1608.800546
3649.610791,-10214.842000,-1184.329507,1072.533697
3649.611121,-9326.594869,-1628.453072,919.314598
3649.611451,-9474.636058,-1702.473667,1608.800546
3649.611780,-10066.800811,-1036.288319,689.485948
3649.612110,-10140.821405,-814.226536,-383.047749
3649.612440,-9178.553681,-592.164754,-1302.362347
3649.612770,-9252.574275,-888.247130,-459.657299
3649.613100,-9992.780217,-592.164754,919.314598
3649.613429,-10436.903782,-740.205942,995.924147
3649.613759,-9326.594869,-888.247130,-612.876398
3649.614089,-8290.306550,-814.226536,-2068.457845
3649.614419,-8956.491898,-518.144159,-689.485948
3649.614748,-10436.903782,-148.041188,1608.800546
3649.615078,-11399.171507,0.000000,1915.238745
3649.615408,-10066.800811,0.000000,1455.581446
3649.615738,-9030.512492,-518.144159,689.485948
3649.616067,-9252.574275,0.000000,1225.752797
3649.616397,-10584.944971,222.061783,1225.752797
3649.616727,-10955.047942,666.185348,0.000000
3649.617057,-10362.883188,592.164754,-459.657299
3649.617386,-9844.739029,444.123565,0.000000
3649.617716,-9918.759623,296.082377,1378.971896
3649.618046,-10140.821405,666.185348,2145.067394
3649.618376,-9400.615463,296.082377,612.876398
3649.618706,-9326.594869,296.082377,-1532.190996
3649.619035,-9104.533087,222.061783,-1072.533697
3649.619365,-10288.862594,444.123565,1225.752797
3649.619695,-11103.089130,740.205942,2757.943793
3649.620025,-10066.800811,518.144159,1991.848295
3649.620354,-8808.450710,296.082377,995.924147
3649.620684,-8512.368333,740.205942,689.485948
3649.621014,-9770.718434,962.267725,612.876398
3649.621344,-10881.027347,1110.308913,-459.657299
3649.621673,-10436.903782,888.247130,-1149.143247
3649.622003,-9474.636058,666.185348,-1072.533697
3649.622333,-9474.636058,444.123565,306.438199
3649.622663,-9770.718434,592.164754,1608.800546
3649.622992,-9622.677246,148.041188,383.047749
3649.623322,-8660.409521,148.041188,-1685.410096
3649.623652,-8364.327145,296.082377,-1762.019645
3649.623982,-9326.594869,740.205942,612.876398
3649.624311,-10510.924376,1184.329507,2068.457845
3649.624641,-10658.965565,962.267725,1455.581446
3649.624971,-9474.636058,740.205942,0.000000
3649.625301,-8956.491898,518.144159,76.609550
3649.625631,-10066.800811,444.123565,1149.143247
3649.625960,-10732.986159,222.061783,153.219100
3649.626290,-10214.842000,444.123565,-1225.752797
3649.626620,-9326.594869,222.061783,-1532.190996
3649.626950,-9474.636058,74.020594,-612.876398
3649.627279,-9770.718434,74.020594,766.095498
3649.627609,-9622.677246,222.061783,919.314598
3649.627939,-9178.553681,296.082377,-689.485948
3649.628269,-9030.512492,74.020594,-1608.800546
3649.628598,-9622.677246,222.061783,-459.657299
3649.628928,-11251.130318,518.144159,1072.533697
3649.629258,-11473.192101,222.061783,1302.362347
3649.629588,-9992.780217,-592.164754,1225.752797
3649.629917,-8586.388927,-370.102971,459.657299
3649.630247,-9474.636058,0.000000,1225.752797
3649.630577,-10955.047942,0.000000,766.095498
3649.630907,-10658.965565,-370.102971,-229.828649
3649.631237,-10066.800811,0.000000,-1455.581446
3649.631566,-9696.697840,-74.020594,-536.266849
3649.631896,-9548.656652,-518.144159,612.876398
3649.632226,-9770.718434,-444.123565,995.924147
3649.632556,-9252.574275,-444.123565,-76.609550
3649.632885,-8882.471304,-666.185348,-2298.286494
3649.633215,-9178.553681,-666.185348,-1378.971896
3649.633545,-10362.883188,-444.123565,919.314598
3649.633875,-10881.027347,-444.123565,2451.505594
3649.634204,-9770.718434,-666.185348,1608.800546
3649.634534,-8364.327145,-1110.308913,689.485948
3649.634864,-8808.450710,-740.205942,612.876398
3649.635194,-10362.883188,-814.226536,229.828649
3649.635523,-10807.006753,-592.164754,-1149.143247
3649.635853,-10066.800811,-370.102971,-1149.143247
3649.636183,-9326.594869,-666.185348,-459.657299
3649.636513,-9178.553681,-518.144159,1072.533697
3649.636843,-9030.512492,-814.226536,1302.362347
3649.637172,-9474.636058,-222.061783,0.000000
3649.637502,-9178.553681,-518.144159,-1608.800546
3649.637832,-9178.553681,-296.082377,-1532.190996
3649.638162,-9992.780217,-148.041188,1378.971896
3649.638491,-11103.089130,296.082377,2911.162892
3649.638821,-10510.924376,74.020594,1991.848295
3649.639151,-9252.574275,-592.164754,689.485948
3649.639481,-8808.450710,-814.226536,1455.581446
3649.639810,-10066.800811,370.102971,1225.752797
3649.640140,-11251.130318,888.247130,612.876398
3649.640470,-10436.903782,814.226536,-383.047749
3649.640800,-9548.656652,666.185348,-459.657299
3649.641129,-9474.636058,222.061783,536.266849
3649.641459,-10436.903782,296.082377,1532.190996
3649.641789,-9918.759623,222.061783,1455.581446
3649.642119,-9474.636058,148.041188,-536.266849
3649.642448,-8660.409521,0.000000,-919.314598
3649.642778,-9622.677246,74.020594,842.705048
3649.643108,-11029.068536,740.205942,2681.334243
3649.643438,-10658.965565,444.123565,2221.676944
3649.643768,-9104.533087,-444.123565,1302.362347
3649.644097,-8956.491898,0.000000,1532.190996
3649.644427,-9918.759623,444.123565,1991.848295
3649.644757,-10881.027347,444.123565,842.705048
3649.645087,-10362.883188,592.164754,-612.876398
3649.645416,-9104.533087,444.123565,-1225.752797
3649.645746,-9030.512492,444.123565,76.609550
3649.646076,-9622.677246,518.144159,612.876398
3649.646406,-9918.759623,370.102971,306.438199
3649.646735,-8734.430116,518.144159,-1302.362347
3649.647065,-8734.430116,222.061783,-2298.286494
3649.647395,-9252.574275,518.144159,-1225.752797
3649.647725,-10584.944971,592.164754,842.705048
3649.648054,-11029.068536,1036.288319,766.095498
3649.648384,-9178.553681,74.020594,0.000000
3649.648714,-8364.327145,0.000000,0.000000
3649.649044,-9326.594869,148.041188,766.095498
3649.649374,-10881.027347,592.164754,766.095498
3649.649703,-10807.006753,740.205942,-306.438199
3649.650033,-10436.903782,740.205942,-1685.410096
3649.650363,-9548.656652,370.102971,-1225.752797
3649.650693,-9400.615463,0.000000,153.219100
3649.651022,-9696.697840,444.123565,689.485948
3649.651352,-9178.553681,222.061783,0.000000
3649.651682,-9030.512492,74.020594,-2145.067394
3649.652012,-9548.656652,222.061783,-1762.019645
3649.652341,-10955.047942,296.082377,306.438199
3649.652671,-11621.233289,444.123565,919.314598
3649.653001,-10140.821405,-370.102971,306.438199
3649.653331,-8808.450710,-740.205942,612.876398
3649.653660,-8364.327145,-444.123565,1455.581446
3649.653990,-10140.821405,0.000000,1608.800546
3649.654320,-11029.068536,296.082377,0.000000
3649.654650,-10584.944971,0.000000,-995.924147
3649.654980,-9696.697840,0.000000,-306.438199
3649.655309,-9622.677246,-592.164754,995.924147
3649.655639,-9918.759623,-444.123565,2068.457845
3649.655969,-9326.594869,-592.164754,1149.143247
3649.656299,-8290.306550,-814.226536,-1762.019645
3649.656628,-8142.265362,-518.144159,-1991.848295
3649.656958,-9992.780217,-370.102971,76.609550
3649.657288,-11029.068536,0.000000,1762.019645
3649.657618,-10362.883188,-370.102971,1302.362347
3649.657947,-8882.471304,-518.144159,0.000000
3649.658277,-8438.347739,-518.144159,153.219100
3649.658607,-10140.821405,-296.082377,919.314598
3649.658937,-11029.068536,-444.123565,306.438199
3649.659266,-10436.903782,-296.082377,-306.438199
3649.659596,-8882.471304,-370.102971,-306.438199
3649.659926,-9030.512492,-518.144159,919.314598
3649.660256,-9474.636058,-592.164754,1915.238745
3649.660585,-9844.739029,-444.123565,1225.752797
3649.660915,-9474.636058,-444.123565,-1302.362347
3649.661245,-9252.574275,-370.102971,-1991.848295
3649.661575,-9770.718434,-370.102971,0.000000
3649.661905,-10436.903782,148.041188,2068.457845
3649.662234,-10658.965565,222.061783,1532.190996
3649.662564,-9474.636058,0.000000,0.000000
3649.662894,-9030.512492,-370.102971,-229.828649
3649.663224,-10066.800811,222.061783,766.095498
3649.663553,-10510.924376,444.123565,536.266849
3649.663883,-10510.924376,740.205942,306.438199
3649.664213,-9918.759623,518.144159,0.000000
3649.664543,-9770.718434,370.102971,842.705048
3649.664872,-10510.924376,444.123565,1378.971896
3649.665202,-10658.965565,370.102971,1225.752797
3649.665532,-10214.842000,148.041188,0.000000
3649.665862,-9400.615463,296.082377,-612.876398
3649.666191,-9548.656652,0.000000,153.219100
3649.666521,-10510.924376,296.082377,1608.800546
3649.666851,-10362.883188,222.061783,1762.019645
3649.667181,-9326.594869,148.041188,229.828649
3649.667511,-8438.347739,-222.061783,229.828649
3649.667840,-8956.491898,296.082377,1378.971896
3649.668170,-10658.965565,518.144159,1378.971896
3649.668500,-10732.986159,592.164754,0.000000
3649.668830,-9844.739029,370.102971,-1455.581446
3649.669159,-9252.574275,370.102971,-766.095498
3649.669489,-9918.759623,74.020594,919.314598
3649.669819,-10140.821405,222.061783,1762.019645
3649.670149,-9326.594869,222.061783,536.266849
3649.670478,-8438.347739,370.102971,-1378.971896
3649.670808,-9030.512492,592.164754,-1915.238745
3649.671138,-10214.842000,666.185348,0.000000
3649.671468,-11103.089130,1110.308913,306.438199
3649.671797,-10066.800811,814.226536,-383.047749
3649.672127,-8808.450710,74.020594,-1072.533697
3649.672457,-8882.471304,296.082377,-383.047749
3649.672787,-9844.739029,444.123565,612.876398
3649.673117,-10807.006753,666.185348,-306.438199
3649.673446,-9548.656652,370.102971,-1455.581446
3649.673776,-9400.615463,222.061783,-1302.362347
3649.674106,-9992.780217,148.041188,306.438199
3649.674436,-10362.883188,0.000000,1378.971896
3649.674765,-9696.697840,74.020594,1149.143247
3649.675095,-9326.594869,74.020594,-766.095498
3649.675425,-9178.553681,444.123565,-1302.362347
3649.675755,-9918.759623,370.102971,-383.047749
3649.676084,-11177.109724,370.102971,995.924147
3649.676414,-10658.965565,0.000000,536.266849
3649.676744,-9548.656652,-592.164754,0.000000
3649.677074,-8882.471304,-592.164754,229.828649
3649.677404,-9400.615463,-296.082377,842.705048
3649.677734,-9696.697840,74.020594,0.000000
3649.678063,-9770.718434,-444.123565,-1072.533697
3649.678393,-9474.636058,-296.082377,-153.219100
3649.678723,-9696.697840,-148.041188,1072.533697
3649.679053,-9770.718434,-74.020594,1991.848295
3649.679383,-9918.759623,-444.123565,1455.581446
3649.679713,-9400.615463,-666.185348,-153.219100
3649.680043,-9104.533087,-740.205942,-1225.752797
3649.680373,-9548.656652,-518.144159,-383.047749
3649.680703,-10436.903782,-222.061783,842.705048
3649.681033,-10807.006753,-370.102971,1072.533697
3649.681363,-9622.677246,-1184.329507,153.219100
3649.681693,-8660.409521,-1258.350101,153.219100
3649.682023,-9104.533087,-222.061783,689.485948
3649.682352,-10214.842000,-222.061783,229.828649
3649.682682,-9918.759623,0.000000,-842.705048
3649.683012,-9326.594869,-296.082377,-995.924147
3649.683342,-8956.491898,0.000000,153.219100
3649.683672,-10140.821405,-148.041188,1532.190996
3649.684002,-10362.883188,-296.082377,1991.848295
3649.684332,-9252.574275,-740.205942,919.314598
3649.684662,-9104.533087,-666.185348,-612.876398
3649.684992,-9622.677246,-296.082377,-153.219100
3649.685322,-10732.986159,74.020594,1072.533697
3649.685652,-10510.924376,0.000000,1608.800546
3649.685982,-9474.636058,0.000000,76.609550
3649.686312,-8438.347739,0.000000,0.000000
3649.686641,-9178.553681,74.020594,842.705048
3649.686971,-10214.842000,666.185348,1149.143247
3649.687301,-9992.780217,370.102971,-229.828649
3649.687631,-9696.697840,1258.350101,-1532.190996
3649.687961,-10140.821405,592.164754,-536.266849
3649.688291,-10362.883188,814.226536,1455.581446
3649.688621,-10362.883188,444.123565,2528.115143
3649.688951,-9918.759623,444.123565,383.047749
3649.689281,-9474.636058,666.185348,0.000000
3649.689611,-9252.574275,814.226536,-612.876398
3649.689941,-10214.842000,740.205942,612.876398
3649.690271,-10955.047942,1184.329507,1378.971896
3649.690601,-10288.862594,1110.308913,536.266849
3649.690930,-8808.450710,74.020594,383.047749
3649.691260,-8808.450710,592.164754,306.438199
3649.691590,-9844.739029,962.267725,919.314598
3649.691920,-10584.944971,1332.370696,-306.438199
3649.692250,-9844.739029,740.205942,-1225.752797
3649.692580,-9400.615463,740.205942,-612.876398
3649.692910,-9474.636058,444.123565,612.876398
3649.693240,-9770.718434,518.144159,1302.362347
3649.693570,-9770.718434,518.144159,919.314598
3649.693900,-9178.553681,296.082377,-612.876398
3649.694230,-9104.533087,444.123565,-1455.581446
3649.694560,-9844.739029,444.123565,-383.047749
3649.694890,-10807.006753,962.267725,689.485948
3649.695219,-10436.903782,666.185348,383.047749
3649.695549,-9104.533087,0.000000,0.000000
3649.695879,-8882.471304,0.000000,306.438199
3649.696209,-9474.636058,0.000000,306.438199
3649.696539,-10362.883188,518.144159,0.000000
3649.696869,-10362.883188,518.144159,-842.705048
3649.697199,-10066.800811,74.020594,-1302.362347
3649.697529,-9770.718434,74.020594,-153.219100
3649.697859,-9548.656652,-444.123565,1149.143247
3649.698189,-9548.656652,222.061783,1532.190996
3649.698519,-9474.636058,0.000000,229.828649
3649.698849,-9474.636058,148.041188,-1455.581446
3649.699178,-9696.697840,296.082377,-1378.971896
3649.699508,-10955.047942,222.061783,459.657299
3649.699838,-11251.130318,-296.082377,536.266849
3649.700168,-10510.924376,-740.205942,76.609550
3649.700498,-9104.533087,-888.247130,306.438199
3649.700828,-9030.512492,-888.247130,1149.143247
3649.701158,-9770.718434,-666.185348,766.095498
3649.701488,-10288.862594,-666.185348,-536.266849
3649.701818,-9622.677246,-148.041188,-1532.190996
3649.702148,-9622.677246,-444.123565,0.000000
3649.702478,-10214.842000,-666.185348,1302.362347
3649.702808,-9918.759623,-888.247130,1838.629195
3649.703138,-9992.780217,-666.185348,842.705048
3649.703467,-9474.636058,-1036.288319,-1378.971896
3649.703797,-9474.636058,-962.267725,-1608.800546
3649.704127,-9918.759623,-1036.288319,0.000000
3649.704457,-10214.842000,-666.185348,919.314598
3649.704787,-9770.718434,-962.267725,383.047749
3649.705117,-8660.409521,-1628.453072,229.828649
3649.705447,-8290.306550,-1480.411884,689.485948
3649.705777,-9548.656652,-740.205942,842.705048
3649.706107,-10362.883188,-592.164754,-153.219100
3649.706437,-9918.759623,-666.185348,-612.876398
3649.706767,-9474.636058,-740.205942,-306.438199
3649.707097,-9696.697840,-592.164754,995.924147
3649.707427,-9696.697840,-962.267725,1225.752797
3649.707756,-9474.636058,-592.164754,1225.752797
3649.708086,-8808.450710,-444.123565,-536.266849
3649.708416,-8882.471304,0.000000,-1149.143247
3649.708746,-9844.739029,296.082377,0.000000
3649.709076,-10955.047942,518.144159,1302.362347
3649.709406,-11251.130318,222.061783,995.924147
3649.709736,-9696.697840,0.000000,229.828649
3649.710066,-8882.471304,222.061783,383.047749
3649.710396,-9474.636058,222.061783,1149.143247
3649.710726,-10362.883188,740.205942,536.266849
3649.711056,-10288.862594,1036.288319,-306.438199
3649.711386,-10140.821405,814.226536,0.000000
3649.711716,-9844.739029,592.164754,1378.971896
3649.712045,-10140.821405,518.144159,2298.286494
3649.712375,-9844.739029,370.102971,2145.067394
3649.712705,-9178.553681,370.102971,153.219100
3649.713035,-9030.512492,740.205942,-1072.533697
3649.713365,-9252.574275,592.164754,-306.438199
3649.713695,-10288.862594,1258.350101,919.314598
3649.714025,-11177.109724,1406.391290,1455.581446
3649.714355,-9770.718434,814.226536,612.876398
3649.714685,-8660.409521,444.123565,536.266849
3649.715015,-9326.594869,962.267725,766.095498
3649.715345,-10436.903782,888.247130,306.438199
3649.715675,-10510.924376,962.267725,-919.314598
3649.716005,-9474.636058,444.123565,-995.924147
3649.716334,-9178.553681,592.164754,229.828649
3649.716664,-9474.636058,592.164754,1072.533697
3649.716994,-9622.677246,518.144159,1608.800546
3649.717324,-9030.512492,592.164754,766.095498
3649.717654,-8808.450710,592.164754,-1225.752797
3649.717984,-9474.636058,666.185348,-1072.533697
3649.718314,-10658.965565,1110.308913,306.438199
3649.718644,-11325.150913,1184.329507,1072.533697
3649.718974,-10288.862594,222.061783,-306.438199
3649.719304,-9104.533087,222.061783,76.609550
3649.719634,-8660.409521,74.020594,0.000000
3649.719964,-9622.677246,814.226536,153.219100
3649.720294,-10288.862594,592.164754,-842.705048
3649.720623,-10140.821405,518.144159,-1378.971896
3649.720953,-9770.718434,740.205942,-383.047749
3649.721283,-9844.739029,148.041188,919.314598
3649.721613,-10436.903782,-148.041188,2374.896044
3649.721943,-9696.697840,0.000000,919.314598
3649.722273,-8882.471304,148.041188,-1149.143247
3649.722603,-9178.553681,0.000000,-1532.190996
3649.722933,-10436.903782,370.102971,0.000000
3649.723263,-11621.233289,518.144159,1149.143247
3649.723593,-11177.109724,0.000000,1149.143247
3649.723923,-9474.636058,-592.164754,306.438199
3649.724253,-8808.450710,-740.205942,612.876398
3649.724583,-10066.800811,-518.144159,689.485948
3649.724912,-10584.944971,-370.102971,0.000000
3649.725242,-10066.800811,-370.102971,-689.485948
3649.725572,-9326.594869,-370.102971,-536.266849
3649.725902,-9696.697840,-592.164754,1455.581446
3649.726232,-10214.842000,-814.226536,1991.848295
3649.726562,-9918.759623,-740.205942,1608.800546
3649.726892,-9326.594869,-1184.329507,0.000000
3649.727222,-9104.533087,-1184.329507,-612.876398
3649.727552,-9844.739029,-1332.370696,0.000000
3649.727882,-10807.006753,-592.164754,1532.190996
3649.728212,-10436.903782,-1036.288319,1149.143247
3649.728542,-9104.533087,-1036.288319,383.047749
3649.728872,-8438.347739,-962.267725,153.219100
3649.729201,-9178.553681,-888.247130,536.266849
3649.729531,-10658.965565,-296.082377,-536.266849
3649.729861,-10658.965565,-222.061783,-1072.533697
3649.730191,-10140.821405,-222.061783,-1532.190996
3649.730521,-9030.512492,-814.226536,0.000000
3649.730851,-9622.677246,-1110.308913,1685.410096
3649.731181,-9400.615463,-740.205942,2221.676944
3649.731511,-9030.512492,-592.164754,766.095498
3649.731841,-9252.574275,-222.061783,-1302.362347
3649.732171,-9548.656652,148.041188,-229.828649
3649.732501,-11103.089130,370.102971,1685.410096
3649.732831,-11103.089130,444.123565,2298.286494
3649.733161,-10362.883188,0.000000,459.657299
3649.733490,-8586.388927,-444.123565,0.000000
3649.733820,-8808.450710,0.000000,459.657299
3649.734150,-10140.821405,444.123565,76.609550
3649.734480,-10510.924376,814.226536,-536.266849
3649.734810,-9992.780217,370.102971,-1149.143247
3649.735140,-9252.574275,222.061783,0.000000
3649.735470,-9770.718434,222.061783,1532.190996
3649.735800,-9992.780217,296.082377,2528.115143
3649.736130,-9474.636058,296.082377,1072.533697
3649.736460,-8734.430116,74.020594,-383.047749
3649.736790,-9400.615463,444.123565,-766.095498
3649.737120,-10807.006753,666.185348,1378.971896
3649.737450,-11325.150913,814.226536,2068.457845
3649.737779,-10955.047942,296.082377,1685.410096
3649.738109,-9178.553681,0.000000,459.657299
3649.738439,-8734.430116,74.020594,306.438199
3649.738769,-9252.574275,592.164754,383.047749
3649.739099,-10066.800811,888.247130,-1225.752797
3649.739429,-9770.718434,666.185348,-1838.629195
3649.739759,-8956.491898,666.185348,-995.924147
3649.740089,-8956.491898,518.144159,0.000000
3649.740419,-9400.615463,296.082377,1378.971896
3649.740749,-9696.697840,592.164754,612.876398
3649.741079,-9474.636058,370.102971,-919.314598
3649.741409,-9548.656652,370.102971,-1149.143247
3649.741739,-10140.821405,518.144159,76.609550
3649.742068,-10732.986159,666.185348,1225.752797
3649.742398,-10807.006753,592.164754,1149.143247
3649.742728,-9252.574275,222.061783,-153.219100
3649.743058,-8438.347739,518.144159,-383.047749
3649.743388,-9474.636058,666.185348,0.000000
3649.743718,-11103.089130,888.247130,-383.047749
3649.744048,-10066.800811,814.226536,-1378.971896
3649.744378,-9548.656652,1036.288319,-1532.190996
3649.744708,-9622.677246,444.123565,0.000000
3649.745038,-10066.800811,74.020594,995.924147
3649.745368,-10362.883188,74.020594,919.314598
3649.745698,-9918.759623,296.082377,-536.266849
3649.746028,-9696.697840,222.061783,-1532.190996
3649.746357,-9918.759623,222.061783,0.000000
3649.746687,-10955.047942,222.061783,1455.581446
3649.747017,-11177.109724,444.123565,1915.238745
3649.747347,-9918.759623,-592.164754,842.705048
3649.747677,-8660.409521,-592.164754,612.876398
3649.748007,-9030.512492,-148.041188,612.876398
3649.748337,-10658.965565,74.020594,0.000000
3649.748667,-10510.924376,74.020594,-1149.143247
3649.748997,-10066.800811,-222.061783,-1532.190996
3649.749327,-8808.450710,-740.205942,-842.705048
3649.749657,-8808.450710,-962.267725,689.485948
3649.749987,-9326.594869,-1110.308913,1532.190996
3649.750317,-9474.636058,-666.185348,842.705048
3649.750646,-9178.553681,-518.144159,-1225.752797
3649.750976,-8956.491898,-444.123565,-995.924147
3649.751306,-9992.780217,-444.123565,612.876398
3649.751636,-11251.130318,-370.102971,1991.848295
3649.751966,-10732.986159,-888.247130,1378.971896
3649.752296,-9104.533087,-1258.350101,306.438199
3649.752626,-8290.306550,-1184.329507,153.219100
3649.752956,-9252.574275,-962.267725,76.609550
3649.753286,-10362.883188,-444.123565,-842.705048
3649.753616,-10214.842000,-444.123565,-1225.752797
3649.753946,-8956.491898,-1036.288319,-766.095498
3649.754276,-8734.430116,-444.123565,689.485948
3649.754606,-9622.677246,-962.267725,1225.752797
3649.754935,-9844.739029,-814.226536,842.705048
3649.755265,-9400.615463,-592.164754,-229.828649
3649.755595,-9104.533087,-444.123565,-383.047749
3649.755925,-9918.759623,-148.041188,1072.533697
3649.756255,-11621.233289,444.123565,2374.896044
3649.756585,-11325.150913,148.041188,1762.019645
3649.756915,-9992.780217,222.061783,0.000000
3649.757245,-9474.636058,0.000000,0.000000
3649.757575,-10436.903782,0.000000,229.828649
3649.757905,-11103.089130,370.102971,-76.609550
3649.758235,-10214.842000,74.020594,-689.485948
3649.758565,-8882.471304,0.000000,-689.485948
3649.758895,-8660.409521,0.000000,689.485948
3649.759224,-9474.636058,296.082377,1991.848295
3649.759554,-9992.780217,666.185348,2068.457845
3649.759884,-10140.821405,592.164754,612.876398
3649.760214,-9696.697840,518.144159,-766.095498
3649.760544,-9918.759623,74.020594,383.047749
3649.760874,-11029.068536,222.061783,2451.505594
3649.761204,-10881.027347,592.164754,2298.286494
3649.761534,-9400.615463,0.000000,612.876398
3649.761864,-8586.388927,222.061783,0.000000
3649.762194,-9178.553681,518.144159,153.219100
3649.762524,-10214.842000,740.205942,0.000000
3649.762854,-10436.903782,888.247130,-842.705048
3649.763184,-9548.656652,592.164754,-1149.143247
3649.763513,-8808.450710,296.082377,-229.828649
3649.763843,-9178.553681,518.144159,459.657299
3649.764173,-9474.636058,370.102971,1838.629195
3649.764503,-9400.615463,444.123565,0.000000
3649.764833,-9400.615463,666.185348,-1762.019645
3649.765163,-9622.677246,370.102971,-919.314598
3649.765493,-10584.944971,888.247130,1608.800546
3649.765823,-11325.150913,1036.288319,1838.629195
3649.766153,-10140.821405,666.185348,306.438199
3649.766483,-8808.450710,444.123565,-459.657299
3649.766813,-8734.430116,740.205942,-536.266849
3649.767143,-9474.636058,1036.288319,-612.876398
3649.767472,-10955.047942,1258.350101,-1302.362347
3649.767802,-10510.924376,1258.350101,-2068.457845
3649.768132,-9622.677246,888.247130,-1302.362347
3649.768462,-9548.656652,740.205942,306.438199
3649.768792,-10436.903782,370.102971,1455.581446
3649.769122,-10362.883188,296.082377,766.095498
3649.769452,-9326.594869,74.020594,-612.876398
3649.769782,-8734.430116,74.020594,0.000000
3649.770112,-10066.800811,74.020594,1225.752797
3649.770442,-11325.150913,666.185348,2451.505594
3649.770772,-11177.109724,370.102971,1455.581446
3649.771102,-9696.697840,-74.020594,229.828649
3649.771432,-8734.430116,0.000000,76.609550
3649.771761,-10214.842000,0.000000,689.485948
3649.772091,-11251.130318,74.020594,0.000000
3649.772421,-10214.842000,0.000000,-1378.971896
3649.772751,-9030.512492,-148.041188,-1302.362347
3649.773081,-8882.471304,-592.164754,-229.828649
3649.773411,-9548.656652,-814.226536,1455.581446
3649.773741,-9474.636058,-962.267725,1378.971896
3649.774071,-8808.450710,-740.205942,0.000000
3649.774401,-8512.368333,-1036.288319,-995.924147
3649.774731,-9178.553681,-666.185348,612.876398
3649.775061,-10955.047942,-222.061783,2374.896044
3649.775391,-10955.047942,-518.144159,1762.019645
3649.775721,-9622.677246,-962.267725,76.609550
3649.776050,-9030.512492,-888.247130,-229.828649
3649.776380,-9622.677246,-444.123565,306.438199
3649.776710,-11325.150913,-74.020594,-229.828649
3649.777040,-10881.027347,-148.041188,-1455.581446
3649.777370,-9844.739029,-296.082377,-1838.629195
3649.777700,-9030.512492,-592.164754,-1072.533697
3649.778030,-8956.491898,-814.226536,153.219100
3649.778360,-8882.471304,-74.020594,0.000000
3649.778690,-9030.512492,-518.144159,229.828649
3649.779020,-9030.512492,0.000000,-1225.752797
3649.779350,-9622.677246,74.020594,0.000000
3649.779680,-11029.068536,518.144159,1455.581446
3649.780009,-11843.295072,518.144159,1991.848295
3649.780339,-10881.027347,-370.102971,995.924147
3649.780669,-9252.574275,-888.247130,459.657299
3649.780999,-8734.430116,-444.123565,842.705048
3649.781329,-9696.697840,74.020594,1072.533697
3649.781658,-10066.800811,296.082377,-383.047749
3649.781988,-9770.718434,518.144159,-1455.581446
3649.782318,-8882.471304,222.061783,-842.705048
3649.782648,-9400.615463,222.061783,1685.410096
3649.782978,-9696.697840,0.000000,2145.067394
3649.783307,-9474.636058,-148.041188,1378.971896
3649.783637,-9178.553681,-74.020594,-536.266849
3649.783967,-9326.594869,-370.102971,-842.705048
3649.784297,-10584.944971,148.041188,1762.019645
3649.784627,-11769.274478,518.144159,2451.505594
3649.784956,-10658.965565,0.000000,1455.581446
3649.785286,-8660.409521,-444.123565,383.047749
3649.785616,-8512.368333,-370.102971,1072.533697
3649.785946,-9918.759623,444.123565,842.705048
3649.786276,-10732.986159,666.185348,-919.314598
3649.786605,-9918.759623,666.185348,-2068.457845
3649.786935,-8734.430116,222.061783,-1378.971896
3649.787265,-9030.512492,296.082377,-459.657299
3649.787595,-10288.862594,296.082377,995.924147
3649.787925,-9992.780217,222.061783,536.266849
3649.788254,-8956.491898,0.000000,-1225.752797
3649.788584,-9178.553681,370.102971,-1838.629195
3649.788914,-9844.739029,444.123565,919.314598
3649.789244,-11325.150913,740.205942,2221.676944
3649.789574,-10807.006753,592.164754,1378.971896
3649.789903,-9474.636058,444.123565,0.000000
3649.790233,-8882.471304,370.102971,0.000000
3649.790563,-9992.780217,814.226536,383.047749
3649.790893,-10955.047942,814.226536,0.000000
3649.791223,-10214.842000,592.164754,-1532.190996
3649.791552,-9252.574275,518.144159,-3064.381992
3649.791882,-8808.450710,222.061783,-1532.190996
3649.792212,-9696.697840,222.061783,306.438199
3649.792542,-10066.800811,444.123565,995.924147
3649.792872,-9474.636058,74.020594,-383.047749
3649.793201,-8734.430116,-74.020594,-1532.190996
3649.793531,-8808.450710,-74.020594,306.438199
3649.793861,-10807.006753,0.000000,2681.334243
3649.794191,-11399.171507,444.123565,2604.724693
3649.794521,-9844.739029,-518.144159,1149.143247
3649.794850,-8808.450710,-148.041188,153.219100
3649.795180,-9548.656652,74.020594,1072.533697
3649.795510,-10955.047942,0.000000,995.924147
3649.795840,-11325.150913,0.000000,-842.705048
3649.796170,-9992.780217,0.000000,-1762.019645
3649.796499,-9104.533087,-444.123565,-1455.581446
3649.796829,-9252.574275,-666.185348,766.095498
3649.797159,-9770.718434,-518.144159,1378.971896
3649.797489,-9104.533087,-370.102971,229.828649
3649.797819,-8364.327145,-814.226536,-1685.410096
3649.798148,-9104.533087,-518.144159,-689.485948
3649.798478,-10362.883188,0.000000,1455.581446
3649.798808,-11621.233289,148.041188,2221.676944
3649.799138,-10732.986159,-444.123565,1149.143247
3649.799468,-9474.636058,-518.144159,383.047749
3649.799797,-9030.512492,-592.164754,612.876398
3649.800127,-10362.883188,-370.102971,919.314598
3649.800457,-10732.986159,0.000000,-919.314598
3649.800787,-9474.636058,0.000000,-2528.115143
3649.801116,-8808.450710,-74.020594,-1838.629195
3649.801446,-9030.512492,-444.123565,76.609550
3649.801776,-9918.759623,-370.102971,1762.019645
3649.802106,-9844.739029,-370.102971,536.266849
3649.802436,-8734.430116,-740.205942,-1532.190996
3649.802765,-8586.388927,-814.226536,-1072.533697
3649.803095,-9696.697840,-370.102971,1378.971896
3649.803425,-11103.089130,74.020594,3370.820191
3649.803755,-11103.089130,0.000000,2604.724693
3649.804085,-9770.718434,0.000000,1149.143247
3649.804414,-9474.636058,0.000000,612.876398
3649.804744,-10288.862594,370.102971,1149.143247
3649.805074,-10881.027347,444.123565,76.609550
3649.805404,-10066.800811,740.205942,-459.657299
3649.805734,-9252.574275,370.102971,-1608.800546
3649.806063,-9252.574275,296.082377,0.000000
3649.806393,-9770.718434,222.061783,1149.143247
3649.806723,-10362.883188,518.144159,1608.800546
3649.807053,-9918.759623,222.061783,-459.657299
3649.807383,-9030.512492,148.041188,-612.876398
3649.807712,-9474.636058,222.061783,919.314598
3649.808042,-10881.027347,592.164754,3140.991542
3649.808372,-11325.150913,222.061783,2604.724693
3649.808702,-9844.739029,0.000000,1225.752797
3649.809032,-8808.450710,296.082377,612.876398
3649.809361,-9622.677246,518.144159,1378.971896
3649.809691,-11251.130318,740.205942,766.095498
3649.810021,-10807.006753,888.247130,-459.657299
3649.810351,-9844.739029,740.205942,-2374.896044
3649.810681,-9104.533087,370.102971,-1455.581446
3649.811010,-9770.718434,0.000000,383.047749
3649.811340,-9844.739029,74.020594,919.314598
3649.811670,-9030.512492,-370.102971,-612.876398
3649.812000,-8068.244768,-370.102971,-2221.676944
3649.812330,-7994.224174,-222.061783,-1685.410096
3649.812659,-9326.594869,-74.020594,1685.410096
3649.812989,-10732.986159,518.144159,2145.067394
3649.813319,-10436.903782,148.041188,842.705048
3649.813649,-9252.574275,-370.102971,536.266849
3649.813979,-9178.553681,-370.102971,919.314598
3649.814308,-10732.986159,296.082377,612.876398
3649.814638,-10436.903782,148.041188,-842.705048
3649.814968,-9696.697840,370.102971,-2451.505594
3649.815298,-8956.491898,518.144159,-2528.115143
3649.815628,-9622.677246,370.102971,-229.828649
3649.815957,-10288.862594,444.123565,383.047749
3649.816287,-9770.718434,518.144159,-842.705048
3649.816617,-8734.430116,0.000000,-2604.724693
3649.816947,-8734.430116,74.020594,-1915.238745
3649.817277,-10140.821405,222.061783,842.705048
3649.817606,-11695.253884,370.102971,2374.896044
3649.817936,-10658.965565,-222.061783,1608.800546
3649.818266,-8882.471304,-592.164754,1149.143247
3649.818596,-9104.533087,-444.123565,1838.629195
3649.818926,-10584.944971,-518.144159,2528.115143
3649.819255,-10881.027347,0.000000,1225.752797
3649.819585,-10066.800811,-74.020594,-383.047749
3649.819915,-9474.636058,0.000000,-919.314598
3649.820245,-9622.677246,0.000000,0.000000
3649.820575,-9992.780217,-296.082377,1149.143247
3649.820904,-9252.574275,-370.102971,612.876398
3649.821234,-9178.553681,-222.061783,-1378.971896
3649.821564,-8808.450710,-222.061783,-2298.286494
3649.821894,-9770.718434,-296.082377,306.438199
3649.822224,-10658.965565,-148.041188,1991.848295
3649.822553,-10732.986159,-592.164754,2451.505594
3649.822883,-9548.656652,-962.267725,1378.971896
3649.823213,-8586.388927,-814.226536,1072.533697
3649.823543,-9548.656652,-296.082377,1685.410096
3649.823873,-10436.903782,0.000000,536.266849
3649.824202,-10436.903782,-370.102971,-689.485948
3649.824532,-9326.594869,-222.061783,-1532.190996
3649.824862,-8734.430116,-592.164754,-536.266849
3649.825192,-9030.512492,-296.082377,383.047749
3649.825522,-9400.615463,-222.061783,995.924147
3649.825851,-9178.553681,222.061783,-1378.971896
3649.826181,-8586.388927,0.000000,-2451.505594
3649.826511,-9844.739029,518.144159,-536.266849
3649.826841,-11103.089130,444.123565,1455.581446
3649.827171,-11473.192101,518.144159,2145.067394
3649.827500,-9918.759623,148.041188,1072.533697
3649.827830,-8882.471304,-148.041188,766.095498
3649.828160,-9474.636058,444.123565,1838.629195
3649.828490,-10658.965565,592.164754,1149.143247
3649.828820,-10881.027347,814.226536,-459.657299
3649.829149,-10214.842000,740.205942,-995.924147
3649.829479,-9696.697840,296.082377,153.219100
3649.829809,-10288.862594,444.123565,1455.581446
3649.830139,-10066.800811,296.082377,2145.067394
3649.830469,-9622.677246,370.102971,459.657299
3649.830798,-8364.327145,0.000000,-1532.190996
3649.831128,-8956.491898,0.000000,-1149.143247
3649.831458,-9918.759623,444.123565,1608.800546
3649.831788,-11177.109724,888.247130,2451.505594
3649.832118,-10066.800811,0.000000,1225.752797
3649.832447,-9326.594869,-370.102971,1072.533697
3649.832777,-8956.491898,0.000000,1455.581446
3649.833107,-10140.821405,222.061783,1608.800546
3649.833437,-10584.944971,592.164754,536.266849
3649.833767,-10066.800811,592.164754,-1225.752797
3649.834096,-8956.491898,296.082377,-1532.190996
3649.834426,-9104.533087,444.123565,229.828649
3649.834756,-9770.718434,222.061783,1302.362347
3649.835086,-9252.574275,296.082377,536.266849
3649.835416,-8734.430116,0.000000,-2451.505594
3649.835745,-8586.388927,296.082377,-2451.505594
3649.836075,-9622.677246,370.102971,-459.657299
3649.836405,-10807.006753,518.144159,1378.971896
3649.836735,-10362.883188,222.061783,995.924147
3649.837065,-9400.615463,0.000000,229.828649
3649.837394,-8956.491898,148.041188,306.438199
3649.837724,-9844.739029,444.123565,842.705048
3649.838054,-11621.233289,666.185348,459.657299
3649.838384,-11251.130318,814.226536,-1302.362347
3649.838714,-10066.800811,296.082377,-1455.581446
3649.839043,-9548.656652,296.082377,-383.047749
3649.839373,-10214.842000,222.061783,1762.019645
3649.839703,-9770.718434,148.041188,995.924147
3649.840033,-9178.553681,222.061783,-1532.190996
3649.840363,-8882.471304,148.041188,-2604.724693
3649.840692,-9770.718434,370.102971,-842.705048
3649.841022,-11547.212695,592.164754,1455.581446
3649.841352,-11177.109724,444.123565,2374.896044
3649.841682,-9548.656652,-518.144159,1149.143247
3649.842012,-8438.347739,-814.226536,689.485948
3649.842341,-9326.594869,0.000000,1302.362347
3649.842671,-11251.130318,74.020594,383.047749
3649.843001,-11103.089130,370.102971,-536.266849
3649.843331,-9918.759623,0.000000,-1302.362347
3649.843661,-9400.615463,-74.020594,153.219100
3649.843990,-9548.656652,-592.164754,1915.238745
3649.844320,-9770.718434,-666.185348,2145.067394
3649.844650,-9104.533087,-666.185348,-306.438199
3649.844980,-8290.306550,-740.205942,-2757.943793
3649.845310,-8734.430116,-370.102971,-1762.019645
3649.845639,-10510.924376,-518.144159,1072.533697
3649.845969,-11325.150913,-148.041188,2604.724693
3649.846299,-9992.780217,-592.164754,1532.190996
3649.846629,-8660.409521,-1110.308913,536.266849
3649.846959,-8438.347739,-888.247130,459.657299
3649.847288,-10214.842000,-296.082377,1072.533697
3649.847618,-10807.006753,-296.082377,76.609550
3649.847948,-10214.842000,-518.144159,-306.438199
3649.848278,-9474.636058,-444.123565,-76.609550
3649.848608,-9548.656652,-740.205942,919.314598
3649.848937,-9992.780217,-592.164754,1072.533697
3649.849267,-9696.697840,-370.102971,842.705048
3649.849597,-8438.347739,-518.144159,-2068.457845
3649.849927,-8512.368333,-444.123565,-1455.581446
3649.850257,-10140.821405,0.000000,1149.143247
3649.850586,-11399.171507,444.123565,2911.162892
3649.850916,-11029.068536,74.020594,1762.019645
3649.851246,-9548.656652,-444.123565,76.609550
3649.851576,-9252.574275,-592.164754,919.314598
3649.851906,-10584.944971,-222.061783,1685.410096
3649.852235,-11251.130318,222.061783,995.924147
3649.852565,-10436.903782,0.000000,-536.266849
3649.852895,-9326.594869,0.000000,-919.314598
3649.853225,-9474.636058,-222.061783,383.047749
3649.853555,-9770.718434,222.061783,2221.676944
3649.853884,-9770.718434,148.041188,1149.143247
3649.854214,-9030.512492,222.061783,-1225.752797
3649.854544,-8808.450710,0.000000,-2068.457845
3649.854874,-9770.718434,0.000000,-383.047749
3649.855204,-10955.047942,296.082377,1991.848295
3649.855533,-10732.986159,0.000000,1838.629195
3649.855863,-9030.512492,-370.102971,306.438199
3649.856193,-8364.327145,-592.164754,766.095498
3649.856523,-9770.718434,518.144159,1685.410096
3649.856853,-11251.130318,592.164754,1149.143247
3649.857182,-10881.027347,666.185348,-459.657299
3649.857512,-9918.759623,740.205942,-1762.019645
3649.857842,-8660.409521,740.205942,-766.095498
3649.858172,-9548.656652,518.144159,76.609550
3649.858502,-9844.739029,518.144159,612.876398
3649.858831,-9252.574275,296.082377,-1072.533697
3649.859161,-8734.430116,296.082377,-2604.724693
3649.859491,-9326.594869,74.020594,-1915.238745
3649.859821,-10510.924376,444.123565,689.485948
3649.860151,-10955.047942,592.164754,1149.143247
3649.860480,-9474.636058,148.041188,383.047749
3649.860810,-8290.306550,74.020594,383.047749
3649.861140,-9178.553681,222.061783,1455.581446
3649.861470,-10510.924376,592.164754,919.314598
3649.861800,-10881.027347,814.226536,-383.047749
3649.862129,-9992.780217,888.247130,-1915.238745
3649.862459,-9326.594869,518.144159,-536.266849
3649.862789,-9548.656652,370.102971,919.314598
3649.863119,-9844.739029,370.102971,1532.190996
3649.863449,-9474.636058,814.226536,0.000000
3649.863778,-9030.512492,148.041188,-2451.505594
3649.864108,-9252.574275,814.226536,-2374.896044
3649.864438,-10436.903782,592.164754,766.095498
3649.864768,-11103.089130,888.247130,1991.848295
3649.865098,-10436.903782,370.102971,1455.581446
3649.865427,-8882.471304,0.000000,459.657299
3649.865757,-8956.491898,0.000000,919.314598
3649.866087,-10140.821405,296.082377,1225.752797
3649.866417,-11251.130318,518.144159,0.000000
3649.866747,-10288.862594,370.102971,-689.485948
3649.867076,-9326.594869,0.000000,-306.438199
3649.867406,-9474.636058,0.000000,766.095498
3649.867736,-9992.780217,148.041188,1225.752797
3649.868066,-10066.800811,-148.041188,612.876398
3649.868396,-9474.636058,-222.061783,-1685.410096
3649.868725,-9104.533087,-444.123565,-1991.848295
3649.869055,-9918.759623,74.020594,0.000000
3649.869385,-11103.089130,74.020594,1915.238745
3649.869715,-10140.821405,-370.102971,842.705048
3649.870045,-8734.430116,-1036.288319,-612.876398
3649.870374,-8438.347739,-1036.288319,306.438199
3649.870704,-9992.780217,-370.102971,1455.581446
3649.871034,-10881.027347,148.041188,536.266849
3649.871364,-10510.924376,-296.082377,-612.876398
3649.871694,-9474.636058,-888.247130,-1302.362347
3649.872023,-9326.594869,-888.247130,306.438199
3649.872353,-9918.759623,-444.123565,1838.629195
3649.872683,-9770.718434,-518.144159,1302.362347
3649.873013,-8882.471304,-740.205942,-536.266849
3649.873343,-8956.491898,-296.082377,-2068.457845
3649.873672,-9696.697840,-444.123565,-536.266849
3649.874002,-11399.171507,370.102971,1532.190996
3649.874332,-11251.130318,74.020594,1225.752797
3649.874662,-9474.636058,-592.164754,153.219100
3649.874992,-8364.327145,-592.164754,612.876398
3649.875321,-9178.553681,-74.020594,1685.410096
3649.875651,-10881.027347,0.000000,1915.238745
3649.875981,-10658.965565,74.020594,229.828649
3649.876311,-9992.780217,0.000000,-383.047749
3649.876641,-9474.636058,222.061783,995.924147
3649.876970,-10288.862594,-296.082377,2298.286494
3649.877300,-10436.903782,0.000000,2528.115143
3649.877630,-9474.636058,-370.102971,229.828649
3649.877960,-8956.491898,0.000000,-1838.629195
3649.878290,-9030.512492,0.000000,-1072.533697
3649.878620,-10362.883188,740.205942,1685.410096
3649.878950,-11029.068536,518.144159,2451.505594
3649.879279,-10214.842000,222.061783,1225.752797
3649.879609,-8734.430116,-370.102971,0.000000
3649.879939,-9178.553681,74.020594,306.438199
3649.880269,-10658.965565,444.123565,995.924147
3649.880599,-10288.862594,296.082377,153.219100
3649.880929,-9474.636058,296.082377,-689.485948
3649.881259,-9104.533087,0.000000,-383.047749
3649.881589,-9622.677246,0.000000,689.485948
3649.881919,-9844.739029,0.000000,919.314598
3649.882249,-9326.594869,518.144159,-689.485948
3649.882579,-8660.409521,74.020594,-1455.581446
3649.882909,-8734.430116,0.000000,-1378.971896
3649.883239,-10288.862594,222.061783,689.485948
3649.883569,-11103.089130,518.144159,1378.971896
3649.883898,-10436.903782,74.020594,-306.438199
3649.884228,-9104.533087,-370.102971,-1532.190996
3649.884558,-8586.388927,-74.020594,-459.657299
3649.884888,-9622.677246,74.020594,689.485948
3649.885218,-9992.780217,444.123565,153.219100
3649.885548,-9696.697840,296.082377,-1685.410096
3649.885878,-8956.491898,444.123565,-1378.971896
3649.886208,-9400.615463,444.123565,-153.219100
3649.886538,-9844.739029,518.144159,1378.971896
3649.886868,-9770.718434,518.144159,536.266849
3649.887198,-9252.574275,444.123565,-995.924147
3649.887528,-9548.656652,444.123565,-1915.238745
3649.887858,-10584.944971,296.082377,-229.828649
3649.888188,-11177.109724,1036.288319,1225.752797
3649.888518,-10658.965565,518.144159,536.266849
3649.888847,-9474.636058,444.123565,0.000000
3649.889177,-8660.409521,370.102971,1072.533697
3649.889507,-9548.656652,1036.288319,1838.629195
3649.889837,-11177.109724,888.247130,919.314598
3649.890167,-11029.068536,666.185348,-459.657299
3649.890497,-10214.842000,296.082377,-842.705048
3649.890827,-9474.636058,222.061783,306.438199
3649.891157,-9844.739029,0.000000,2451.505594
3649.891487,-9770.718434,-296.082377,2451.505594
3649.891817,-9326.594869,-74.020594,306.438199
3649.892147,-8290.306550,-222.061783,-1608.800546
3649.892477,-9252.574275,0.000000,153.219100
3649.892807,-10732.986159,444.123565,1915.238745
3649.893137,-11029.068536,370.102971,2374.896044
3649.893467,-9918.759623,0.000000,689.485948
3649.893796,-8290.306550,-740.205942,76.609550
3649.894126,-8660.409521,-592.164754,536.266849
3649.894456,-9844.739029,-148.041188,153.219100
3649.894786,-9918.759623,0.000000,-612.876398
3649.895116,-9252.574275,-148.041188,-1225.752797
3649.895446,-9030.512492,-74.020594,-229.828649
3649.895776,-9474.636058,-222.061783,1302.362347
3649.896106,-10214.842000,-74.020594,1072.533697
3649.896436,-9252.574275,-296.082377,76.609550
3649.896766,-8660.409521,-666.185348,-1302.362347
3649.897096,-8808.450710,0.000000,-995.924147
3649.897426,-9918.759623,0.000000,1149.143247
3649.897756,-11029.068536,296.082377,1378.971896
3649.898086,-10288.862594,0.000000,0.000000
3649.898416,-9178.553681,-148.041188,-612.876398
3649.898745,-9474.636058,0.000000,459.657299
3649.899075,-10807.006753,222.061783,1072.533697
3649.899405,-10658.965565,-148.041188,229.828649
3649.899735,-9918.759623,0.000000,-1149.143247
3649.900065,-9178.553681,148.041188,-842.705048
3649.900395,-9918.759623,-148.041188,766.095498
3649.900725,-9992.780217,-148.041188,2298.286494
3649.901055,-9622.677246,0.000000,1149.143247
3649.901385,-9178.553681,-222.061783,-229.828649
3649.901715,-9104.533087,0.000000,-919.314598
3649.902045,-10140.821405,222.061783,1149.143247
3649.902375,-11103.089130,222.061783,2298.286494
3649.902705,-11177.109724,148.041188,1072.533697
3649.903035,-9548.656652,-222.061783,0.000000
3649.903364,-8808.450710,-518.144159,766.095498
3649.903694,-9844.739029,-518.144159,1608.800546
3649.904024,-10658.965565,0.000000,842.705048
3649.904354,-10658.965565,0.000000,-766.095498
3649.904684,-9400.615463,-222.061783,-842.705048
3649.905014,-9400.615463,-444.123565,536.266849
3649.905344,-9844.739029,-518.144159,1838.629195
3649.905674,-9770.718434,-518.144159,1685.410096
3649.906004,-8512.368333,-222.061783,-383.047749
3649.906334,-8216.285956,-296.082377,-995.924147
3649.906664,-8956.491898,-74.020594,-536.266849
3649.906994,-10584.944971,370.102971,766.095498
3649.907324,-10807.006753,370.102971,612.876398
3649.907654,-9400.615463,222.061783,-919.314598
3649.907984,-8512.368333,0.000000,-459.657299
3649.908313,-9326.594869,222.061783,306.438199
3649.908643,-10362.883188,518.144159,-306.438199
3649.908973,-9770.718434,814.226536,-1532.190996
3649.909303,-9400.615463,666.185348,-2145.067394
3649.909633,-9400.615463,1036.288319,-1149.143247
3649.909963,-10214.842000,1036.288319,766.095498
3649.910293,-10658.965565,888.247130,1302.362347
3649.910623,-9696.697840,592.164754,76.609550
3649.910953,-9178.553681,592.164754,-1378.971896
3649.911283,-9548.656652,888.247130,-1225.752797
3649.911613,-10584.944971,444.123565,689.485948
3649.911943,-11029.068536,740.205942,1378.971896
3649.912273,-10288.862594,0.000000,76.609550
3649.912603,-9178.553681,74.020594,0.000000
3649.912933,-9030.512492,0.000000,612.876398
3649.913262,-9992.780217,444.123565,1225.752797
3649.913592,-10214.842000,296.082377,-383.047749
3649.913922,-9474.636058,444.123565,-995.924147
3649.914252,-9548.656652,370.102971,-306.438199
3649.914582,-10214.842000,296.082377,1685.410096
3649.914912,-11029.068536,74.020594,2528.115143
3649.915242,-10436.903782,0.000000,1225.752797
3649.915572,-9696.697840,-518.144159,-919.314598
3649.915902,-8882.471304,-740.205942,-383.047749
3649.916232,-9326.594869,-1110.308913,995.924147
3649.916562,-10214.842000,-74.020594,2068.457845
3649.916892,-9844.739029,0.000000,766.095498
3649.917222,-8734.430116,-592.164754,0.000000
3649.917552,-8660.409521,-296.082377,0.000000
3649.917882,-9918.759623,-370.102971,459.657299
3649.918211,-10881.027347,-148.041188,0.000000
3649.918541,-10066.800811,-592.164754,-842.705048
3649.918871,-8882.471304,-148.041188,-1378.971896
3649.919201,-9030.512492,-740.205942,459.657299
3649.919531,-10140.821405,-148.041188,1762.019645
3649.919861,-10510.924376,0.000000,1302.362347
3649.920191,-9770.718434,-148.041188,-689.485948
3649.920521,-9178.553681,-74.020594,-229.828649
3649.920851,-9548.656652,-296.082377,459.657299
3649.921181,-10881.027347,0.000000,1838.629195
3649.921511,-10881.027347,0.000000,1378.971896
3649.921841,-9844.739029,-296.082377,0.000000
3649.922171,-9030.512492,0.000000,229.828649
3649.922501,-9992.780217,-296.082377,766.095498
3649.922830,-10658.965565,0.000000,459.657299
3649.923160,-10214.842000,0.000000,-383.047749
3649.923490,-9104.533087,0.000000,-919.314598
3649.923820,-9252.574275,-148.041188,306.438199
3649.924150,-9474.636058,0.000000,1838.629195
3649.924480,-9622.677246,0.000000,2221.676944
3649.924810,-9844.739029,0.000000,1762.019645
3649.925140,-9474.636058,148.041188,-766.095498
3649.925470,-9918.759623,0.000000,-459.657299
3649.925800,-10881.027347,296.082377,1225.752797
3649.926130,-11177.109724,222.061783,1302.362347
3649.926460,-9918.759623,0.000000,536.266849
3649.926790,-8660.409521,-296.082377,536.266849
3649.927120,-9030.512492,74.020594,1378.971896
3649.927450,-10214.842000,592.164754,766.095498
3649.927779,-10436.903782,370.102971,-766.095498
3649.928109,-9696.697840,148.041188,-1991.848295
3649.928439,-9252.574275,148.041188,-766.095498
3649.928769,-9474.636058,0.000000,459.657299
3649.929099,-9548.656652,-370.102971,2221.676944
3649.929429,-9696.697840,0.000000,842.705048
3649.929759,-8808.450710,0.000000,-919.314598
3649.930089,-8956.491898,74.020594,-1378.971896
3649.930419,-9844.739029,0.000000,0.000000
3649.930749,-11177.109724,740.205942,1072.533697
3649.931079,-10807.006753,370.102971,153.219100
3649.931409,-9326.594869,0.000000,-383.047749
3649.931739,-8882.471304,74.020594,-612.876398
3649.932069,-9252.574275,296.082377,-459.657299
3649.932399,-9844.739029,296.082377,-1378.971896
3649.932728,-9548.656652,592.164754,-1838.629195
3649.933058,-9326.594869,740.205942,-1302.362347
3649.933388,-9844.739029,518.144159,689.485948
3649.933718,-10288.862594,592.164754,1685.410096
3649.934048,-10066.800811,222.061783,1072.533697
3649.934378,-9770.718434,222.061783,-536.266849
3649.934708,-9474.636058,814.226536,-766.095498
3649.935038,-10066.800811,444.123565,0.000000
3649.935368,-10955.047942,814.226536,1302.362347
3649.935698,-10807.006753,444.123565,995.924147
3649.936028,-9622.677246,0.000000,153.219100
3649.936358,-9178.553681,0.000000,0.000000
3649.936688,-9622.677246,0.000000,536.266849
3649.937018,-10436.903782,148.041188,153.219100
3649.937348,-9918.759623,296.082377,-306.438199
3649.937677,-9548.656652,148.041188,-612.876398
3649.938007,-9400.615463,0.000000,766.095498
3649.938337,-9844.739029,0.000000,1838.629195
3649.938667,-10436.903782,74.020594,2145.067394
3649.938997,-9844.739029,518.144159,612.876398
3649.939327,-9696.697840,74.020594,-689.485948
3649.939657,-9918.759623,74.020594,306.438199
3649.939987,-10436.903782,0.000000,1302.362347
3649.940317,-10510.924376,0.000000,1302.362347
3649.940647,-9918.759623,-148.041188,0.000000
3649.940977,-8660.409521,-370.102971,153.219100
3649.941307,-9252.574275,-444.123565,612.876398
3649.941637,-9918.759623,0.000000,0.000000
3649.941967,-10066.800811,-518.144159,-1302.362347
3649.942296,-9548.656652,-296.082377,-1302.362347
3649.942626,-9104.533087,-518.144159,0.000000
3649.942956,-9474.636058,-962.267725,1762.019645
3649.943286,-9252.574275,-740.205942,2987.772442
3649.943616,-9474.636058,-444.123565,1455.581446
3649.943946,-9178.553681,-222.061783,-383.047749
3649.944276,-9326.594869,-74.020594,-766.095498
3649.944606,-10510.924376,222.061783,1072.533697
3649.944936,-11473.192101,370.102971,1455.581446
3649.945266,-10881.027347,148.041188,459.657299
3649.945596,-9030.512492,0.000000,-306.438199
3649.945926,-8364.327145,148.041188,-612.876398
3649.946256,-9696.697840,0.000000,-919.314598
3649.946586,-10510.924376,74.020594,-1225.752797
3649.946916,-9844.739029,74.020594,-766.095498
3649.947245,-9252.574275,0.000000,0.000000
3649.947575,-9696.697840,-296.082377,1685.410096
3649.947905,-9918.759623,-296.082377,2681.334243
3649.948235,-9770.718434,-222.061783,1532.190996
3649.948565,-9030.512492,-74.020594,0.000000
3649.948895,-9696.697840,0.000000,-919.314598
3649.949225,-10362.883188,370.102971,842.705048
3649.949555,-11251.130318,296.082377,2221.676944
3649.949885,-10584.944971,148.041188,1072.533697
3649.950215,-9400.615463,-444.123565,153.219100
3649.950545,-8734.430116,-296.082377,0.000000
3649.950875,-9326.594869,0.000000,0.000000
3649.951205,-10066.800811,296.082377,-689.485948
3649.951535,-10140.821405,222.061783,-1455.581446
3649.951865,-9844.739029,0.000000,-1302.362347
3649.952194,-9548.656652,-148.041188,0.000000
3649.952524,-9844.739029,148.041188,1685.410096
3649.952854,-10066.800811,-296.082377,1762.019645
3649.953184,-9474.636058,-370.102971,306.438199
3649.953514,-8586.388927,0.000000,-842.705048
3649.953844,-9474.636058,-74.020594,0.000000
3649.954174,-11029.068536,222.061783,1685.410096
3649.954504,-11251.130318,0.000000,1685.410096
3649.954834,-9696.697840,-296.082377,-383.047749
3649.955164,-8364.327145,-370.102971,-689.485948
3649.955494,-8808.450710,0.000000,-459.657299
3649.955824,-10066.800811,370.102971,-1225.752797
3649.956154,-9622.677246,0.000000,-2451.505594
3649.956484,-9326.594869,444.123565,-2221.676944
3649.956814,-9326.594869,222.061783,-1072.533697
3649.957143,-9918.759623,-148.041188,1072.533697
3649.957473,-9474.636058,-740.205942,1991.848295
3649.957803,-8882.471304,-222.061783,689.485948
3649.958133,-9400.615463,0.000000,-459.657299
3649.958463,-10584.944971,148.041188,0.000000
3649.958793,-10955.047942,0.000000,1455.581446
3649.959123,-10807.006753,296.082377,1532.190996
3649.959453,-10436.903782,0.000000,306.438199
3649.959783,-9474.636058,74.020594,229.828649
3649.960113,-9252.574275,0.000000,0.000000
3649.960443,-9844.739029,148.041188,-306.438199
3649.960773,-10140.821405,222.061783,-1762.019645
3649.961103,-10066.800811,0.000000,-1685.410096
3649.961433,-9252.574275,0.000000,-1072.533697
3649.961763,-8882.471304,-222.061783,919.314598
3649.962092,-9178.553681,-74.020594,1685.410096
3649.962422,-9548.656652,0.000000,1838.629195
3649.962752,-9696.697840,0.000000,76.609550
3649.963082,-9918.759623,222.061783,0.000000
3649.963412,-10510.924376,0.000000,1149.143247
3649.963742,-11473.192101,222.061783,2145.067394
3649.964072,-10732.986159,-74.020594,842.705048
3649.964402,-8956.491898,-666.185348,153.219100
3649.964732,-8808.450710,0.000000,0.000000
3649.965062,-9622.677246,370.102971,76.609550
3649.965392,-10066.800811,296.082377,-1608.800546
3649.965722,-9622.677246,148.041188,-2068.457845
3649.966052,-9400.615463,0.000000,-1302.362347
3649.966382,-9548.656652,-74.020594,536.266849
3649.966711,-9178.553681,-370.102971,1378.971896
3649.967041,-8882.471304,0.000000,1838.629195
3649.967371,-8808.450710,-518.144159,612.876398
3649.967701,-9992.780217,0.000000,-153.219100
3649.968031,-10584.944971,370.102971,919.314598
3649.968361,-11473.192101,592.164754,2528.115143
3649.968691,-11029.068536,592.164754,2528.115143
3649.969021,-9918.759623,222.061783,1072.533697
3649.969351,-8882.471304,222.061783,919.314598
3649.969681,-9104.533087,592.164754,76.609550
3649.970011,-10066.800811,1110.308913,-689.485948
3649.970341,-10066.800811,962.267725,-1455.581446
3649.970671,-9548.656652,740.205942,-1302.362347
3649.971001,-8956.491898,370.102971,0.000000
3649.971331,-9548.656652,296.082377,2068.457845
3649.971660,-10436.903782,814.226536,2451.505594
3649.971990,-9918.759623,148.041188,1072.533697
3649.972320,-9474.636058,148.041188,-229.828649
3649.972650,-10140.821405,222.061783,919.314598
3649.972980,-11251.130318,740.205942,3064.381992
3649.973310,-11325.150913,740.205942,2987.772442
3649.973640,-9844.739029,444.123565,1762.019645
3649.973970,-8956.491898,148.041188,612.876398
3649.974300,-9178.553681,74.020594,153.219100
3649.974630,-10140.821405,444.123565,-689.485948
3649.974960,-10066.800811,592.164754,-1762.019645
3649.975290,-9548.656652,148.041188,-1532.190996
3649.975620,-8956.491898,74.020594,-766.095498
3649.975950,-9326.594869,-444.123565,536.266849
3649.976280,-9474.636058,-444.123565,1149.143247
3649.976609,-9326.594869,-296.082377,459.657299
3649.976939,-9104.533087,0.000000,-229.828649
3649.977269,-9326.594869,-148.041188,-76.609550
3649.977599,-10732.986159,370.102971,842.705048
3649.977929,-11473.192101,370.102971,1378.971896
3649.978259,-11029.068536,74.020594,459.657299
3649.978589,-9252.574275,-666.185348,0.000000
3649.978919,-8882.471304,0.000000,-766.095498
3649.979249,-9918.759623,148.041188,-766.095498
3649.979579,-10140.821405,0.000000,-1685.410096
3649.979909,-9548.656652,0.000000,-2451.505594
3649.980239,-8956.491898,0.000000,-2451.505594
3649.980569,-9178.553681,-370.102971,-689.485948
3649.980898,-9474.636058,-74.020594,459.657299
3649.981228,-9770.718434,-222.061783,1149.143247
3649.981558,-9622.677246,-296.082377,-383.047749
3649.981888,-9918.759623,0.000000,-842.705048
3649.982218,-10510.924376,74.020594,459.657299
3649.982548,-11473.192101,0.000000,1762.019645
3649.982877,-11177.109724,-518.144159,1302.362347
3649.983207,-9548.656652,-740.205942,306.438199
3649.983537,-8734.430116,-666.185348,689.485948
3649.983867,-9548.656652,-518.144159,536.266849
3649.984197,-9918.759623,-222.061783,-612.876398
3649.984527,-9548.656652,-370.102971,-1225.752797
3649.984856,-9696.697840,-74.020594,-1378.971896
3649.985186,-9474.636058,-592.164754,0.000000
3649.985516,-9326.594869,-814.226536,1455.581446
3649.985846,-9326.594869,-814.226536,1378.971896
3649.986176,-9104.533087,-666.185348,76.609550
3649.986506,-9474.636058,-370.102971,-766.095498
3649.986835,-10288.862594,-296.082377,229.828649
3649.987165,-11399.171507,-148.041188,2374.896044
3649.987495,-11103.089130,-444.123565,1838.629195
3649.987825,-9696.697840,-814.226536,919.314598
3649.988155,-8586.388927,-888.247130,229.828649
3649.988485,-8808.450710,-888.247130,229.828649
3649.988814,-9474.636058,-296.082377,-1072.533697
3649.989144,-9696.697840,0.000000,-1532.190996
3649.989474,-9474.636058,0.000000,-1378.971896
3649.989804,-9474.636058,-222.061783,76.609550
3649.990134,-9770.718434,-370.102971,1532.190996
3649.990464,-9622.677246,-592.164754,2068.457845
3649.990793,-9252.574275,-296.082377,459.657299
3649.991123,-9104.533087,-74.020594,-612.876398
3649.991453,-9400.615463,-370.102971,0.000000
3649.991783,-10584.944971,518.144159,2221.676944
3649.992113,-11473.192101,1110.308913,2451.505594
3649.992443,-11103.089130,1184.329507,1149.143247
3649.992772,-9844.739029,740.205942,-383.047749
3649.993102,-9326.594869,592.164754,-383.047749
3649.993432,-10584.944971,814.226536,-229.828649
3649.993762,-10881.027347,888.247130,-919.314598
3649.994092,-10066.800811,666.185348,-995.924147
3649.994421,-8956.491898,370.102971,-766.095498
3649.994751,-8956.491898,0.000000,459.657299
3649.995081,-9104.533087,148.041188,1608.800546
3649.995411,-9400.615463,518.144159,1532.190996
3649.995741,-9104.533087,444.123565,612.876398
3649.996071,-9030.512492,666.185348,153.219100
3649.996400,-10288.862594,592.164754,2451.505594
3649.996730,-11695.253884,1036.288319,3140.991542
3649.997060,-11621.233289,814.226536,1762.019645
3649.997390,-10214.842000,962.267725,459.657299
3649.997720,-9252.574275,518.144159,0.000000
3649.998050,-9474.636058,370.102971,-383.047749
3649.998379,-9992.780217,444.123565,-1072.533697
3649.998709,-9474.636058,518.144159,-1838.629195
3649.999039,-8808.450710,518.144159,-1378.971896
3649.999369,-8734.430116,148.041188,-459.657299
3649.999699,-9326.594869,148.041188,1149.143247
3650.000029,-9548.656652,148.041188,1378.971896
3650.000358,-9474.636058,666.185348,-689.485948
3650.000688,-9474.636058,222.061783,-459.657299
3650.001018,-9770.718434,222.061783,459.657299
3650.001348,-10658.965565,666.185348,1991.848295
3650.001678,-11103.089130,1332.370696,1915.238745
3650.002008,-10140.821405,296.082377,153.219100
3650.002337,-9400.615463,592.164754,-689.485948
3650.002667,-9844.739029,888.247130,-919.314598
3650.002997,-10288.862594,740.205942,-1838.629195
3650.003327,-10066.800811,370.102971,-2451.505594
3650.003657,-9474.636058,74.020594,-2528.115143
3650.003987,-8808.450710,-518.144159,-1225.752797
3650.004316,-8956.491898,-444.123565,229.828649
3650.004646,-9252.574275,-370.102971,1149.143247
3650.004976,-9992.780217,-444.123565,766.095498
3650.005306,-9696.697840,-740.205942,0.000000
3650.005636,-9844.739029,-592.164754,536.266849
3650.005966,-10658.965565,0.000000,2528.115143
3650.006295,-11251.130318,-74.020594,2911.162892
3650.006625,-10510.924376,-148.041188,1455.581446
3650.006955,-9400.615463,-296.082377,536.266849
3650.007285,-9326.594869,-222.061783,229.828649
3650.007615,-10362.883188,296.082377,-689.485948
3650.007945,-10510.924376,0.000000,-1991.848295
3650.008274,-9548.656652,-370.102971,-2604.724693
3650.008604,-8586.388927,-666.185348,-1838.629195
3650.008934,-8586.388927,-1036.288319,0.000000
3650.009264,-9696.697840,-888.247130,1225.752797
3650.009594,-9548.656652,-888.247130,1302.362347
3650.009923,-9326.594869,-740.205942,76.609550
3650.010253,-8882.471304,-592.164754,383.047749
3650.010583,-10362.883188,-814.226536,2145.067394
3650.010913,-11325.150913,-592.164754,3217.601092
3650.011243,-11029.068536,-592.164754,2298.286494
3650.011573,-8956.491898,-740.205942,612.876398
3650.011902,-8364.327145,-592.164754,-459.657299
3650.012232,-9548.656652,-370.102971,-459.657299
3650.012562,-10436.903782,222.061783,-1532.190996
3650.012892,-9696.697840,0.000000,-1991.848295
3650.013222,-8808.450710,444.123565,-1915.238745
3650.013552,-8882.471304,-222.061783,-995.924147
3650.013881,-9400.615463,-74.020594,689.485948
3650.014211,-10066.800811,-296.082377,1302.362347
3650.014541,-9548.656652,444.123565,689.485948
3650.014871,-8808.450710,-296.082377,0.000000
3650.015201,-9178.553681,74.020594,1455.581446
3650.015531,-11029.068536,814.226536,2757.943793
3650.015860,-11991.336260,962.267725,2604.724693
3650.016190,-10658.965565,592.164754,1225.752797
3650.016520,-9474.636058,444.123565,153.219100
3650.016850,-9918.759623,740.205942,459.657299
3650.017180,-10584.944971,740.205942,-153.219100
3650.017510,-9770.718434,296.082377,-919.314598
3650.017839,-8660.409521,592.164754,-1608.800546
3650.018169,-8068.244768,296.082377,-842.705048
3650.018499,-9252.574275,814.226536,1072.533697
3650.018829,-9770.718434,666.185348,2374.896044
3650.019159,-9992.780217,444.123565,1302.362347
3650.019489,-9844.739029,814.226536,383.047749
3650.019818,-10066.800811,222.061783,1302.362347
3650.020148,-11325.150913,592.164754,3677.258390
3650.020478,-11547.212695,296.082377,3140.991542
3650.020808,-10362.883188,74.020594,2068.457845
3650.021138,-9030.512492,0.000000,536.266849
3650.021468,-8956.491898,518.144159,76.609550
3650.021797,-10140.821405,888.247130,0.000000
3650.022127,-10362.883188,962.267725,-1072.533697
3650.022457,-9844.739029,888.247130,-2221.676944
3650.022787,-8956.491898,222.061783,-2068.457845
3650.023117,-8734.430116,0.000000,-459.657299
3650.023447,-8956.491898,-222.061783,689.485948
3650.023776,-8956.491898,-222.061783,612.876398
3650.024106,-8586.388927,-444.123565,-1149.143247
3650.024436,-9030.512492,0.000000,-306.438199
3650.024766,-9770.718434,74.020594,1608.800546
3650.025096,-11325.150913,888.247130,2528.115143
3650.025425,-11103.089130,518.144159,1302.362347
3650.025755,-9474.636058,444.123565,0.000000
3650.026085,-8956.491898,444.123565,-842.705048
3650.026415,-10140.821405,444.123565,-536.266849
3650.026745,-11103.089130,592.164754,-1532.190996
3650.027075,-10288.862594,296.082377,-2834.553343
3650.027404,-9178.553681,74.020594,-2604.724693
3650.027734,-8660.409521,-222.061783,-1532.190996
3650.028064,-9622.677246,-370.102971,229.828649
3650.028394,-9918.759623,0.000000,1072.533697
3650.028724,-9030.512492,0.000000,-536.266849
3650.029054,-9326.594869,-148.041188,-536.266849
3650.029383,-10436.903782,-444.123565,842.705048
3650.029713,-11769.274478,0.000000,2451.505594
3650.030043,-11547.212695,-74.020594,2298.286494
3650.030373,-9992.780217,-1110.308913,612.876398
3650.030703,-8808.450710,-1036.288319,459.657299
3650.031033,-9252.574275,-888.247130,612.876398
3650.031362,-10288.862594,-296.082377,-229.828649
3650.031692,-9992.780217,-370.102971,-1302.362347
3650.032022,-9178.553681,-518.144159,-1685.410096
3650.032352,-9104.533087,-666.185348,-842.705048
3650.032682,-9548.656652,-814.226536,842.705048
3650.033012,-9992.780217,-666.185348,1378.971896
3650.033341,-9400.615463,-888.247130,-229.828649
3650.033671,-8512.368333,-1110.308913,-1225.752797
3650.034001,-8956.491898,-888.247130,306.438199
3650.034331,-10584.944971,0.000000,2374.896044
3650.034661,-11251.130318,-444.123565,2528.115143
3650.034991,-9918.759623,-666.185348,919.314598
3650.035320,-8290.306550,-666.185348,153.219100
3650.035650,-9474.636058,-222.061783,153.219100
3650.035980,-10584.944971,0.000000,229.828649
3650.036310,-10362.883188,-222.061783,-1149.143247
3650.036640,-9474.636058,0.000000,-2451.505594
3650.036970,-9104.533087,-518.144159,-1685.410096
3650.037299,-9252.574275,-592.164754,-76.609550
3650.037629,-9770.718434,-370.102971,1302.362347
3650.037959,-9178.553681,-222.061783,1072.533697
3650.038289,-9104.533087,0.000000,0.000000
3650.038619,-9104.533087,-148.041188,306.438199
3650.038949,-10807.006753,592.164754,2298.286494
3650.039278,-11843.295072,1036.288319,2757.943793
3650.039608,-11399.171507,740.205942,1991.848295
3650.039938,-9918.759623,296.082377,306.438199
3650.040268,-9326.594869,518.144159,842.705048
3650.040598,-9992.780217,814.226536,153.219100
3650.040927,-10881.027347,1036.288319,-536.266849
3650.041257,-10066.800811,740.205942,-1685.410096
3650.041587,-9104.533087,740.205942,-1149.143247
3650.041917,-8660.409521,592.164754,306.438199
3650.042247,-9770.718434,962.267725,2374.896044
3650.042577,-9770.718434,814.226536,2221.676944
3650.042906,-9178.553681,222.061783,-153.219100
3650.043236,-9030.512492,592.164754,-459.657299
3650.043566,-10066.800811,666.185348,1225.752797
3650.043896,-11399.171507,1110.308913,2987.772442
3650.044226,-11251.130318,1554.432478,2221.676944
3650.044556,-9770.718434,666.185348,919.314598
3650.044885,-9326.594869,814.226536,536.266849
3650.045215,-9918.759623,962.267725,76.609550
3650.045545,-10510.924376,1184.329507,-842.705048
3650.045875,-9770.718434,962.267725,-2374.896044
3650.046205,-8882.471304,1110.308913,-2374.896044
3650.046535,-8734.430116,592.164754,-995.924147
3650.046864,-9326.594869,666.185348,153.219100
3650.047194,-9252.574275,740.205942,766.095498
3650.047524,-9178.553681,370.102971,-1378.971896
3650.047854,-8956.491898,148.041188,-1685.410096
3650.048184,-9622.677246,296.082377,153.219100
3650.048514,-11029.068536,518.144159,2068.457845
3650.048843,-11251.130318,444.123565,2068.457845
3650.049173,-9622.677246,-370.102971,1149.143247
3650.049503,-8512.368333,222.061783,153.219100
3650.049833,-9400.615463,518.144159,-229.828649
3650.050163,-10955.047942,888.247130,-383.047749
3650.050493,-10955.047942,814.226536,-1838.629195
3650.050822,-10066.800811,592.164754,-2911.162892
3650.051152,-8882.471304,148.041188,-2221.676944
3650.051482,-9252.574275,-222.061783,-612.876398
3650.051812,-9548.656652,-148.041188,536.266849
3650.052142,-8734.430116,-814.226536,-229.828649
3650.052472,-8808.450710,-370.102971,-1532.190996
3650.052801,-9252.574275,-444.123565,-153.219100
3650.053131,-11325.150913,74.020594,2681.334243
3650.053461,-12139.377449,-222.061783,2834.553343
3650.053791,-10584.944971,-888.247130,1685.410096
3650.054121,-8808.450710,-888.247130,995.924147
3650.054451,-9252.574275,-814.226536,1762.019645
3650.054780,-10288.862594,-370.102971,919.314598
3650.055110,-10362.883188,-370.102971,-612.876398
3650.055440,-9548.656652,-666.185348,-1685.410096
3650.055770,-9326.594869,-814.226536,-1685.410096
3650.056100,-9474.636058,-888.247130,0.000000
3650.056429,-9770.718434,-1184.329507,1072.533697
3650.056759,-9178.553681,-1258.350101,459.657299
3650.057089,-8364.327145,-1406.391290,-1378.971896
3650.057419,-8956.491898,-1406.391290,-1149.143247
3650.057749,-10362.883188,-1036.288319,1532.190996
3650.058079,-11177.109724,-666.185348,2987.772442
3650.058408,-10584.944971,-814.226536,1915.238745
3650.058738,-9104.533087,-1036.288319,1302.362347
3650.059068,-8734.430116,-1110.308913,1225.752797
3650.059398,-9770.718434,-444.123565,842.705048
3650.059728,-10436.903782,148.041188,-383.047749
3650.060058,-10955.047942,222.061783,-1915.238745
3650.060387,-9474.636058,0.000000,-2681.334243
3650.060717,-9104.533087,-444.123565,-1149.143247
3650.061047,-9548.656652,-814.226536,689.485948
3650.061377,-9696.697840,0.000000,229.828649
3650.061707,-8660.409521,-444.123565,-1149.143247
3650.062037,-8808.450710,-296.082377,-1455.581446
3650.062366,-9770.718434,0.000000,842.705048
3650.062696,-11399.171507,592.164754,2451.505594
3650.063026,-11251.130318,370.102971,2451.505594
3650.063356,-10066.800811,-74.020594,1532.190996
3650.063686,-9030.512492,0.000000,1225.752797
3650.064016,-9770.718434,592.164754,1302.362347
3650.064345,-10881.027347,666.185348,229.828649
3650.064675,-10362.883188,1036.288319,-766.095498
3650.065005,-9474.636058,740.205942,-1302.362347
3650.065335,-9400.615463,444.123565,-459.657299
3650.065665,-9770.718434,888.247130,1302.362347
3650.065995,-9918.759623,1036.288319,1302.362347
3650.066324,-9400.615463,592.164754,-306.438199
3650.066654,-9030.512492,962.267725,-1838.629195
3650.066984,-9474.636058,1036.288319,-612.876398
3650.067314,-10510.924376,1110.308913,1685.410096
3650.067644,-10807.006753,1184.329507,2451.505594
3650.067974,-9918.759623,740.205942,1762.019645
3650.068303,-9252.574275,740.205942,612.876398
3650.068633,-9770.718434,740.205942,919.314598
3650.068963,-10584.944971,740.205942,-153.219100
3650.069293,-10584.944971,1036.288319,-766.095498
3650.069623,-9400.615463,592.164754,-2068.457845
3650.069953,-8734.430116,518.144159,-1072.533697
3650.070282,-9178.553681,444.123565,612.876398
3650.070612,-9918.759623,740.205942,919.314598
3650.070942,-9992.780217,740.205942,-919.314598
3650.071272,-9104.533087,814.226536,-2757.943793
3650.071602,-8882.471304,518.144159,-2145.067394
3650.071931,-10288.862594,444.123565,919.314598
3650.072261,-11177.109724,444.123565,2298.286494
3650.072591,-9622.677246,148.041188,459.657299
3650.072921,-8808.450710,-296.082377,612.876398
3650.073251,-9104.533087,148.041188,995.924147
3650.073581,-10510.924376,444.123565,612.876398
3650.073910,-11177.109724,1036.288319,-612.876398
3650.074240,-10066.800811,444.123565,-2068.457845
3650.074570,-9474.636058,222.061783,-1455.581446
3650.074900,-9770.718434,0.000000,-153.219100
3650.075230,-9992.780217,-74.020594,536.266849
3650.075560,-9400.615463,-296.082377,0.000000
3650.075889,-8734.430116,-74.020594,-1915.238745
3650.076219,-8734.430116,-296.082377,-1762.019645
3650.076549,-9918.759623,-74.020594,459.657299
3650.076879,-11103.089130,444.123565,2145.067394
3650.077209,-11177.109724,-74.020594,2374.896044
3650.077539,-10066.800811,-740.205942,1455.581446
3650.077868,-9992.780217,-370.102971,1532.190996
3650.078198,-10510.924376,-814.226536,1608.800546
3650.078528,-11103.089130,-666.185348,612.876398
3650.078858,-10584.944971,-518.144159,-1225.752797
3650.079188,-9474.636058,-740.205942,-919.314598
3650.079518,-8882.471304,-962.267725,0.000000
3650.079847,-9252.574275,-592.164754,1455.581446
3650.080177,-9474.636058,-592.164754,842.705048
3650.080507,-9030.512492,-962.267725,-1149.143247
3650.080837,-9104.533087,-1184.329507,-2221.676944
3650.081167,-9474.636058,-666.185348,-229.828649
3650.081496,-10955.047942,-740.205942,2145.067394
3650.081826,-10807.006753,-814.226536,2604.724693
3650.082156,-9474.636058,-1184.329507,1225.752797
3650.082486,-8586.388927,-814.226536,536.266849
3650.082816,-9770.718434,-666.185348,919.314598
3650.083145,-11029.068536,-74.020594,536.266849
3650.083475,-10510.924376,74.020594,-689.485948
3650.083805,-9326.594869,0.000000,-1532.190996
3650.084135,-8586.388927,-666.185348,-383.047749
3650.084465,-9400.615463,-296.082377,153.219100
3650.084794,-9918.759623,-222.061783,919.314598
3650.085124,-9474.636058,-296.082377,-689.485948
3650.085454,-8882.471304,-296.082377,-1915.238745
3650.085784,-9326.594869,0.000000,-689.485948
3650.086114,-10510.924376,592.164754,1532.190996
3650.086443,-10955.047942,370.102971,2298.286494
3650.086773,-10214.842000,222.061783,1532.190996
3650.087103,-8808.450710,0.000000,919.314598
3650.087433,-9474.636058,666.185348,1532.190996
3650.087763,-11029.068536,1036.288319,919.314598
3650.088092,-11029.068536,888.247130,-612.876398
3650.088422,-9770.718434,962.267725,-1225.752797
3650.088752,-9252.574275,518.144159,-689.485948
3650.089082,-9622.677246,370.102971,995.924147
3650.089412,-9696.697840,370.102971,2451.505594
3650.089741,-9918.759623,1036.288319,766.095498
3650.090071,-9030.512492,814.226536,-1608.800546
3650.090401,-8586.388927,740.205942,-1991.848295
3650.090731,-10584.944971,1036.288319,689.485948
3650.091061,-11843.295072,1554.432478,2987.772442
3650.091390,-10362.883188,518.144159,1991.848295
3650.091720,-8808.450710,370.102971,1072.533697
3650.092050,-8882.471304,296.082377,842.705048
3650.092380,-10658.965565,1110.308913,689.485948
3650.092710,-11325.150913,1110.308913,-612.876398
3650.093039,-9696.697840,740.205942,-1915.238745
3650.093369,-8808.450710,592.164754,-1302.362347
3650.093699,-9030.512492,518.144159,-76.609550
3650.094029,-9622.677246,444.123565,1072.533697
3650.094359,-9474.636058,592.164754,0.000000
3650.094688,-8956.491898,74.020594,-2145.067394
3650.095018,-8512.368333,0.000000,-2604.724693
3650.095348,-9548.656652,0.000000,-459.657299
3650.095678,-10807.006753,0.000000,2451.505594
3650.096008,-10658.965565,148.041188,2298.286494
3650.096337,-9178.553681,-296.082377,766.095498
3650.096667,-9104.533087,-222.061783,153.219100
3650.096997,-10140.821405,0.000000,995.924147
3650.097327,-11177.109724,592.164754,383.047749
3650.097657,-10807.006753,592.164754,-536.266849
3650.097986,-9622.677246,370.102971,-1455.581446
3650.098316,-9400.615463,-74.020594,-842.705048
3650.098646,-9548.656652,444.123565,459.657299
3650.098976,-9844.739029,0.000000,383.047749
3650.099306,-8956.491898,0.000000,-1225.752797
3650.099635,-9178.553681,0.000000,-2145.067394
3650.099965,-10066.800811,0.000000,76.609550
3650.100295,-11769.274478,148.041188,2451.505594
3650.100625,-12139.377449,74.020594,2604.724693
3650.100955,-10584.944971,-814.226536,1608.800546
3650.101284,-8734.430116,-962.267725,1455.581446
3650.101614,-9844.739029,-222.061783,2221.676944
3650.101944,-11103.089130,74.020594,2145.067394
3650.102274,-10510.924376,-296.082377,0.000000
3650.102604,-9548.656652,-370.102971,-1072.533697
3650.102933,-9104.533087,-740.205942,-612.876398
3650.103263,-9622.677246,-666.185348,1225.752797
3650.103593,-9696.697840,-592.164754,1378.971896
3650.103923,-8956.491898,-814.226536,-383.047749
3650.104253,-7846.182985,-814.226536,-2298.286494
3650.104582,-8364.327145,-962.267725,-1532.190996
3650.104912,-9992.780217,-518.144159,842.705048
3650.105242,-11029.068536,-148.041188,2528.115143
3650.105572,-10066.800811,-592.164754,1378.971896
3650.105902,-8734.430116,-1036.288319,383.047749
3650.106231,-9030.512492,-740.205942,459.657299
3650.106561,-10140.821405,-296.082377,1225.752797
3650.106891,-10807.006753,-370.102971,-766.095498
3650.107221,-9844.739029,-444.123565,-995.924147
3650.107551,-9104.533087,-148.041188,-689.485948
3650.107880,-9104.533087,-518.144159,459.657299
3650.108210,-9770.718434,0.000000,919.314598
3650.108540,-9770.718434,0.000000,76.609550
3650.108870,-9326.594869,0.000000,-2145.067394
3650.109200,-9474.636058,0.000000,-1915.238745
3650.109529,-10510.924376,74.020594,689.485948
3650.109859,-11177.109724,148.041188,2451.505594
3650.110189,-10214.842000,-370.102971,1608.800546
3650.110519,-8734.430116,-592.164754,612.876398
3650.110849,-9030.512492,0.000000,995.924147
3650.111178,-10362.883188,444.123565,1532.190996
3650.111508,-10955.047942,444.123565,842.705048
3650.111838,-10510.924376,592.164754,-229.828649
3650.112168,-9992.780217,666.185348,-229.828649
3650.112498,-10066.800811,296.082377,766.095498
3650.112827,-9844.739029,148.041188,1532.190996
3650.113157,-9178.553681,0.000000,459.657299
3650.113487,-9104.533087,222.061783,-919.314598
3650.113817,-8956.491898,74.020594,-1532.190996
3650.114147,-9548.656652,222.061783,306.438199
3650.114476,-10510.924376,888.247130,1838.629195
3650.114806,-10584.944971,666.185348,1685.410096
3650.115136,-9400.615463,148.041188,612.876398
3650.115466,-8586.388927,296.082377,689.485948
3650.115796,-9474.636058,592.164754,1149.143247
3650.116125,-10658.965565,740.205942,536.266849
3650.116455,-10288.862594,740.205942,-612.876398
3650.116785,-9548.656652,370.102971,-1455.581446
3650.117115,-9252.574275,740.205942,-383.047749
3650.117445,-9548.656652,518.144159,612.876398
3650.117774,-9992.780217,518.144159,1072.533697
3650.118104,-9178.553681,592.164754,-842.705048
3650.118434,-8364.327145,666.185348,-2604.724693
3650.118764,-9474.636058,814.226536,-1302.362347
3650.119093,-10807.006753,1110.308913,459.657299
3650.119423,-11473.192101,1110.308913,1378.971896
3650.119753,-9548.656652,296.082377,-536.266849
3650.120083,-8660.409521,74.020594,-229.828649
3650.120413,-9548.656652,666.185348,689.485948
3650.120742,-10658.965565,296.082377,536.266849
3650.121072,-10510.924376,666.185348,-153.219100
3650.121402,-9696.697840,148.041188,-766.095498
3650.121732,-9474.636058,444.123565,0.000000
3650.122062,-9918.759623,74.020594,1072.533697
3650.122391,-9844.739029,296.082377,1455.581446
3650.122721,-9622.677246,296.082377,0.000000
3650.123051,-9474.636058,-74.020594,-1149.143247
3650.123381,-9548.656652,0.000000,-536.266849
3650.123711,-10288.862594,-222.061783,1455.581446
3650.124040,-10807.006753,0.000000,1915.238745
3650.124370,-10140.821405,-148.041188,689.485948
3650.124700,-8734.430116,-740.205942,229.828649
3650.125030,-8586.388927,-814.226536,1378.971896
3650.125360,-9992.780217,-444.123565,1608.800546
3650.125689,-10436.903782,-370.102971,383.047749
3650.126019,-9548.656652,-370.102971,-459.657299
3650.126349,-9178.553681,-518.144159,-919.314598
3650.126679,-9622.677246,-962.267725,689.485948
3650.127009,-10214.842000,-740.205942,1455.581446
3650.127338,-10362.883188,-814.226536,766.095498
3650.127668,-9474.636058,-1184.329507,-1149.143247
3650.127998,-9252.574275,-1036.288319,-1302.362347
3650.128328,-10140.821405,-1036.288319,229.828649
3650.128658,-10881.027347,-592.164754,1762.019645
3650.128987,-10140.821405,-592.164754,1072.533697
3650.129317,-9326.594869,-1036.288319,229.828649
3650.129647,-8808.450710,-888.247130,306.438199
3650.129977,-9844.739029,-370.102971,842.705048
3650.130307,-10658.965565,-444.123565,0.000000
3650.130636,-10214.842000,0.000000,-1072.533697
3650.130966,-9474.636058,-444.123565,-1302.362347
3650.131296,-9548.656652,-222.061783,0.000000
3650.131626,-9992.780217,-740.205942,1378.971896
3650.131956,-9844.739029,-296.082377,1225.752797
3650.132285,-9548.656652,-296.082377,-306.438199
3650.132615,-9326.594869,-296.082377,-1455.581446
3650.132945,-9918.759623,-148.041188,-306.438199
3650.133275,-10658.965565,0.000000,995.924147
3650.133605,-10807.006753,370.102971,1149.143247
3650.133934,-9548.656652,74.020594,76.609550
3650.134264,-8882.471304,-296.082377,383.047749
3650.134594,-9400.615463,0.000000,995.924147
3650.134924,-10362.883188,74.020594,919.314598
3650.135254,-10362.883188,518.144159,0.000000
3650.135583,-9474.636058,518.144159,-612.876398
3650.135913,-9400.615463,148.041188,459.657299
3650.136243,-9918.759623,444.123565,1762.019645
3650.136573,-9918.759623,222.061783,1991.848295
3650.136903,-9992.780217,740.205942,383.047749
3650.137232,-9104.533087,518.144159,-1072.533697
3650.137562,-9474.636058,370.102971,-459.657299
3650.137892,-10658.965565,518.144159,1455.581446
3650.138222,-10881.027347,518.144159,1608.800546
3650.138552,-9622.677246,370.102971,76.609550
3650.138881,-8660.409521,296.082377,-766.095498
3650.139211,-9104.533087,740.205942,919.314598
3650.139541,-9770.718434,666.185348,689.485948
3650.139871,-10362.883188,1036.288319,-383.047749
3650.140201,-9918.759623,888.247130,-1072.533697
3650.140530,-9622.677246,888.247130,0.000000
3650.140860,-9992.780217,296.082377,766.095498
3650.141190,-10362.883188,296.082377,1455.581446
3650.141520,-9548.656652,444.123565,1072.533697
3650.141850,-8512.368333,296.082377,-1455.581446
3650.142179,-8364.327145,518.144159,-1838.629195
3650.142509,-9474.636058,1110.308913,76.609550
3650.142839,-10955.047942,1480.411884,1072.533697
3650.143169,-10732.986159,814.226536,459.657299
3650.143499,-9474.636058,148.041188,-612.876398
3650.143828,-8660.409521,370.102971,0.000000
3650.144158,-9622.677246,444.123565,76.609550
3650.144488,-10584.944971,518.144159,-689.485948
3650.144818,-9992.780217,444.123565,-383.047749
3650.145148,-9696.697840,296.082377,-459.657299
3650.145477,-10066.800811,148.041188,995.924147
3650.145807,-10584.944971,222.061783,2145.067394
3650.146137,-10140.821405,74.020594,1838.629195
3650.146467,-9252.574275,-148.041188,-153.219100
3650.146797,-9400.615463,0.000000,-1149.143247
3650.147126,-10066.800811,0.000000,0.000000
3650.147456,-11177.109724,296.082377,1378.971896
3650.147786,-10955.047942,592.164754,842.705048
3650.148116,-9918.759623,-222.061783,-536.266849
3650.148446,-9178.553681,-518.144159,0.000000
3650.148775,-9622.677246,-296.082377,919.314598
3650.149105,-10362.883188,148.041188,689.485948
3650.149435,-9918.759623,-296.082377,-766.095498
3650.149765,-9252.574275,-666.185348,-459.657299
3650.150095,-9474.636058,-592.164754,842.705048
3650.150424,-10288.862594,-962.267725,1685.410096
3650.150754,-10881.027347,-740.205942,2068.457845
3650.151084,-9696.697840,-814.226536,459.657299
3650.151414,-8586.388927,-1036.288319,-1378.971896
3650.151744,-8660.409521,-1110.308913,-612.876398
3650.152073,-9992.780217,-444.123565,1302.362347
3650.152403,-11103.089130,-518.144159,1378.971896
3650.152733,-10066.800811,-666.185348,-153.219100
3650.153063,-8586.388927,-1110.308913,-383.047749
3650.153393,-9326.594869,-592.164754,1072.533697
3650.153722,-9844.739029,-444.123565,383.047749
3650.154052,-10288.862594,-296.082377,-536.266849
3650.154382,-9992.780217,-370.102971,-1378.971896
3650.154712,-9326.594869,-296.082377,-536.266849
3650.155042,-9770.718434,-592.164754,919.314598
3650.155371,-10214.842000,-592.164754,2145.067394
3650.155701,-9622.677246,-222.061783,1149.143247
3650.156031,-9030.512492,-74.020594,-612.876398
3650.156361,-9474.636058,-74.020594,-995.924147
3650.156691,-10066.800811,0.000000,536.266849
3650.157020,-10807.006753,0.000000,1762.019645
3650.157350,-10066.800811,0.000000,306.438199
3650.157680,-8438.347739,0.000000,229.828649
3650.158010,-8734.430116,0.000000,1225.752797
3650.158340,-10288.862594,296.082377,1225.752797
3650.158669,-11103.089130,518.144159,76.609550
3650.158999,-10584.944971,444.123565,-76.609550
3650.159329,-9622.677246,444.123565,0.000000
3650.159659,-9770.718434,148.041188,1608.800546
3650.159989,-10362.883188,814.226536,2451.505594
3650.160318,-9992.780217,740.205942,1532.190996
3650.160648,-9252.574275,666.185348,-459.657299
3650.160978,-9400.615463,814.226536,-1302.362347
3650.161308,-9918.759623,814.226536,-383.047749
3650.161638,-10955.047942,1110.308913,612.876398
3650.161967,-10066.800811,888.247130,459.657299
3650.162297,-8660.409521,370.102971,-306.438199
3650.162627,-8734.430116,370.102971,383.047749
3650.162957,-9474.636058,740.205942,1149.143247
3650.163287,-10140.821405,740.205942,459.657299
3650.163616,-10362.883188,888.247130,-842.705048
3650.163946,-9474.636058,740.205942,-842.705048
3650.164276,-9326.594869,740.205942,153.219100
3650.164606,-9770.718434,666.185348,1149.143247
3650.164936,-10066.800811,962.267725,1225.752797
3650.165265,-9548.656652,444.123565,-536.266849
3650.165595,-9178.553681,814.226536,-2145.067394
3650.165925,-9474.636058,592.164754,-842.705048
3650.166255,-10807.006753,888.247130,689.485948
3650.166585,-11473.192101,888.247130,612.876398
3650.166914,-9622.677246,74.020594,-612.876398
3650.167244,-8956.491898,0.000000,-612.876398
3650.167574,-9548.656652,148.041188,612.876398
3650.167904,-10658.965565,370.102971,76.609550
3650.168234,-9918.759623,296.082377,-612.876398
3650.168563,-9178.553681,0.000000,-1072.533697
3650.168893,-8882.471304,0.000000,-229.828649
3650.169223,-9770.718434,-296.082377,1225.752797
3650.169553,-10066.800811,148.041188,2068.457845
3650.169883,-9548.656652,-296.082377,919.314598
3650.170212,-9622.677246,0.000000,-766.095498
3650.170542,-9770.718434,-74.020594,-536.266849
3650.170872,-10510.924376,-222.061783,766.095498
3650.171202,-10658.965565,-148.041188,689.485948
3650.171532,-9844.739029,-222.061783,-153.219100
3650.171861,-9326.594869,-296.082377,229.828649
3650.172191,-9030.512492,-444.123565,766.095498
3650.172521,-9696.697840,0.000000,689.485948
3650.172851,-9844.739029,-74.020594,-612.876398
3650.173181,-9696.697840,0.000000,-766.095498
