#time,accel_x,accel_y,accel_z
3789.347752,-9696.697840,296.082377,306.438199
3789.348082,-9992.780217,0.000000,229.828649
3789.348412,-9696.697840,0.000000,689.485948
3789.348742,-9622.677246,0.000000,383.047749
3789.349072,-9844.739029,592.164754,306.438199
3789.349402,-9770.718434,222.061783,306.438199
3789.349732,-9918.759623,0.000000,459.657299
3789.350062,-9844.739029,0.000000,383.047749
3789.350392,-9696.697840,148.041188,306.438199
3789.350722,-9844.739029,0.000000,153.219100
3789.351052,-9622.677246,0.000000,0.000000
3789.351382,-9844.739029,0.000000,76.609550
3789.351713,-9770.718434,74.020594,153.219100
3789.352043,-9400.615463,148.041188,229.828649
3789.352373,-9770.718434,0.000000,229.828649
3789.352703,-9622.677246,0.000000,612.876398
3789.353033,-9992.780217,74.020594,842.705048
3789.353363,-10658.965565,74.020594,919.314598
3789.353693,-10140.821405,0.000000,0.000000
3789.354023,-9770.718434,0.000000,-229.828649
3789.354353,-9622.677246,0.000000,-459.657299
3789.354683,-9474.636058,0.000000,-306.438199
3789.355013,-10140.821405,0.000000,0.000000
3789.355343,-9992.780217,-148.041188,-459.657299
3789.355673,-9770.718434,-370.102971,-383.047749
3789.356003,-9548.656652,-518.144159,-153.219100
3789.356333,-9548.656652,-592.164754,-306.438199
3789.356663,-9696.697840,-444.123565,-689.485948
3789.356993,-9992.780217,-74.020594,-919.314598
3789.357323,-10066.800811,-592.164754,-766.095498
3789.357653,-9918.759623,-666.185348,153.219100
3789.357983,-9992.780217,-888.247130,536.266849
3789.358313,-10584.944971,-370.102971,229.828649
3789.358643,-9992.780217,-666.185348,-689.485948
3789.358974,-9918.759623,0.000000,-1378.971896
3789.359304,-9548.656652,-814.226536,-1915.238745
3789.359634,-9252.574275,-962.267725,-1991.848295
3789.359964,-9474.636058,-888.247130,-1608.800546
3789.360294,-9104.533087,-1036.288319,-459.657299
3789.360624,-8734.430116,-1332.370696,-229.828649
3789.360954,-9474.636058,-740.205942,-229.828649
3789.361284,-9844.739029,-888.247130,-689.485948
3789.361614,-10066.800811,-962.267725,-1149.143247
3789.361944,-9696.697840,-370.102971,-1455.581446
3789.362274,-10362.883188,-666.185348,-1455.581446
3789.362604,-10658.965565,-592.164754,-1455.581446
3789.362934,-10140.821405,-962.267725,-2374.896044
3789.363264,-9918.759623,-1184.329507,-1838.629195
3789.363594,-9844.739029,-1628.453072,-2911.162892
3789.363924,-9548.656652,-1628.453072,-2757.943793
3789.364254,-9474.636058,-1924.535449,-2068.457845
3789.364584,-8216.285956,-1850.514855,-2451.505594
3789.364914,-8216.285956,-1924.535449,-1608.800546
3789.365244,-9030.512492,-1110.308913,-612.876398
3789.365574,-10140.821405,-814.226536,383.047749
3789.365904,-10510.924376,-814.226536,306.438199
3789.366235,-11547.212695,-740.205942,153.219100
3789.366565,-11843.295072,-1110.308913,-306.438199
3789.366895,-12139.377449,-1776.494261,-1532.190996
3789.367225,-11473.192101,-2072.576638,-2987.772442
3789.367555,-10140.821405,-2442.679609,-3907.087040
3789.367885,-7846.182985,-3182.885551,-3983.696590
3789.368215,-7031.956449,-2960.823768,-2221.676944
3789.368545,-7994.224174,-2146.597232,-612.876398
3789.368875,-9400.615463,-444.123565,-766.095498
3789.369205,-10584.944971,-666.185348,-2604.724693
3789.369535,-11473.192101,-962.267725,-4060.306139
3789.369865,-11843.295072,-2146.597232,-4519.963438
3789.370195,-11843.295072,-3627.009116,-3753.867940
3789.370525,-10214.842000,-4589.276840,-2604.724693
3789.370855,-8068.244768,-5551.544565,-2451.505594
3789.371185,-6661.853478,-5329.482782,-2451.505594
3789.371515,-7179.997637,-4441.235652,-2681.334243
3789.371845,-8216.285956,-3108.864956,-2451.505594
3789.372175,-9622.677246,-1924.535449,-1302.362347
3789.372505,-11177.109724,-1332.370696,-1378.971896
3789.372835,-11325.150913,-1406.391290,-2451.505594
3789.373165,-11547.212695,-2664.741391,-3983.696590
3789.373496,-10658.965565,-4515.256246,-5439.278036
3789.373826,-9400.615463,-5181.441594,-5286.058936
3789.374156,-9104.533087,-5773.606348,-3830.477490
3789.374486,-8586.388927,-5699.585753,-1762.019645
3789.374816,-7698.141797,-5033.400406,-76.609550
3789.375146,-7772.162391,-3997.112087,689.485948
3789.375476,-9104.533087,-2886.803174,536.266849
3789.375806,-11621.233289,-2294.638420,-1225.752797
3789.376136,-12361.439231,-1628.453072,-2834.553343
3789.376466,-11547.212695,-2664.741391,-3600.648841
3789.376796,-10288.862594,-3997.112087,-3600.648841
3789.377126,-9622.677246,-4737.318029,-3217.601092
3789.377456,-9548.656652,-5033.400406,-2221.676944
3789.377786,-8438.347739,-5181.441594,-1149.143247
3789.378116,-8142.265362,-3849.070898,-995.924147
3789.378446,-9400.615463,-3108.864956,-1149.143247
3789.378776,-10140.821405,-1924.535449,-306.438199
3789.379106,-11843.295072,-1776.494261,995.924147
3789.379436,-13915.871710,-1258.350101,689.485948
3789.379766,-11029.068536,-2220.617826,-536.266849
3789.380096,-9326.594869,-2590.720797,-766.095498
3789.380426,-9844.739029,-2664.741391,-2145.067394
3789.380757,-10955.047942,-2368.659014,-3217.601092
3789.381087,-9844.739029,-2812.782580,-2757.943793
3789.381417,-9400.615463,-2368.659014,-2451.505594
3789.381747,-9030.512492,-2294.638420,-1072.533697
3789.382077,-9696.697840,-2146.597232,229.828649
3789.382407,-9844.739029,-1480.411884,383.047749
3789.382737,-9326.594869,-1554.432478,-1915.238745
3789.383067,-8290.306550,-1554.432478,-2681.334243
3789.383397,-9400.615463,-1554.432478,-2451.505594
3789.383727,-9770.718434,-1184.329507,-766.095498
3789.384057,-10214.842000,-962.267725,689.485948
3789.384387,-10881.027347,-222.061783,0.000000
3789.384717,-10807.006753,-592.164754,-2834.553343
3789.385047,-10732.986159,-1406.391290,-4673.182538
3789.385377,-9844.739029,-1850.514855,-4290.134789
3789.385707,-9252.574275,-1554.432478,-3064.381992
3789.386037,-10288.862594,-740.205942,-1072.533697
3789.386367,-8734.430116,-814.226536,-2068.457845
3789.386697,-6957.935855,-1036.288319,-3294.210641
3789.387027,-6957.935855,-1258.350101,-4903.011187
3789.387357,-8364.327145,-1184.329507,-2911.162892
3789.387687,-10881.027347,-296.082377,229.828649
3789.388018,-11325.150913,370.102971,383.047749
3789.388348,-10732.986159,0.000000,-1072.533697
3789.388678,-10584.944971,-370.102971,-2374.896044
3789.389008,-10955.047942,-1036.288319,-3524.039291
3789.389338,-12139.377449,-1184.329507,-3370.820191
3789.389668,-10510.924376,-1110.308913,-3294.210641
3789.389998,-7846.182985,-1332.370696,-2451.505594
3789.390328,-7105.977043,-1406.391290,-995.924147
3789.390658,-7846.182985,-444.123565,-766.095498
3789.390988,-10807.006753,222.061783,-2298.286494
3789.391318,-10140.821405,-296.082377,-3524.039291
3789.391648,-9548.656652,-814.226536,-1991.848295
3789.391978,-10214.842000,-1036.288319,-76.609550
3789.392308,-11325.150913,-888.247130,995.924147
3789.392638,-12139.377449,-1776.494261,76.609550
3789.392968,-10140.821405,-2220.617826,-1838.629195
3789.393298,-8882.471304,-1850.514855,-2528.115143
3789.393628,-9696.697840,-2220.617826,-1455.581446
3789.393958,-10584.944971,-1776.494261,-76.609550
3789.394288,-9548.656652,-1776.494261,229.828649
3789.394618,-8290.306550,-2146.597232,-1225.752797
3789.394948,-8808.450710,-1332.370696,-2834.553343
3789.395279,-10510.924376,-1850.514855,-3830.477490
3789.395609,-10436.903782,-2738.761985,-3294.210641
3789.395939,-8808.450710,-2738.761985,-1302.362347
3789.396269,-9252.574275,-3034.844362,-1532.190996
3789.396599,-10214.842000,-3256.906145,-1685.410096
3789.396929,-10658.965565,-3775.050304,-919.314598
3789.397259,-10510.924376,-4145.153275,-1072.533697
3789.397589,-9548.656652,-4071.132681,-2604.724693
3789.397919,-10066.800811,-3627.009116,-2987.772442
3789.398249,-9918.759623,-3256.906145,-1455.581446
3789.398579,-10066.800811,-3182.885551,-1302.362347
3789.398909,-8438.347739,-3182.885551,-3370.820191
3789.399239,-7254.018232,-3701.029710,-5132.839837
3789.399569,-8438.347739,-3034.844362,-4749.792088
3789.399899,-10732.986159,-3256.906145,-3140.991542
3789.400229,-11769.274478,-2738.761985,-1838.629195
3789.400559,-11177.109724,-3923.091493,-1532.190996
3789.400889,-9326.594869,-4367.215058,-2221.676944
3789.401219,-9030.512492,-4219.173869,-1762.019645
3789.401549,-9474.636058,-3775.050304,-536.266849
3789.401879,-10955.047942,-3775.050304,-536.266849
3789.402210,-9030.512492,-3923.091493,-2451.505594
3789.402540,-8142.265362,-2738.761985,-3140.991542
3789.402870,-10214.842000,-2294.638420,-2604.724693
3789.403200,-11695.253884,-2146.597232,-1762.019645
3789.403530,-10362.883188,-2146.597232,-2068.457845
3789.403860,-9252.574275,-2812.782580,-3370.820191
3789.404190,-9030.512492,-2738.761985,-4136.915689
3789.404520,-9474.636058,-2960.823768,-2528.115143
3789.404850,-10140.821405,-2960.823768,0.000000
3789.405180,-9770.718434,-2738.761985,1532.190996
3789.405510,-9474.636058,-1406.391290,1225.752797
3789.405840,-8808.450710,-2072.576638,-766.095498
3789.406170,-10584.944971,-1776.494261,-1149.143247
3789.406500,-9548.656652,-1184.329507,-459.657299
3789.406830,-9770.718434,-814.226536,-842.705048
3789.407160,-10436.903782,-962.267725,-2374.896044
3789.407490,-9178.553681,-1110.308913,-2145.067394
3789.407820,-9548.656652,-592.164754,-766.095498
3789.408150,-10881.027347,-666.185348,-1149.143247
3789.408480,-10066.800811,-1628.453072,-1608.800546
3789.408810,-8438.347739,-1554.432478,-1532.190996
3789.409140,-8586.388927,-1184.329507,0.000000
3789.409470,-9030.512492,-296.082377,1838.629195
3789.409800,-9992.780217,222.061783,1532.190996
3789.410130,-9252.574275,148.041188,-306.438199
3789.410460,-8660.409521,0.000000,-459.657299
3789.410790,-10066.800811,814.226536,-306.438199
3789.411120,-11399.171507,814.226536,-383.047749
3789.411450,-10881.027347,666.185348,-919.314598
3789.411780,-9992.780217,444.123565,-1378.971896
3789.412110,-9474.636058,222.061783,-1762.019645
3789.412440,-8290.306550,0.000000,-1072.533697
3789.412770,-8364.327145,518.144159,-306.438199
3789.413100,-9474.636058,370.102971,76.609550
3789.413430,-9030.512492,592.164754,459.657299
3789.413760,-8660.409521,1406.391290,689.485948
3789.414090,-9548.656652,1332.370696,766.095498
3789.414420,-10732.986159,1702.473667,1149.143247
3789.414750,-11621.233289,1776.494261,766.095498
3789.415080,-10658.965565,1332.370696,459.657299
3789.415410,-10362.883188,1110.308913,1149.143247
3789.415740,-10510.924376,1998.556043,536.266849
3789.416070,-10362.883188,1110.308913,-229.828649
3789.416400,-10140.821405,888.247130,-536.266849
3789.416730,-9474.636058,1332.370696,-1225.752797
3789.417060,-10066.800811,1628.453072,-306.438199
3789.417390,-10732.986159,1480.411884,-76.609550
3789.417720,-9622.677246,962.267725,-842.705048
3789.418050,-9178.553681,1406.391290,-459.657299
3789.418380,-10510.924376,1332.370696,689.485948
3789.418710,-11399.171507,0.000000,2374.896044
3789.419040,-10807.006753,-444.123565,2528.115143
3789.419370,-9696.697840,-148.041188,1608.800546
3789.419700,-9030.512492,-1184.329507,536.266849
3789.420030,-9252.574275,-1110.308913,995.924147
3789.420360,-8882.471304,-518.144159,1072.533697
3789.420690,-8660.409521,-370.102971,995.924147
3789.421020,-8882.471304,148.041188,153.219100
3789.421350,-8956.491898,148.041188,-383.047749
3789.421680,-9696.697840,740.205942,612.876398
3789.422010,-10214.842000,1036.288319,76.609550
3789.422340,-10214.842000,74.020594,-689.485948
3789.422670,-10214.842000,-740.205942,-995.924147
3789.423000,-9252.574275,-592.164754,-306.438199
3789.423330,-8956.491898,-1184.329507,766.095498
3789.423660,-9326.594869,-370.102971,612.876398
3789.423990,-9548.656652,-148.041188,-153.219100
3789.424320,-8734.430116,444.123565,-995.924147
3789.424650,-10362.883188,518.144159,0.000000
3789.424980,-9844.739029,518.144159,383.047749
3789.425310,-10362.883188,0.000000,1225.752797
3789.425640,-11251.130318,148.041188,919.314598
3789.425970,-10584.944971,-888.247130,76.609550
3789.426300,-10140.821405,-1406.391290,-536.266849
3789.426630,-9844.739029,-962.267725,-766.095498
3789.426960,-9252.574275,-1332.370696,-383.047749
3789.427290,-9918.759623,-740.205942,306.438199
3789.427620,-10362.883188,-518.144159,0.000000
3789.427950,-10436.903782,-296.082377,1072.533697
3789.428280,-10658.965565,-888.247130,1302.362347
3789.428610,-9918.759623,-666.185348,1149.143247
3789.428940,-9178.553681,-962.267725,1762.019645
3789.429270,-9326.594869,0.000000,1378.971896
3789.429600,-9326.594869,-1406.391290,919.314598
3789.429931,-10140.821405,-888.247130,842.705048
3789.430261,-10140.821405,-1184.329507,-689.485948
3789.430591,-9696.697840,-1258.350101,-1072.533697
3789.430921,-9548.656652,-1036.288319,153.219100
3789.431251,-9844.739029,-740.205942,459.657299
3789.431581,-8956.491898,-666.185348,-229.828649
3789.431911,-8586.388927,-370.102971,-1072.533697
3789.432241,-8512.368333,-814.226536,-1455.581446
3789.432571,-8660.409521,-740.205942,229.828649
3789.432901,-9474.636058,148.041188,536.266849
3789.433231,-9770.718434,0.000000,306.438199
3789.433561,-9844.739029,-74.020594,-995.924147
3789.433891,-10510.924376,0.000000,-1685.410096
3789.434221,-10584.944971,-444.123565,-1762.019645
3789.434551,-10732.986159,0.000000,766.095498
3789.434881,-9622.677246,-296.082377,306.438199
3789.435211,-9326.594869,0.000000,995.924147
3789.435541,-9696.697840,296.082377,1072.533697
3789.435871,-10436.903782,888.247130,306.438199
3789.436201,-10732.986159,74.020594,612.876398
3789.436531,-10510.924376,1110.308913,459.657299
3789.436861,-9252.574275,888.247130,612.876398
3789.437191,-10288.862594,962.267725,1072.533697
3789.437521,-10807.006753,888.247130,536.266849
3789.437851,-10066.800811,666.185348,459.657299
3789.438181,-9770.718434,518.144159,306.438199
3789.438511,-9326.594869,814.226536,0.000000
3789.438841,-9548.656652,592.164754,1378.971896
3789.439171,-10066.800811,888.247130,2145.067394
3789.439501,-9844.739029,814.226536,1532.190996
3789.439831,-9104.533087,740.205942,1532.190996
3789.440161,-9474.636058,1406.391290,1149.143247
3789.440491,-9622.677246,1332.370696,536.266849
3789.440821,-9622.677246,1036.288319,0.000000
3789.441151,-9030.512492,1406.391290,-1225.752797
3789.441481,-8956.491898,962.267725,-536.266849
3789.441811,-10214.842000,1110.308913,383.047749
3789.442141,-9474.636058,1110.308913,0.000000
3789.442471,-8660.409521,962.267725,0.000000
3789.442801,-9474.636058,1776.494261,229.828649
3789.443131,-10214.842000,1554.432478,-76.609550
3789.443461,-10214.842000,1184.329507,536.266849
3789.443791,-9992.780217,1924.535449,766.095498
3789.444121,-9992.780217,1406.391290,995.924147
3789.444451,-10362.883188,888.247130,536.266849
3789.444781,-10436.903782,1036.288319,459.657299
3789.445111,-9770.718434,0.000000,1225.752797
3789.445441,-10066.800811,222.061783,1149.143247
3789.445771,-10881.027347,444.123565,383.047749
3789.446101,-9622.677246,-296.082377,612.876398
3789.446431,-8956.491898,74.020594,1072.533697
3789.446761,-9030.512492,592.164754,1072.533697
3789.447091,-10288.862594,0.000000,1072.533697
3789.447421,-10288.862594,1184.329507,689.485948
3789.447751,-9992.780217,222.061783,612.876398
3789.448081,-10584.944971,-370.102971,919.314598
3789.448411,-10510.924376,666.185348,1991.848295
3789.448741,-10881.027347,296.082377,766.095498
3789.449071,-10362.883188,-74.020594,-919.314598
3789.449401,-9104.533087,222.061783,-2451.505594
3789.449731,-8586.388927,0.000000,153.219100
3789.450061,-10436.903782,-74.020594,229.828649
3789.450391,-9400.615463,-148.041188,76.609550
3789.450721,-8882.471304,-592.164754,0.000000
3789.451051,-9326.594869,296.082377,-995.924147
3789.451381,-10140.821405,-148.041188,-1302.362347
3789.451711,-10436.903782,-148.041188,-919.314598
3789.452041,-10288.862594,-148.041188,-842.705048
3789.452371,-9474.636058,-740.205942,-229.828649
3789.452701,-10288.862594,-1184.329507,612.876398
3789.453031,-9696.697840,-740.205942,-995.924147
3789.453361,-9696.697840,-1554.432478,-995.924147
3789.453691,-9844.739029,-814.226536,-842.705048
3789.454021,-10288.862594,-2072.576638,-153.219100
3789.454351,-9696.697840,-1406.391290,842.705048
3789.454681,-9326.594869,-888.247130,1149.143247
3789.455011,-8660.409521,-1406.391290,612.876398
3789.455341,-8586.388927,-1702.473667,76.609550
3789.455671,-9622.677246,-814.226536,0.000000
3789.456001,-10436.903782,-1258.350101,919.314598
3789.456331,-10955.047942,-1110.308913,1302.362347
3789.456661,-9770.718434,-962.267725,919.314598
3789.456991,-9474.636058,-1702.473667,612.876398
3789.457321,-10140.821405,-814.226536,0.000000
3789.457651,-10436.903782,-962.267725,0.000000
3789.457981,-9992.780217,-1110.308913,383.047749
3789.458311,-9548.656652,0.000000,842.705048
3789.458641,-8438.347739,-666.185348,153.219100
3789.458971,-9178.553681,-370.102971,459.657299
3789.459301,-9252.574275,296.082377,459.657299
3789.459632,-9548.656652,-518.144159,0.000000
3789.459962,-9400.615463,-148.041188,-842.705048
3789.460292,-10140.821405,-222.061783,-536.266849
3789.460622,-10510.924376,-370.102971,1225.752797
3789.460952,-10288.862594,0.000000,1838.629195
3789.461282,-8660.409521,-814.226536,306.438199
3789.461612,-8512.368333,-1406.391290,229.828649
3789.461942,-10214.842000,518.144159,-229.828649
3789.462272,-10510.924376,296.082377,-536.266849
3789.462602,-10362.883188,296.082377,-612.876398
3789.462932,-8956.491898,740.205942,-689.485948
3789.463262,-9474.636058,0.000000,766.095498
3789.463592,-11473.192101,666.185348,1532.190996
3789.463922,-10584.944971,518.144159,612.876398
3789.464252,-8956.491898,74.020594,-306.438199
3789.464582,-9178.553681,370.102971,0.000000
3789.464912,-10658.965565,592.164754,536.266849
3789.465242,-11325.150913,-518.144159,2221.676944
3789.465572,-10881.027347,1406.391290,1455.581446
3789.465902,-9252.574275,740.205942,229.828649
3789.466232,-9400.615463,296.082377,-76.609550
3789.466562,-9622.677246,740.205942,-459.657299
3789.466892,-9474.636058,370.102971,995.924147
3789.467222,-9474.636058,1184.329507,1838.629195
3789.467552,-9992.780217,1628.453072,1072.533697
3789.467882,-9252.574275,592.164754,383.047749
3789.468212,-9770.718434,1776.494261,-76.609550
3789.468542,-9548.656652,962.267725,-842.705048
3789.468872,-10807.006753,666.185348,0.000000
3789.469202,-10214.842000,1776.494261,-383.047749
3789.469532,-9030.512492,518.144159,-229.828649
3789.469862,-8364.327145,222.061783,0.000000
3789.470192,-9030.512492,1036.288319,0.000000
3789.470522,-9622.677246,370.102971,689.485948
3789.470852,-10362.883188,1036.288319,536.266849
3789.471182,-9844.739029,1554.432478,0.000000
3789.471512,-9844.739029,1258.350101,459.657299
3789.471842,-10807.006753,1184.329507,0.000000
3789.472172,-10584.944971,888.247130,-766.095498
3789.472502,-10732.986159,518.144159,-459.657299
3789.472832,-10955.047942,1258.350101,-919.314598
3789.473162,-9104.533087,296.082377,-459.657299
3789.473492,-8512.368333,222.061783,459.657299
3789.473822,-9622.677246,1036.288319,1225.752797
3789.474152,-10288.862594,148.041188,689.485948
3789.474482,-9696.697840,592.164754,459.657299
3789.474812,-10140.821405,1184.329507,0.000000
3789.475142,-10658.965565,740.205942,306.438199
3789.475472,-9696.697840,0.000000,1225.752797
3789.475802,-9696.697840,148.041188,1378.971896
3789.476132,-9622.677246,74.020594,1455.581446
3789.476462,-10955.047942,1110.308913,842.705048
3789.476792,-10214.842000,0.000000,-229.828649
3789.477122,-8808.450710,0.000000,459.657299
3789.477452,-9474.636058,148.041188,842.705048
3789.477782,-9844.739029,-814.226536,459.657299
3789.478112,-9474.636058,518.144159,1149.143247
3789.478442,-8512.368333,-1036.288319,-612.876398
3789.478772,-8142.265362,-1036.288319,-306.438199
3789.479102,-8882.471304,-962.267725,1455.581446
3789.479432,-10732.986159,-666.185348,1608.800546
3789.479762,-9622.677246,-1480.411884,1378.971896
3789.480092,-9770.718434,0.000000,153.219100
3789.480422,-10732.986159,-74.020594,-383.047749
3789.480752,-11399.171507,-888.247130,229.828649
3789.481082,-10436.903782,-518.144159,229.828649
3789.481412,-9622.677246,-1554.432478,612.876398
3789.481742,-9918.759623,-740.205942,0.000000
3789.482072,-10066.800811,-1184.329507,-919.314598
3789.482402,-8438.347739,-1702.473667,-1225.752797
3789.482732,-9474.636058,-666.185348,-229.828649
3789.483062,-9770.718434,-888.247130,995.924147
3789.483392,-10140.821405,-1110.308913,1532.190996
3789.483722,-10658.965565,-296.082377,919.314598
3789.484052,-10807.006753,-888.247130,383.047749
3789.484382,-11177.109724,-1036.288319,-459.657299
3789.484712,-10881.027347,-444.123565,-459.657299
3789.485042,-9696.697840,-1110.308913,229.828649
3789.485372,-9178.553681,-962.267725,306.438199
3789.485702,-8734.430116,-296.082377,-766.095498
3789.486032,-9104.533087,-888.247130,-612.876398
3789.486362,-9622.677246,74.020594,-229.828649
3789.486692,-9252.574275,-444.123565,-306.438199
3789.487022,-9696.697840,-148.041188,842.705048
3789.487352,-9844.739029,444.123565,153.219100
3789.487682,-9844.739029,0.000000,-383.047749
3789.488012,-9622.677246,-296.082377,459.657299
3789.488342,-10362.883188,370.102971,0.000000
3789.488672,-10362.883188,0.000000,153.219100
3789.489002,-9696.697840,-370.102971,-689.485948
3789.489332,-9178.553681,0.000000,-1225.752797
3789.489663,-9030.512492,-962.267725,-459.657299
3789.489993,-8660.409521,-444.123565,-306.438199
3789.490323,-8734.430116,-222.061783,-689.485948
3789.490653,-8808.450710,-444.123565,229.828649
3789.490983,-9326.594869,740.205942,919.314598
3789.491313,-10362.883188,888.247130,1149.143247
3789.491643,-11029.068536,74.020594,995.924147
3789.491973,-11325.150913,1036.288319,842.705048
3789.492303,-9844.739029,-370.102971,1762.019645
3789.492633,-10214.842000,0.000000,1378.971896
3789.492963,-9844.739029,370.102971,1302.362347
3789.493293,-9400.615463,0.000000,1072.533697
3789.493623,-9474.636058,814.226536,612.876398
3789.493953,-9474.636058,888.247130,-612.876398
3789.494283,-9548.656652,592.164754,-536.266849
3789.494613,-10288.862594,1702.473667,-383.047749
3789.494943,-9918.759623,1036.288319,612.876398
3789.495273,-10066.800811,666.185348,153.219100
3789.495603,-9770.718434,1554.432478,-1149.143247
3789.495933,-9400.615463,0.000000,-1149.143247
3789.496263,-9252.574275,666.185348,-306.438199
3789.496593,-10362.883188,740.205942,459.657299
3789.496923,-10732.986159,222.061783,1149.143247
3789.497253,-9844.739029,1036.288319,1149.143247
3789.497583,-9030.512492,666.185348,536.266849
3789.497913,-9252.574275,0.000000,229.828649
3789.498243,-9548.656652,814.226536,-459.657299
3789.498573,-9548.656652,148.041188,-459.657299
3789.498903,-8882.471304,370.102971,153.219100
3789.499233,-9474.636058,1480.411884,0.000000
3789.499563,-10510.924376,222.061783,-76.609550
3789.499893,-11547.212695,592.164754,-689.485948
3789.500223,-10288.862594,74.020594,-842.705048
3789.500553,-8882.471304,-666.185348,536.266849
3789.500883,-9918.759623,0.000000,2374.896044
3789.501213,-9474.636058,148.041188,2068.457845
3789.501543,-9178.553681,-222.061783,1838.629195
3789.501873,-9474.636058,222.061783,995.924147
3789.502203,-10510.924376,0.000000,1149.143247
3789.502533,-11251.130318,444.123565,1378.971896
3789.502863,-10955.047942,814.226536,842.705048
3789.503193,-9474.636058,74.020594,1225.752797
3789.503523,-9770.718434,592.164754,459.657299
3789.503853,-10436.903782,148.041188,-995.924147
3789.504183,-10362.883188,0.000000,-612.876398
3789.504513,-9548.656652,0.000000,-153.219100
3789.504843,-8882.471304,0.000000,-459.657299
3789.505173,-8586.388927,-740.205942,766.095498
3789.505503,-9844.739029,296.082377,459.657299
3789.505833,-9252.574275,-888.247130,536.266849
3789.506163,-9326.594869,-370.102971,459.657299
3789.506493,-8956.491898,814.226536,-76.609550
3789.506823,-9992.780217,-518.144159,766.095498
3789.507152,-10140.821405,-148.041188,1762.019645
3789.507482,-10214.842000,0.000000,689.485948
3789.507812,-10214.842000,-370.102971,-766.095498
3789.508142,-10436.903782,0.000000,-1225.752797
3789.508472,-10362.883188,-518.144159,-766.095498
3789.508802,-9474.636058,-888.247130,306.438199
3789.509132,-9400.615463,74.020594,689.485948
3789.509462,-9030.512492,-592.164754,-612.876398
3789.509792,-9104.533087,-518.144159,0.000000
3789.510121,-9474.636058,370.102971,76.609550
3789.510451,-10140.821405,-296.082377,842.705048
3789.510781,-10807.006753,296.082377,842.705048
3789.511111,-11103.089130,0.000000,383.047749
3789.511441,-10214.842000,-518.144159,459.657299
3789.511771,-10362.883188,0.000000,536.266849
3789.512101,-10288.862594,-370.102971,-612.876398
3789.512431,-9474.636058,-296.082377,-383.047749
3789.512761,-9252.574275,0.000000,-536.266849
3789.513091,-8660.409521,-518.144159,0.000000
3789.513420,-8808.450710,-370.102971,0.000000
3789.513750,-9030.512492,518.144159,-689.485948
3789.514080,-9104.533087,148.041188,-306.438199
3789.514410,-10066.800811,74.020594,-536.266849
3789.514740,-9918.759623,-518.144159,-766.095498
3789.515070,-9844.739029,-666.185348,-1149.143247
3789.515400,-9400.615463,-518.144159,-612.876398
3789.515730,-9696.697840,-962.267725,0.000000
3789.516060,-9844.739029,-1554.432478,919.314598
3789.516390,-9770.718434,0.000000,1149.143247
3789.516719,-9400.615463,-592.164754,153.219100
3789.517049,-8660.409521,-1036.288319,-153.219100
3789.517379,-8586.388927,296.082377,-76.609550
3789.517709,-9548.656652,0.000000,1225.752797
3789.518039,-10955.047942,0.000000,1072.533697
3789.518369,-10807.006753,74.020594,0.000000
3789.518699,-9918.759623,-222.061783,-919.314598
3789.519029,-10362.883188,-370.102971,-1149.143247
3789.519359,-10658.965565,-370.102971,-383.047749
3789.519689,-9548.656652,-888.247130,1302.362347
3789.520018,-8512.368333,-518.144159,1072.533697
3789.520348,-8808.450710,0.000000,1225.752797
3789.520678,-9326.594869,0.000000,153.219100
3789.521008,-10658.965565,740.205942,306.438199
3789.521338,-10288.862594,888.247130,842.705048
3789.521668,-10436.903782,0.000000,689.485948
3789.521998,-9770.718434,666.185348,0.000000
3789.522328,-9696.697840,222.061783,842.705048
3789.522658,-10510.924376,0.000000,919.314598
3789.522987,-9696.697840,592.164754,-76.609550
3789.523317,-9400.615463,296.082377,-459.657299
3789.523647,-9474.636058,1110.308913,-1072.533697
3789.523977,-9400.615463,370.102971,-689.485948
3789.524307,-9252.574275,444.123565,995.924147
3789.524637,-9548.656652,1184.329507,612.876398
3789.524967,-9548.656652,888.247130,0.000000
3789.525297,-10214.842000,666.185348,689.485948
3789.525627,-10362.883188,1554.432478,76.609550
3789.525957,-9622.677246,888.247130,0.000000
3789.526286,-9696.697840,1184.329507,-306.438199
3789.526616,-9844.739029,962.267725,-612.876398
3789.526946,-10807.006753,666.185348,995.924147
3789.527276,-11029.068536,1036.288319,612.876398
3789.527606,-9918.759623,148.041188,-229.828649
3789.527936,-8660.409521,-518.144159,0.000000
3789.528266,-8512.368333,740.205942,689.485948
3789.528596,-9326.594869,518.144159,1762.019645
3789.528926,-9622.677246,666.185348,1302.362347
3789.529256,-9770.718434,1702.473667,153.219100
3789.529585,-10066.800811,148.041188,0.000000
3789.529915,-11177.109724,296.082377,153.219100
3789.530245,-11029.068536,222.061783,1378.971896
3789.530575,-10214.842000,74.020594,1915.238745
3789.530905,-9770.718434,370.102971,766.095498
3789.531235,-8734.430116,-740.205942,-1378.971896
3789.531565,-8438.347739,-1332.370696,-842.705048
3789.531895,-9104.533087,666.185348,919.314598
3789.532225,-9400.615463,0.000000,1991.848295
3789.532555,-9696.697840,222.061783,1762.019645
3789.532884,-9770.718434,962.267725,306.438199
3789.533214,-10288.862594,74.020594,0.000000
3789.533544,-10510.924376,592.164754,-1072.533697
3789.533874,-10732.986159,-592.164754,-1149.143247
3789.534204,-10214.842000,-1258.350101,-306.438199
3789.534534,-9326.594869,0.000000,153.219100
3789.534864,-9474.636058,-814.226536,-689.485948
3789.535194,-9400.615463,-1776.494261,-1225.752797
3789.535524,-9326.594869,-666.185348,-1302.362347
3789.535853,-9030.512492,-1406.391290,-612.876398
3789.536183,-9622.677246,-888.247130,842.705048
3789.536513,-10140.821405,-370.102971,1532.190996
3789.536843,-9770.718434,-1258.350101,1608.800546
3789.537173,-9622.677246,-666.185348,306.438199
3789.537503,-9696.697840,-1554.432478,-995.924147
3789.537833,-10881.027347,-1406.391290,229.828649
3789.538163,-10288.862594,-370.102971,766.095498
3789.538493,-9844.739029,-1628.453072,383.047749
3789.538823,-9030.512492,-1258.350101,0.000000
3789.539152,-9696.697840,0.000000,229.828649
3789.539482,-10214.842000,-518.144159,-536.266849
3789.539812,-9474.636058,0.000000,-766.095498
3789.540142,-9104.533087,0.000000,-1838.629195
3789.540472,-8216.285956,0.000000,-1072.533697
3789.540802,-9696.697840,666.185348,153.219100
3789.541132,-10955.047942,592.164754,459.657299
3789.541462,-10658.965565,-370.102971,0.000000
3789.541792,-10362.883188,962.267725,0.000000
3789.542122,-9770.718434,-222.061783,153.219100
3789.542451,-10510.924376,0.000000,766.095498
3789.542781,-9770.718434,74.020594,153.219100
3789.543111,-8734.430116,-444.123565,1455.581446
3789.543441,-10658.965565,-370.102971,1225.752797
3789.543771,-10362.883188,0.000000,153.219100
3789.544101,-8142.265362,-148.041188,0.000000
3789.544431,-9252.574275,666.185348,689.485948
3789.544761,-9770.718434,592.164754,1225.752797
3789.545091,-10362.883188,0.000000,1838.629195
3789.545421,-10732.986159,1406.391290,1149.143247
3789.545750,-10436.903782,888.247130,383.047749
3789.546080,-10584.944971,222.061783,229.828649
3789.546410,-10436.903782,1480.411884,-459.657299
3789.546740,-9770.718434,-518.144159,-153.219100
3789.547070,-8290.306550,222.061783,612.876398
3789.547400,-8364.327145,592.164754,1072.533697
3789.547730,-9844.739029,740.205942,1225.752797
3789.548060,-10214.842000,962.267725,612.876398
3789.548390,-9770.718434,962.267725,-383.047749
3789.548719,-9474.636058,592.164754,-383.047749
3789.549049,-10510.924376,2146.597232,766.095498
3789.549379,-9474.636058,1036.288319,153.219100
3789.549709,-9178.553681,-222.061783,76.609550
3789.550039,-9400.615463,1258.350101,-153.219100
3789.550369,-9622.677246,444.123565,-229.828649
3789.550699,-10584.944971,666.185348,0.000000
3789.551029,-9400.615463,666.185348,153.219100
3789.551359,-8364.327145,592.164754,689.485948
3789.551689,-9918.759623,1036.288319,1149.143247
3789.552018,-9992.780217,1036.288319,-536.266849
3789.552348,-9548.656652,148.041188,-612.876398
3789.552678,-10362.883188,1332.370696,-842.705048
3789.553008,-10658.965565,962.267725,-459.657299
3789.553338,-10066.800811,444.123565,229.828649
3789.553668,-9548.656652,814.226536,0.000000
3789.553998,-9918.759623,-296.082377,-459.657299
3789.554328,-10732.986159,0.000000,306.438199
3789.554658,-10362.883188,0.000000,306.438199
3789.554988,-8734.430116,-1332.370696,306.438199
3789.555317,-8512.368333,-148.041188,1915.238745
3789.555647,-9474.636058,-444.123565,2221.676944
3789.555977,-10140.821405,-888.247130,1762.019645
3789.556307,-9844.739029,296.082377,919.314598
3789.556637,-10140.821405,296.082377,536.266849
3789.556967,-10732.986159,-592.164754,1072.533697
3789.557297,-11103.089130,0.000000,766.095498
3789.557627,-11103.089130,-592.164754,766.095498
3789.557957,-10436.903782,-370.102971,76.609550
3789.558287,-9770.718434,-370.102971,-1225.752797
3789.558616,-8734.430116,-1332.370696,-842.705048
3789.558946,-8586.388927,-888.247130,459.657299
3789.559276,-8734.430116,-888.247130,612.876398
3789.559606,-9400.615463,-814.226536,1762.019645
3789.559936,-9918.759623,0.000000,229.828649
3789.560266,-10066.800811,-962.267725,-153.219100
3789.560596,-9918.759623,-1036.288319,383.047749
3789.560926,-10732.986159,-296.082377,842.705048
3789.561256,-10584.944971,-1258.350101,995.924147
3789.561586,-9918.759623,-1258.350101,1149.143247
3789.561915,-9770.718434,-518.144159,-536.266849
3789.562245,-9844.739029,-1184.329507,-995.924147
3789.562575,-10140.821405,-740.205942,-1302.362347
3789.562905,-9178.553681,-888.247130,-1838.629195
3789.563235,-8660.409521,-1480.411884,0.000000
3789.563565,-9326.594869,0.000000,459.657299
3789.563895,-9696.697840,-666.185348,995.924147
3789.564225,-9252.574275,-740.205942,1149.143247
3789.564555,-9104.533087,0.000000,0.000000
3789.564884,-10066.800811,148.041188,306.438199
3789.565214,-11399.171507,-148.041188,689.485948
3789.565544,-10807.006753,74.020594,-153.219100
3789.565874,-9918.759623,-74.020594,-536.266849
3789.566204,-9992.780217,-296.082377,-689.485948
3789.566534,-9696.697840,-74.020594,-1378.971896
3789.566864,-8734.430116,-888.247130,-612.876398
3789.567194,-7698.141797,814.226536,-612.876398
3789.567524,-7624.121203,0.000000,306.438199
3789.567854,-9474.636058,888.247130,1225.752797
3789.568183,-11103.089130,1332.370696,689.485948
3789.568513,-11029.068536,740.205942,0.000000
3789.568843,-11029.068536,740.205942,153.219100
3789.569173,-10584.944971,370.102971,0.000000
3789.569503,-9474.636058,74.020594,1378.971896
3789.569833,-9622.677246,518.144159,1608.800546
3789.570163,-10066.800811,296.082377,1302.362347
3789.570493,-9030.512492,0.000000,1149.143247
3789.570823,-9474.636058,1184.329507,766.095498
3789.571153,-9992.780217,1110.308913,1072.533697
3789.571482,-9918.759623,1036.288319,1149.143247
3789.571812,-9474.636058,740.205942,306.438199
3789.572142,-9474.636058,592.164754,0.000000
3789.572472,-10436.903782,1036.288319,383.047749
3789.572802,-10881.027347,740.205942,612.876398
3789.573132,-10288.862594,592.164754,1378.971896
3789.573462,-10140.821405,592.164754,2221.676944
3789.573792,-9548.656652,296.082377,1149.143247
3789.574122,-9030.512492,222.061783,842.705048
3789.574452,-10214.842000,962.267725,1302.362347
3789.574781,-10066.800811,1258.350101,689.485948
3789.575111,-9992.780217,1036.288319,383.047749
3789.575441,-9992.780217,1850.514855,-689.485948
3789.575771,-9622.677246,1480.411884,-842.705048
3789.576101,-9770.718434,814.226536,-689.485948
3789.576431,-9548.656652,1036.288319,-1302.362347
3789.576761,-8808.450710,0.000000,-1225.752797
3789.577091,-9696.697840,1406.391290,76.609550
3789.577421,-9178.553681,962.267725,-612.876398
3789.577750,-9178.553681,666.185348,0.000000
3789.578080,-9844.739029,1110.308913,76.609550
3789.578410,-9992.780217,592.164754,612.876398
3789.578740,-10214.842000,74.020594,1455.581446
3789.579070,-10066.800811,518.144159,306.438199
3789.579400,-8956.491898,0.000000,153.219100
3789.579730,-9474.636058,-296.082377,-229.828649
3789.580060,-10214.842000,888.247130,-689.485948
3789.580390,-10140.821405,0.000000,-766.095498
3789.580720,-10510.924376,592.164754,-766.095498
3789.581049,-9474.636058,0.000000,-1302.362347
3789.581379,-9844.739029,-518.144159,-76.609550
3789.581709,-9844.739029,222.061783,0.000000
3789.582039,-9844.739029,-666.185348,0.000000
3789.582369,-8956.491898,-1184.329507,842.705048
3789.582699,-9252.574275,-296.082377,842.705048
3789.583029,-9844.739029,-740.205942,2068.457845
3789.583359,-11103.089130,-666.185348,1838.629195
3789.583689,-10510.924376,-666.185348,689.485948
3789.584019,-10214.842000,-1110.308913,536.266849
3789.584348,-10584.944971,-666.185348,459.657299
3789.584678,-9770.718434,-1258.350101,0.000000
3789.585008,-8586.388927,-2146.597232,0.000000
3789.585338,-8956.491898,-296.082377,-153.219100
3789.585668,-9326.594869,-888.247130,-919.314598
3789.585998,-9326.594869,-1480.411884,-1072.533697
3789.586328,-9992.780217,0.000000,-459.657299
3789.586658,-9992.780217,-1332.370696,0.000000
3789.586988,-10066.800811,-1406.391290,383.047749
3789.587318,-8808.450710,-814.226536,229.828649
3789.587647,-8956.491898,-1702.473667,306.438199
3789.587977,-9696.697840,-518.144159,536.266849
3789.588307,-10362.883188,-666.185348,-229.828649
3789.588637,-9696.697840,-1628.453072,0.000000
3789.588967,-9844.739029,-148.041188,-1072.533697
3789.589297,-9992.780217,-1036.288319,-995.924147
3789.589627,-10510.924376,-1184.329507,0.000000
3789.589957,-9622.677246,-444.123565,-766.095498
3789.590287,-9104.533087,-1332.370696,-919.314598
3789.590616,-10066.800811,-1110.308913,0.000000
3789.590946,-9844.739029,-1036.288319,-459.657299
3789.591276,-8808.450710,-1406.391290,76.609550
3789.591606,-8660.409521,-518.144159,766.095498
3789.591936,-9548.656652,-518.144159,1149.143247
3789.592266,-10955.047942,-1258.350101,2068.457845
3789.592596,-10510.924376,0.000000,1608.800546
3789.592926,-9770.718434,-666.185348,612.876398
3789.593256,-9474.636058,-814.226536,1532.190996
3789.593586,-9770.718434,592.164754,766.095498
3789.593915,-9696.697840,74.020594,0.000000
3789.594245,-9474.636058,296.082377,-612.876398
3789.594575,-9400.615463,814.226536,-1302.362347
3789.594905,-9400.615463,666.185348,-383.047749
3789.595235,-9992.780217,1702.473667,76.609550
3789.595565,-10362.883188,1110.308913,-842.705048
3789.595895,-8956.491898,1036.288319,-919.314598
3789.596225,-9474.636058,1776.494261,-153.219100
3789.596555,-9918.759623,592.164754,0.000000
3789.596885,-10362.883188,666.185348,1455.581446
3789.597214,-9992.780217,2072.576638,2068.457845
3789.597544,-9474.636058,1184.329507,2145.067394
3789.597874,-9992.780217,1406.391290,1225.752797
3789.598204,-10066.800811,1406.391290,-306.438199
3789.598534,-9696.697840,592.164754,0.000000
3789.598864,-10584.944971,1480.411884,689.485948
3789.599194,-10066.800811,1406.391290,919.314598
3789.599524,-9474.636058,592.164754,1532.190996
3789.599854,-9178.553681,1332.370696,153.219100
3789.600184,-9030.512492,814.226536,0.000000
3789.600513,-9918.759623,962.267725,306.438199
3789.600843,-10214.842000,1332.370696,842.705048
3789.601173,-11103.089130,1480.411884,1762.019645
3789.601503,-10807.006753,1406.391290,2298.286494
3789.601833,-9030.512492,518.144159,306.438199
3789.602163,-8512.368333,666.185348,-536.266849
3789.602493,-9548.656652,1332.370696,-689.485948
3789.602823,-10066.800811,962.267725,-919.314598
3789.603153,-9696.697840,666.185348,919.314598
3789.603482,-9844.739029,2294.638420,76.609550
3789.603812,-10362.883188,1110.308913,-229.828649
3789.604142,-10955.047942,1184.329507,-1302.362347
3789.604472,-10140.821405,1332.370696,-1838.629195
3789.604802,-9104.533087,518.144159,-1685.410096
3789.605132,-9474.636058,444.123565,-306.438199
3789.605462,-9844.739029,592.164754,536.266849
3789.605791,-10140.821405,518.144159,1608.800546
3789.606121,-10510.924376,888.247130,153.219100
3789.606451,-9622.677246,0.000000,-1225.752797
3789.606781,-9844.739029,-444.123565,-995.924147
3789.607111,-9844.739029,370.102971,-612.876398
3789.607440,-9696.697840,-1184.329507,-153.219100
3789.607770,-9918.759623,-1184.329507,1225.752797
3789.608100,-9474.636058,-1184.329507,229.828649
3789.608430,-9400.615463,-1258.350101,0.000000
3789.608760,-9104.533087,-1480.411884,153.219100
3789.609089,-9622.677246,-1480.411884,383.047749
3789.609419,-9474.636058,-1850.514855,2528.115143
3789.609749,-10066.800811,-592.164754,2757.943793
3789.610079,-10066.800811,-1480.411884,2451.505594
3789.610408,-10140.821405,-962.267725,1378.971896
3789.610738,-10658.965565,-370.102971,76.609550
3789.611068,-10066.800811,-1406.391290,-842.705048
3789.611398,-9622.677246,-1406.391290,0.000000
3789.611728,-9770.718434,-1258.350101,-383.047749
3789.612057,-8956.491898,-1110.308913,-459.657299
3789.612387,-9474.636058,-740.205942,689.485948
3789.612717,-9918.759623,-740.205942,-689.485948
3789.613047,-9548.656652,-1554.432478,-459.657299
3789.613376,-10140.821405,-296.082377,536.266849
3789.613706,-10288.862594,-740.205942,995.924147
3789.614036,-9548.656652,-1258.350101,1225.752797
3789.614366,-8956.491898,-518.144159,842.705048
3789.614696,-9400.615463,-888.247130,459.657299
3789.615025,-10436.903782,-1184.329507,229.828649
3789.615355,-10362.883188,-370.102971,-612.876398
3789.615685,-9770.718434,-1184.329507,0.000000
3789.616015,-9474.636058,-592.164754,76.609550
3789.616345,-9474.636058,-296.082377,229.828649
3789.616674,-9474.636058,-592.164754,383.047749
3789.617004,-10140.821405,518.144159,-306.438199
3789.617334,-10214.842000,148.041188,-612.876398
3789.617664,-10584.944971,0.000000,76.609550
3789.617993,-10510.924376,444.123565,842.705048
3789.618323,-10140.821405,0.000000,1455.581446
3789.618653,-10066.800811,-148.041188,1838.629195
3789.618983,-10436.903782,222.061783,459.657299
3789.619313,-9326.594869,-222.061783,-766.095498
3789.619642,-9030.512492,222.061783,-459.657299
3789.619972,-9474.636058,814.226536,-383.047749
3789.620302,-9474.636058,592.164754,842.705048
3789.620632,-10214.842000,666.185348,459.657299
3789.620962,-9918.759623,592.164754,-383.047749
3789.621291,-8956.491898,0.000000,-1762.019645
3789.621621,-8956.491898,444.123565,-919.314598
3789.621951,-8808.450710,962.267725,-153.219100
3789.622281,-9104.533087,370.102971,76.609550
3789.622610,-9252.574275,1554.432478,-842.705048
3789.622940,-8882.471304,1184.329507,0.000000
3789.623270,-10732.986159,1036.288319,306.438199
3789.623600,-10955.047942,1036.288319,-612.876398
3789.623930,-9696.697840,444.123565,-229.828649
3789.624259,-8808.450710,444.123565,-153.219100
3789.624589,-7920.203579,1110.308913,0.000000
3789.624919,-8586.388927,666.185348,995.924147
3789.625249,-10807.006753,2146.597232,306.438199
3789.625578,-10881.027347,1702.473667,-1532.190996
3789.625908,-10436.903782,962.267725,-612.876398
3789.626238,-9696.697840,1554.432478,-995.924147
3789.626568,-9696.697840,740.205942,153.219100
3789.626898,-10066.800811,962.267725,1838.629195
3789.627227,-9474.636058,1184.329507,842.705048
3789.627557,-9474.636058,592.164754,612.876398
3789.627887,-10807.006753,1258.350101,995.924147
3789.628217,-11621.233289,592.164754,1072.533697
3789.628547,-10288.862594,0.000000,2604.724693
3789.628876,-9696.697840,814.226536,2145.067394
3789.629206,-9474.636058,148.041188,2221.676944
3789.629536,-10066.800811,0.000000,1915.238745
3789.629866,-10140.821405,1184.329507,0.000000
3789.630195,-9474.636058,74.020594,-306.438199
3789.630525,-8882.471304,666.185348,153.219100
3789.630855,-9400.615463,814.226536,995.924147
3789.631185,-9548.656652,296.082377,2221.676944
3789.631515,-9918.759623,592.164754,842.705048
3789.631844,-9326.594869,518.144159,-1455.581446
3789.632174,-9252.574275,-370.102971,-919.314598
3789.632504,-10510.924376,1184.329507,76.609550
3789.632834,-10214.842000,592.164754,1072.533697
3789.633164,-9622.677246,0.000000,612.876398
3789.633493,-8734.430116,518.144159,-612.876398
3789.633823,-8808.450710,0.000000,-919.314598
3789.634153,-9844.739029,0.000000,306.438199
3789.634483,-10732.986159,74.020594,-306.438199
3789.634812,-9622.677246,-888.247130,-306.438199
3789.635142,-10214.842000,-370.102971,0.000000
3789.635472,-9696.697840,-592.164754,0.000000
3789.635802,-10288.862594,-1554.432478,689.485948
3789.636132,-9474.636058,-740.205942,459.657299
3789.636461,-9548.656652,-1406.391290,-229.828649
3789.636791,-10214.842000,-1480.411884,995.924147
3789.637121,-10288.862594,-888.247130,995.924147
3789.637451,-9770.718434,-1480.411884,1225.752797
3789.637780,-9770.718434,-1406.391290,1838.629195
3789.638110,-10288.862594,-1258.350101,306.438199
3789.638440,-8512.368333,-2368.659014,0.000000
3789.638770,-8068.244768,-1628.453072,153.219100
3789.639100,-9030.512492,-1258.350101,306.438199
3789.639429,-10288.862594,-1406.391290,1149.143247
3789.639759,-10807.006753,-296.082377,383.047749
3789.640089,-10066.800811,-740.205942,-229.828649
3789.640419,-10214.842000,-1628.453072,0.000000
3789.640749,-9770.718434,-814.226536,-689.485948
3789.641078,-8438.347739,-1702.473667,-766.095498
3789.641408,-8882.471304,-592.164754,-536.266849
3789.641738,-8956.491898,-296.082377,-995.924147
3789.642068,-9474.636058,-222.061783,-612.876398
3789.642397,-10881.027347,666.185348,-1149.143247
3789.642727,-10881.027347,518.144159,-1838.629195
3789.643057,-10436.903782,-888.247130,-1225.752797
3789.643387,-9326.594869,0.000000,-612.876398
3789.643717,-9326.594869,-444.123565,919.314598
3789.644046,-9622.677246,-740.205942,1532.190996
3789.644376,-9992.780217,-222.061783,153.219100
3789.644706,-9770.718434,-592.164754,-153.219100
3789.645036,-9844.739029,-444.123565,229.828649
3789.645365,-9622.677246,0.000000,306.438199
3789.645695,-9326.594869,-518.144159,1378.971896
3789.646025,-9622.677246,0.000000,1838.629195
3789.646355,-10214.842000,592.164754,919.314598
3789.646685,-10732.986159,-666.185348,0.000000
3789.647014,-9992.780217,518.144159,-383.047749
3789.647344,-9400.615463,370.102971,-76.609550
3789.647674,-9400.615463,296.082377,459.657299
3789.648004,-9844.739029,592.164754,612.876398
3789.648334,-10140.821405,518.144159,536.266849
3789.648663,-10362.883188,666.185348,689.485948
3789.648993,-10807.006753,592.164754,-612.876398
3789.649323,-9696.697840,74.020594,0.000000
3789.649653,-8586.388927,1184.329507,995.924147
3789.649982,-8586.388927,1110.308913,1225.752797
3789.650312,-9400.615463,962.267725,459.657299
3789.650642,-9622.677246,1554.432478,-995.924147
3789.650972,-9474.636058,1110.308913,-1991.848295
3789.651302,-10140.821405,518.144159,-612.876398
3789.651631,-11029.068536,1184.329507,229.828649
3789.651961,-9918.759623,0.000000,536.266849
3789.652291,-9178.553681,444.123565,76.609550
3789.652621,-8216.285956,740.205942,-229.828649
3789.652951,-8956.491898,74.020594,-842.705048
3789.653280,-9844.739029,1332.370696,-306.438199
3789.653610,-10288.862594,518.144159,0.000000
3789.653940,-10362.883188,1332.370696,1608.800546
3789.654270,-10732.986159,1110.308913,1685.410096
3789.654599,-9918.759623,444.123565,306.438199
3789.654929,-9770.718434,-444.123565,766.095498
3789.655259,-9844.739029,1110.308913,229.828649
3789.655589,-9030.512492,-74.020594,76.609550
3789.655919,-9770.718434,518.144159,689.485948
3789.656248,-9474.636058,1036.288319,766.095498
3789.656578,-10066.800811,74.020594,1378.971896
3789.656908,-11103.089130,1406.391290,459.657299
3789.657238,-10288.862594,222.061783,0.000000
3789.657567,-9178.553681,148.041188,0.000000
3789.657897,-9252.574275,666.185348,0.000000
3789.658227,-10510.924376,592.164754,459.657299
3789.658557,-10214.842000,-592.164754,995.924147
3789.658887,-9770.718434,370.102971,-842.705048
3789.659216,-9030.512492,-962.267725,-76.609550
3789.659546,-9326.594869,0.000000,383.047749
3789.659876,-9622.677246,0.000000,842.705048
3789.660206,-8956.491898,-740.205942,1532.190996
3789.660536,-9326.594869,444.123565,1378.971896
3789.660865,-10510.924376,592.164754,689.485948
3789.661195,-10807.006753,-148.041188,306.438199
3789.661525,-10658.965565,444.123565,-1455.581446
3789.661855,-10288.862594,0.000000,-919.314598
3789.662184,-9844.739029,-1184.329507,459.657299
3789.662514,-9622.677246,-222.061783,76.609550
3789.662844,-8290.306550,-888.247130,-536.266849
3789.663174,-8956.491898,-222.061783,76.609550
3789.663504,-9622.677246,148.041188,0.000000
3789.663833,-9548.656652,-888.247130,919.314598
3789.664163,-10214.842000,296.082377,1762.019645
3789.664493,-10214.842000,-148.041188,1455.581446
3789.664823,-10881.027347,-740.205942,1762.019645
3789.665153,-10955.047942,0.000000,766.095498
3789.665482,-9770.718434,-740.205942,76.609550
3789.665812,-9474.636058,-1110.308913,306.438199
3789.666142,-10362.883188,222.061783,0.000000
3789.666472,-9400.615463,-814.226536,536.266849
3789.666801,-9326.594869,-592.164754,1378.971896
3789.667131,-8734.430116,74.020594,612.876398
3789.667461,-8660.409521,-592.164754,459.657299
3789.667791,-9622.677246,444.123565,153.219100
3789.668121,-8660.409521,222.061783,-1532.190996
3789.668450,-8734.430116,-222.061783,-689.485948
3789.668780,-10436.903782,1184.329507,-153.219100
3789.669110,-11103.089130,222.061783,0.000000
3789.669440,-10510.924376,-740.205942,229.828649
3789.669769,-9252.574275,814.226536,-689.485948
3789.670099,-9918.759623,0.000000,229.828649
3789.670429,-10584.944971,-222.061783,153.219100
3789.670759,-9770.718434,444.123565,0.000000
3789.671089,-8290.306550,-74.020594,0.000000
3789.671418,-9474.636058,1036.288319,306.438199
3789.671748,-9622.677246,296.082377,-536.266849
3789.672078,-9992.780217,148.041188,76.609550
3789.672408,-10066.800811,1480.411884,0.000000
3789.672738,-10807.006753,444.123565,229.828649
3789.673067,-11325.150913,-592.164754,1149.143247
3789.673397,-10362.883188,74.020594,1378.971896
3789.673727,-9696.697840,-148.041188,1685.410096
3789.674057,-9696.697840,-296.082377,919.314598
3789.674386,-9548.656652,-296.082377,-459.657299
3789.674716,-8068.244768,-370.102971,153.219100
3789.675046,-9326.594869,1036.288319,229.828649
3789.675376,-10584.944971,1110.308913,-153.219100
3789.675706,-10436.903782,-370.102971,0.000000
3789.676035,-10436.903782,1258.350101,76.609550
3789.676365,-9770.718434,148.041188,-612.876398
3789.676695,-10807.006753,-296.082377,0.000000
3789.677025,-9918.759623,0.000000,-536.266849
3789.677354,-7846.182985,-1258.350101,0.000000
3789.677684,-8660.409521,0.000000,766.095498
3789.678014,-9178.553681,74.020594,306.438199
3789.678344,-9474.636058,-740.205942,459.657299
3789.678674,-8734.430116,444.123565,-383.047749
3789.679003,-9400.615463,0.000000,-1608.800546
3789.679333,-10436.903782,-592.164754,-153.219100
3789.679663,-9844.739029,0.000000,306.438199
3789.679993,-9326.594869,-592.164754,306.438199
3789.680323,-9770.718434,-962.267725,76.609550
3789.680652,-10214.842000,518.144159,-1378.971896
3789.680982,-10362.883188,-962.267725,-1532.190996
3789.681312,-10362.883188,0.000000,-76.609550
3789.681642,-9474.636058,0.000000,0.000000
3789.681971,-9474.636058,-370.102971,919.314598
3789.682301,-9474.636058,814.226536,766.095498
3789.682631,-9696.697840,74.020594,0.000000
3789.682961,-9474.636058,-666.185348,-229.828649
3789.683291,-10658.965565,518.144159,-612.876398
3789.683620,-10510.924376,-666.185348,536.266849
3789.683950,-10584.944971,-518.144159,2068.457845
3789.684280,-9770.718434,740.205942,1455.581446
3789.684610,-9770.718434,-222.061783,1225.752797
3789.684940,-10955.047942,222.061783,919.314598
3789.685269,-10955.047942,1332.370696,-306.438199
3789.685599,-10214.842000,518.144159,0.000000
3789.685929,-9622.677246,888.247130,229.828649
3789.686259,-8290.306550,518.144159,229.828649
3789.686588,-8438.347739,296.082377,229.828649
3789.686918,-9696.697840,1110.308913,-536.266849
3789.687248,-10066.800811,222.061783,-383.047749
3789.687578,-10140.821405,0.000000,1302.362347
3789.687908,-9696.697840,1332.370696,1072.533697
3789.688237,-9622.677246,74.020594,1302.362347
3789.688567,-10140.821405,0.000000,1532.190996
3789.688897,-9844.739029,592.164754,1532.190996
3789.689227,-10066.800811,296.082377,1378.971896
3789.689556,-10288.862594,1332.370696,306.438199
3789.689886,-10214.842000,1036.288319,-383.047749
3789.690216,-9326.594869,592.164754,76.609550
3789.690546,-9104.533087,1258.350101,-689.485948
3789.690876,-9030.512492,518.144159,-1225.752797
3789.691205,-9474.636058,0.000000,306.438199
3789.691535,-9622.677246,666.185348,459.657299
3789.691865,-9104.533087,0.000000,1225.752797
3789.692195,-9992.780217,592.164754,1225.752797
3789.692525,-11251.130318,444.123565,0.000000
3789.692854,-10436.903782,0.000000,1225.752797
3789.693184,-10214.842000,518.144159,1685.410096
3789.693514,-10214.842000,222.061783,766.095498
3789.693844,-9474.636058,-740.205942,383.047749
3789.694173,-9178.553681,296.082377,229.828649
3789.694503,-8808.450710,370.102971,-459.657299
3789.694833,-9918.759623,74.020594,-306.438199
3789.695163,-10066.800811,888.247130,-1378.971896
3789.695493,-8956.491898,0.000000,-1072.533697
3789.695822,-9104.533087,518.144159,-383.047749
3789.696152,-9622.677246,222.061783,-1072.533697
3789.696482,-9770.718434,74.020594,-306.438199
3789.696812,-10066.800811,74.020594,-842.705048
3789.697142,-9770.718434,-370.102971,-1072.533697
3789.697471,-9918.759623,-740.205942,612.876398
3789.697801,-10436.903782,0.000000,1225.752797
3789.698131,-9992.780217,-518.144159,-153.219100
3789.698461,-8956.491898,-1184.329507,-459.657299
3789.698790,-8956.491898,-370.102971,-459.657299
3789.699120,-9252.574275,-1258.350101,153.219100
3789.699450,-10140.821405,74.020594,1991.848295
3789.699780,-10658.965565,-814.226536,842.705048
3789.700110,-9844.739029,-1258.350101,306.438199
3789.700439,-8956.491898,-740.205942,229.828649
3789.700769,-9918.759623,-666.185348,229.828649
3789.701099,-10881.027347,-1110.308913,1302.362347
3789.701429,-10066.800811,-222.061783,919.314598
3789.701758,-9474.636058,-444.123565,306.438199
3789.702088,-9548.656652,-1110.308913,689.485948
3789.702418,-11473.192101,296.082377,536.266849
3789.702748,-10362.883188,-592.164754,1149.143247
3789.703078,-9474.636058,-370.102971,842.705048
3789.703407,-9030.512492,148.041188,383.047749
3789.703737,-10510.924376,-296.082377,689.485948
3789.704067,-11917.315666,0.000000,383.047749
3789.704396,-10214.842000,-518.144159,-306.438199
3789.704726,-9104.533087,-1628.453072,-995.924147
3789.705055,-9030.512492,-444.123565,0.000000
3789.705385,-9030.512492,-1554.432478,383.047749
3789.705715,-7846.182985,-1258.350101,995.924147
3789.706044,-8734.430116,0.000000,459.657299
3789.706374,-10066.800811,-740.205942,76.609550
3789.706704,-11103.089130,-518.144159,842.705048
3789.707033,-10658.965565,0.000000,0.000000
3789.707363,-9474.636058,-814.226536,-459.657299
3789.707693,-9474.636058,-296.082377,-76.609550
3789.708022,-9252.574275,-888.247130,-612.876398
3789.708352,-9400.615463,-814.226536,0.000000
3789.708682,-9696.697840,-222.061783,-612.876398
3789.709011,-9252.574275,-518.144159,-842.705048
3789.709341,-9104.533087,-518.144159,766.095498
3789.709671,-9474.636058,296.082377,306.438199
3789.710000,-9474.636058,-370.102971,689.485948
3789.710330,-9696.697840,0.000000,1302.362347
3789.710660,-9696.697840,962.267725,-536.266849
3789.710989,-9696.697840,148.041188,-919.314598
3789.711319,-10732.986159,740.205942,-153.219100
3789.711648,-11103.089130,296.082377,842.705048
3789.711978,-10658.965565,444.123565,2298.286494
3789.712308,-9992.780217,518.144159,536.266849
3789.712637,-8586.388927,222.061783,-842.705048
3789.712967,-8734.430116,74.020594,536.266849
3789.713297,-9548.656652,1258.350101,-306.438199
3789.713626,-9696.697840,1036.288319,842.705048
3789.713956,-10288.862594,1258.350101,383.047749
3789.714286,-10732.986159,1332.370696,-995.924147
3789.714615,-9992.780217,222.061783,-842.705048
3789.714945,-10807.006753,962.267725,0.000000
3789.715275,-10584.944971,370.102971,0.000000
3789.715604,-9992.780217,-74.020594,1302.362347
3789.715934,-9770.718434,888.247130,1072.533697
3789.716264,-9474.636058,814.226536,459.657299
3789.716593,-9844.739029,-296.082377,229.828649
3789.716923,-11029.068536,888.247130,153.219100
3789.717252,-9844.739029,-592.164754,459.657299
3789.717582,-10140.821405,0.000000,1378.971896
3789.717912,-8734.430116,0.000000,1302.362347
3789.718241,-8068.244768,-814.226536,1685.410096
3789.718571,-9622.677246,518.144159,1149.143247
3789.718901,-10214.842000,740.205942,76.609550
3789.719230,-10510.924376,-444.123565,612.876398
3789.719560,-10584.944971,1184.329507,689.485948
3789.719890,-9770.718434,148.041188,0.000000
3789.720219,-10214.842000,-296.082377,842.705048
3789.720549,-9252.574275,370.102971,0.000000
3789.720879,-8290.306550,-222.061783,0.000000
3789.721208,-9474.636058,666.185348,76.609550
3789.721538,-8808.450710,1184.329507,-842.705048
3789.721868,-9030.512492,296.082377,229.828649
3789.722197,-10140.821405,1628.453072,153.219100
3789.722527,-10066.800811,888.247130,-459.657299
3789.722856,-10584.944971,296.082377,306.438199
3789.723186,-9844.739029,1036.288319,-306.438199
3789.723516,-9770.718434,592.164754,0.000000
3789.723845,-9104.533087,-296.082377,1072.533697
3789.724175,-9696.697840,1480.411884,153.219100
3789.724505,-9770.718434,370.102971,-842.705048
3789.724834,-10140.821405,666.185348,-1532.190996
3789.725164,-10584.944971,962.267725,-1762.019645
3789.725494,-9622.677246,-370.102971,-536.266849
3789.725823,-9992.780217,370.102971,0.000000
3789.726153,-9474.636058,-222.061783,0.000000
3789.726483,-9326.594869,-740.205942,536.266849
3789.726812,-10362.883188,740.205942,536.266849
3789.727142,-10140.821405,-222.061783,612.876398
3789.727472,-10955.047942,-962.267725,1762.019645
3789.727801,-11621.233289,222.061783,1225.752797
3789.728131,-10807.006753,-1480.411884,1762.019645
3789.728460,-9548.656652,-1554.432478,1685.410096
3789.728790,-8512.368333,-740.205942,1532.190996
3789.729120,-8364.327145,-1036.288319,1225.752797
3789.729449,-9548.656652,0.000000,1225.752797
3789.729779,-9696.697840,148.041188,0.000000
3789.730109,-10362.883188,-1184.329507,383.047749
3789.730438,-11399.171507,370.102971,-766.095498
3789.730768,-9400.615463,-1554.432478,-459.657299
3789.731098,-8660.409521,-1554.432478,-153.219100
3789.731427,-7994.224174,-592.164754,-995.924147
3789.731757,-8068.244768,-1406.391290,0.000000
3789.732087,-9474.636058,-518.144159,689.485948
3789.732416,-10140.821405,74.020594,76.609550
3789.732746,-10510.924376,-740.205942,766.095498
3789.733076,-10510.924376,222.061783,995.924147
3789.733405,-10584.944971,-592.164754,-919.314598
3789.733735,-9326.594869,-1850.514855,-1072.533697
3789.734065,-8734.430116,-148.041188,-1838.629195
3789.734394,-9030.512492,-1184.329507,-1149.143247
3789.734724,-9992.780217,-740.205942,0.000000
3789.735053,-10436.903782,0.000000,-459.657299
3789.735383,-9696.697840,-962.267725,-842.705048
3789.735713,-9918.759623,-592.164754,-306.438199
3789.736042,-10807.006753,-148.041188,-995.924147
3789.736372,-9474.636058,-1406.391290,1225.752797
3789.736702,-9326.594869,-296.082377,1608.800546
3789.737031,-9104.533087,-444.123565,842.705048
3789.737361,-9918.759623,-1036.288319,459.657299
3789.737691,-11103.089130,370.102971,-536.266849
3789.738020,-10955.047942,-296.082377,306.438199
3789.738350,-10288.862594,-740.205942,1608.800546
3789.738680,-9474.636058,148.041188,1532.190996
3789.739009,-9252.574275,-296.082377,2145.067394
3789.739339,-10436.903782,666.185348,612.876398
3789.739669,-9770.718434,888.247130,-1532.190996
3789.739998,-8512.368333,0.000000,-1608.800546
3789.740328,-10362.883188,1628.453072,-459.657299
3789.740657,-10732.986159,1110.308913,306.438199
3789.740987,-9992.780217,0.000000,1072.533697
3789.741317,-9178.553681,2220.617826,-153.219100
3789.741646,-8660.409521,222.061783,-1532.190996
3789.741976,-9770.718434,370.102971,-459.657299
3789.742306,-10066.800811,814.226536,76.609550
3789.742635,-9104.533087,0.000000,1991.848295
3789.742965,-9104.533087,888.247130,2911.162892
3789.743295,-10288.862594,1554.432478,1149.143247
3789.743624,-10214.842000,74.020594,153.219100
3789.743954,-10510.924376,1110.308913,-1149.143247
3789.744284,-9844.739029,296.082377,-766.095498
3789.744613,-9918.759623,0.000000,1608.800546
3789.744943,-10066.800811,1258.350101,2834.553343
3789.745273,-8808.450710,0.000000,1915.238745
3789.745602,-7920.203579,444.123565,1225.752797
3789.745932,-8956.491898,1850.514855,-1838.629195
3789.746261,-11325.150913,1332.370696,-1532.190996
3789.746591,-12213.398043,1332.370696,612.876398
3789.746921,-10510.924376,1110.308913,1149.143247
3789.747250,-8882.471304,518.144159,2068.457845
3789.747580,-9770.718434,1332.370696,842.705048
3789.747910,-9918.759623,296.082377,-689.485948
3789.748239,-9548.656652,370.102971,-612.876398
3789.748569,-9992.780217,1628.453072,-612.876398
3789.748899,-9770.718434,1184.329507,229.828649
3789.749228,-9548.656652,0.000000,1838.629195
3789.749558,-9622.677246,962.267725,76.609550
3789.749888,-8882.471304,0.000000,-459.657299
3789.750217,-9474.636058,222.061783,-766.095498
3789.750547,-10140.821405,74.020594,-1915.238745
3789.750877,-8512.368333,-148.041188,76.609550
3789.751206,-9326.594869,740.205942,1915.238745
3789.751536,-9918.759623,0.000000,459.657299
3789.751866,-10510.924376,-296.082377,383.047749
3789.752195,-10436.903782,666.185348,-842.705048
3789.752525,-9548.656652,-740.205942,-1685.410096
3789.752854,-9326.594869,-888.247130,0.000000
3789.753184,-9622.677246,-296.082377,153.219100
3789.753514,-9326.594869,-1036.288319,1302.362347
3789.753843,-9844.739029,-518.144159,1455.581446
3789.754173,-10288.862594,148.041188,-766.095498
3789.754503,-9622.677246,-1332.370696,-1225.752797
3789.754832,-9844.739029,-296.082377,-153.219100
3789.755162,-10288.862594,-1406.391290,383.047749
3789.755492,-10214.842000,-1628.453072,1915.238745
3789.755821,-9696.697840,-962.267725,1685.410096
3789.756151,-8882.471304,-1110.308913,383.047749
3789.756481,-9178.553681,-1110.308913,842.705048
3789.756810,-10362.883188,0.000000,612.876398
3789.757140,-10288.862594,-444.123565,536.266849
3789.757470,-10658.965565,-592.164754,383.047749
3789.757799,-10140.821405,0.000000,-766.095498
3789.758129,-9992.780217,-962.267725,0.000000
3789.758458,-10362.883188,-370.102971,-536.266849
3789.758788,-8808.450710,-888.247130,-1915.238745
3789.759118,-7550.100608,-1036.288319,-842.705048
3789.759447,-9030.512492,74.020594,-1072.533697
3789.759777,-9770.718434,-518.144159,-383.047749
3789.760107,-10362.883188,-888.247130,1072.533697
3789.760436,-10436.903782,444.123565,0.000000
3789.760766,-9326.594869,-1036.288319,-76.609550
3789.761096,-10288.862594,-1036.288319,919.314598
3789.761425,-9770.718434,-1110.308913,-229.828649
3789.761755,-9252.574275,-2294.638420,842.705048
3789.762085,-9770.718434,-740.205942,1838.629195
3789.762414,-9030.512492,-1110.308913,1532.190996
3789.762744,-9474.636058,-1184.329507,1915.238745
3789.763074,-10214.842000,666.185348,536.266849
3789.763403,-9770.718434,148.041188,-1072.533697
3789.763733,-10066.800811,-74.020594,-306.438199
3789.764062,-9548.656652,740.205942,-1149.143247
3789.764392,-9474.636058,-148.041188,153.219100
3789.764722,-9844.739029,444.123565,1838.629195
3789.765051,-9770.718434,444.123565,842.705048
3789.765381,-9030.512492,-222.061783,842.705048
3789.765711,-10214.842000,888.247130,459.657299
3789.766040,-11251.130318,592.164754,536.266849
3789.766370,-11251.130318,296.082377,1685.410096
3789.766700,-9918.759623,1554.432478,536.266849
3789.767029,-8882.471304,1110.308913,-306.438199
3789.767359,-9622.677246,666.185348,383.047749
3789.767689,-9474.636058,1332.370696,-383.047749
3789.768018,-8068.244768,74.020594,-689.485948
3789.768348,-8956.491898,888.247130,-536.266849
3789.768678,-9474.636058,1480.411884,-76.609550
3789.769007,-9622.677246,666.185348,1762.019645
3789.769337,-10658.965565,1628.453072,1378.971896
3789.769666,-10140.821405,962.267725,229.828649
3789.769996,-9474.636058,296.082377,229.828649
3789.770326,-9844.739029,1258.350101,0.000000
3789.770655,-10066.800811,1406.391290,995.924147
3789.770985,-10288.862594,592.164754,2221.676944
3789.771315,-9770.718434,1258.350101,536.266849
3789.771644,-8216.285956,444.123565,0.000000
3789.771974,-9030.512492,222.061783,459.657299
3789.772304,-9474.636058,1258.350101,0.000000
3789.772633,-9548.656652,666.185348,842.705048
3789.772963,-10288.862594,1850.514855,1225.752797
3789.773293,-10584.944971,1258.350101,306.438199
3789.773622,-11473.192101,666.185348,842.705048
3789.773952,-11325.150913,1258.350101,0.000000
3789.774282,-9548.656652,296.082377,-383.047749
3789.774611,-9252.574275,592.164754,612.876398
3789.774941,-9474.636058,1480.411884,153.219100
3789.775271,-9252.574275,148.041188,919.314598
3789.775600,-9844.739029,1036.288319,1149.143247
3789.775930,-10362.883188,888.247130,-995.924147
3789.776259,-9474.636058,370.102971,-766.095498
3789.776589,-9844.739029,592.164754,76.609550
3789.776919,-9252.574275,74.020594,-306.438199
3789.777248,-9770.718434,-222.061783,612.876398
3789.777578,-10658.965565,740.205942,-536.266849
3789.777908,-10140.821405,-1036.288319,-536.266849
3789.778237,-8956.491898,-740.205942,459.657299
3789.778567,-9400.615463,148.041188,153.219100
3789.778897,-9548.656652,-888.247130,-153.219100
3789.779226,-10584.944971,-222.061783,919.314598
3789.779556,-9696.697840,-444.123565,-383.047749
3789.779886,-9178.553681,-1036.288319,-229.828649
3789.780215,-9770.718434,0.000000,153.219100
3789.780545,-9548.656652,-1332.370696,-229.828649
3789.780875,-9548.656652,-1702.473667,0.000000
3789.781204,-10140.821405,-296.082377,-229.828649
3789.781534,-10510.924376,-1110.308913,0.000000
3789.781863,-9770.718434,-1406.391290,1149.143247
3789.782193,-9844.739029,-518.144159,0.000000
3789.782523,-9030.512492,-1258.350101,229.828649
3789.782852,-10510.924376,-962.267725,919.314598
3789.783182,-9844.739029,-888.247130,229.828649
3789.783512,-9474.636058,-1554.432478,76.609550
3789.783841,-9548.656652,-518.144159,-536.266849
3789.784171,-9770.718434,-1036.288319,-842.705048
3789.784501,-10140.821405,-1036.288319,306.438199
3789.784830,-9918.759623,-444.123565,-76.609550
3789.785160,-8956.491898,-1184.329507,-1072.533697
3789.785490,-9326.594869,-1480.411884,-689.485948
3789.785819,-9844.739029,-666.185348,-842.705048
3789.786149,-8734.430116,-1554.432478,1072.533697
3789.786479,-9622.677246,-444.123565,536.266849
3789.786808,-10510.924376,-518.144159,-842.705048
3789.787138,-9622.677246,-1406.391290,-153.219100
3789.787467,-9918.759623,-148.041188,612.876398
3789.787797,-9770.718434,-592.164754,-536.266849
3789.788127,-9548.656652,-1406.391290,229.828649
3789.788456,-9252.574275,148.041188,-536.266849
3789.788786,-8956.491898,-518.144159,-1225.752797
3789.789116,-10214.842000,-444.123565,-76.609550
3789.789445,-10732.986159,370.102971,306.438199
3789.789775,-10510.924376,74.020594,1378.971896
3789.790105,-10732.986159,518.144159,1532.190996
3789.790434,-10584.944971,74.020594,0.000000
3789.790764,-9030.512492,-1036.288319,689.485948
3789.791094,-9400.615463,148.041188,1685.410096
3789.791423,-9548.656652,296.082377,995.924147
3789.791753,-9770.718434,148.041188,1532.190996
3789.792083,-9770.718434,1036.288319,306.438199
3789.792412,-9400.615463,592.164754,-229.828649
3789.792742,-10288.862594,592.164754,612.876398
3789.793072,-10362.883188,1554.432478,612.876398
3789.793401,-9474.636058,518.144159,536.266849
3789.793731,-10066.800811,1110.308913,919.314598
3789.794060,-9696.697840,1036.288319,0.000000
3789.794390,-9252.574275,0.000000,76.609550
3789.794720,-10288.862594,666.185348,-306.438199
3789.795049,-9252.574275,1110.308913,-766.095498
3789.795379,-8438.347739,444.123565,689.485948
3789.795709,-9178.553681,1554.432478,76.609550
3789.796038,-9252.574275,814.226536,0.000000
3789.796368,-10362.883188,148.041188,766.095498
3789.796698,-10436.903782,814.226536,919.314598
3789.797027,-9326.594869,0.000000,1532.190996
3789.797357,-10066.800811,814.226536,1838.629195
3789.797687,-9622.677246,444.123565,0.000000
3789.798016,-8956.491898,296.082377,536.266849
3789.798346,-10362.883188,1406.391290,459.657299
3789.798676,-10807.006753,1480.411884,-153.219100
3789.799005,-10807.006753,444.123565,1378.971896
3789.799335,-10362.883188,2368.659014,995.924147
3789.799664,-8734.430116,666.185348,76.609550
3789.799994,-9770.718434,1258.350101,612.876398
3789.800324,-10584.944971,1628.453072,-536.266849
3789.800653,-9696.697840,370.102971,-459.657299
3789.800983,-9252.574275,740.205942,306.438199
3789.801313,-10140.821405,962.267725,306.438199
3789.801642,-11473.192101,222.061783,2451.505594
3789.801972,-10955.047942,592.164754,1608.800546
3789.802302,-9918.759623,444.123565,-536.266849
3789.802631,-9104.533087,-518.144159,-306.438199
3789.802961,-9474.636058,592.164754,-229.828649
3789.803291,-9622.677246,666.185348,76.609550
3789.803620,-9474.636058,296.082377,1455.581446
3789.803950,-9844.739029,444.123565,153.219100
3789.804280,-9104.533087,0.000000,0.000000
3789.804609,-9918.759623,-74.020594,153.219100
3789.804939,-9918.759623,0.000000,0.000000
3789.805268,-9474.636058,-962.267725,995.924147
3789.805598,-10658.965565,0.000000,1762.019645
3789.805928,-9918.759623,0.000000,459.657299
3789.806257,-9178.553681,-1036.288319,612.876398
3789.806587,-9918.759623,666.185348,-842.705048
3789.806917,-9474.636058,-296.082377,-1149.143247
3789.807246,-10436.903782,-888.247130,-459.657299
3789.807576,-10436.903782,222.061783,-766.095498
3789.807906,-9326.594869,-962.267725,0.000000
3789.808235,-10066.800811,-814.226536,842.705048
3789.808565,-9474.636058,-666.185348,0.000000
3789.808894,-8882.471304,-1110.308913,229.828649
3789.809224,-9400.615463,-148.041188,689.485948
3789.809554,-9622.677246,-296.082377,459.657299
3789.809883,-10658.965565,-962.267725,1838.629195
3789.810213,-10658.965565,296.082377,689.485948
3789.810543,-9992.780217,-592.164754,306.438199
3789.810872,-10214.842000,-1036.288319,306.438199
3789.811202,-9548.656652,-296.082377,-919.314598
3789.811532,-8734.430116,-1480.411884,153.219100
3789.811861,-9770.718434,0.000000,306.438199
3789.812191,-10066.800811,148.041188,-689.485948
3789.812520,-9474.636058,-1184.329507,-919.314598
3789.812850,-9104.533087,518.144159,0.000000
3789.813180,-9696.697840,-518.144159,0.000000
3789.813509,-10066.800811,-592.164754,766.095498
3789.813839,-9918.759623,0.000000,0.000000
3789.814169,-9326.594869,-814.226536,-689.485948
3789.814498,-9696.697840,-740.205942,229.828649
3789.814828,-10732.986159,-148.041188,-1225.752797
3789.815158,-9622.677246,-814.226536,-612.876398
3789.815487,-9474.636058,-666.185348,-612.876398
3789.815817,-9400.615463,-888.247130,-536.266849
3789.816146,-8586.388927,-1998.556043,689.485948
3789.816476,-9770.718434,148.041188,1532.190996
3789.816806,-9326.594869,-148.041188,459.657299
3789.817135,-9104.533087,-814.226536,536.266849
3789.817465,-10510.924376,740.205942,229.828649
3789.817795,-10732.986159,740.205942,919.314598
3789.818124,-11695.253884,148.041188,1532.190996
3789.818454,-11177.109724,888.247130,0.000000
3789.818784,-9548.656652,0.000000,-153.219100
3789.819113,-9474.636058,814.226536,842.705048
3789.819443,-9622.677246,962.267725,-612.876398
3789.819772,-8660.409521,148.041188,0.000000
3789.820102,-9326.594869,1332.370696,0.000000
3789.820432,-9770.718434,1036.288319,0.000000
3789.820761,-10214.842000,74.020594,842.705048
3789.821091,-10436.903782,1184.329507,0.000000
3789.821421,-8956.491898,444.123565,383.047749
3789.821750,-10066.800811,-74.020594,459.657299
3789.822080,-9918.759623,1036.288319,0.000000
3789.822410,-8882.471304,-888.247130,1225.752797
3789.822739,-9104.533087,962.267725,1915.238745
3789.823069,-8660.409521,1258.350101,689.485948
3789.823398,-9400.615463,0.000000,459.657299
3789.823728,-10140.821405,888.247130,0.000000
3789.824058,-9548.656652,740.205942,-536.266849
3789.824387,-9696.697840,148.041188,995.924147
3789.824717,-9844.739029,1628.453072,229.828649
3789.825047,-8660.409521,370.102971,-383.047749
3789.825376,-9326.594869,444.123565,1225.752797
3789.825706,-10658.965565,1184.329507,1072.533697
3789.826036,-11695.253884,222.061783,1225.752797
3789.826365,-10140.821405,518.144159,766.095498
3789.826695,-9030.512492,592.164754,153.219100
3789.827024,-8660.409521,222.061783,1762.019645
3789.827354,-10288.862594,1184.329507,1532.190996
3789.827684,-10140.821405,888.247130,153.219100
3789.828013,-9548.656652,148.041188,76.609550
3789.828343,-10140.821405,1702.473667,-459.657299
3789.828673,-10510.924376,444.123565,-536.266849
3789.829002,-10584.944971,444.123565,1072.533697
3789.829332,-10066.800811,518.144159,459.657299
3789.829662,-8512.368333,-592.164754,766.095498
3789.829991,-9844.739029,592.164754,1072.533697
3789.830321,-10955.047942,592.164754,153.219100
3789.830650,-9696.697840,-296.082377,0.000000
3789.830980,-9474.636058,962.267725,0.000000
3789.831310,-9400.615463,-518.144159,-995.924147
3789.831639,-9178.553681,-814.226536,0.000000
3789.831969,-9474.636058,814.226536,-383.047749
3789.832299,-9326.594869,-666.185348,-536.266849
3789.832628,-10066.800811,-666.185348,-306.438199
3789.832958,-9326.594869,222.061783,-842.705048
3789.833288,-9622.677246,-518.144159,-536.266849
3789.833617,-10658.965565,148.041188,76.609550
3789.833947,-10066.800811,-518.144159,0.000000
3789.834276,-8660.409521,-1480.411884,459.657299
3789.834606,-10288.862594,-222.061783,0.000000
3789.834936,-10288.862594,-1036.288319,0.000000
3789.835265,-9474.636058,-1554.432478,842.705048
3789.835595,-8142.265362,-444.123565,76.609550
3789.835925,-8586.388927,-888.247130,995.924147
3789.836254,-10362.883188,-740.205942,1685.410096
3789.836584,-11177.109724,0.000000,0.000000
3789.836914,-9252.574275,-888.247130,-459.657299
3789.837243,-9400.615463,-296.082377,-689.485948
3789.837573,-11177.109724,148.041188,-995.924147
3789.837902,-10881.027347,-814.226536,842.705048
3789.838232,-10362.883188,444.123565,689.485948
3789.838562,-9178.553681,-518.144159,-1532.190996
3789.838891,-9178.553681,-888.247130,-995.924147
3789.839221,-10066.800811,148.041188,-766.095498
3789.839551,-9030.512492,-518.144159,0.000000
3789.839880,-8586.388927,-370.102971,766.095498
3789.840210,-9548.656652,-222.061783,-306.438199
3789.840540,-9918.759623,-814.226536,995.924147
3789.840869,-10732.986159,-592.164754,1685.410096
3789.841199,-10214.842000,-518.144159,766.095498
3789.841528,-9030.512492,-1258.350101,612.876398
3789.841858,-9548.656652,74.020594,536.266849
3789.842188,-8882.471304,0.000000,-383.047749
3789.842517,-9844.739029,-296.082377,229.828649
3789.842847,-10436.903782,814.226536,0.000000
3789.843177,-9548.656652,-148.041188,-229.828649
3789.843506,-9622.677246,-296.082377,842.705048
3789.843836,-9770.718434,444.123565,-153.219100
3789.844166,-9622.677246,222.061783,1225.752797
3789.844495,-10510.924376,444.123565,1762.019645
3789.844825,-10140.821405,222.061783,229.828649
3789.845154,-9992.780217,222.061783,1149.143247
3789.845484,-10288.862594,1332.370696,1608.800546
3789.845814,-10436.903782,666.185348,383.047749
3789.846143,-9844.739029,222.061783,306.438199
3789.846473,-10658.965565,1554.432478,-612.876398
3789.846803,-10066.800811,592.164754,153.219100
3789.847132,-9622.677246,814.226536,1225.752797
3789.847462,-9178.553681,1406.391290,689.485948
3789.847792,-8512.368333,592.164754,229.828649
3789.848121,-9770.718434,1110.308913,153.219100
3789.848451,-9918.759623,1702.473667,-306.438199
3789.848780,-9548.656652,296.082377,612.876398
3789.849110,-10214.842000,1332.370696,919.314598
3789.849440,-10362.883188,814.226536,306.438199
3789.849769,-9474.636058,-148.041188,306.438199
3789.850099,-9400.615463,962.267725,-153.219100
3789.850429,-8290.306550,296.082377,-689.485948
3789.850758,-9104.533087,0.000000,306.438199
3789.851088,-9326.594869,1850.514855,-842.705048
3789.851418,-8438.347739,296.082377,-306.438199
3789.851747,-9918.759623,1036.288319,306.438199
3789.852077,-10807.006753,1110.308913,-612.876398
3789.852406,-10658.965565,-370.102971,76.609550
3789.852736,-10510.924376,518.144159,76.609550
3789.853066,-9622.677246,-74.020594,-842.705048
3789.853395,-8586.388927,-888.247130,229.828649
3789.853725,-9474.636058,1332.370696,153.219100
3789.854055,-9030.512492,74.020594,0.000000
3789.854384,-9992.780217,0.000000,459.657299
3789.854714,-10214.842000,814.226536,-229.828649
3789.855044,-10288.862594,-666.185348,383.047749
3789.855373,-10436.903782,-296.082377,536.266849
3789.855703,-9918.759623,-222.061783,-842.705048
3789.856032,-8882.471304,-1332.370696,-153.219100
3789.856362,-9918.759623,222.061783,383.047749
3789.856692,-10881.027347,-222.061783,0.000000
3789.857021,-10214.842000,-740.205942,842.705048
3789.857351,-10288.862594,666.185348,229.828649
3789.857681,-9622.677246,0.000000,76.609550
3789.858010,-9548.656652,-1036.288319,919.314598
3789.858340,-9622.677246,592.164754,-612.876398
3789.858670,-8808.450710,-1184.329507,-306.438199
3789.858999,-9770.718434,-518.144159,153.219100
3789.859329,-10584.944971,-222.061783,-612.876398
3789.859658,-9696.697840,-1110.308913,0.000000
3789.859988,-9474.636058,0.000000,306.438199
3789.860318,-9548.656652,-666.185348,-306.438199
3789.860647,-9622.677246,-1480.411884,842.705048
3789.860977,-9918.759623,148.041188,153.219100
3789.861307,-9992.780217,-888.247130,306.438199
3789.861636,-10214.842000,-1332.370696,1225.752797
3789.861966,-9548.656652,-296.082377,0.000000
3789.862296,-8734.430116,-1702.473667,306.438199
3789.862625,-9326.594869,-740.205942,383.047749
3789.862955,-8956.491898,-444.123565,-919.314598
3789.863284,-9474.636058,-1258.350101,0.000000
3789.863614,-9918.759623,296.082377,1072.533697
3789.863944,-9918.759623,-296.082377,1149.143247
3789.864273,-10140.821405,-666.185348,1378.971896
3789.864603,-10510.924376,888.247130,689.485948
3789.864933,-10732.986159,222.061783,689.485948
3789.865262,-10807.006753,-370.102971,383.047749
3789.865592,-10658.965565,296.082377,-995.924147
3789.865922,-8438.347739,-296.082377,-459.657299
3789.866251,-9178.553681,148.041188,153.219100
3789.866581,-8882.471304,888.247130,-766.095498
3789.866910,-8216.285956,518.144159,-229.828649
3789.867240,-9326.594869,1554.432478,-1149.143247
3789.867570,-9770.718434,888.247130,-919.314598
3789.867899,-10214.842000,-222.061783,1072.533697
3789.868229,-10362.883188,740.205942,1991.848295
3789.868559,-9844.739029,0.000000,1685.410096
3789.868888,-10362.883188,-518.144159,2374.896044
3789.869218,-10658.965565,740.205942,76.609550
3789.869548,-9400.615463,-592.164754,0.000000
3789.869877,-9992.780217,666.185348,536.266849
3789.870207,-10066.800811,1036.288319,-76.609550
3789.870536,-9030.512492,888.247130,842.705048
3789.870866,-9770.718434,1554.432478,536.266849
3789.871196,-10066.800811,888.247130,-306.438199
3789.871525,-10436.903782,296.082377,383.047749
3789.871855,-10510.924376,1036.288319,76.609550
3789.872185,-9326.594869,0.000000,0.000000
3789.872514,-9696.697840,148.041188,2451.505594
3789.872844,-10066.800811,814.226536,1302.362347
3789.873174,-9178.553681,-592.164754,1149.143247
3789.873503,-9844.739029,740.205942,1149.143247
3789.873833,-10436.903782,814.226536,-306.438199
3789.874162,-9252.574275,-296.082377,306.438199
3789.874492,-10140.821405,1258.350101,1225.752797
3789.874822,-9252.574275,370.102971,612.876398
3789.875151,-8512.368333,0.000000,919.314598
3789.875481,-9400.615463,1110.308913,-842.705048
3789.875811,-9992.780217,518.144159,-1302.362347
3789.876140,-9548.656652,740.205942,-459.657299
3789.876470,-10140.821405,1036.288319,-1455.581446
3789.876800,-10140.821405,148.041188,-536.266849
3789.877129,-10584.944971,74.020594,842.705048
3789.877459,-10140.821405,222.061783,-459.657299
3789.877788,-8438.347739,-1036.288319,229.828649
3789.878118,-9178.553681,444.123565,-766.095498
3789.878448,-9252.574275,0.000000,-689.485948
3789.878777,-9178.553681,-814.226536,153.219100
3789.879107,-10510.924376,592.164754,-383.047749
3789.879437,-9548.656652,0.000000,0.000000
3789.879766,-10140.821405,-888.247130,1225.752797
3789.880096,-9918.759623,0.000000,229.828649
3789.880426,-10214.842000,-814.226536,995.924147
3789.880755,-11251.130318,-222.061783,1225.752797
3789.881085,-10584.944971,148.041188,76.609550
3789.881414,-9474.636058,-518.144159,383.047749
3789.881744,-10066.800811,814.226536,229.828649
3789.882074,-9992.780217,0.000000,-306.438199
3789.882403,-9474.636058,74.020594,689.485948
3789.882733,-10288.862594,1776.494261,-995.924147
3789.883063,-11177.109724,0.000000,-1762.019645
3789.883392,-10510.924376,-666.185348,-306.438199
3789.883722,-9992.780217,148.041188,842.705048
3789.884052,-8808.450710,-814.226536,1915.238745
3789.884381,-9770.718434,-592.164754,1838.629195
3789.884711,-10214.842000,-1036.288319,153.219100
3789.885040,-8734.430116,-1924.535449,459.657299
3789.885370,-9400.615463,-296.082377,1072.533697
3789.885700,-10066.800811,-814.226536,612.876398
3789.886029,-9474.636058,-1850.514855,2068.457845
3789.886359,-8586.388927,296.082377,842.705048
3789.886689,-7698.141797,-518.144159,-1225.752797
3789.887018,-9770.718434,-370.102971,-919.314598
3789.887348,-10732.986159,962.267725,-1378.971896
3789.887678,-9992.780217,-518.144159,229.828649
3789.888007,-9548.656652,222.061783,1378.971896
3789.888337,-11029.068536,148.041188,-612.876398
3789.888666,-10510.924376,-1406.391290,-1302.362347
3789.888996,-9548.656652,-592.164754,-995.924147
3789.889326,-9104.533087,-222.061783,-689.485948
3789.889655,-9770.718434,-888.247130,1532.190996
3789.889985,-10732.986159,518.144159,1455.581446
3789.890315,-9178.553681,296.082377,76.609550
3789.890644,-8882.471304,-444.123565,-842.705048
3789.890974,-10436.903782,740.205942,-1072.533697
3789.891304,-10807.006753,-296.082377,0.000000
3789.891633,-11325.150913,-444.123565,1915.238745
3789.891963,-10214.842000,-296.082377,689.485948
3789.892292,-8808.450710,-888.247130,842.705048
3789.892622,-9326.594869,222.061783,-153.219100
3789.892952,-9548.656652,222.061783,-1762.019645
3789.893281,-9548.656652,-148.041188,-612.876398
3789.893611,-9622.677246,1406.391290,-383.047749
3789.893941,-8882.471304,370.102971,-153.219100
3789.894270,-9474.636058,-74.020594,766.095498
3789.894600,-9622.677246,962.267725,-229.828649
3789.894930,-9548.656652,-370.102971,0.000000
3789.895259,-10955.047942,0.000000,229.828649
3789.895589,-10214.842000,222.061783,-612.876398
3789.895918,-9104.533087,-814.226536,1455.581446
3789.896248,-9548.656652,666.185348,2298.286494
3789.896578,-9400.615463,74.020594,1149.143247
3789.896907,-9844.739029,0.000000,1991.848295
3789.897237,-10584.944971,1554.432478,229.828649
3789.897567,-9918.759623,222.061783,-1149.143247
3789.897896,-9992.780217,-148.041188,0.000000
3789.898226,-9770.718434,1110.308913,-383.047749
3789.898556,-9548.656652,-148.041188,766.095498
3789.898885,-10362.883188,888.247130,1838.629195
3789.899215,-10584.944971,592.164754,-383.047749
3789.899544,-9474.636058,-740.205942,0.000000
3789.899874,-8956.491898,592.164754,76.609550
3789.900204,-9770.718434,518.144159,689.485948
3789.900533,-10288.862594,0.000000,2834.553343
3789.900863,-10362.883188,1184.329507,2374.896044
3789.901193,-9252.574275,0.000000,306.438199
3789.901522,-9770.718434,222.061783,842.705048
3789.901852,-11177.109724,888.247130,306.438199
3789.902182,-9474.636058,74.020594,1378.971896
3789.902511,-9104.533087,962.267725,1455.581446
3789.902841,-9400.615463,1184.329507,0.000000
3789.903170,-9252.574275,-296.082377,-383.047749
3789.903500,-10362.883188,1406.391290,-1225.752797
3789.903830,-9622.677246,148.041188,-1915.238745
3789.904159,-8956.491898,222.061783,-306.438199
3789.904489,-9178.553681,1776.494261,-153.219100
3789.904819,-8586.388927,74.020594,0.000000
3789.905149,-10140.821405,0.000000,1072.533697
3789.905478,-11177.109724,1258.350101,459.657299
3789.905808,-11029.068536,0.000000,766.095498
3789.906138,-10807.006753,296.082377,306.438199
3789.906468,-9770.718434,0.000000,-459.657299
3789.906797,-9400.615463,-518.144159,383.047749
3789.907127,-9992.780217,518.144159,-536.266849
3789.907457,-9622.677246,-296.082377,-2068.457845
3789.907787,-9178.553681,-740.205942,-306.438199
3789.908116,-9252.574275,592.164754,-766.095498
3789.908446,-8808.450710,-222.061783,-229.828649
3789.908776,-9992.780217,-592.164754,689.485948
3789.909106,-10362.883188,222.061783,-766.095498
3789.909435,-9622.677246,-1850.514855,612.876398
3789.909765,-9622.677246,-814.226536,1762.019645
3789.910095,-9548.656652,-444.123565,766.095498
3789.910425,-9474.636058,-666.185348,1455.581446
3789.910754,-9548.656652,0.000000,919.314598
3789.911084,-9918.759623,-222.061783,0.000000
3789.911414,-10066.800811,-962.267725,459.657299
3789.911744,-10658.965565,1628.453072,0.000000
3789.912073,-9844.739029,296.082377,229.828649
3789.912403,-9844.739029,-592.164754,612.876398
3789.912733,-9104.533087,296.082377,-1608.800546
3789.913063,-7772.162391,-1554.432478,-1378.971896
3789.913392,-9178.553681,222.061783,-383.047749
3789.913722,-9696.697840,0.000000,-612.876398
3789.914052,-9696.697840,-1628.453072,1762.019645
3789.914382,-9474.636058,370.102971,2987.772442
3789.914711,-10288.862594,-296.082377,1455.581446
3789.915041,-10732.986159,-888.247130,1762.019645
3789.915371,-10584.944971,592.164754,-536.266849
3789.915701,-9474.636058,-1036.288319,-229.828649
3789.916030,-9918.759623,-592.164754,1455.581446
3789.916360,-11473.192101,148.041188,1225.752797
3789.916690,-9770.718434,-1184.329507,1455.581446
3789.917020,-8142.265362,-296.082377,0.000000
3789.917349,-8438.347739,370.102971,-1838.629195
3789.917679,-9474.636058,-444.123565,0.000000
3789.918009,-11029.068536,1480.411884,383.047749
3789.918339,-10140.821405,0.000000,-229.828649
3789.918669,-9918.759623,-962.267725,1608.800546
3789.918998,-11251.130318,1036.288319,2145.067394
3789.919328,-10510.924376,-740.205942,1378.971896
3789.919658,-9918.759623,-444.123565,1838.629195
3789.919988,-10214.842000,370.102971,0.000000
3789.920317,-9326.594869,-296.082377,689.485948
3789.920647,-10066.800811,740.205942,2298.286494
3789.920977,-10140.821405,814.226536,383.047749
3789.921307,-8586.388927,0.000000,612.876398
3789.921636,-9104.533087,1036.288319,-995.924147
3789.921966,-9474.636058,296.082377,-3064.381992
3789.922296,-9178.553681,-518.144159,-1838.629195
3789.922626,-9178.553681,962.267725,-919.314598
3789.922955,-8734.430116,74.020594,-536.266849
3789.923285,-9992.780217,222.061783,689.485948
3789.923615,-10510.924376,518.144159,-459.657299
3789.923945,-9918.759623,-296.082377,306.438199
3789.924274,-10140.821405,296.082377,536.266849
3789.924604,-10436.903782,0.000000,-459.657299
3789.924934,-9770.718434,-592.164754,842.705048
3789.925264,-9548.656652,222.061783,1532.190996
3789.925593,-9326.594869,370.102971,383.047749
3789.925923,-9252.574275,-518.144159,689.485948
3789.926253,-10140.821405,888.247130,-1608.800546
3789.926583,-9178.553681,0.000000,-612.876398
3789.926912,-9474.636058,74.020594,1608.800546
3789.927242,-10584.944971,592.164754,689.485948
3789.927572,-9844.739029,-148.041188,153.219100
3789.927902,-9696.697840,370.102971,-153.219100
3789.928231,-9844.739029,148.041188,-1378.971896
3789.928561,-10140.821405,-444.123565,612.876398
3789.928891,-11029.068536,370.102971,1455.581446
3789.929221,-9548.656652,-444.123565,536.266849
3789.929550,-8734.430116,-74.020594,1302.362347
3789.929880,-9548.656652,962.267725,0.000000
3789.930210,-9622.677246,370.102971,-459.657299
3789.930540,-9844.739029,370.102971,0.000000
3789.930869,-9844.739029,1036.288319,-1225.752797
3789.931199,-10214.842000,592.164754,-612.876398
3789.931529,-10362.883188,666.185348,383.047749
3789.931859,-9548.656652,148.041188,-1685.410096
3789.932188,-8734.430116,-592.164754,-153.219100
3789.932518,-9400.615463,0.000000,842.705048
3789.932848,-9696.697840,-888.247130,229.828649
3789.933178,-9770.718434,-814.226536,2068.457845
3789.933507,-10288.862594,592.164754,842.705048
3789.933837,-10066.800811,-296.082377,153.219100
3789.934167,-9326.594869,-888.247130,1072.533697
3789.934497,-10066.800811,148.041188,0.000000
3789.934826,-9918.759623,0.000000,306.438199
3789.935156,-10214.842000,-444.123565,1685.410096
3789.935486,-10066.800811,222.061783,459.657299
3789.935816,-9030.512492,-592.164754,459.657299
3789.936145,-10066.800811,814.226536,229.828649
3789.936475,-10362.883188,0.000000,-459.657299
3789.936805,-9622.677246,-962.267725,1149.143247
3789.937135,-10214.842000,740.205942,1149.143247
3789.937465,-10214.842000,-370.102971,1225.752797
3789.937794,-10584.944971,-592.164754,1608.800546
3789.938124,-9326.594869,370.102971,-459.657299
3789.938454,-7698.141797,-814.226536,-689.485948
3789.938784,-9474.636058,370.102971,383.047749
3789.939113,-10140.821405,444.123565,76.609550
3789.939443,-9104.533087,-444.123565,1149.143247
3789.939773,-8956.491898,888.247130,153.219100
3789.940103,-9178.553681,0.000000,-1149.143247
3789.940432,-10881.027347,-222.061783,0.000000
3789.940762,-10510.924376,592.164754,-536.266849
3789.941092,-8660.409521,-592.164754,0.000000
3789.941422,-8956.491898,-592.164754,2221.676944
3789.941751,-10732.986159,1184.329507,1072.533697
3789.942081,-10066.800811,-518.144159,-76.609550
3789.942411,-9992.780217,666.185348,-766.095498
3789.942741,-9992.780217,1036.288319,-2451.505594
3789.943070,-9918.759623,-666.185348,-995.924147
3789.943400,-10436.903782,592.164754,536.266849
3789.943730,-9104.533087,-148.041188,612.876398
3789.944060,-9030.512492,-1036.288319,1149.143247
3789.944389,-9474.636058,740.205942,-612.876398
3789.944719,-9548.656652,-148.041188,-1149.143247
3789.945049,-10140.821405,-296.082377,1532.190996
3789.945379,-10214.842000,444.123565,689.485948
3789.945708,-10214.842000,-444.123565,1149.143247
3789.946038,-10066.800811,0.000000,842.705048
3789.946368,-9622.677246,222.061783,-842.705048
3789.946698,-8364.327145,-888.247130,-536.266849
3789.947027,-9992.780217,888.247130,0.000000
3789.947357,-10436.903782,222.061783,-536.266849
3789.947687,-9918.759623,-666.185348,153.219100
3789.948017,-10362.883188,1332.370696,-229.828649
3789.948346,-9622.677246,0.000000,-689.485948
3789.948676,-9696.697840,-370.102971,536.266849
3789.949006,-9178.553681,222.061783,-612.876398
3789.949336,-8882.471304,-666.185348,536.266849
3789.949665,-9918.759623,814.226536,1532.190996
3789.949995,-10288.862594,370.102971,-689.485948
3789.950325,-9104.533087,-296.082377,76.609550
3789.950655,-10658.965565,1554.432478,689.485948
3789.950984,-11029.068536,0.000000,383.047749
3789.951314,-10807.006753,-666.185348,919.314598
3789.951644,-10066.800811,370.102971,-229.828649
3789.951974,-8660.409521,-666.185348,-229.828649
3789.952303,-8956.491898,-740.205942,689.485948
3789.952633,-9992.780217,222.061783,-153.219100
3789.952963,-9696.697840,-1184.329507,1149.143247
3789.953293,-9474.636058,592.164754,919.314598
3789.953622,-10140.821405,-296.082377,-229.828649
3789.953952,-9918.759623,-888.247130,1378.971896
3789.954282,-9918.759623,666.185348,1225.752797
3789.954612,-9178.553681,222.061783,-612.876398
3789.954941,-9770.718434,-592.164754,995.924147
3789.955271,-10732.986159,814.226536,459.657299
3789.955601,-9474.636058,-370.102971,842.705048
3789.955931,-9548.656652,0.000000,1225.752797
3789.956260,-9992.780217,666.185348,-76.609550
3789.956590,-9696.697840,-370.102971,306.438199
3789.956920,-9548.656652,888.247130,229.828649
3789.957250,-10140.821405,518.144159,-1608.800546
3789.957580,-9104.533087,222.061783,-536.266849
3789.957909,-9918.759623,888.247130,383.047749
3789.958239,-9474.636058,0.000000,-612.876398
3789.958569,-9548.656652,0.000000,536.266849
3789.958899,-10658.965565,1480.411884,76.609550
3789.959228,-9844.739029,-518.144159,-459.657299
3789.959558,-10140.821405,222.061783,1455.581446
3789.959888,-10362.883188,148.041188,842.705048
3789.960218,-9474.636058,-592.164754,1072.533697
3789.960547,-9104.533087,370.102971,536.266849
3789.960877,-9252.574275,-148.041188,-1608.800546
3789.961207,-9474.636058,-740.205942,0.000000
3789.961537,-10881.027347,1110.308913,1225.752797
3789.961866,-11547.212695,74.020594,919.314598
3789.962196,-11177.109724,0.000000,1532.190996
3789.962526,-9770.718434,222.061783,-459.657299
3789.962856,-8142.265362,-1184.329507,-1532.190996
3789.963185,-8660.409521,-592.164754,689.485948
3789.963515,-10214.842000,0.000000,919.314598
3789.963845,-9400.615463,-1258.350101,1225.752797
3789.964175,-8512.368333,0.000000,919.314598
3789.964504,-7994.224174,0.000000,-229.828649
3789.964834,-9252.574275,-592.164754,1608.800546
3789.965164,-11547.212695,1258.350101,1532.190996
3789.965494,-10881.027347,296.082377,-153.219100
3789.965823,-9252.574275,-370.102971,-383.047749
3789.966153,-9770.718434,518.144159,-1378.971896
3789.966483,-10140.821405,-444.123565,-766.095498
3789.966813,-9548.656652,-296.082377,153.219100
3789.967142,-9178.553681,370.102971,-1532.190996
3789.967472,-6735.874072,-296.082377,-1455.581446
3789.967802,-8660.409521,740.205942,-536.266849
3789.968132,-10362.883188,888.247130,-1149.143247
3789.968461,-10436.903782,-74.020594,229.828649
3789.968791,-10658.965565,814.226536,1532.190996
3789.969121,-10436.903782,0.000000,995.924147
3789.969451,-10436.903782,-740.205942,1455.581446
3789.969780,-10288.862594,370.102971,0.000000
3789.970110,-9548.656652,-444.123565,-919.314598
3789.970440,-10288.862594,-296.082377,919.314598
3789.970770,-11029.068536,592.164754,612.876398
3789.971099,-9548.656652,-740.205942,766.095498
3789.971429,-9030.512492,592.164754,1455.581446
3789.971759,-9474.636058,666.185348,-306.438199
3789.972089,-8586.388927,-740.205942,-306.438199
3789.972418,-8734.430116,444.123565,1225.752797
3789.972748,-10214.842000,222.061783,1991.848295
3789.973078,-10807.006753,-296.082377,2528.115143
3789.973408,-10955.047942,1110.308913,536.266849
3789.973737,-9474.636058,444.123565,-383.047749
3789.974067,-10362.883188,666.185348,689.485948
3789.974397,-11843.295072,1776.494261,612.876398
3789.974727,-10510.924376,148.041188,459.657299
3789.975056,-8364.327145,740.205942,306.438199
3789.975386,-7550.100608,370.102971,-1149.143247
3789.975716,-8438.347739,-222.061783,0.000000
3789.976046,-10362.883188,1554.432478,306.438199
3789.976375,-10658.965565,814.226536,-612.876398
3789.976705,-9474.636058,-222.061783,-229.828649
3789.977035,-9844.739029,740.205942,0.000000
3789.977365,-9548.656652,296.082377,612.876398
3789.977695,-9992.780217,0.000000,2068.457845
3789.978024,-9844.739029,666.185348,-689.485948
3789.978354,-8660.409521,-962.267725,-919.314598
3789.978684,-9696.697840,1036.288319,0.000000
3789.979014,-9474.636058,0.000000,0.000000
3789.979343,-8956.491898,-592.164754,459.657299
3789.979673,-9400.615463,814.226536,76.609550
3789.980003,-9770.718434,0.000000,-766.095498
3789.980333,-9770.718434,0.000000,459.657299
3789.980662,-11029.068536,1110.308913,-383.047749
3789.980992,-10732.986159,148.041188,0.000000
3789.981322,-10510.924376,-444.123565,1608.800546
3789.981652,-9992.780217,370.102971,153.219100
3789.981981,-9030.512492,-1184.329507,0.000000
3789.982311,-10066.800811,370.102971,919.314598
3789.982641,-10214.842000,296.082377,-229.828649
3789.982971,-8734.430116,-814.226536,-766.095498
3789.983300,-8956.491898,1110.308913,76.609550
3789.983630,-10066.800811,148.041188,-536.266849
3789.983960,-10510.924376,-518.144159,842.705048
3789.984290,-9474.636058,1258.350101,-1072.533697
3789.984619,-8660.409521,-814.226536,-2068.457845
3789.984949,-9844.739029,0.000000,76.609550
3789.985279,-11251.130318,370.102971,-306.438199
3789.985609,-9992.780217,-1184.329507,-612.876398
3789.985938,-9474.636058,-222.061783,-536.266849
3789.986268,-9696.697840,-592.164754,-1455.581446
3789.986598,-9548.656652,-2072.576638,919.314598
3789.986928,-9474.636058,74.020594,1225.752797
3789.987257,-7846.182985,-888.247130,-1378.971896
3789.987587,-9474.636058,-1850.514855,0.000000
3789.987917,-10881.027347,444.123565,0.000000
3789.988247,-10362.883188,-1110.308913,459.657299
3789.988576,-9548.656652,-1110.308913,1455.581446
3789.988906,-10066.800811,148.041188,-306.438199
3789.989236,-10658.965565,-1776.494261,229.828649
3789.989566,-10955.047942,-518.144159,689.485948
3789.989895,-9918.759623,-962.267725,-306.438199
3789.990225,-9178.553681,-2072.576638,1915.238745
3789.990555,-9400.615463,370.102971,1762.019645
3789.990885,-9252.574275,-740.205942,612.876398
3789.991214,-9178.553681,-592.164754,1532.190996
3789.991544,-10288.862594,740.205942,459.657299
3789.991874,-10584.944971,74.020594,-229.828649
3789.992204,-10807.006753,0.000000,766.095498
3789.992533,-10584.944971,962.267725,-536.266849
3789.992863,-8882.471304,-592.164754,1225.752797
3789.993193,-9770.718434,1110.308913,1149.143247
3789.993523,-10436.903782,962.267725,-536.266849
3789.993852,-8956.491898,-592.164754,-612.876398
3789.994182,-8512.368333,1702.473667,229.828649
3789.994512,-9400.615463,0.000000,612.876398
3789.994842,-9104.533087,-592.164754,2681.334243
3789.995171,-9548.656652,1702.473667,1455.581446
3789.995501,-9252.574275,0.000000,536.266849
3789.995831,-9844.739029,592.164754,1149.143247
3789.996161,-11547.212695,1628.453072,383.047749
3789.996490,-9474.636058,0.000000,919.314598
3789.996820,-9326.594869,1924.535449,1225.752797
3789.997150,-9992.780217,1554.432478,153.219100
3789.997480,-9918.759623,296.082377,1072.533697
3789.997810,-10436.903782,2368.659014,1149.143247
3789.998139,-9918.759623,666.185348,76.609550
3789.998469,-8956.491898,1406.391290,2068.457845
3789.998799,-10436.903782,2146.597232,1455.581446
3789.999129,-9622.677246,962.267725,383.047749
3789.999458,-9326.594869,1110.308913,1532.190996
3789.999788,-10584.944971,2220.617826,229.828649
3790.000118,-9030.512492,148.041188,1915.238745
3790.000448,-8956.491898,2072.576638,4290.134789
3790.000777,-10584.944971,2146.597232,3600.648841
3790.001107,-10584.944971,2368.659014,3753.867940
3790.001437,-11029.068536,3775.050304,1762.019645
3790.001767,-10510.924376,2886.803174,-1685.410096
3790.002096,-8364.327145,2220.617826,612.876398
3790.002426,-9770.718434,3552.988522,1838.629195
3790.002756,-10066.800811,2368.659014,2451.505594
3790.003086,-8956.491898,1998.556043,2451.505594
3790.003415,-9400.615463,1850.514855,766.095498
3790.003745,-9918.759623,1036.288319,919.314598
3790.004075,-8808.450710,1036.288319,3217.601092
3790.004405,-9178.553681,2294.638420,3524.039291
3790.004734,-8808.450710,2368.659014,3753.867940
3790.005064,-8512.368333,2664.741391,3677.258390
3790.005394,-9918.759623,2886.803174,1685.410096
3790.005724,-11103.089130,2886.803174,2451.505594
3790.006053,-11843.295072,2812.782580,2681.334243
3790.006383,-11473.192101,2294.638420,2145.067394
3790.006713,-9992.780217,2072.576638,2681.334243
3790.007043,-9918.759623,2072.576638,2451.505594
3790.007373,-9030.512492,2368.659014,0.000000
3790.007702,-8586.388927,2886.803174,-766.095498
3790.008032,-8364.327145,2146.597232,229.828649
3790.008362,-8438.347739,3552.988522,3600.648841
3790.008692,-11769.274478,3997.112087,6358.592633
3790.009022,-13101.645173,2960.823768,5515.887586
3790.009351,-11251.130318,2442.679609,3064.381992
3790.009681,-10807.006753,1184.329507,1608.800546
3790.010011,-10584.944971,1332.370696,995.924147
3790.010341,-9474.636058,1702.473667,3600.648841
3790.010671,-8660.409521,1702.473667,4673.182538
3790.011000,-8734.430116,3404.947333,3524.039291
3790.011330,-9104.533087,4367.215058,2987.772442
3790.011660,-10658.965565,3108.864956,1072.533697
3790.011990,-10658.965565,3330.926739,1149.143247
3790.012320,-10436.903782,2886.803174,3677.258390
3790.012650,-8956.491898,1406.391290,3064.381992
3790.012979,-8882.471304,1406.391290,3294.210641
3790.013309,-8364.327145,1332.370696,2757.943793
3790.013639,-8956.491898,666.185348,766.095498
3790.013969,-9474.636058,2590.720797,-459.657299
3790.014299,-8586.388927,1776.494261,766.095498
3790.014628,-8734.430116,2590.720797,2911.162892
3790.014958,-8216.285956,3034.844362,5132.839837
3790.015288,-9474.636058,2664.741391,4290.134789
3790.015618,-9474.636058,2664.741391,2604.724693
3790.015948,-9178.553681,2738.761985,1302.362347
3790.016277,-10732.986159,3034.844362,1608.800546
3790.016607,-11473.192101,3182.885551,2145.067394
3790.016937,-11325.150913,3108.864956,3677.258390
3790.017267,-11177.109724,3108.864956,1838.629195
3790.017597,-10955.047942,3627.009116,459.657299
3790.017927,-11325.150913,2960.823768,229.828649
3790.018256,-9992.780217,2516.700203,1302.362347
3790.018586,-8290.306550,2072.576638,3064.381992
3790.018916,-9474.636058,1628.453072,4596.572988
3790.019246,-11325.150913,1554.432478,4213.525239
3790.019576,-9770.718434,0.000000,3600.648841
3790.019905,-9252.574275,518.144159,3064.381992
3790.020235,-10732.986159,592.164754,2374.896044
3790.020565,-11473.192101,592.164754,2757.943793
3790.020895,-9474.636058,1480.411884,2604.724693
3790.021225,-8882.471304,1110.308913,2681.334243
3790.021554,-9918.759623,2220.617826,2528.115143
3790.021884,-10955.047942,1258.350101,536.266849
3790.022214,-9400.615463,1258.350101,-995.924147
3790.022544,-6365.771101,222.061783,-1302.362347
3790.022874,-7105.977043,740.205942,459.657299
3790.023204,-8438.347739,1184.329507,2221.676944
3790.023533,-9326.594869,666.185348,1838.629195
3790.023863,-9844.739029,1924.535449,689.485948
3790.024193,-9030.512492,1480.411884,0.000000
3790.024523,-10584.944971,1480.411884,536.266849
3790.024853,-9770.718434,1480.411884,2145.067394
3790.025182,-9548.656652,1184.329507,2604.724693
3790.025512,-9474.636058,1924.535449,2834.553343
3790.025842,-8438.347739,1184.329507,766.095498
3790.026172,-8808.450710,1258.350101,1455.581446
3790.026502,-10214.842000,2220.617826,2834.553343
3790.026831,-10732.986159,2590.720797,4596.572988
3790.027161,-11621.233289,3108.864956,3830.477490
3790.027491,-11029.068536,3256.906145,1915.238745
3790.027821,-10658.965565,2812.782580,1149.143247
3790.028151,-12139.377449,3256.906145,2451.505594
3790.028481,-11843.295072,3182.885551,2987.772442
3790.028810,-10807.006753,2220.617826,4673.182538
3790.029140,-10881.027347,3330.926739,4673.182538
3790.029470,-10288.862594,2516.700203,4749.792088
3790.029800,-10658.965565,1702.473667,4519.963438
3790.030130,-9548.656652,1998.556043,2757.943793
3790.030459,-9030.512492,1036.288319,2911.162892
3790.030789,-8660.409521,1702.473667,5056.230287
3790.031119,-9474.636058,2812.782580,5975.544884
3790.031449,-9474.636058,2368.659014,4903.011187
3790.031779,-8660.409521,2590.720797,2298.286494
3790.032108,-9474.636058,2664.741391,306.438199
3790.032438,-10140.821405,1924.535449,1455.581446
3790.032768,-10140.821405,2368.659014,3907.087040
3790.033098,-8808.450710,2072.576638,3907.087040
3790.033428,-7179.997637,1924.535449,4519.963438
3790.033758,-8290.306550,3182.885551,2528.115143
3790.034087,-9548.656652,3108.864956,229.828649
3790.034417,-9992.780217,3256.906145,-1149.143247
3790.034747,-9770.718434,3034.844362,-766.095498
3790.035077,-7920.203579,2516.700203,1532.190996
3790.035407,-8364.327145,2368.659014,3064.381992
3790.035736,-9548.656652,2442.679609,2145.067394
3790.036066,-8734.430116,2368.659014,1762.019645
3790.036396,-8512.368333,3034.844362,1532.190996
3790.036726,-9252.574275,3182.885551,1532.190996
3790.037056,-11029.068536,4293.194464,2068.457845
3790.037385,-12805.562797,4885.359217,2528.115143
3790.037715,-12805.562797,4145.153275,2145.067394
3790.038045,-11399.171507,3997.112087,612.876398
3790.038375,-11399.171507,3182.885551,-842.705048
3790.038705,-11325.150913,3256.906145,-459.657299
3790.039035,-9696.697840,2886.803174,1072.533697
3790.039364,-7624.121203,2442.679609,1838.629195
3790.039694,-7772.162391,3108.864956,3447.429741
3790.040024,-8734.430116,2886.803174,3370.820191
3790.040354,-10584.944971,3034.844362,3447.429741
3790.040684,-11621.233289,3552.988522,3753.867940
3790.041013,-12361.439231,2886.803174,2298.286494
3790.041343,-12065.356855,2368.659014,1608.800546
3790.041673,-11621.233289,1480.411884,1608.800546
3790.042003,-10436.903782,592.164754,1991.848295
3790.042333,-8586.388927,-518.144159,1532.190996
3790.042662,-6587.832884,0.000000,2068.457845
3790.042992,-6143.709319,0.000000,3064.381992
3790.043322,-6513.812290,222.061783,3217.601092
3790.043652,-6883.915261,1110.308913,2757.943793
3790.043982,-8216.285956,1554.432478,2221.676944
3790.044312,-10362.883188,2220.617826,3370.820191
3790.044641,-11769.274478,1332.370696,4596.572988
3790.044971,-12065.356855,1184.329507,4443.353888
3790.045301,-11769.274478,1258.350101,3447.429741
3790.045631,-11473.192101,0.000000,1915.238745
3790.045961,-10066.800811,666.185348,1455.581446
3790.046290,-8660.409521,370.102971,3294.210641
3790.046620,-8142.265362,888.247130,3447.429741
3790.046950,-7772.162391,1184.329507,2451.505594
3790.047280,-8068.244768,1924.535449,1302.362347
3790.047610,-9252.574275,1110.308913,306.438199
3790.047939,-10510.924376,1110.308913,842.705048
3790.048269,-11177.109724,1258.350101,2374.896044
3790.048599,-11473.192101,888.247130,3294.210641
3790.048929,-11473.192101,1258.350101,3524.039291
3790.049259,-10881.027347,1332.370696,3064.381992
3790.049589,-10732.986159,1628.453072,3294.210641
3790.049918,-10288.862594,2220.617826,2681.334243
3790.050248,-10436.903782,1998.556043,2298.286494
3790.050578,-10140.821405,2220.617826,2068.457845
3790.050908,-10362.883188,2368.659014,2681.334243
3790.051238,-9992.780217,1776.494261,1685.410096
3790.051567,-9474.636058,1628.453072,-76.609550
3790.051897,-9104.533087,962.267725,-1532.190996
3790.052227,-9918.759623,888.247130,-536.266849
3790.052557,-10658.965565,592.164754,1762.019645
3790.052887,-9992.780217,592.164754,3830.477490
3790.053216,-9326.594869,740.205942,3217.601092
3790.053546,-9178.553681,444.123565,1838.629195
3790.053876,-9178.553681,222.061783,995.924147
3790.054206,-9178.553681,444.123565,2298.286494
3790.054536,-8956.491898,1110.308913,2834.553343
3790.054866,-8586.388927,888.247130,2451.505594
3790.055195,-8882.471304,1406.391290,1378.971896
3790.055525,-9326.594869,1776.494261,459.657299
3790.055855,-9844.739029,2146.597232,0.000000
3790.056185,-9992.780217,2220.617826,383.047749
3790.056515,-10066.800811,1924.535449,459.657299
3790.056844,-9326.594869,1332.370696,1225.752797
3790.057174,-9252.574275,1406.391290,1762.019645
3790.057504,-9622.677246,1036.288319,2068.457845
3790.057834,-9548.656652,814.226536,1838.629195
3790.058164,-8734.430116,592.164754,1762.019645
3790.058493,-8438.347739,1110.308913,2068.457845
3790.058823,-9252.574275,1850.514855,3447.429741
3790.059153,-10066.800811,2368.659014,3907.087040
3790.059483,-10362.883188,2442.679609,3677.258390
3790.059813,-11103.089130,3108.864956,2834.553343
3790.060143,-11473.192101,3330.926739,2145.067394
3790.060472,-11843.295072,3256.906145,1608.800546
3790.060802,-11695.253884,2738.761985,1608.800546
3790.061132,-9992.780217,2072.576638,1838.629195
3790.061462,-9030.512492,1850.514855,2298.286494
3790.061792,-8586.388927,1776.494261,3064.381992
3790.062121,-8068.244768,2072.576638,3983.696590
3790.062451,-7994.224174,2738.761985,4596.572988
3790.062781,-8956.491898,3330.926739,4519.963438
3790.063111,-10732.986159,3923.091493,3907.087040
3790.063441,-12065.356855,4071.132681,4060.306139
3790.063770,-12287.418637,3330.926739,4060.306139
3790.064100,-11473.192101,2812.782580,3600.648841
3790.064430,-10658.965565,1924.535449,3677.258390
3790.064760,-9030.512492,2146.597232,3600.648841
3790.065090,-7846.182985,1850.514855,2911.162892
3790.065420,-7179.997637,2664.741391,2681.334243
3790.065749,-7254.018232,2886.803174,2681.334243
3790.066079,-8586.388927,3627.009116,3907.087040
3790.066409,-9400.615463,4145.153275,4749.792088
3790.066739,-9918.759623,4071.132681,5056.230287
3790.067069,-10807.006753,4441.235652,4290.134789
3790.067398,-11473.192101,4145.153275,2911.162892
3790.067728,-12065.356855,4663.297435,1991.848295
3790.068058,-11991.336260,4589.276840,2374.896044
3790.068388,-10140.821405,4071.132681,2604.724693
3790.068718,-9030.512492,3849.070898,2911.162892
3790.069047,-8882.471304,3627.009116,2987.772442
3790.069377,-8956.491898,3552.988522,2451.505594
3790.069707,-8512.368333,3478.967927,1302.362347
3790.070037,-7846.182985,3404.947333,1378.971896
3790.070367,-8142.265362,4071.132681,2298.286494
3790.070697,-9770.718434,4367.215058,3830.477490
3790.071026,-11695.253884,4959.379811,2987.772442
3790.071356,-11399.171507,4737.318029,1532.190996
3790.071686,-11695.253884,4071.132681,0.000000
3790.072016,-11769.274478,3997.112087,0.000000
3790.072346,-10955.047942,3108.864956,842.705048
3790.072675,-9770.718434,2960.823768,1991.848295
3790.073005,-8142.265362,2738.761985,2374.896044
3790.073335,-7328.038826,2516.700203,1608.800546
3790.073665,-7328.038826,2664.741391,766.095498
3790.073995,-8438.347739,2590.720797,229.828649
3790.074324,-9326.594869,2960.823768,1532.190996
3790.074654,-9918.759623,3182.885551,2374.896044
3790.074984,-10066.800811,3256.906145,2451.505594
3790.075314,-10510.924376,2886.803174,1915.238745
3790.075644,-10955.047942,2294.638420,995.924147
3790.075974,-10510.924376,1406.391290,536.266849
3790.076303,-9548.656652,1184.329507,1608.800546
3790.076633,-8956.491898,962.267725,3294.210641
3790.076963,-9178.553681,1184.329507,3677.258390
3790.077293,-8512.368333,1406.391290,3064.381992
3790.077623,-8364.327145,1776.494261,1608.800546
3790.077952,-8586.388927,2220.617826,919.314598
3790.078282,-9918.759623,1998.556043,1149.143247
3790.078612,-11029.068536,2146.597232,2834.553343
3790.078942,-11695.253884,2072.576638,3370.820191
3790.079272,-11103.089130,888.247130,2451.505594
3790.079601,-11103.089130,74.020594,1838.629195
3790.079931,-11399.171507,0.000000,2298.286494
3790.080261,-10807.006753,-1332.370696,3370.820191
3790.080591,-9400.615463,-296.082377,2987.772442
3790.080921,-7698.141797,-444.123565,2834.553343
3790.081250,-8364.327145,0.000000,2451.505594
3790.081580,-9030.512492,444.123565,1762.019645
3790.081910,-10140.821405,296.082377,1149.143247
3790.082240,-11029.068536,74.020594,689.485948
3790.082570,-10955.047942,0.000000,1225.752797
3790.082900,-10881.027347,-1184.329507,2604.724693
3790.083229,-10214.842000,-1332.370696,3370.820191
3790.083559,-9326.594869,-1480.411884,3524.039291
3790.083889,-8512.368333,-888.247130,2451.505594
3790.084219,-8068.244768,-222.061783,1762.019645
3790.084549,-8586.388927,370.102971,2834.553343
3790.084878,-10140.821405,1332.370696,4060.306139
3790.085208,-10955.047942,1850.514855,2757.943793
3790.085538,-9548.656652,1332.370696,1455.581446
3790.085868,-9030.512492,1332.370696,153.219100
3790.086198,-9474.636058,1258.350101,1072.533697
3790.086527,-10362.883188,814.226536,2757.943793
3790.086857,-10658.965565,1554.432478,3447.429741
3790.087187,-8956.491898,1184.329507,2604.724693
3790.087517,-8660.409521,1554.432478,3217.601092
3790.087847,-9844.739029,2072.576638,3064.381992
3790.088177,-9918.759623,2146.597232,3370.820191
3790.088506,-8660.409521,1776.494261,3677.258390
3790.088836,-8808.450710,2812.782580,3370.820191
3790.089166,-9326.594869,3034.844362,3753.867940
3790.089496,-10436.903782,3775.050304,3830.477490
3790.089826,-11621.233289,4219.173869,2911.162892
3790.090155,-11177.109724,4515.256246,1915.238745
3790.090485,-11251.130318,4885.359217,1378.971896
3790.090815,-11029.068536,4663.297435,2145.067394
3790.091145,-11547.212695,4441.235652,3907.087040
3790.091475,-10584.944971,4145.153275,3907.087040
3790.091804,-8734.430116,4071.132681,3064.381992
3790.092134,-8290.306550,4219.173869,2834.553343
3790.092464,-9030.512492,4737.318029,2987.772442
3790.092794,-9770.718434,4663.297435,2451.505594
3790.093124,-10436.903782,4589.276840,2374.896044
3790.093454,-10362.883188,3923.091493,1838.629195
3790.093783,-10214.842000,3627.009116,2221.676944
3790.094113,-10436.903782,2886.803174,1915.238745
3790.094443,-10288.862594,3034.844362,1991.848295
3790.094773,-9844.739029,2442.679609,1225.752797
3790.095103,-8586.388927,2442.679609,153.219100
3790.095432,-7402.059420,1998.556043,153.219100
3790.095762,-7254.018232,2368.659014,1225.752797
3790.096092,-8438.347739,2442.679609,1838.629195
3790.096422,-8734.430116,2812.782580,1685.410096
3790.096752,-7920.203579,3034.844362,1378.971896
3790.097081,-8290.306550,2738.761985,689.485948
3790.097411,-9622.677246,3034.844362,2528.115143
3790.097741,-11399.171507,3182.885551,4903.011187
3790.098071,-12953.603985,3627.009116,3677.258390
3790.098401,-11251.130318,4145.153275,1302.362347
3790.098731,-11399.171507,3997.112087,-995.924147
3790.099060,-11399.171507,3849.070898,-1991.848295
3790.099390,-9844.739029,3256.906145,-383.047749
3790.099720,-8660.409521,3701.029710,766.095498
3790.100050,-8586.388927,2812.782580,1608.800546
3790.100380,-8438.347739,2368.659014,3140.991542
3790.100709,-9474.636058,1628.453072,2145.067394
3790.101039,-10732.986159,1776.494261,1149.143247
3790.101369,-10732.986159,666.185348,536.266849
3790.101699,-11251.130318,666.185348,2451.505594
3790.102029,-10066.800811,1036.288319,4903.011187
3790.102358,-10362.883188,1184.329507,6511.811733
3790.102688,-12657.521608,1702.473667,3524.039291
3790.103018,-12583.501014,296.082377,153.219100
3790.103348,-10510.924376,148.041188,-1608.800546
3790.103678,-9326.594869,-592.164754,-1302.362347
3790.104008,-9326.594869,-666.185348,0.000000
3790.104337,-8142.265362,-1628.453072,2298.286494
3790.104667,-7328.038826,0.000000,1915.238745
3790.104997,-9252.574275,-1776.494261,-2834.553343
3790.105327,-10140.821405,-592.164754,-3064.381992
3790.105657,-10955.047942,-1776.494261,-766.095498
3790.105986,-11029.068536,-1628.453072,1532.190996
3790.106316,-9696.697840,-2812.782580,4673.182538
3790.106646,-8216.285956,-2368.659014,6052.154434
3790.106976,-7920.203579,-3552.988522,3064.381992
3790.107306,-8142.265362,-2812.782580,1225.752797
3790.107635,-9474.636058,-2368.659014,459.657299
3790.107965,-9178.553681,-1480.411884,1991.848295
3790.108295,-9326.594869,-1036.288319,3140.991542
3790.108625,-8068.244768,0.000000,2451.505594
3790.108955,-9548.656652,148.041188,229.828649
3790.109284,-11843.295072,962.267725,-2374.896044
3790.109614,-11029.068536,-222.061783,-3677.258390
3790.109944,-10584.944971,296.082377,-2068.457845
3790.110273,-10807.006753,74.020594,1149.143247
3790.110603,-11103.089130,-666.185348,3983.696590
3790.110933,-9548.656652,-962.267725,3983.696590
3790.111263,-9030.512492,-444.123565,0.000000
3790.111592,-8438.347739,-296.082377,-2451.505594
3790.111922,-9696.697840,-222.061783,-2068.457845
3790.112252,-11917.315666,1554.432478,-153.219100
3790.112581,-11991.336260,1184.329507,766.095498
3790.112911,-11917.315666,592.164754,-1149.143247
3790.113241,-11399.171507,740.205942,-3830.477490
3790.113571,-10214.842000,-740.205942,-5056.230287
3790.113900,-9474.636058,-1850.514855,-4596.572988
3790.114230,-7105.977043,-2368.659014,-2681.334243
3790.114560,-6661.853478,-2664.741391,229.828649
3790.114889,-6883.915261,-2368.659014,1072.533697
3790.115219,-6735.874072,-1628.453072,1455.581446
3790.115549,-8512.368333,-1258.350101,1455.581446
3790.115878,-9474.636058,370.102971,1685.410096
3790.116208,-9770.718434,666.185348,2221.676944
3790.116538,-11103.089130,592.164754,3600.648841
3790.116868,-10955.047942,740.205942,2451.505594
3790.117197,-10658.965565,444.123565,1838.629195
3790.117527,-10584.944971,0.000000,459.657299
3790.117857,-10807.006753,740.205942,229.828649
3790.118186,-8956.491898,592.164754,612.876398
3790.118516,-8142.265362,962.267725,-459.657299
3790.118846,-6957.935855,2886.803174,-1455.581446
3790.119176,-7328.038826,2516.700203,-612.876398
3790.119505,-10510.924376,4811.338623,-1225.752797
3790.119835,-13101.645173,4367.215058,-383.047749
3790.120165,-14063.912898,4219.173869,153.219100
3790.120494,-12879.583391,2590.720797,766.095498
3790.120824,-10881.027347,296.082377,1532.190996
3790.121154,-10510.924376,-148.041188,1685.410096
3790.121483,-10807.006753,-592.164754,1762.019645
3790.121813,-11325.150913,-1998.556043,1915.238745
3790.122143,-8956.491898,-740.205942,-229.828649
3790.122473,-7402.059420,296.082377,-1225.752797
3790.122802,-8290.306550,-592.164754,-1685.410096
3790.123132,-8438.347739,370.102971,-1225.752797
3790.123462,-8808.450710,0.000000,-1532.190996
3790.123791,-9030.512492,74.020594,-766.095498
3790.124121,-9918.759623,-444.123565,-1302.362347
3790.124451,-8808.450710,-1036.288319,-76.609550
3790.124781,-9622.677246,-444.123565,2145.067394
3790.125110,-11769.274478,-518.144159,1225.752797
3790.125440,-10362.883188,-1110.308913,2451.505594
3790.125770,-9252.574275,-962.267725,2451.505594
3790.126099,-8364.327145,-1184.329507,1991.848295
3790.126429,-7772.162391,0.000000,3064.381992
3790.126759,-8586.388927,518.144159,1455.581446
3790.127088,-8586.388927,888.247130,842.705048
3790.127418,-8956.491898,1332.370696,229.828649
3790.127748,-10732.986159,1406.391290,-306.438199
3790.128078,-11473.192101,1184.329507,-459.657299
3790.128407,-12213.398043,888.247130,995.924147
3790.128737,-11473.192101,814.226536,1302.362347
3790.129067,-10658.965565,444.123565,1991.848295
3790.129396,-10140.821405,1332.370696,612.876398
3790.129726,-9474.636058,666.185348,-612.876398
3790.130056,-9622.677246,592.164754,-766.095498
3790.130386,-10807.006753,814.226536,919.314598
3790.130715,-10955.047942,444.123565,1532.190996
3790.131045,-11399.171507,0.000000,689.485948
3790.131375,-11547.212695,-74.020594,-1532.190996
3790.131704,-10436.903782,-962.267725,-1838.629195
3790.132034,-10584.944971,-1036.288319,-1149.143247
3790.132364,-11103.089130,-1184.329507,-1991.848295
3790.132693,-9844.739029,-1924.535449,-1991.848295
3790.133023,-7846.182985,-2368.659014,-1532.190996
3790.133353,-7920.203579,-2886.803174,-766.095498
3790.133683,-7698.141797,-2738.761985,612.876398
3790.134012,-7698.141797,-2442.679609,2604.724693
3790.134342,-7772.162391,-1628.453072,1455.581446
3790.134672,-8734.430116,-1480.411884,766.095498
3790.135001,-9844.739029,-666.185348,-153.219100
3790.135331,-9844.739029,-444.123565,0.000000
3790.135661,-10881.027347,-592.164754,842.705048
3790.135991,-10955.047942,0.000000,0.000000
3790.136320,-9474.636058,-1554.432478,153.219100
3790.136650,-9770.718434,-666.185348,0.000000
3790.136980,-9400.615463,-74.020594,-229.828649
3790.137309,-10066.800811,444.123565,-229.828649
3790.137639,-9548.656652,518.144159,-1532.190996
3790.137969,-7846.182985,1184.329507,-1378.971896
3790.138298,-8956.491898,1776.494261,1302.362347
3790.138628,-12361.439231,1924.535449,842.705048
3790.138958,-12361.439231,1332.370696,229.828649
3790.139288,-11177.109724,666.185348,-612.876398
3790.139617,-11547.212695,888.247130,-1608.800546
3790.139947,-11843.295072,-962.267725,-612.876398
3790.140277,-10955.047942,-814.226536,536.266849
3790.140606,-9400.615463,-1110.308913,306.438199
3790.140936,-8586.388927,-1110.308913,76.609550
3790.141266,-9918.759623,-518.144159,0.000000
3790.141596,-8882.471304,-740.205942,-612.876398
3790.141925,-8142.265362,-1776.494261,0.000000
3790.142255,-8290.306550,-296.082377,229.828649
3790.142585,-9030.512492,-1184.329507,1225.752797
3790.142914,-9918.759623,-1480.411884,2604.724693
3790.143244,-9326.594869,-1184.329507,2221.676944
3790.143574,-9548.656652,-1776.494261,1302.362347
3790.143903,-9992.780217,-1184.329507,2374.896044
3790.144233,-9992.780217,-444.123565,1455.581446
3790.144563,-9696.697840,-518.144159,2528.115143
3790.144893,-9474.636058,296.082377,2145.067394
3790.145222,-9030.512492,444.123565,689.485948
3790.145552,-8216.285956,370.102971,-306.438199
3790.145882,-8586.388927,1998.556043,-1455.581446
3790.146211,-8882.471304,1554.432478,-1149.143247
3790.146541,-10436.903782,1850.514855,383.047749
3790.146871,-11695.253884,2146.597232,0.000000
3790.147201,-10584.944971,1702.473667,459.657299
3790.147530,-11103.089130,2368.659014,995.924147
3790.147860,-11917.315666,2072.576638,153.219100
3790.148190,-11769.274478,1184.329507,1378.971896
3790.148519,-9548.656652,814.226536,-229.828649
3790.148849,-8586.388927,814.226536,0.000000
3790.149179,-9992.780217,370.102971,1072.533697
3790.149508,-10807.006753,888.247130,459.657299
3790.149838,-10066.800811,592.164754,-766.095498
3790.150168,-9696.697840,888.247130,-1991.848295
3790.150498,-10510.924376,592.164754,-2451.505594
3790.150827,-10362.883188,0.000000,-383.047749
3790.151157,-10362.883188,222.061783,689.485948
3790.151487,-9622.677246,444.123565,612.876398
3790.151816,-9326.594869,-148.041188,919.314598
3790.152146,-10066.800811,74.020594,689.485948
3790.152476,-9696.697840,148.041188,153.219100
3790.152806,-9844.739029,0.000000,383.047749
3790.153135,-9918.759623,0.000000,612.876398
3790.153465,-8142.265362,-296.082377,1302.362347
3790.153795,-8142.265362,-370.102971,1991.848295
3790.154124,-8808.450710,666.185348,689.485948
3790.154454,-9326.594869,148.041188,0.000000
3790.154784,-10584.944971,1258.350101,-689.485948
3790.155113,-9696.697840,592.164754,-689.485948
3790.155443,-9474.636058,148.041188,0.000000
3790.155773,-9548.656652,1184.329507,1149.143247
3790.156103,-9474.636058,296.082377,76.609550
3790.156432,-9770.718434,962.267725,-689.485948
3790.156762,-10066.800811,814.226536,-1685.410096
3790.157092,-9770.718434,740.205942,-1225.752797
3790.157421,-9918.759623,1258.350101,612.876398
3790.157751,-10658.965565,888.247130,-306.438199
3790.158081,-11177.109724,-370.102971,-76.609550
3790.158411,-11325.150913,0.000000,-995.924147
3790.158740,-10584.944971,-814.226536,-2068.457845
3790.159070,-9918.759623,-1628.453072,-1991.848295
3790.159400,-9844.739029,-1628.453072,-766.095498
3790.159729,-9696.697840,-1702.473667,383.047749
3790.160059,-8290.306550,-2886.803174,1149.143247
3790.160389,-6513.812290,-2442.679609,229.828649
3790.160719,-7698.141797,-2368.659014,766.095498
3790.161048,-9844.739029,-1554.432478,1455.581446
3790.161378,-11029.068536,-1036.288319,2145.067394
3790.161708,-10066.800811,-1184.329507,2221.676944
3790.162037,-9400.615463,-1036.288319,1532.190996
3790.162367,-10362.883188,-962.267725,383.047749
3790.162697,-10510.924376,-1110.308913,0.000000
3790.163026,-10214.842000,-962.267725,-612.876398
3790.163356,-9104.533087,-296.082377,-306.438199
3790.163686,-8956.491898,-74.020594,842.705048
3790.164016,-9474.636058,74.020594,0.000000
3790.164345,-9252.574275,1258.350101,0.000000
