#time,accel_x,accel_y,accel_z
4227.980989,-9696.697840,0.000000,306.438199
4227.981319,-9622.677246,0.000000,536.266849
4227.981649,-9548.656652,0.000000,459.657299
4227.981979,-9696.697840,74.020594,153.219100
4227.982309,-9992.780217,0.000000,0.000000
4227.982639,-9474.636058,0.000000,0.000000
4227.982970,-9252.574275,-296.082377,-383.047749
4227.983300,-9326.594869,0.000000,306.438199
4227.983630,-9770.718434,0.000000,153.219100
4227.983960,-9622.677246,0.000000,-153.219100
4227.984290,-9696.697840,222.061783,76.609550
4227.984620,-9918.759623,-296.082377,306.438199
4227.984950,-9770.718434,0.000000,766.095498
4227.985280,-9548.656652,-370.102971,995.924147
4227.985610,-9844.739029,-74.020594,1072.533697
4227.985940,-9844.739029,0.000000,919.314598
4227.986270,-9622.677246,74.020594,612.876398
4227.986601,-9992.780217,74.020594,229.828649
4227.986931,-10288.862594,222.061783,842.705048
4227.987261,-9622.677246,0.000000,842.705048
4227.987591,-9474.636058,-222.061783,995.924147
4227.987921,-9696.697840,-370.102971,1532.190996
4227.988251,-9844.739029,-148.041188,1532.190996
4227.988581,-10140.821405,-222.061783,536.266849
4227.988911,-10140.821405,-148.041188,-383.047749
4227.989241,-9622.677246,-370.102971,-229.828649
4227.989571,-9696.697840,0.000000,0.000000
4227.989901,-9770.718434,-666.185348,689.485948
4227.990232,-10066.800811,-148.041188,1455.581446
4227.990562,-9696.697840,-444.123565,2374.896044
4227.990892,-9622.677246,-666.185348,2145.067394
4227.991222,-9696.697840,-888.247130,2298.286494
4227.991552,-9918.759623,-1110.308913,2145.067394
4227.991882,-10214.842000,-1110.308913,2451.505594
4227.992212,-10140.821405,-1184.329507,2604.724693
4227.992542,-9992.780217,-1332.370696,3064.381992
4227.992872,-9918.759623,-1258.350101,2834.553343
4227.993202,-9770.718434,-1184.329507,2374.896044
4227.993532,-9770.718434,-962.267725,1915.238745
4227.993862,-10140.821405,-666.185348,1378.971896
4227.994193,-10214.842000,-1110.308913,1685.410096
4227.994523,-9918.759623,-1258.350101,1685.410096
4227.994853,-10140.821405,-1924.535449,2374.896044
4227.995183,-10140.821405,-2590.720797,2987.772442
4227.995513,-9696.697840,-3108.864956,2757.943793
4227.995843,-9030.512492,-3552.988522,2374.896044
4227.996173,-8068.244768,-3627.009116,2451.505594
4227.996503,-8438.347739,-3330.926739,3524.039291
4227.996833,-9326.594869,-2960.823768,4290.134789
4227.997163,-10288.862594,-2812.782580,4060.306139
4227.997493,-10436.903782,-2368.659014,3753.867940
4227.997824,-10881.027347,-2812.782580,2911.162892
4227.998154,-11029.068536,-2516.700203,1915.238745
4227.998484,-10658.965565,-2886.803174,1225.752797
4227.998814,-9770.718434,-2294.638420,459.657299
4227.999144,-9178.553681,-2738.761985,689.485948
4227.999474,-9548.656652,-2886.803174,1455.581446
4227.999804,-9400.615463,-3256.906145,2374.896044
4228.000134,-9992.780217,-3552.988522,3140.991542
4228.000464,-9992.780217,-3849.070898,3217.601092
4228.000794,-9992.780217,-4367.215058,2911.162892
4228.001124,-9696.697840,-4515.256246,3217.601092
4228.001454,-9474.636058,-4145.153275,4213.525239
4228.001785,-9104.533087,-3997.112087,4903.011187
4228.002115,-10584.944971,-2886.803174,3830.477490
4228.002445,-10584.944971,-2368.659014,2068.457845
4228.002775,-10881.027347,-1850.514855,1072.533697
4228.003105,-10362.883188,-1998.556043,1762.019645
4228.003435,-10732.986159,-2442.679609,1762.019645
4228.003765,-9696.697840,-3256.906145,2221.676944
4228.004095,-9326.594869,-3552.988522,1762.019645
4228.004425,-8734.430116,-3478.967927,1149.143247
4228.004755,-9030.512492,-3552.988522,1302.362347
4228.005085,-8808.450710,-3256.906145,2374.896044
4228.005416,-9696.697840,-2812.782580,3370.820191
4228.005746,-11029.068536,-1554.432478,3830.477490
4228.006076,-10436.903782,-1628.453072,3370.820191
4228.006406,-9770.718434,-1850.514855,2834.553343
4228.006736,-9252.574275,-2146.597232,1915.238745
4228.007066,-9844.739029,-2516.700203,2145.067394
4228.007396,-10658.965565,-2294.638420,3140.991542
4228.007726,-9622.677246,-2146.597232,2757.943793
4228.008056,-9178.553681,-1924.535449,2681.334243
4228.008386,-9326.594869,-1332.370696,2068.457845
4228.008716,-10066.800811,-1258.350101,995.924147
4228.009047,-10732.986159,-1036.288319,995.924147
4228.009377,-9696.697840,-888.247130,1455.581446
4228.009707,-9400.615463,-814.226536,2604.724693
4228.010037,-9030.512492,-1110.308913,3294.210641
4228.010367,-9844.739029,-814.226536,3140.991542
4228.010697,-10510.924376,-962.267725,2374.896044
4228.011027,-10584.944971,-1184.329507,1685.410096
4228.011357,-10510.924376,-814.226536,1915.238745
4228.011687,-9696.697840,-1184.329507,2451.505594
4228.012017,-9548.656652,-1184.329507,2911.162892
4228.012347,-9696.697840,-518.144159,2911.162892
4228.012677,-9992.780217,-592.164754,1532.190996
4228.013008,-10066.800811,222.061783,766.095498
4228.013338,-9548.656652,-1036.288319,459.657299
4228.013668,-9548.656652,-1110.308913,1608.800546
4228.013998,-9770.718434,-1110.308913,2374.896044
4228.014328,-9400.615463,-888.247130,2451.505594
4228.014658,-9548.656652,-1628.453072,2145.067394
4228.014988,-9918.759623,-1406.391290,1991.848295
4228.015318,-9992.780217,-1332.370696,1838.629195
4228.015648,-9400.615463,-1480.411884,1915.238745
4228.015978,-9770.718434,-962.267725,2145.067394
4228.016308,-9992.780217,-1258.350101,3677.258390
4228.016639,-9844.739029,-1332.370696,3140.991542
4228.016969,-10510.924376,-962.267725,1685.410096
4228.017299,-9548.656652,-1480.411884,0.000000
4228.017629,-9474.636058,-1628.453072,689.485948
4228.017959,-10066.800811,-1110.308913,1915.238745
4228.018289,-10510.924376,-1776.494261,3294.210641
4228.018619,-9918.759623,-1702.473667,2451.505594
4228.018949,-9400.615463,-2368.659014,1991.848295
4228.019279,-9400.615463,-3034.844362,2604.724693
4228.019609,-10362.883188,-2664.741391,3677.258390
4228.019939,-9696.697840,-2516.700203,3907.087040
4228.020270,-9770.718434,-2812.782580,3600.648841
4228.020600,-9474.636058,-2442.679609,2834.553343
4228.020930,-9622.677246,-2664.741391,3140.991542
4228.021260,-10807.006753,-2738.761985,3217.601092
4228.021590,-10584.944971,-2738.761985,2451.505594
4228.021920,-10140.821405,-2590.720797,1685.410096
4228.022250,-9326.594869,-3108.864956,1302.362347
4228.022580,-9622.677246,-3330.926739,2221.676944
4228.022910,-10288.862594,-3256.906145,3753.867940
4228.023240,-9992.780217,-3552.988522,3677.258390
4228.023570,-9178.553681,-4071.132681,2757.943793
4228.023900,-8364.327145,-3849.070898,3677.258390
4228.024231,-9918.759623,-3478.967927,3370.820191
4228.024561,-11325.150913,-3182.885551,4060.306139
4228.024891,-10732.986159,-3182.885551,3600.648841
4228.025221,-9622.677246,-3478.967927,2987.772442
4228.025551,-9770.718434,-2442.679609,2451.505594
4228.025881,-10362.883188,-2516.700203,2834.553343
4228.026211,-10584.944971,-2960.823768,2451.505594
4228.026541,-10436.903782,-2442.679609,2834.553343
4228.026871,-10066.800811,-3330.926739,2604.724693
4228.027201,-9844.739029,-3330.926739,1991.848295
4228.027531,-9474.636058,-2960.823768,2681.334243
4228.027862,-9400.615463,-3108.864956,2757.943793
4228.028192,-9252.574275,-2812.782580,2681.334243
4228.028522,-9326.594869,-2738.761985,2221.676944
4228.028852,-9992.780217,-2590.720797,2528.115143
4228.029182,-10658.965565,-1924.535449,2987.772442
4228.029512,-10881.027347,-1850.514855,2374.896044
4228.029842,-10362.883188,-2072.576638,2298.286494
4228.030172,-9696.697840,-1924.535449,1915.238745
4228.030502,-9474.636058,-2442.679609,2221.676944
4228.030832,-9770.718434,-1776.494261,2528.115143
4228.031162,-9696.697840,-2072.576638,2451.505594
4228.031492,-9548.656652,-1332.370696,2528.115143
4228.031823,-10214.842000,-1480.411884,1838.629195
4228.032153,-10881.027347,-1036.288319,1608.800546
4228.032483,-10140.821405,-1554.432478,1685.410096
4228.032813,-9030.512492,-1702.473667,1991.848295
4228.033143,-8586.388927,-2072.576638,1991.848295
4228.033473,-9030.512492,-1628.453072,2911.162892
4228.033803,-10288.862594,-1184.329507,3064.381992
4228.034133,-10066.800811,-1480.411884,2298.286494
4228.034463,-9992.780217,-1110.308913,1532.190996
4228.034793,-10362.883188,-1480.411884,2145.067394
4228.035123,-10510.924376,-888.247130,2911.162892
4228.035453,-9992.780217,-1332.370696,3064.381992
4228.035783,-9474.636058,-592.164754,2451.505594
4228.036113,-8734.430116,-1184.329507,1455.581446
4228.036443,-9474.636058,-888.247130,766.095498
4228.036773,-9992.780217,-148.041188,1455.581446
4228.037103,-10658.965565,-592.164754,2068.457845
4228.037433,-10362.883188,-666.185348,1532.190996
4228.037763,-9918.759623,-888.247130,1455.581446
4228.038093,-9992.780217,-1110.308913,1225.752797
4228.038423,-9474.636058,-1258.350101,1838.629195
4228.038753,-9326.594869,-1258.350101,1838.629195
4228.039083,-9844.739029,-1036.288319,2374.896044
4228.039413,-9770.718434,-1036.288319,2987.772442
4228.039743,-9992.780217,-814.226536,3140.991542
4228.040073,-10362.883188,-1184.329507,2068.457845
4228.040403,-10436.903782,-962.267725,1532.190996
4228.040733,-9992.780217,-1480.411884,689.485948
4228.041062,-10362.883188,-888.247130,2374.896044
4228.041392,-10288.862594,-2294.638420,2681.334243
4228.041722,-9548.656652,-1110.308913,2451.505594
4228.042052,-9548.656652,-888.247130,1608.800546
4228.042382,-9918.759623,-1776.494261,919.314598
4228.042712,-10214.842000,-1628.453072,2298.286494
4228.043042,-10436.903782,-1628.453072,3447.429741
4228.043372,-10140.821405,-2516.700203,4213.525239
4228.043702,-9326.594869,-2590.720797,3753.867940
4228.044032,-9178.553681,-2664.741391,2528.115143
4228.044362,-9178.553681,-2886.803174,1532.190996
4228.044692,-9918.759623,-1702.473667,1455.581446
4228.045022,-10362.883188,-1702.473667,1838.629195
4228.045352,-10436.903782,-1702.473667,2681.334243
4228.045682,-10288.862594,-1332.370696,3294.210641
4228.046012,-9474.636058,-2294.638420,2451.505594
4228.046342,-10140.821405,-2220.617826,1838.629195
4228.046672,-9992.780217,-2590.720797,612.876398
4228.047001,-9474.636058,-2960.823768,459.657299
4228.047331,-9252.574275,-2368.659014,2757.943793
4228.047661,-9030.512492,-2146.597232,3294.210641
4228.047991,-9770.718434,-2294.638420,4290.134789
4228.048321,-9770.718434,-2146.597232,2451.505594
4228.048651,-9992.780217,-1702.473667,1072.533697
4228.048981,-10955.047942,-1702.473667,919.314598
4228.049311,-10214.842000,-2516.700203,2221.676944
4228.049641,-9992.780217,-2590.720797,3600.648841
4228.049971,-9474.636058,-2146.597232,3677.258390
4228.050301,-10362.883188,-1924.535449,1991.848295
4228.050631,-10584.944971,-2072.576638,766.095498
4228.050961,-9326.594869,-2072.576638,153.219100
4228.051291,-8364.327145,-1184.329507,1072.533697
4228.051621,-9252.574275,-1258.350101,2757.943793
4228.051951,-10955.047942,-1110.308913,2451.505594
4228.052281,-11325.150913,-1702.473667,2298.286494
4228.052611,-9770.718434,-2442.679609,1838.629195
4228.052941,-9548.656652,-2516.700203,1532.190996
4228.053270,-10807.006753,-1554.432478,1762.019645
4228.053600,-9252.574275,-2072.576638,1149.143247
4228.053930,-8364.327145,-1258.350101,689.485948
4228.054260,-8512.368333,-592.164754,842.705048
4228.054590,-10288.862594,-1110.308913,919.314598
4228.054920,-11177.109724,-518.144159,1532.190996
4228.055250,-9178.553681,-1924.535449,2221.676944
4228.055580,-8290.306550,-1480.411884,1915.238745
4228.055910,-9548.656652,-888.247130,2834.553343
4228.056240,-11251.130318,-1480.411884,1225.752797
4228.056570,-10436.903782,-1184.329507,-612.876398
4228.056900,-9400.615463,0.000000,-1072.533697
4228.057230,-9844.739029,-296.082377,-919.314598
4228.057560,-10214.842000,-518.144159,0.000000
4228.057890,-9326.594869,0.000000,842.705048
4228.058220,-8068.244768,-592.164754,0.000000
4228.058550,-8438.347739,-74.020594,-1455.581446
4228.058880,-9992.780217,-296.082377,-766.095498
4228.059209,-10807.006753,-518.144159,1072.533697
4228.059539,-10362.883188,-296.082377,2528.115143
4228.059869,-9326.594869,222.061783,2221.676944
4228.060199,-10214.842000,-296.082377,842.705048
4228.060529,-10732.986159,148.041188,0.000000
4228.060859,-9918.759623,296.082377,383.047749
4228.061189,-9326.594869,370.102971,612.876398
4228.061519,-9622.677246,592.164754,612.876398
4228.061849,-10288.862594,740.205942,1532.190996
4228.062179,-9918.759623,740.205942,0.000000
4228.062509,-8882.471304,1332.370696,-2451.505594
4228.062839,-8734.430116,1406.391290,-3907.087040
4228.063169,-10658.965565,1924.535449,-3140.991542
4228.063499,-11695.253884,1480.411884,-2221.676944
4228.063829,-10214.842000,1406.391290,-229.828649
4228.064159,-9918.759623,1332.370696,76.609550
4228.064489,-9992.780217,666.185348,-919.314598
4228.064819,-9844.739029,962.267725,-1302.362347
4228.065148,-9030.512492,222.061783,-995.924147
4228.065478,-8734.430116,518.144159,842.705048
4228.065808,-9252.574275,592.164754,2374.896044
4228.066138,-9400.615463,962.267725,1685.410096
4228.066468,-10214.842000,962.267725,1072.533697
4228.066798,-10288.862594,666.185348,306.438199
4228.067128,-10288.862594,666.185348,-536.266849
4228.067458,-11103.089130,888.247130,0.000000
4228.067788,-9548.656652,592.164754,459.657299
4228.068118,-9474.636058,592.164754,0.000000
4228.068448,-8586.388927,1110.308913,0.000000
4228.068778,-9400.615463,740.205942,0.000000
4228.069108,-9844.739029,1850.514855,-229.828649
4228.069438,-9992.780217,444.123565,-1762.019645
4228.069768,-9770.718434,1702.473667,-229.828649
4228.070098,-9030.512492,814.226536,-612.876398
4228.070428,-9474.636058,814.226536,-766.095498
4228.070758,-11177.109724,370.102971,766.095498
4228.071088,-11177.109724,1184.329507,842.705048
4228.071417,-10066.800811,-148.041188,-689.485948
4228.071747,-8586.388927,222.061783,0.000000
4228.072077,-8882.471304,-148.041188,842.705048
4228.072407,-9844.739029,74.020594,842.705048
4228.072737,-9400.615463,370.102971,153.219100
4228.073067,-9030.512492,74.020594,0.000000
4228.073397,-10140.821405,666.185348,1225.752797
4228.073727,-11325.150913,148.041188,1915.238745
4228.074057,-10658.965565,-444.123565,1455.581446
4228.074387,-9548.656652,0.000000,459.657299
4228.074717,-9326.594869,-148.041188,0.000000
4228.075047,-10140.821405,-814.226536,229.828649
4228.075377,-10140.821405,-370.102971,1991.848295
4228.075707,-9696.697840,-148.041188,1762.019645
4228.076037,-9178.553681,-222.061783,612.876398
4228.076367,-9326.594869,0.000000,842.705048
4228.076697,-10510.924376,-592.164754,306.438199
4228.077027,-10807.006753,0.000000,689.485948
4228.077356,-10510.924376,-296.082377,-612.876398
4228.077686,-9992.780217,-518.144159,-995.924147
4228.078016,-9844.739029,-592.164754,-689.485948
4228.078346,-10362.883188,74.020594,153.219100
4228.078676,-9770.718434,-1036.288319,-995.924147
4228.079006,-8068.244768,-888.247130,-306.438199
4228.079336,-7328.038826,-148.041188,766.095498
4228.079666,-9252.574275,-1554.432478,766.095498
4228.079996,-11695.253884,-666.185348,1685.410096
4228.080326,-11029.068536,-1036.288319,1915.238745
4228.080656,-10140.821405,-1702.473667,1072.533697
4228.080986,-8216.285956,-1036.288319,306.438199
4228.081316,-9030.512492,-1480.411884,1302.362347
4228.081646,-10658.965565,-222.061783,2374.896044
4228.081976,-9400.615463,-740.205942,995.924147
4228.082306,-9474.636058,0.000000,306.438199
4228.082636,-10362.883188,-148.041188,536.266849
4228.082966,-11917.315666,-370.102971,919.314598
4228.083295,-9992.780217,0.000000,153.219100
4228.083625,-8586.388927,-222.061783,-766.095498
4228.083955,-8216.285956,-222.061783,-995.924147
4228.084285,-9696.697840,74.020594,-1378.971896
4228.084615,-10584.944971,814.226536,-995.924147
4228.084945,-10362.883188,296.082377,229.828649
4228.085275,-9474.636058,740.205942,0.000000
4228.085605,-9844.739029,148.041188,-766.095498
4228.085935,-10584.944971,444.123565,-383.047749
4228.086265,-9918.759623,-814.226536,-842.705048
4228.086595,-8882.471304,-222.061783,-459.657299
4228.086925,-7994.224174,-148.041188,536.266849
4228.087255,-9548.656652,370.102971,536.266849
4228.087585,-9918.759623,444.123565,0.000000
4228.087915,-9844.739029,518.144159,0.000000
4228.088245,-10881.027347,370.102971,0.000000
4228.088575,-9844.739029,370.102971,0.000000
4228.088905,-9474.636058,0.000000,229.828649
4228.089234,-8808.450710,222.061783,1225.752797
4228.089564,-8956.491898,0.000000,1072.533697
4228.089894,-9696.697840,592.164754,0.000000
4228.090224,-9770.718434,148.041188,-995.924147
4228.090554,-10362.883188,592.164754,919.314598
4228.090884,-10436.903782,740.205942,2374.896044
4228.091214,-10955.047942,1110.308913,1532.190996
4228.091544,-9918.759623,592.164754,-229.828649
4228.091874,-9104.533087,444.123565,-766.095498
4228.092204,-9548.656652,666.185348,-1532.190996
4228.092534,-10436.903782,814.226536,-612.876398
4228.092864,-10214.842000,1258.350101,-612.876398
4228.093194,-9696.697840,1110.308913,0.000000
4228.093524,-9548.656652,1036.288319,-536.266849
4228.093854,-9696.697840,592.164754,-383.047749
4228.094184,-9770.718434,518.144159,-842.705048
4228.094514,-9252.574275,962.267725,-612.876398
4228.094844,-9844.739029,222.061783,153.219100
4228.095174,-9918.759623,370.102971,1455.581446
4228.095503,-9400.615463,0.000000,1149.143247
4228.095833,-9622.677246,740.205942,-536.266849
4228.096163,-9548.656652,-518.144159,-689.485948
4228.096493,-10288.862594,592.164754,919.314598
4228.096823,-9474.636058,-148.041188,1455.581446
4228.097153,-8882.471304,370.102971,1072.533697
4228.097483,-9548.656652,592.164754,612.876398
4228.097813,-10584.944971,814.226536,-766.095498
4228.098143,-10140.821405,370.102971,-2145.067394
4228.098473,-10214.842000,370.102971,-1608.800546
4228.098803,-9918.759623,814.226536,-536.266849
4228.099133,-10288.862594,1110.308913,76.609550
4228.099463,-9844.739029,370.102971,-536.266849
4228.099793,-9030.512492,0.000000,-1378.971896
4228.100123,-9326.594869,592.164754,-919.314598
4228.100453,-9770.718434,222.061783,0.000000
4228.100783,-10658.965565,0.000000,0.000000
4228.101113,-10658.965565,-148.041188,842.705048
4228.101442,-9992.780217,-814.226536,1455.581446
4228.101772,-9326.594869,-814.226536,1608.800546
4228.102102,-9400.615463,-222.061783,1455.581446
4228.102432,-10214.842000,-370.102971,1455.581446
4228.102762,-10510.924376,0.000000,919.314598
4228.103092,-9474.636058,0.000000,919.314598
4228.103422,-9622.677246,-74.020594,919.314598
4228.103752,-9992.780217,-444.123565,842.705048
4228.104082,-9770.718434,-1332.370696,919.314598
4228.104412,-9844.739029,-962.267725,1838.629195
4228.104742,-8438.347739,-1036.288319,1225.752797
4228.105072,-8808.450710,-1628.453072,459.657299
4228.105402,-8882.471304,-1036.288319,689.485948
4228.105732,-9696.697840,-1332.370696,1762.019645
4228.106062,-10881.027347,-1036.288319,2451.505594
4228.106392,-10288.862594,-888.247130,1915.238745
4228.106722,-9696.697840,-962.267725,2068.457845
4228.107052,-9696.697840,-814.226536,995.924147
4228.107381,-9474.636058,-962.267725,-612.876398
4228.107711,-9918.759623,-592.164754,0.000000
4228.108041,-9696.697840,-296.082377,229.828649
4228.108371,-9696.697840,-1036.288319,919.314598
4228.108701,-9548.656652,-888.247130,536.266849
4228.109031,-9326.594869,0.000000,-919.314598
4228.109361,-10214.842000,-666.185348,-1225.752797
4228.109691,-9992.780217,0.000000,-153.219100
4228.110021,-10288.862594,-518.144159,1149.143247
4228.110351,-10658.965565,0.000000,1455.581446
4228.110681,-10066.800811,222.061783,995.924147
4228.111011,-9474.636058,-962.267725,0.000000
4228.111341,-9030.512492,0.000000,-612.876398
4228.111671,-10140.821405,-370.102971,-383.047749
4228.112001,-10436.903782,222.061783,0.000000
4228.112331,-9326.594869,0.000000,0.000000
4228.112661,-9622.677246,444.123565,-536.266849
4228.112991,-9474.636058,518.144159,-306.438199
4228.113321,-9622.677246,222.061783,-919.314598
4228.113650,-9548.656652,74.020594,-1072.533697
4228.113980,-8808.450710,222.061783,-612.876398
4228.114310,-9696.697840,518.144159,0.000000
4228.114640,-9696.697840,592.164754,-459.657299
4228.114970,-10288.862594,740.205942,-306.438199
4228.115300,-9918.759623,814.226536,-459.657299
4228.115630,-9474.636058,962.267725,-689.485948
4228.115960,-10140.821405,1184.329507,383.047749
4228.116290,-10066.800811,1036.288319,306.438199
4228.116620,-9696.697840,740.205942,536.266849
4228.116950,-9474.636058,1184.329507,-306.438199
4228.117280,-9696.697840,666.185348,-612.876398
4228.117610,-9178.553681,518.144159,-383.047749
4228.117940,-9770.718434,444.123565,919.314598
4228.118270,-9622.677246,592.164754,1532.190996
4228.118600,-8808.450710,296.082377,1149.143247
4228.118930,-9104.533087,296.082377,689.485948
4228.119260,-10140.821405,740.205942,919.314598
4228.119589,-11251.130318,666.185348,1072.533697
4228.119919,-10214.842000,888.247130,766.095498
4228.120249,-9252.574275,592.164754,612.876398
4228.120579,-9252.574275,814.226536,-153.219100
4228.120909,-9326.594869,0.000000,-612.876398
4228.121239,-9548.656652,814.226536,-536.266849
4228.121569,-9622.677246,814.226536,-842.705048
4228.121899,-10510.924376,0.000000,-536.266849
4228.122229,-10362.883188,740.205942,0.000000
4228.122559,-9918.759623,666.185348,919.314598
4228.122889,-9696.697840,666.185348,0.000000
4228.123219,-9252.574275,-296.082377,-1608.800546
4228.123549,-9622.677246,148.041188,-842.705048
4228.123879,-9474.636058,-296.082377,459.657299
4228.124209,-9622.677246,296.082377,2298.286494
4228.124539,-11251.130318,0.000000,2987.772442
4228.124869,-10288.862594,0.000000,995.924147
4228.125199,-9252.574275,-740.205942,-995.924147
4228.125528,-9104.533087,0.000000,-1838.629195
4228.125858,-10436.903782,-222.061783,-995.924147
4228.126188,-9918.759623,-740.205942,229.828649
4228.126518,-8512.368333,222.061783,459.657299
4228.126848,-9548.656652,0.000000,0.000000
4228.127178,-10955.047942,74.020594,-612.876398
4228.127508,-10584.944971,-518.144159,-1302.362347
4228.127838,-9474.636058,-666.185348,-1685.410096
4228.128168,-8734.430116,-740.205942,153.219100
4228.128498,-9918.759623,-962.267725,2451.505594
4228.128828,-10066.800811,-814.226536,3447.429741
4228.129158,-9474.636058,-1036.288319,1991.848295
4228.129488,-9918.759623,-1554.432478,-229.828649
4228.129818,-10510.924376,-1110.308913,-306.438199
4228.130148,-10584.944971,-814.226536,842.705048
4228.130478,-9622.677246,-518.144159,1378.971896
4228.130808,-9326.594869,-148.041188,919.314598
4228.131138,-10584.944971,-222.061783,766.095498
4228.131468,-9918.759623,-296.082377,-76.609550
4228.131797,-9326.594869,-370.102971,-1608.800546
4228.132127,-9400.615463,-222.061783,-2221.676944
4228.132457,-9622.677246,0.000000,-383.047749
4228.132787,-9844.739029,-296.082377,459.657299
4228.133117,-9400.615463,-296.082377,1302.362347
4228.133447,-9770.718434,-518.144159,536.266849
4228.133777,-10436.903782,-444.123565,612.876398
4228.134107,-10955.047942,-740.205942,689.485948
4228.134437,-9844.739029,74.020594,689.485948
4228.134767,-9252.574275,0.000000,1455.581446
4228.135097,-9548.656652,0.000000,612.876398
4228.135426,-9030.512492,-666.185348,306.438199
4228.135756,-8956.491898,444.123565,76.609550
4228.136086,-9770.718434,0.000000,-383.047749
4228.136416,-9474.636058,814.226536,-995.924147
4228.136746,-9104.533087,296.082377,-919.314598
4228.137075,-9252.574275,592.164754,-1225.752797
4228.137405,-8586.388927,444.123565,-766.095498
4228.137735,-9178.553681,222.061783,153.219100
4228.138065,-10881.027347,1332.370696,1378.971896
4228.138395,-10436.903782,296.082377,1149.143247
4228.138725,-10066.800811,888.247130,0.000000
4228.139054,-9400.615463,222.061783,-306.438199
4228.139384,-9622.677246,518.144159,612.876398
4228.139714,-9918.759623,1332.370696,1455.581446
4228.140044,-9548.656652,1184.329507,689.485948
4228.140374,-10436.903782,888.247130,153.219100
4228.140703,-9770.718434,1258.350101,0.000000
4228.141033,-10807.006753,962.267725,-1532.190996
4228.141363,-9770.718434,888.247130,-1378.971896
4228.141693,-8956.491898,592.164754,229.828649
4228.142023,-9326.594869,814.226536,1149.143247
4228.142352,-9474.636058,888.247130,536.266849
4228.142682,-10955.047942,592.164754,-689.485948
4228.143012,-10510.924376,962.267725,-919.314598
4228.143342,-9770.718434,666.185348,-766.095498
4228.143672,-9178.553681,222.061783,153.219100
4228.144002,-9178.553681,-148.041188,1072.533697
4228.144331,-9770.718434,444.123565,1915.238745
4228.144661,-9474.636058,-666.185348,919.314598
4228.144991,-8882.471304,148.041188,0.000000
4228.145321,-9844.739029,0.000000,0.000000
4228.145651,-10510.924376,-74.020594,76.609550
4228.145980,-9622.677246,-222.061783,536.266849
4228.146310,-8586.388927,518.144159,1072.533697
4228.146640,-9326.594869,296.082377,306.438199
4228.146970,-9696.697840,-592.164754,306.438199
4228.147300,-9400.615463,0.000000,229.828649
4228.147630,-9400.615463,0.000000,459.657299
4228.147959,-9770.718434,148.041188,0.000000
4228.148289,-9474.636058,-370.102971,-306.438199
4228.148619,-10510.924376,222.061783,1149.143247
4228.148949,-10881.027347,518.144159,459.657299
4228.149279,-9918.759623,370.102971,-919.314598
4228.149608,-9326.594869,-296.082377,-1072.533697
4228.149938,-9548.656652,0.000000,-306.438199
4228.150268,-10288.862594,-148.041188,-153.219100
4228.150598,-10807.006753,518.144159,612.876398
4228.150928,-10362.883188,-296.082377,-612.876398
4228.151258,-9696.697840,-148.041188,-612.876398
4228.151587,-9326.594869,-814.226536,-306.438199
4228.151917,-9918.759623,-814.226536,919.314598
4228.152247,-9844.739029,-814.226536,1685.410096
4228.152577,-10140.821405,-1110.308913,1532.190996
4228.152907,-10288.862594,-666.185348,1149.143247
4228.153236,-11029.068536,-592.164754,1378.971896
4228.153566,-10658.965565,-296.082377,1072.533697
4228.153896,-9178.553681,-814.226536,536.266849
4228.154226,-9474.636058,222.061783,842.705048
4228.154556,-10214.842000,-592.164754,536.266849
4228.154886,-10362.883188,-296.082377,229.828649
4228.155215,-9696.697840,-148.041188,0.000000
4228.155545,-9770.718434,-148.041188,-1072.533697
4228.155875,-9918.759623,0.000000,-766.095498
4228.156205,-9104.533087,-1036.288319,919.314598
4228.156535,-8438.347739,-1110.308913,612.876398
4228.156864,-9104.533087,-814.226536,919.314598
4228.157194,-9622.677246,-148.041188,153.219100
4228.157524,-10955.047942,0.000000,-612.876398
4228.157854,-10214.842000,518.144159,-995.924147
4228.158184,-9326.594869,296.082377,-842.705048
4228.158514,-9104.533087,222.061783,-153.219100
4228.158843,-9770.718434,444.123565,76.609550
4228.159173,-9326.594869,444.123565,306.438199
4228.159503,-8808.450710,0.000000,0.000000
4228.159833,-9548.656652,0.000000,-76.609550
4228.160163,-9770.718434,0.000000,612.876398
4228.160492,-9918.759623,-74.020594,0.000000
4228.160822,-9400.615463,370.102971,229.828649
4228.161152,-9918.759623,592.164754,306.438199
4228.161482,-9770.718434,1406.391290,-459.657299
4228.161812,-9770.718434,592.164754,-1378.971896
4228.162142,-10510.924376,1628.453072,-766.095498
4228.162471,-11251.130318,1184.329507,842.705048
4228.162801,-10732.986159,1184.329507,1225.752797
4228.163131,-9104.533087,0.000000,153.219100
4228.163461,-9252.574275,296.082377,0.000000
4228.163791,-10584.944971,222.061783,306.438199
4228.164120,-10732.986159,-444.123565,459.657299
4228.164450,-9918.759623,-592.164754,1149.143247
4228.164780,-8808.450710,-740.205942,1991.848295
4228.165110,-8882.471304,148.041188,2221.676944
4228.165440,-9622.677246,444.123565,995.924147
4228.165770,-10510.924376,1406.391290,-995.924147
4228.166099,-11325.150913,1110.308913,-689.485948
4228.166429,-10584.944971,518.144159,-919.314598
4228.166759,-10066.800811,370.102971,842.705048
4228.167089,-9474.636058,444.123565,1149.143247
4228.167419,-8882.471304,0.000000,383.047749
4228.167748,-9326.594869,-74.020594,-919.314598
4228.168078,-9178.553681,-962.267725,-689.485948
4228.168408,-9030.512492,-666.185348,229.828649
4228.168738,-9622.677246,148.041188,1915.238745
4228.169068,-10140.821405,0.000000,2221.676944
4228.169398,-9548.656652,0.000000,1915.238745
4228.169727,-8734.430116,-666.185348,383.047749
4228.170057,-10510.924376,0.000000,-76.609550
4228.170387,-11251.130318,-148.041188,0.000000
4228.170717,-9696.697840,888.247130,-153.219100
4228.171047,-8882.471304,444.123565,-383.047749
4228.171376,-9326.594869,592.164754,-919.314598
4228.171706,-10066.800811,370.102971,-1302.362347
4228.172036,-10288.862594,-148.041188,-1302.362347
4228.172366,-9474.636058,-518.144159,-919.314598
4228.172696,-9326.594869,0.000000,-306.438199
4228.173026,-9622.677246,0.000000,842.705048
4228.173355,-9696.697840,148.041188,153.219100
4228.173685,-9696.697840,222.061783,306.438199
4228.174015,-10732.986159,296.082377,-76.609550
4228.174345,-11547.212695,814.226536,0.000000
4228.174675,-10732.986159,1332.370696,1378.971896
4228.175004,-9770.718434,666.185348,766.095498
4228.175334,-10658.965565,444.123565,0.000000
4228.175664,-10732.986159,592.164754,-995.924147
4228.175994,-9918.759623,-444.123565,-995.924147
4228.176324,-7698.141797,-148.041188,-229.828649
4228.176653,-7698.141797,-148.041188,459.657299
4228.176983,-10510.924376,0.000000,536.266849
4228.177313,-10066.800811,222.061783,766.095498
4228.177643,-9770.718434,0.000000,919.314598
4228.177973,-9548.656652,74.020594,1302.362347
4228.178303,-10658.965565,0.000000,1685.410096
4228.178632,-10510.924376,0.000000,1225.752797
4228.178962,-9252.574275,0.000000,612.876398
4228.179292,-8882.471304,370.102971,-383.047749
4228.179622,-9548.656652,0.000000,76.609550
4228.179952,-10140.821405,0.000000,-536.266849
4228.180281,-9474.636058,0.000000,-995.924147
4228.180611,-8068.244768,444.123565,0.000000
4228.180941,-9252.574275,0.000000,-153.219100
4228.181271,-9844.739029,0.000000,-536.266849
4228.181601,-9178.553681,-296.082377,0.000000
4228.181931,-9326.594869,0.000000,76.609550
4228.182260,-9992.780217,222.061783,1302.362347
4228.182590,-11029.068536,296.082377,2145.067394
4228.182920,-10510.924376,148.041188,1072.533697
4228.183250,-9844.739029,296.082377,-1149.143247
4228.183580,-9548.656652,0.000000,-1532.190996
4228.183909,-9844.739029,-592.164754,-995.924147
4228.184239,-8290.306550,-888.247130,306.438199
4228.184569,-7994.224174,296.082377,0.000000
4228.184899,-9030.512492,-222.061783,0.000000
4228.185229,-10140.821405,-296.082377,-76.609550
4228.185559,-11103.089130,222.061783,0.000000
4228.185888,-11843.295072,-222.061783,766.095498
4228.186218,-11029.068536,0.000000,1762.019645
4228.186548,-9696.697840,-814.226536,1838.629195
4228.186878,-9178.553681,-296.082377,689.485948
4228.187208,-9474.636058,0.000000,536.266849
4228.187537,-10140.821405,444.123565,-229.828649
4228.187867,-10658.965565,-222.061783,-1302.362347
4228.188197,-10288.862594,-74.020594,-383.047749
4228.188527,-9326.594869,-444.123565,842.705048
4228.188857,-9548.656652,-1036.288319,1991.848295
4228.189187,-9622.677246,-1184.329507,1991.848295
4228.189516,-8734.430116,-1702.473667,536.266849
4228.189846,-9770.718434,-1036.288319,0.000000
4228.190176,-10510.924376,-962.267725,1072.533697
4228.190506,-10436.903782,-888.247130,1915.238745
4228.190836,-9844.739029,-888.247130,2298.286494
4228.191165,-10066.800811,-74.020594,1378.971896
4228.191495,-9992.780217,-740.205942,612.876398
4228.191825,-9252.574275,-370.102971,-612.876398
4228.192155,-9252.574275,-1184.329507,-76.609550
4228.192485,-9104.533087,-1332.370696,766.095498
4228.192815,-9030.512492,-592.164754,1149.143247
4228.193144,-9548.656652,-592.164754,459.657299
4228.193474,-9548.656652,-444.123565,-1225.752797
4228.193804,-9548.656652,74.020594,-2145.067394
4228.194134,-9400.615463,0.000000,-1302.362347
4228.194464,-10066.800811,0.000000,-536.266849
4228.194793,-9474.636058,222.061783,919.314598
4228.195123,-10066.800811,148.041188,1378.971896
4228.195453,-10362.883188,222.061783,-842.705048
4228.195783,-9918.759623,-518.144159,-2145.067394
4228.196113,-9918.759623,0.000000,-1838.629195
4228.196443,-9030.512492,0.000000,-306.438199
4228.196772,-9178.553681,0.000000,689.485948
4228.197102,-9252.574275,148.041188,995.924147
4228.197432,-9104.533087,518.144159,76.609550
4228.197762,-10288.862594,0.000000,-995.924147
4228.198092,-10214.842000,962.267725,-766.095498
4228.198421,-10288.862594,814.226536,536.266849
4228.198751,-9992.780217,1036.288319,1149.143247
4228.199081,-9474.636058,1036.288319,995.924147
4228.199411,-10436.903782,592.164754,229.828649
4228.199741,-10658.965565,1332.370696,306.438199
4228.200071,-9992.780217,1110.308913,-536.266849
4228.200400,-10584.944971,1554.432478,-153.219100
4228.200730,-10140.821405,1406.391290,229.828649
4228.201060,-9622.677246,1110.308913,383.047749
4228.201390,-9030.512492,1184.329507,153.219100
4228.201720,-9474.636058,888.247130,-536.266849
4228.202049,-10510.924376,1036.288319,0.000000
4228.202379,-9474.636058,740.205942,-689.485948
4228.202709,-9326.594869,1110.308913,0.000000
4228.203039,-9252.574275,1110.308913,1915.238745
4228.203369,-10732.986159,962.267725,1072.533697
4228.203699,-9696.697840,296.082377,0.000000
4228.204028,-8882.471304,814.226536,-76.609550
4228.204358,-8882.471304,666.185348,0.000000
4228.204688,-10140.821405,444.123565,1072.533697
4228.205018,-10140.821405,1110.308913,766.095498
4228.205348,-9548.656652,296.082377,76.609550
4228.205677,-9178.553681,74.020594,-1225.752797
4228.206007,-9474.636058,666.185348,-536.266849
4228.206337,-9252.574275,888.247130,76.609550
4228.206667,-9400.615463,888.247130,229.828649
4228.206997,-10214.842000,962.267725,-459.657299
4228.207326,-10732.986159,592.164754,0.000000
4228.207656,-11399.171507,740.205942,-383.047749
4228.207986,-9918.759623,518.144159,-1072.533697
4228.208316,-9770.718434,518.144159,-995.924147
4228.208646,-10214.842000,592.164754,-459.657299
4228.208976,-9400.615463,0.000000,-153.219100
4228.209305,-9326.594869,0.000000,0.000000
4228.209635,-9770.718434,74.020594,306.438199
4228.209965,-10732.986159,0.000000,229.828649
4228.210295,-9770.718434,-370.102971,536.266849
4228.210625,-9770.718434,-592.164754,689.485948
4228.210954,-9548.656652,-1036.288319,1302.362347
4228.211284,-10140.821405,-1036.288319,2221.676944
4228.211614,-9696.697840,-1554.432478,2145.067394
4228.211944,-8956.491898,-814.226536,1762.019645
4228.212274,-9918.759623,-814.226536,1608.800546
4228.212604,-10658.965565,-1110.308913,1838.629195
4228.212933,-10510.924376,-296.082377,2145.067394
4228.213263,-10214.842000,-666.185348,1302.362347
4228.213593,-10066.800811,-1258.350101,229.828649
4228.213923,-9622.677246,-814.226536,76.609550
4228.214253,-8734.430116,-1332.370696,76.609550
4228.214582,-8882.471304,-740.205942,229.828649
4228.214912,-9326.594869,-1480.411884,1072.533697
4228.215242,-10362.883188,-1332.370696,1762.019645
4228.215572,-9326.594869,-370.102971,919.314598
4228.215902,-8290.306550,-888.247130,-1378.971896
4228.216232,-9474.636058,-814.226536,-1302.362347
4228.216561,-9844.739029,-1628.453072,306.438199
4228.216891,-10066.800811,-962.267725,995.924147
4228.217221,-9030.512492,-518.144159,1302.362347
4228.217551,-8956.491898,-1406.391290,536.266849
4228.217881,-9252.574275,-740.205942,383.047749
4228.218210,-10066.800811,-148.041188,306.438199
4228.218540,-10214.842000,-444.123565,-306.438199
4228.218870,-10066.800811,-296.082377,0.000000
4228.219200,-10584.944971,370.102971,1378.971896
4228.219530,-10510.924376,74.020594,766.095498
4228.219860,-10362.883188,296.082377,-1915.238745
4228.220189,-9844.739029,222.061783,-1762.019645
4228.220519,-10140.821405,0.000000,0.000000
4228.220849,-10584.944971,370.102971,1838.629195
4228.221179,-9918.759623,148.041188,1991.848295
4228.221509,-9696.697840,148.041188,0.000000
4228.221838,-9474.636058,0.000000,-536.266849
4228.222168,-9992.780217,0.000000,-612.876398
4228.222498,-10288.862594,222.061783,-306.438199
4228.222828,-10066.800811,592.164754,612.876398
4228.223158,-9992.780217,666.185348,1072.533697
4228.223488,-8882.471304,592.164754,229.828649
4228.223817,-9474.636058,666.185348,-842.705048
4228.224147,-10140.821405,1110.308913,-1225.752797
4228.224477,-10214.842000,1036.288319,-612.876398
4228.224807,-9178.553681,296.082377,229.828649
4228.225137,-8364.327145,592.164754,229.828649
4228.225466,-9252.574275,740.205942,229.828649
4228.225796,-9844.739029,666.185348,-459.657299
4228.226126,-9474.636058,814.226536,-1455.581446
4228.226456,-8882.471304,888.247130,-1072.533697
4228.226786,-8660.409521,1184.329507,-153.219100
4228.227116,-8882.471304,666.185348,1302.362347
4228.227445,-9696.697840,740.205942,1608.800546
4228.227775,-9770.718434,1036.288319,536.266849
4228.228105,-10807.006753,962.267725,-689.485948
4228.228435,-10510.924376,1036.288319,-1455.581446
4228.228765,-9326.594869,666.185348,-766.095498
4228.229094,-8734.430116,1702.473667,76.609550
4228.229424,-8808.450710,1998.556043,0.000000
4228.229754,-10214.842000,1998.556043,-1608.800546
4228.230084,-10584.944971,2220.617826,-1915.238745
4228.230414,-10881.027347,1702.473667,-1685.410096
4228.230744,-10510.924376,1036.288319,-1225.752797
4228.231073,-9548.656652,444.123565,-536.266849
4228.231403,-9400.615463,888.247130,153.219100
4228.231733,-9104.533087,814.226536,-459.657299
4228.232063,-10584.944971,1554.432478,-306.438199
4228.232393,-11029.068536,592.164754,229.828649
4228.232722,-11251.130318,962.267725,1378.971896
4228.233052,-11177.109724,518.144159,1685.410096
4228.233382,-10140.821405,444.123565,1838.629195
4228.233712,-9770.718434,-370.102971,0.000000
4228.234042,-8734.430116,-222.061783,-919.314598
4228.234372,-8808.450710,-370.102971,-612.876398
4228.234701,-10436.903782,0.000000,919.314598
4228.235031,-10510.924376,296.082377,1608.800546
4228.235361,-9992.780217,-518.144159,1455.581446
4228.235691,-8808.450710,-814.226536,1378.971896
4228.236021,-9696.697840,-962.267725,1378.971896
4228.236350,-10881.027347,-1110.308913,1532.190996
4228.236680,-10214.842000,-1702.473667,1838.629195
4228.237010,-9400.615463,-1258.350101,1072.533697
4228.237340,-8586.388927,-1258.350101,229.828649
4228.237669,-9326.594869,-518.144159,-383.047749
4228.237999,-9326.594869,-740.205942,-383.047749
4228.238329,-9326.594869,-148.041188,-383.047749
4228.238658,-9844.739029,-74.020594,-536.266849
4228.238988,-10658.965565,-592.164754,-766.095498
4228.239318,-9326.594869,-1480.411884,0.000000
4228.239648,-9474.636058,-1776.494261,1762.019645
4228.239977,-10140.821405,-1776.494261,1915.238745
4228.240307,-8734.430116,-2294.638420,1455.581446
4228.240637,-9178.553681,-2294.638420,383.047749
4228.240966,-8438.347739,-1776.494261,459.657299
4228.241296,-10288.862594,-1480.411884,2145.067394
4228.241626,-10881.027347,-518.144159,2604.724693
4228.241956,-10510.924376,-148.041188,1225.752797
4228.242285,-10881.027347,74.020594,0.000000
4228.242615,-9770.718434,-814.226536,-995.924147
4228.242945,-9770.718434,-592.164754,-1302.362347
4228.243274,-10214.842000,-814.226536,-229.828649
4228.243604,-9992.780217,-1332.370696,1072.533697
4228.243934,-9992.780217,-1554.432478,1378.971896
4228.244263,-9474.636058,0.000000,995.924147
4228.244593,-9992.780217,-1110.308913,306.438199
4228.244923,-10288.862594,-222.061783,383.047749
4228.245253,-10658.965565,-296.082377,766.095498
4228.245582,-10955.047942,296.082377,1685.410096
4228.245912,-10436.903782,296.082377,1838.629195
4228.246242,-9844.739029,-444.123565,383.047749
4228.246571,-9178.553681,0.000000,-612.876398
4228.246901,-9622.677246,296.082377,-612.876398
4228.247231,-10288.862594,370.102971,-995.924147
4228.247561,-9844.739029,0.000000,-1378.971896
4228.247890,-9326.594869,296.082377,-459.657299
4228.248220,-9252.574275,-370.102971,306.438199
4228.248550,-9252.574275,444.123565,76.609550
4228.248879,-9326.594869,-740.205942,76.609550
4228.249209,-9400.615463,0.000000,689.485948
4228.249539,-9326.594869,1184.329507,1608.800546
4228.249869,-10807.006753,1554.432478,919.314598
4228.250198,-11029.068536,814.226536,-76.609550
4228.250528,-9844.739029,1258.350101,-459.657299
4228.250858,-9844.739029,1332.370696,-1072.533697
4228.251187,-9474.636058,1258.350101,-1302.362347
4228.251517,-9474.636058,370.102971,-1455.581446
4228.251847,-8364.327145,1184.329507,-919.314598
4228.252177,-8734.430116,1258.350101,-1302.362347
4228.252506,-9844.739029,1036.288319,-1378.971896
4228.252836,-9030.512492,592.164754,-995.924147
4228.253166,-9474.636058,1332.370696,153.219100
4228.253495,-9918.759623,962.267725,1302.362347
4228.253825,-10732.986159,1036.288319,1685.410096
4228.254155,-10807.006753,1110.308913,1685.410096
4228.254485,-10140.821405,1628.453072,306.438199
4228.254814,-10510.924376,1702.473667,-689.485948
4228.255144,-9918.759623,1110.308913,-612.876398
4228.255474,-9104.533087,518.144159,536.266849
4228.255803,-8956.491898,962.267725,689.485948
4228.256133,-9696.697840,1332.370696,383.047749
4228.256463,-9400.615463,888.247130,-842.705048
4228.256793,-9104.533087,0.000000,-1072.533697
4228.257122,-9252.574275,1036.288319,306.438199
4228.257452,-10510.924376,518.144159,306.438199
4228.257782,-10288.862594,592.164754,0.000000
4228.258111,-9104.533087,444.123565,0.000000
4228.258441,-8808.450710,148.041188,842.705048
4228.258771,-10140.821405,148.041188,1838.629195
4228.259100,-11325.150913,148.041188,1072.533697
4228.259430,-10140.821405,0.000000,689.485948
4228.259760,-8956.491898,-444.123565,229.828649
4228.260090,-9548.656652,-370.102971,-536.266849
4228.260419,-9696.697840,-740.205942,-383.047749
4228.260749,-9326.594869,-296.082377,-76.609550
4228.261079,-7994.224174,-74.020594,0.000000
4228.261408,-9252.574275,74.020594,-459.657299
4228.261738,-10807.006753,148.041188,-689.485948
4228.262068,-10732.986159,148.041188,-459.657299
4228.262398,-10436.903782,0.000000,0.000000
4228.262727,-10140.821405,-814.226536,229.828649
4228.263057,-9770.718434,-962.267725,842.705048
4228.263387,-9104.533087,-888.247130,1378.971896
4228.263716,-9326.594869,-666.185348,0.000000
4228.264046,-9104.533087,-1924.535449,0.000000
4228.264376,-10214.842000,-1480.411884,229.828649
4228.264706,-9548.656652,-1184.329507,2145.067394
4228.265035,-10362.883188,-592.164754,2451.505594
4228.265365,-9918.759623,-1628.453072,1225.752797
4228.265695,-9474.636058,-962.267725,383.047749
4228.266024,-10140.821405,-740.205942,76.609550
4228.266354,-10140.821405,-962.267725,-689.485948
4228.266684,-9992.780217,-222.061783,0.000000
4228.267014,-9548.656652,-666.185348,1685.410096
4228.267343,-9104.533087,-592.164754,995.924147
4228.267673,-10288.862594,-740.205942,0.000000
4228.268003,-10658.965565,-962.267725,0.000000
4228.268332,-9770.718434,-1332.370696,229.828649
4228.268662,-9178.553681,-814.226536,383.047749
4228.268992,-9326.594869,-740.205942,1532.190996
4228.269322,-10658.965565,-518.144159,1608.800546
4228.269651,-10214.842000,-518.144159,2145.067394
4228.269981,-10140.821405,0.000000,919.314598
4228.270311,-10955.047942,0.000000,-306.438199
4228.270640,-10732.986159,-296.082377,0.000000
4228.270970,-9548.656652,-296.082377,842.705048
4228.271300,-8734.430116,-370.102971,612.876398
4228.271630,-8142.265362,-296.082377,153.219100
4228.271959,-8956.491898,-962.267725,-306.438199
4228.272289,-9400.615463,-370.102971,0.000000
4228.272619,-9400.615463,-962.267725,0.000000
4228.272948,-9400.615463,-296.082377,229.828649
4228.273278,-8660.409521,-444.123565,459.657299
4228.273608,-8808.450710,592.164754,612.876398
4228.273938,-9918.759623,592.164754,536.266849
4228.274267,-11103.089130,1332.370696,-919.314598
4228.274597,-10214.842000,444.123565,-306.438199
4228.274927,-9252.574275,592.164754,0.000000
4228.275256,-9770.718434,888.247130,229.828649
4228.275586,-9918.759623,148.041188,0.000000
4228.275916,-9548.656652,888.247130,-383.047749
4228.276245,-9548.656652,888.247130,-1072.533697
4228.276575,-9770.718434,1110.308913,-1762.019645
4228.276905,-9622.677246,1480.411884,-1685.410096
4228.277235,-10140.821405,1924.535449,383.047749
4228.277564,-10955.047942,1406.391290,919.314598
4228.277894,-10658.965565,1406.391290,-383.047749
4228.278224,-10510.924376,518.144159,-1225.752797
4228.278553,-9400.615463,1184.329507,-1225.752797
4228.278883,-9622.677246,962.267725,76.609550
4228.279213,-9918.759623,740.205942,766.095498
4228.279543,-10510.924376,296.082377,536.266849
4228.279872,-9178.553681,370.102971,995.924147
4228.280202,-9326.594869,222.061783,383.047749
4228.280532,-10881.027347,962.267725,-76.609550
4228.280861,-10140.821405,0.000000,-229.828649
4228.281191,-8660.409521,592.164754,-76.609550
4228.281521,-9474.636058,814.226536,995.924147
4228.281851,-10140.821405,296.082377,1149.143247
4228.282180,-10140.821405,814.226536,766.095498
4228.282510,-9696.697840,296.082377,-1685.410096
4228.282840,-9474.636058,666.185348,-1991.848295
4228.283169,-10214.842000,296.082377,-612.876398
4228.283499,-11029.068536,0.000000,1455.581446
4228.283829,-8734.430116,0.000000,1915.238745
4228.284159,-8216.285956,0.000000,1149.143247
4228.284488,-8882.471304,0.000000,0.000000
4228.284818,-10140.821405,148.041188,-612.876398
4228.285148,-10140.821405,-370.102971,-689.485948
4228.285477,-10140.821405,148.041188,459.657299
4228.285807,-11103.089130,0.000000,1455.581446
4228.286137,-9326.594869,-370.102971,1915.238745
4228.286467,-9474.636058,-518.144159,919.314598
4228.286796,-9770.718434,296.082377,229.828649
4228.287126,-10881.027347,0.000000,-995.924147
4228.287456,-10140.821405,0.000000,-1378.971896
4228.287785,-8364.327145,-1036.288319,-1072.533697
4228.288115,-8586.388927,-814.226536,536.266849
4228.288445,-8956.491898,-444.123565,1685.410096
4228.288775,-9548.656652,-814.226536,229.828649
4228.289104,-9474.636058,-666.185348,-536.266849
4228.289434,-9326.594869,-296.082377,-383.047749
4228.289764,-10881.027347,-296.082377,1149.143247
4228.290093,-11177.109724,0.000000,2604.724693
4228.290423,-10288.862594,0.000000,2834.553343
4228.290753,-9696.697840,-518.144159,1302.362347
4228.291082,-9400.615463,0.000000,-1378.971896
4228.291412,-10066.800811,-148.041188,-2068.457845
4228.291742,-9844.739029,-740.205942,-1455.581446
4228.292072,-9622.677246,-888.247130,76.609550
4228.292401,-8956.491898,-888.247130,2374.896044
4228.292731,-9400.615463,-296.082377,1532.190996
4228.293061,-10214.842000,-888.247130,76.609550
4228.293390,-11029.068536,-444.123565,-306.438199
4228.293720,-10288.862594,-592.164754,229.828649
4228.294050,-9992.780217,-370.102971,1532.190996
4228.294380,-9326.594869,-740.205942,2987.772442
4228.294709,-9696.697840,222.061783,2834.553343
4228.295039,-10732.986159,74.020594,1072.533697
4228.295369,-10436.903782,74.020594,-1685.410096
4228.295698,-9178.553681,-888.247130,-2911.162892
4228.296028,-8882.471304,-740.205942,-1149.143247
4228.296358,-8882.471304,-962.267725,1225.752797
4228.296688,-8512.368333,-444.123565,1915.238745
4228.297017,-7920.203579,-888.247130,383.047749
4228.297347,-9696.697840,-148.041188,-229.828649
4228.297677,-11029.068536,74.020594,-383.047749
4228.298006,-10807.006753,0.000000,-612.876398
4228.298336,-9844.739029,370.102971,766.095498
4228.298666,-8660.409521,222.061783,1915.238745
4228.298996,-9474.636058,740.205942,1838.629195
4228.299325,-10362.883188,1184.329507,689.485948
4228.299655,-10214.842000,962.267725,-1302.362347
4228.299985,-9696.697840,1036.288319,-1838.629195
4228.300314,-9252.574275,592.164754,-995.924147
4228.300644,-9622.677246,1036.288319,842.705048
4228.300974,-10362.883188,1184.329507,1762.019645
4228.301304,-10510.924376,740.205942,0.000000
4228.301633,-9770.718434,666.185348,-1149.143247
4228.301963,-9918.759623,1184.329507,-1455.581446
4228.302293,-9696.697840,1406.391290,-1762.019645
4228.302622,-10436.903782,1406.391290,612.876398
4228.302952,-10436.903782,1554.432478,1608.800546
4228.303282,-10214.842000,1184.329507,612.876398
4228.303612,-10066.800811,1480.411884,229.828649
4228.303941,-8956.491898,-296.082377,-1149.143247
4228.304271,-9548.656652,0.000000,-153.219100
4228.304601,-9474.636058,222.061783,1149.143247
4228.304930,-9622.677246,0.000000,1608.800546
4228.305260,-9770.718434,-74.020594,2068.457845
4228.305590,-9696.697840,888.247130,1608.800546
4228.305919,-9844.739029,0.000000,536.266849
4228.306249,-10214.842000,444.123565,-1225.752797
4228.306579,-10732.986159,370.102971,306.438199
4228.306909,-10881.027347,0.000000,1302.362347
4228.307238,-10214.842000,592.164754,766.095498
4228.307568,-9030.512492,74.020594,-766.095498
4228.307898,-9178.553681,370.102971,-1302.362347
4228.308227,-9030.512492,-444.123565,-2068.457845
4228.308557,-9252.574275,-888.247130,-1149.143247
4228.308887,-9770.718434,-666.185348,0.000000
4228.309217,-9326.594869,-888.247130,766.095498
4228.309546,-9104.533087,-1036.288319,612.876398
4228.309876,-9104.533087,-592.164754,689.485948
4228.310206,-9844.739029,148.041188,-919.314598
4228.310535,-9770.718434,74.020594,-2451.505594
4228.310865,-9548.656652,0.000000,-1762.019645
4228.311195,-10140.821405,-222.061783,536.266849
4228.311525,-10732.986159,-370.102971,1762.019645
4228.311854,-10362.883188,-296.082377,1149.143247
4228.312184,-9252.574275,-1406.391290,-842.705048
4228.312514,-8438.347739,-1184.329507,-2451.505594
4228.312843,-9178.553681,-740.205942,-1378.971896
4228.313173,-10510.924376,-1184.329507,383.047749
4228.313503,-9622.677246,-222.061783,1915.238745
4228.313833,-8882.471304,-1110.308913,1685.410096
4228.314162,-9918.759623,-74.020594,1685.410096
4228.314492,-11547.212695,-74.020594,459.657299
4228.314822,-11917.315666,-814.226536,76.609550
4228.315151,-10066.800811,-518.144159,229.828649
4228.315481,-8660.409521,-666.185348,995.924147
4228.315811,-8882.471304,-1036.288319,1225.752797
4228.316141,-9622.677246,-666.185348,1838.629195
4228.316470,-10066.800811,-592.164754,2068.457845
4228.316800,-10362.883188,-296.082377,995.924147
4228.317130,-10732.986159,-444.123565,76.609550
4228.317459,-10732.986159,-1258.350101,919.314598
4228.317789,-9252.574275,-148.041188,1685.410096
4228.318119,-8660.409521,74.020594,1685.410096
4228.318449,-9474.636058,518.144159,76.609550
4228.318778,-10807.006753,814.226536,-306.438199
4228.319108,-11399.171507,666.185348,76.609550
4228.319438,-9770.718434,740.205942,459.657299
4228.319767,-9548.656652,1258.350101,229.828649
4228.320097,-9622.677246,74.020594,0.000000
4228.320427,-8586.388927,0.000000,306.438199
4228.320757,-8660.409521,-74.020594,459.657299
4228.321086,-8956.491898,592.164754,995.924147
4228.321416,-9844.739029,370.102971,842.705048
4228.321746,-9844.739029,814.226536,919.314598
4228.322075,-9844.739029,1110.308913,1072.533697
4228.322405,-10881.027347,1850.514855,-153.219100
4228.322735,-10658.965565,1332.370696,-1991.848295
4228.323064,-9548.656652,888.247130,-2528.115143
4228.323394,-8290.306550,888.247130,-2068.457845
4228.323724,-8734.430116,518.144159,-76.609550
4228.324054,-10066.800811,1110.308913,995.924147
4228.324383,-9252.574275,1036.288319,-459.657299
4228.324713,-8882.471304,518.144159,-1225.752797
4228.325043,-10362.883188,888.247130,-1225.752797
4228.325372,-10955.047942,518.144159,0.000000
4228.325702,-9770.718434,-296.082377,919.314598
4228.326032,-8290.306550,444.123565,1608.800546
4228.326362,-8956.491898,296.082377,1838.629195
4228.326691,-11325.150913,1258.350101,536.266849
4228.327021,-10362.883188,814.226536,-459.657299
4228.327351,-10214.842000,814.226536,-536.266849
4228.327680,-10807.006753,1924.535449,689.485948
4228.328010,-10881.027347,962.267725,-153.219100
4228.328340,-9326.594869,-222.061783,-1072.533697
4228.328670,-7476.080014,296.082377,-1455.581446
4228.328999,-9696.697840,370.102971,-689.485948
4228.329329,-10510.924376,-296.082377,-612.876398
4228.329659,-9178.553681,-370.102971,-306.438199
4228.329988,-8142.265362,-370.102971,1685.410096
4228.330318,-10584.944971,370.102971,2451.505594
4228.330648,-11769.274478,0.000000,1991.848295
4228.330978,-10732.986159,-962.267725,842.705048
4228.331307,-9252.574275,444.123565,459.657299
4228.331637,-9548.656652,0.000000,153.219100
4228.331967,-10510.924376,0.000000,-459.657299
4228.332296,-9770.718434,444.123565,-995.924147
4228.332626,-8660.409521,0.000000,-1455.581446
4228.332956,-8660.409521,0.000000,-1532.190996
4228.333286,-9844.739029,-370.102971,-1455.581446
4228.333615,-10140.821405,-74.020594,-76.609550
4228.333945,-8512.368333,-740.205942,-229.828649
4228.334275,-8734.430116,-592.164754,0.000000
4228.334604,-10584.944971,-666.185348,0.000000
4228.334934,-11103.089130,-74.020594,383.047749
4228.335264,-9696.697840,-740.205942,842.705048
4228.335594,-9030.512492,148.041188,995.924147
4228.335923,-10658.965565,148.041188,1762.019645
4228.336253,-10658.965565,592.164754,536.266849
4228.336583,-9770.718434,-592.164754,-306.438199
4228.336913,-10288.862594,0.000000,-842.705048
4228.337243,-9400.615463,-370.102971,766.095498
4228.337572,-9474.636058,-74.020594,995.924147
4228.337902,-9326.594869,370.102971,459.657299
4228.338232,-9030.512492,-740.205942,-459.657299
4228.338562,-9992.780217,518.144159,-995.924147
4228.338891,-10955.047942,222.061783,-689.485948
4228.339221,-11547.212695,1110.308913,-229.828649
4228.339551,-9770.718434,0.000000,2145.067394
4228.339881,-9844.739029,148.041188,2757.943793
4228.340211,-9548.656652,-296.082377,2221.676944
4228.340540,-9770.718434,0.000000,842.705048
4228.340870,-10584.944971,-666.185348,1225.752797
4228.341200,-9770.718434,-962.267725,536.266849
4228.341530,-8956.491898,-592.164754,1149.143247
4228.341860,-8660.409521,-592.164754,1149.143247
4228.342189,-9400.615463,-370.102971,459.657299
4228.342519,-9326.594869,-222.061783,306.438199
4228.342849,-8882.471304,666.185348,-612.876398
4228.343179,-9770.718434,-666.185348,-459.657299
4228.343509,-10658.965565,0.000000,842.705048
4228.343838,-9474.636058,444.123565,1685.410096
4228.344168,-10214.842000,74.020594,536.266849
4228.344498,-8512.368333,-222.061783,-1378.971896
4228.344828,-8364.327145,-1184.329507,229.828649
4228.345157,-10214.842000,-296.082377,919.314598
4228.345487,-9770.718434,-518.144159,1072.533697
4228.345817,-9030.512492,-518.144159,-459.657299
4228.346147,-8364.327145,-444.123565,-919.314598
4228.346477,-9474.636058,1036.288319,-1225.752797
4228.346806,-10066.800811,-148.041188,-306.438199
4228.347136,-10288.862594,1258.350101,-536.266849
4228.347466,-9548.656652,370.102971,536.266849
4228.347796,-10658.965565,740.205942,919.314598
4228.348126,-10955.047942,740.205942,-459.657299
4228.348455,-10955.047942,-518.144159,-1762.019645
4228.348785,-9696.697840,74.020594,-1915.238745
4228.349115,-8068.244768,-592.164754,-612.876398
4228.349445,-9104.533087,0.000000,1072.533697
4228.349775,-9252.574275,-296.082377,1378.971896
4228.350104,-10436.903782,444.123565,1532.190996
4228.350434,-10658.965565,148.041188,842.705048
4228.350764,-11399.171507,740.205942,229.828649
4228.351094,-11251.130318,370.102971,0.000000
4228.351423,-9770.718434,-370.102971,153.219100
4228.351753,-9326.594869,666.185348,306.438199
4228.352083,-8882.471304,222.061783,689.485948
4228.352413,-9622.677246,740.205942,-306.438199
4228.352743,-10436.903782,666.185348,-842.705048
4228.353072,-10955.047942,1110.308913,0.000000
4228.353402,-10881.027347,518.144159,919.314598
4228.353732,-9770.718434,-370.102971,1225.752797
4228.354062,-8586.388927,-370.102971,1455.581446
4228.354392,-9622.677246,-962.267725,919.314598
4228.354721,-9548.656652,-222.061783,1225.752797
4228.355051,-10140.821405,-1110.308913,0.000000
4228.355381,-10066.800811,0.000000,-306.438199
4228.355711,-9252.574275,0.000000,612.876398
4228.356040,-9770.718434,148.041188,1762.019645
4228.356370,-8882.471304,0.000000,76.609550
4228.356700,-8882.471304,-666.185348,-383.047749
4228.357030,-9326.594869,0.000000,-536.266849
4228.357360,-9696.697840,-444.123565,-536.266849
4228.357689,-9622.677246,-962.267725,153.219100
4228.358019,-8808.450710,-370.102971,229.828649
4228.358349,-8956.491898,-592.164754,-229.828649
4228.358679,-9178.553681,-222.061783,-766.095498
4228.359009,-9178.553681,-296.082377,-383.047749
4228.359338,-9474.636058,148.041188,766.095498
4228.359668,-10510.924376,444.123565,1532.190996
4228.359998,-10510.924376,592.164754,1072.533697
4228.360328,-9918.759623,814.226536,-76.609550
4228.360658,-9844.739029,814.226536,-1225.752797
4228.360987,-9992.780217,222.061783,-1991.848295
4228.361317,-10288.862594,296.082377,-1225.752797
4228.361647,-9918.759623,592.164754,-383.047749
4228.361977,-9326.594869,370.102971,0.000000
4228.362306,-10214.842000,592.164754,76.609550
4228.362636,-10658.965565,666.185348,-76.609550
4228.362966,-10436.903782,74.020594,-229.828649
4228.363296,-9548.656652,814.226536,766.095498
4228.363626,-10288.862594,888.247130,1072.533697
4228.363955,-11547.212695,740.205942,2451.505594
4228.364285,-10658.965565,740.205942,1532.190996
4228.364615,-11399.171507,0.000000,306.438199
4228.364945,-10584.944971,222.061783,0.000000
4228.365275,-9622.677246,0.000000,1072.533697
4228.365604,-9400.615463,74.020594,1149.143247
4228.365934,-9178.553681,370.102971,1915.238745
4228.366264,-10140.821405,222.061783,842.705048
4228.366594,-9548.656652,666.185348,689.485948
4228.366924,-9696.697840,-814.226536,-919.314598
4228.367253,-9178.553681,0.000000,-689.485948
4228.367583,-9918.759623,-370.102971,1225.752797
4228.367913,-9178.553681,-296.082377,2145.067394
4228.368243,-8586.388927,-1332.370696,1608.800546
4228.368572,-9104.533087,0.000000,306.438199
4228.368902,-9992.780217,148.041188,229.828649
4228.369232,-9474.636058,222.061783,-766.095498
4228.369562,-9030.512492,-222.061783,383.047749
4228.369892,-9400.615463,222.061783,919.314598
4228.370221,-9548.656652,-222.061783,1149.143247
4228.370551,-9474.636058,74.020594,-536.266849
4228.370881,-9770.718434,-296.082377,-1072.533697
4228.371211,-9252.574275,-370.102971,-1455.581446
4228.371541,-9548.656652,-222.061783,-612.876398
4228.371870,-9548.656652,0.000000,229.828649
4228.372200,-9178.553681,74.020594,0.000000
4228.372530,-9326.594869,222.061783,0.000000
4228.372860,-10140.821405,148.041188,-842.705048
4228.373190,-10584.944971,296.082377,-995.924147
4228.373519,-10362.883188,740.205942,-306.438199
4228.373849,-10658.965565,74.020594,383.047749
4228.374179,-10362.883188,0.000000,612.876398
4228.374509,-9030.512492,-592.164754,612.876398
4228.374838,-9844.739029,-518.144159,919.314598
4228.375168,-9696.697840,222.061783,459.657299
4228.375498,-11177.109724,-296.082377,459.657299
4228.375828,-10510.924376,296.082377,383.047749
4228.376158,-10658.965565,148.041188,306.438199
4228.376487,-10807.006753,592.164754,536.266849
4228.376817,-9844.739029,-592.164754,919.314598
4228.377147,-10140.821405,222.061783,-459.657299
4228.377477,-9622.677246,0.000000,-1532.190996
4228.377807,-9770.718434,0.000000,-1225.752797
4228.378136,-8956.491898,-296.082377,76.609550
4228.378466,-8882.471304,0.000000,766.095498
4228.378796,-9918.759623,370.102971,995.924147
4228.379126,-10658.965565,-222.061783,1072.533697
4228.379456,-9548.656652,-592.164754,995.924147
4228.379785,-9474.636058,-666.185348,919.314598
4228.380115,-9326.594869,-518.144159,995.924147
4228.380445,-10214.842000,-1258.350101,2528.115143
4228.380775,-8882.471304,0.000000,1838.629195
4228.381104,-8734.430116,-592.164754,383.047749
4228.381434,-9178.553681,0.000000,-919.314598
4228.381764,-9326.594869,0.000000,-1455.581446
4228.382094,-9326.594869,74.020594,-689.485948
4228.382424,-8512.368333,0.000000,306.438199
4228.382753,-9696.697840,0.000000,383.047749
4228.383083,-10140.821405,518.144159,-1149.143247
4228.383413,-9548.656652,-74.020594,-2681.334243
4228.383743,-8956.491898,0.000000,-2298.286494
4228.384073,-8808.450710,-296.082377,-536.266849
4228.384402,-10066.800811,888.247130,1302.362347
4228.384732,-9474.636058,-370.102971,2068.457845
4228.385062,-9770.718434,370.102971,153.219100
4228.385392,-9918.759623,74.020594,-1149.143247
4228.385721,-11103.089130,0.000000,-1532.190996
4228.386051,-9918.759623,592.164754,0.000000
4228.386381,-9918.759623,222.061783,1072.533697
4228.386711,-10288.862594,296.082377,1072.533697
4228.387041,-10214.842000,74.020594,306.438199
4228.387370,-9918.759623,740.205942,-1225.752797
4228.387700,-9696.697840,888.247130,-1762.019645
4228.388030,-10807.006753,1110.308913,-842.705048
4228.388360,-11103.089130,148.041188,1225.752797
4228.388690,-9770.718434,370.102971,1302.362347
4228.389019,-9400.615463,-666.185348,1838.629195
4228.389349,-9918.759623,222.061783,1762.019645
4228.389679,-10288.862594,0.000000,612.876398
4228.390009,-9992.780217,444.123565,0.000000
4228.390339,-9400.615463,962.267725,0.000000
4228.390668,-10807.006753,740.205942,1302.362347
4228.390998,-11177.109724,1258.350101,1455.581446
4228.391328,-9104.533087,666.185348,-153.219100
4228.391658,-9030.512492,444.123565,-1378.971896
4228.391987,-8734.430116,370.102971,-1225.752797
4228.392317,-10881.027347,296.082377,-153.219100
4228.392647,-9548.656652,-518.144159,153.219100
4228.392977,-7402.059420,0.000000,612.876398
4228.393307,-8216.285956,296.082377,612.876398
4228.393636,-9030.512492,0.000000,0.000000
4228.393966,-11029.068536,74.020594,0.000000
4228.394296,-9918.759623,296.082377,0.000000
4228.394626,-9622.677246,74.020594,153.219100
4228.394956,-9696.697840,444.123565,766.095498
4228.395285,-9030.512492,0.000000,1072.533697
4228.395615,-9474.636058,444.123565,536.266849
4228.395945,-9400.615463,296.082377,-306.438199
4228.396275,-9696.697840,-74.020594,-612.876398
4228.396605,-10362.883188,-370.102971,-383.047749
4228.396934,-9104.533087,148.041188,0.000000
4228.397264,-9252.574275,74.020594,153.219100
4228.397594,-9844.739029,0.000000,0.000000
4228.397924,-10288.862594,592.164754,766.095498
4228.398253,-10288.862594,0.000000,459.657299
4228.398583,-10362.883188,1258.350101,383.047749
4228.398913,-11325.150913,148.041188,459.657299
4228.399243,-10807.006753,148.041188,229.828649
4228.399573,-9178.553681,-592.164754,612.876398
4228.399902,-10214.842000,-222.061783,1149.143247
4228.400232,-10955.047942,-444.123565,1762.019645
4228.400562,-10807.006753,-370.102971,842.705048
4228.400892,-9252.574275,-888.247130,-459.657299
4228.401222,-8660.409521,-592.164754,306.438199
4228.401551,-10140.821405,222.061783,1072.533697
4228.401881,-10362.883188,0.000000,1455.581446
4228.402211,-9770.718434,0.000000,1072.533697
4228.402541,-9548.656652,0.000000,0.000000
4228.402871,-10658.965565,0.000000,-229.828649
4228.403200,-10288.862594,-740.205942,153.219100
4228.403530,-9178.553681,-370.102971,766.095498
4228.403860,-9622.677246,-592.164754,459.657299
4228.404190,-9474.636058,-740.205942,306.438199
4228.404519,-9770.718434,-1184.329507,0.000000
4228.404849,-7772.162391,-1258.350101,-919.314598
4228.405179,-8068.244768,-740.205942,-766.095498
4228.405509,-9770.718434,74.020594,0.000000
4228.405839,-10066.800811,-296.082377,1378.971896
4228.406168,-9178.553681,-740.205942,1685.410096
4228.406498,-9030.512492,74.020594,842.705048
4228.406828,-10881.027347,-148.041188,842.705048
4228.407158,-10288.862594,-592.164754,306.438199
4228.407488,-9030.512492,-518.144159,-153.219100
4228.407817,-9326.594869,444.123565,229.828649
4228.408147,-9622.677246,0.000000,229.828649
4228.408477,-10140.821405,740.205942,0.000000
4228.408807,-9326.594869,-592.164754,-766.095498
4228.409137,-9622.677246,0.000000,-306.438199
4228.409466,-10288.862594,148.041188,919.314598
4228.409796,-10881.027347,148.041188,1685.410096
4228.410126,-9326.594869,-296.082377,1378.971896
4228.410456,-9918.759623,592.164754,919.314598
4228.410785,-10807.006753,74.020594,0.000000
4228.411115,-11029.068536,592.164754,0.000000
4228.411445,-10214.842000,1036.288319,-229.828649
4228.411775,-9992.780217,296.082377,0.000000
4228.412105,-10362.883188,518.144159,0.000000
4228.412434,-8882.471304,222.061783,-153.219100
4228.412764,-9844.739029,518.144159,-689.485948
4228.413094,-9400.615463,74.020594,-612.876398
4228.413424,-9400.615463,-370.102971,0.000000
4228.413754,-9844.739029,518.144159,995.924147
4228.414083,-9622.677246,740.205942,383.047749
4228.414413,-11251.130318,444.123565,153.219100
4228.414743,-9474.636058,444.123565,-1685.410096
4228.415073,-9548.656652,148.041188,-1378.971896
4228.415403,-10066.800811,814.226536,76.609550
4228.415732,-10066.800811,592.164754,842.705048
4228.416062,-9844.739029,592.164754,1149.143247
4228.416392,-9030.512492,962.267725,-229.828649
4228.416722,-9696.697840,148.041188,-1455.581446
4228.417051,-9992.780217,0.000000,-1532.190996
4228.417381,-8882.471304,0.000000,-536.266849
4228.417711,-8808.450710,222.061783,536.266849
4228.418041,-9104.533087,740.205942,689.485948
4228.418371,-9844.739029,0.000000,0.000000
4228.418700,-9918.759623,0.000000,-612.876398
4228.419030,-9992.780217,444.123565,766.095498
4228.419360,-10510.924376,666.185348,1225.752797
4228.419690,-10658.965565,444.123565,1302.362347
4228.420020,-10658.965565,518.144159,919.314598
4228.420349,-9474.636058,148.041188,612.876398
4228.420679,-9696.697840,814.226536,-1149.143247
4228.421009,-10362.883188,1110.308913,-1838.629195
4228.421339,-9918.759623,444.123565,-1149.143247
4228.421668,-9326.594869,888.247130,229.828649
4228.421998,-9104.533087,444.123565,-383.047749
4228.422328,-9992.780217,222.061783,-229.828649
4228.422658,-9770.718434,148.041188,0.000000
4228.422988,-9474.636058,-222.061783,229.828649
4228.423317,-9770.718434,-296.082377,1149.143247
4228.423647,-10584.944971,222.061783,1685.410096
4228.423977,-10288.862594,0.000000,1149.143247
4228.424307,-9622.677246,-222.061783,229.828649
4228.424637,-9918.759623,296.082377,536.266849
4228.424966,-10510.924376,148.041188,766.095498
4228.425296,-11177.109724,222.061783,0.000000
4228.425626,-8882.471304,148.041188,306.438199
4228.425956,-9992.780217,222.061783,383.047749
4228.426286,-10066.800811,148.041188,153.219100
4228.426615,-9844.739029,-888.247130,229.828649
4228.426945,-9622.677246,222.061783,689.485948
4228.427275,-9178.553681,0.000000,689.485948
4228.427605,-10584.944971,-222.061783,0.000000
4228.427934,-9992.780217,0.000000,766.095498
4228.428264,-9696.697840,0.000000,995.924147
4228.428594,-10584.944971,74.020594,1685.410096
4228.428924,-10066.800811,296.082377,1455.581446
4228.429254,-9844.739029,-1036.288319,383.047749
4228.429583,-9474.636058,-740.205942,-229.828649
4228.429913,-8438.347739,-1036.288319,-383.047749
4228.430243,-8364.327145,-592.164754,153.219100
4228.430573,-9178.553681,-888.247130,1608.800546
4228.430903,-10214.842000,-740.205942,1915.238745
4228.431232,-10658.965565,-888.247130,2145.067394
4228.431562,-10214.842000,-370.102971,383.047749
4228.431892,-9548.656652,-814.226536,-1072.533697
4228.432222,-8956.491898,-518.144159,-306.438199
4228.432552,-9104.533087,0.000000,0.000000
4228.432881,-9622.677246,-370.102971,689.485948
4228.433211,-9918.759623,-222.061783,612.876398
4228.433541,-10140.821405,-148.041188,0.000000
4228.433871,-10732.986159,-296.082377,153.219100
4228.434200,-9030.512492,-888.247130,-612.876398
4228.434530,-9548.656652,-740.205942,0.000000
4228.434860,-9326.594869,-370.102971,1302.362347
4228.435190,-10510.924376,-74.020594,1915.238745
4228.435520,-10584.944971,148.041188,919.314598
4228.435849,-10140.821405,370.102971,-612.876398
4228.436179,-9474.636058,518.144159,-1455.581446
4228.436509,-9622.677246,666.185348,-919.314598
4228.436839,-10881.027347,1110.308913,-306.438199
4228.437169,-10955.047942,814.226536,229.828649
4228.437498,-10140.821405,592.164754,-306.438199
4228.437828,-9548.656652,0.000000,-536.266849
4228.438158,-10066.800811,74.020594,-536.266849
4228.438488,-10214.842000,296.082377,459.657299
4228.438817,-8882.471304,0.000000,459.657299
4228.439147,-9178.553681,74.020594,306.438199
4228.439477,-9918.759623,592.164754,689.485948
4228.439807,-9918.759623,592.164754,306.438199
4228.440137,-10140.821405,0.000000,842.705048
4228.440466,-10510.924376,1184.329507,229.828649
4228.440796,-10066.800811,74.020594,919.314598
4228.441126,-9770.718434,444.123565,842.705048
4228.441456,-10066.800811,148.041188,919.314598
4228.441785,-9474.636058,0.000000,153.219100
4228.442115,-8882.471304,222.061783,-766.095498
4228.442445,-8882.471304,-296.082377,-459.657299
4228.442775,-9252.574275,0.000000,0.000000
4228.443104,-9474.636058,444.123565,536.266849
4228.443434,-9696.697840,592.164754,1072.533697
4228.443764,-9474.636058,-222.061783,536.266849
4228.444094,-9548.656652,444.123565,536.266849
4228.444424,-10214.842000,74.020594,842.705048
4228.444753,-10658.965565,148.041188,536.266849
4228.445083,-9104.533087,148.041188,306.438199
4228.445413,-8808.450710,0.000000,-1149.143247
4228.445743,-9326.594869,222.061783,-766.095498
4228.446072,-10140.821405,666.185348,-153.219100
4228.446402,-10510.924376,814.226536,-76.609550
4228.446732,-9622.677246,-222.061783,0.000000
4228.447062,-9400.615463,1184.329507,-383.047749
4228.447391,-9178.553681,370.102971,-766.095498
4228.447721,-10510.924376,444.123565,-919.314598
4228.448051,-10066.800811,148.041188,76.609550
4228.448381,-10510.924376,666.185348,0.000000
4228.448711,-10955.047942,740.205942,-229.828649
4228.449040,-10436.903782,222.061783,-229.828649
4228.449370,-9844.739029,0.000000,459.657299
4228.449700,-10214.842000,888.247130,0.000000
4228.450030,-10658.965565,962.267725,-536.266849
4228.450359,-9548.656652,0.000000,-1455.581446
4228.450689,-8734.430116,444.123565,-536.266849
4228.451019,-9696.697840,0.000000,1532.190996
4228.451349,-10732.986159,148.041188,2145.067394
4228.451678,-10732.986159,-518.144159,459.657299
4228.452008,-9252.574275,-74.020594,-1149.143247
4228.452338,-8512.368333,-148.041188,-766.095498
4228.452668,-9770.718434,296.082377,536.266849
4228.452998,-10658.965565,74.020594,1762.019645
4228.453327,-9548.656652,0.000000,1608.800546
4228.453657,-8438.347739,222.061783,689.485948
4228.453987,-9844.739029,-592.164754,0.000000
4228.454317,-10510.924376,-592.164754,-612.876398
4228.454646,-9918.759623,-518.144159,306.438199
4228.454976,-8882.471304,-814.226536,995.924147
4228.455306,-8882.471304,-888.247130,1225.752797
4228.455636,-8808.450710,-962.267725,1685.410096
4228.455965,-9400.615463,-666.185348,842.705048
4228.456295,-9030.512492,-666.185348,-536.266849
4228.456625,-9474.636058,0.000000,153.219100
4228.456955,-10658.965565,296.082377,689.485948
4228.457285,-10955.047942,-222.061783,1838.629195
4228.457614,-9844.739029,-370.102971,842.705048
4228.457944,-8956.491898,-1036.288319,0.000000
4228.458274,-8586.388927,-1184.329507,-459.657299
4228.458604,-8956.491898,-814.226536,0.000000
4228.458933,-10288.862594,-740.205942,1302.362347
4228.459263,-10436.903782,-74.020594,1685.410096
4228.459593,-10140.821405,0.000000,1149.143247
4228.459923,-10658.965565,0.000000,229.828649
4228.460252,-11473.192101,0.000000,-229.828649
4228.460582,-10140.821405,0.000000,0.000000
4228.460912,-9400.615463,518.144159,-612.876398
4228.461242,-8660.409521,-666.185348,-1608.800546
4228.461572,-9252.574275,-1184.329507,-766.095498
4228.461901,-10732.986159,148.041188,689.485948
4228.462231,-10955.047942,148.041188,459.657299
4228.462561,-10436.903782,-518.144159,-383.047749
4228.462891,-8808.450710,-888.247130,153.219100
4228.463220,-9548.656652,-444.123565,1455.581446
4228.463550,-9622.677246,-148.041188,1608.800546
4228.463880,-10436.903782,0.000000,1225.752797
4228.464210,-9326.594869,-962.267725,612.876398
4228.464539,-9326.594869,148.041188,-153.219100
4228.464869,-10510.924376,0.000000,-229.828649
4228.465199,-10436.903782,74.020594,-153.219100
4228.465529,-10140.821405,0.000000,0.000000
4228.465859,-8882.471304,-814.226536,0.000000
4228.466188,-8660.409521,-592.164754,-306.438199
4228.466518,-9622.677246,-222.061783,766.095498
4228.466848,-9992.780217,74.020594,919.314598
4228.467178,-10140.821405,0.000000,842.705048
4228.467507,-9696.697840,0.000000,0.000000
4228.467837,-9400.615463,-370.102971,-612.876398
4228.468167,-9622.677246,0.000000,-842.705048
4228.468497,-9326.594869,592.164754,383.047749
4228.468826,-9400.615463,148.041188,1072.533697
4228.469156,-9400.615463,0.000000,153.219100
4228.469486,-10510.924376,592.164754,383.047749
4228.469816,-10807.006753,370.102971,995.924147
4228.470146,-10140.821405,148.041188,306.438199
4228.470475,-8956.491898,0.000000,0.000000
4228.470805,-9622.677246,74.020594,612.876398
4228.471135,-10066.800811,444.123565,689.485948
4228.471465,-10362.883188,444.123565,766.095498
4228.471794,-9622.677246,888.247130,-842.705048
4228.472124,-9178.553681,1184.329507,-1532.190996
4228.472454,-11399.171507,1776.494261,-919.314598
4228.472784,-10584.944971,1406.391290,-383.047749
4228.473113,-9474.636058,962.267725,-229.828649
4228.473443,-8956.491898,296.082377,-842.705048
4228.473773,-10214.842000,296.082377,-995.924147
4228.474103,-9844.739029,444.123565,-536.266849
4228.474433,-9326.594869,-592.164754,1149.143247
4228.474762,-8660.409521,-148.041188,1225.752797
4228.475092,-9178.553681,148.041188,1225.752797
4228.475422,-10510.924376,592.164754,612.876398
4228.475752,-9992.780217,296.082377,1225.752797
4228.476081,-10066.800811,1036.288319,229.828649
4228.476411,-10658.965565,962.267725,-536.266849
4228.476741,-10732.986159,1036.288319,-919.314598
4228.477071,-9104.533087,592.164754,-1532.190996
4228.477400,-8142.265362,518.144159,-2145.067394
4228.477730,-9326.594869,518.144159,-1072.533697
4228.478060,-10066.800811,-296.082377,-766.095498
4228.478390,-9252.574275,-296.082377,-842.705048
4228.478720,-8734.430116,-518.144159,-536.266849
4228.479049,-9474.636058,0.000000,995.924147
4228.479379,-9400.615463,0.000000,1378.971896
4228.479709,-10214.842000,296.082377,1685.410096
4228.480039,-11251.130318,518.144159,1378.971896
4228.480368,-10881.027347,592.164754,612.876398
4228.480698,-10510.924376,740.205942,-612.876398
4228.481028,-9696.697840,0.000000,-1532.190996
4228.481358,-8882.471304,0.000000,-1149.143247
4228.481687,-8660.409521,0.000000,-306.438199
4228.482017,-9474.636058,370.102971,0.000000
4228.482347,-9326.594869,-148.041188,0.000000
4228.482677,-9622.677246,0.000000,76.609550
4228.483007,-10584.944971,0.000000,-229.828649
4228.483336,-10658.965565,0.000000,229.828649
4228.483666,-10658.965565,0.000000,1302.362347
4228.483996,-9844.739029,0.000000,1991.848295
4228.484326,-9844.739029,222.061783,1302.362347
4228.484655,-8956.491898,296.082377,0.000000
4228.484985,-9844.739029,74.020594,0.000000
4228.485315,-10658.965565,148.041188,306.438199
4228.485645,-10955.047942,0.000000,459.657299
4228.485974,-10436.903782,-444.123565,536.266849
4228.486304,-8956.491898,-1036.288319,229.828649
4228.486634,-8512.368333,-814.226536,536.266849
4228.486964,-9474.636058,-518.144159,536.266849
4228.487294,-9622.677246,-1184.329507,766.095498
4228.487623,-8882.471304,-1406.391290,842.705048
4228.487953,-8734.430116,-444.123565,1149.143247
4228.488283,-8956.491898,0.000000,1762.019645
4228.488613,-10807.006753,-444.123565,1532.190996
4228.488942,-10881.027347,592.164754,1455.581446
4228.489272,-10584.944971,-2368.659014,-459.657299
4228.489602,-8290.306550,74.020594,76.609550
4228.489932,-8956.491898,-888.247130,1532.190996
4228.490261,-10436.903782,444.123565,766.095498
4228.490591,-9030.512492,-962.267725,0.000000
4228.490921,-8882.471304,0.000000,-1915.238745
4228.491251,-8956.491898,74.020594,-1532.190996
4228.491581,-10510.924376,370.102971,-1225.752797
4228.491910,-10658.965565,444.123565,459.657299
4228.492240,-9992.780217,-296.082377,1378.971896
4228.492570,-8734.430116,592.164754,-1302.362347
4228.492900,-9548.656652,-296.082377,-766.095498
4228.493229,-11029.068536,-222.061783,-689.485948
4228.493559,-11177.109724,-296.082377,76.609550
4228.493889,-9252.574275,222.061783,995.924147
4228.494219,-8734.430116,-888.247130,1378.971896
4228.494549,-8512.368333,962.267725,383.047749
4228.494878,-9696.697840,1036.288319,-76.609550
4228.495208,-10288.862594,888.247130,-1608.800546
4228.495538,-10066.800811,592.164754,-1915.238745
4228.495868,-10140.821405,1036.288319,-536.266849
4228.496197,-11251.130318,1036.288319,1149.143247
4228.496527,-10955.047942,518.144159,766.095498
4228.496857,-9548.656652,0.000000,-612.876398
4228.497187,-8660.409521,222.061783,-1302.362347
4228.497516,-8438.347739,0.000000,-536.266849
4228.497846,-10140.821405,222.061783,1378.971896
4228.498176,-9918.759623,1480.411884,3064.381992
4228.498506,-9696.697840,0.000000,1915.238745
4228.498836,-9992.780217,740.205942,229.828649
4228.499165,-10140.821405,0.000000,-919.314598
4228.499495,-10066.800811,740.205942,0.000000
4228.499825,-9474.636058,962.267725,536.266849
4228.500155,-9548.656652,1184.329507,0.000000
4228.500484,-10288.862594,814.226536,0.000000
4228.500814,-10436.903782,1258.350101,-1072.533697
4228.501144,-9696.697840,740.205942,-1455.581446
4228.501474,-9030.512492,740.205942,-1915.238745
4228.501803,-9696.697840,518.144159,-689.485948
4228.502133,-9178.553681,-148.041188,0.000000
4228.502463,-9326.594869,222.061783,919.314598
4228.502793,-8660.409521,296.082377,0.000000
4228.503123,-9252.574275,888.247130,-1149.143247
4228.503452,-9992.780217,1110.308913,-1685.410096
4228.503782,-9918.759623,1258.350101,0.000000
4228.504112,-10658.965565,1406.391290,689.485948
4228.504442,-11473.192101,1998.556043,459.657299
4228.504771,-11251.130318,666.185348,-842.705048
4228.505101,-8956.491898,592.164754,-2145.067394
4228.505431,-8290.306550,0.000000,-2221.676944
4228.505761,-9474.636058,814.226536,-1608.800546
4228.506090,-10066.800811,814.226536,-1455.581446
4228.506420,-9548.656652,740.205942,-842.705048
4228.506750,-9178.553681,1332.370696,-383.047749
4228.507080,-10066.800811,1036.288319,0.000000
4228.507410,-11177.109724,1480.411884,536.266849
4228.507739,-11029.068536,1406.391290,383.047749
4228.508069,-10436.903782,1406.391290,-842.705048
4228.508399,-9252.574275,962.267725,-1302.362347
4228.508729,-9696.697840,962.267725,-1225.752797
4228.509058,-10807.006753,1702.473667,-1915.238745
4228.509388,-10140.821405,1110.308913,-3447.429741
4228.509718,-9178.553681,592.164754,-3217.601092
4228.510048,-8512.368333,592.164754,-2298.286494
4228.510377,-8734.430116,962.267725,-612.876398
4228.510707,-8808.450710,1924.535449,-536.266849
4228.511037,-8364.327145,1554.432478,-1838.629195
4228.511367,-9992.780217,2442.679609,-2145.067394
4228.511697,-10510.924376,1480.411884,-2604.724693
4228.512026,-11621.233289,1480.411884,-1685.410096
4228.512356,-10658.965565,2072.576638,-842.705048
4228.512686,-9030.512492,1332.370696,-1685.410096
4228.513016,-8290.306550,1998.556043,-2145.067394
4228.513345,-9326.594869,2368.659014,-2757.943793
4228.513675,-9474.636058,2664.741391,-2681.334243
4228.514005,-9178.553681,3182.885551,-2911.162892
4228.514335,-9918.759623,3997.112087,-3064.381992
4228.514664,-10658.965565,3256.906145,-2221.676944
4228.514994,-11991.336260,3330.926739,-2298.286494
4228.515324,-10584.944971,2812.782580,-3294.210641
4228.515654,-9104.533087,1480.411884,-4136.915689
4228.515984,-8586.388927,1702.473667,-3830.477490
4228.516313,-8290.306550,1776.494261,-1608.800546
4228.516643,-7772.162391,1924.535449,919.314598
4228.516973,-8512.368333,1924.535449,-229.828649
4228.517303,-8882.471304,3182.885551,-2374.896044
4228.517632,-10658.965565,3330.926739,-3447.429741
4228.517962,-11029.068536,3256.906145,-3294.210641
4228.518292,-10436.903782,2812.782580,-1072.533697
4228.518622,-10140.821405,3478.967927,-842.705048
4228.518951,-9548.656652,2590.720797,-1838.629195
4228.519281,-9622.677246,2886.803174,-2681.334243
4228.519611,-8956.491898,2886.803174,-3447.429741
4228.519941,-9326.594869,3034.844362,-2757.943793
4228.520271,-10955.047942,3627.009116,-1378.971896
4228.520600,-10881.027347,2664.741391,-1378.971896
4228.520930,-9252.574275,2368.659014,-1225.752797
4228.521260,-9548.656652,3478.967927,-1302.362347
4228.521590,-9992.780217,3034.844362,-2451.505594
4228.521919,-10362.883188,2368.659014,-3447.429741
4228.522249,-8882.471304,2664.741391,-3370.820191
4228.522579,-9178.553681,2294.638420,-2145.067394
4228.522909,-9770.718434,2812.782580,-995.924147
4228.523238,-9474.636058,2812.782580,-1378.971896
4228.523568,-8882.471304,1036.288319,-2374.896044
4228.523898,-9104.533087,1702.473667,-2145.067394
4228.524228,-10214.842000,2146.597232,-919.314598
4228.524558,-11103.089130,2442.679609,1302.362347
4228.524887,-9104.533087,3701.029710,-612.876398
4228.525217,-7179.997637,2072.576638,-2298.286494
4228.525547,-9844.739029,1332.370696,-2911.162892
4228.525877,-11325.150913,2146.597232,-1762.019645
4228.526206,-9844.739029,1480.411884,-1762.019645
4228.526536,-10288.862594,1776.494261,-1991.848295
4228.526866,-8734.430116,2146.597232,-2298.286494
4228.527196,-9178.553681,2072.576638,-2528.115143
4228.527525,-9548.656652,2072.576638,-1991.848295
4228.527855,-10436.903782,1924.535449,-1685.410096
4228.528185,-10584.944971,2368.659014,-2298.286494
4228.528515,-10066.800811,2294.638420,-3217.601092
4228.528845,-9770.718434,1850.514855,-2528.115143
4228.529174,-10362.883188,1258.350101,-1302.362347
4228.529504,-10362.883188,1776.494261,-1302.362347
4228.529834,-8808.450710,666.185348,-1225.752797
4228.530164,-8808.450710,1184.329507,-2681.334243
4228.530493,-9104.533087,1110.308913,-3140.991542
4228.530823,-8734.430116,1702.473667,-1991.848295
4228.531153,-10436.903782,2294.638420,-153.219100
4228.531483,-11251.130318,2368.659014,-1149.143247
4228.531812,-11621.233289,2664.741391,-2145.067394
4228.532142,-10658.965565,2146.597232,-3600.648841
4228.532472,-10140.821405,2516.700203,-2987.772442
4228.532802,-9474.636058,1332.370696,-3140.991542
4228.533132,-9474.636058,740.205942,-2451.505594
4228.533461,-7846.182985,1258.350101,-1685.410096
4228.533791,-8142.265362,888.247130,-919.314598
4228.534121,-9104.533087,1480.411884,-1608.800546
4228.534451,-9548.656652,1258.350101,-1455.581446
4228.534780,-10066.800811,1850.514855,-1072.533697
4228.535110,-9992.780217,1850.514855,-995.924147
4228.535440,-10362.883188,2220.617826,-766.095498
4228.535770,-10732.986159,1924.535449,-1378.971896
4228.536099,-9548.656652,1776.494261,-2145.067394
4228.536429,-9030.512492,1998.556043,-1915.238745
4228.536759,-9178.553681,2368.659014,-3217.601092
4228.537089,-9474.636058,2146.597232,-2298.286494
4228.537419,-8660.409521,2220.617826,-2145.067394
4228.537748,-8438.347739,1998.556043,-2221.676944
4228.538078,-10140.821405,2516.700203,-2145.067394
4228.538408,-10066.800811,2516.700203,-2068.457845
4228.538738,-9844.739029,2072.576638,-2528.115143
4228.539068,-9548.656652,2960.823768,-2221.676944
4228.539397,-10140.821405,2590.720797,-1532.190996
4228.539727,-10881.027347,2368.659014,-842.705048
4228.540057,-10140.821405,2220.617826,-689.485948
4228.540387,-9400.615463,2294.638420,-1302.362347
4228.540717,-9474.636058,1924.535449,-1915.238745
4228.541046,-9844.739029,2738.761985,-1991.848295
4228.541376,-9696.697840,2220.617826,-2528.115143
4228.541706,-9548.656652,2664.741391,-2374.896044
4228.542036,-9548.656652,3182.885551,-1838.629195
4228.542366,-9622.677246,2886.803174,-2298.286494
4228.542695,-10214.842000,3108.864956,-2451.505594
4228.543025,-10584.944971,2738.761985,-2451.505594
4228.543355,-10288.862594,2294.638420,-1915.238745
4228.543685,-9400.615463,1850.514855,-1762.019645
4228.544015,-9400.615463,1998.556043,-1225.752797
4228.544344,-9104.533087,2072.576638,-1302.362347
4228.544674,-9474.636058,2220.617826,-1072.533697
4228.545004,-9474.636058,2442.679609,-1302.362347
4228.545334,-9770.718434,2812.782580,-2757.943793
4228.545664,-10510.924376,3034.844362,-3064.381992
4228.545993,-10436.903782,2442.679609,-2681.334243
4228.546323,-10066.800811,2294.638420,-1302.362347
4228.546653,-9326.594869,2368.659014,-1455.581446
4228.546983,-9104.533087,1554.432478,-2451.505594
4228.547313,-9030.512492,1406.391290,-3217.601092
4228.547642,-8882.471304,2072.576638,-2911.162892
4228.547972,-9400.615463,1332.370696,-2145.067394
4228.548302,-9844.739029,1776.494261,-2145.067394
4228.548632,-10066.800811,1998.556043,-1915.238745
4228.548962,-9474.636058,1850.514855,-1991.848295
4228.549291,-9844.739029,2072.576638,-2068.457845
4228.549621,-9548.656652,1776.494261,-1685.410096
4228.549951,-9622.677246,1702.473667,-2374.896044
4228.550281,-9770.718434,1850.514855,-2451.505594
4228.550611,-9696.697840,1702.473667,-1455.581446
4228.550940,-9918.759623,2072.576638,-842.705048
4228.551270,-9918.759623,1702.473667,-1685.410096
4228.551600,-10214.842000,1850.514855,-2528.115143
4228.551930,-9992.780217,1998.556043,-3447.429741
4228.552260,-9400.615463,2294.638420,-2911.162892
4228.552589,-9474.636058,1924.535449,-1838.629195
4228.552919,-9474.636058,1924.535449,-842.705048
4228.553249,-9696.697840,1702.473667,-766.095498
4228.553579,-9622.677246,1332.370696,-1225.752797
4228.553909,-10214.842000,1776.494261,-2221.676944
4228.554238,-10362.883188,1480.411884,-1532.190996
4228.554568,-9992.780217,1554.432478,-459.657299
4228.554898,-9474.636058,1554.432478,-766.095498
4228.555228,-9030.512492,1776.494261,-459.657299
4228.555558,-10288.862594,2220.617826,-1685.410096
4228.555887,-10510.924376,2442.679609,-2604.724693
4228.556217,-9548.656652,2368.659014,-3524.039291
4228.556547,-9030.512492,2220.617826,-2757.943793
4228.556877,-9622.677246,2072.576638,-1072.533697
4228.557207,-10362.883188,1998.556043,-306.438199
4228.557536,-9918.759623,2072.576638,-995.924147
4228.557866,-8956.491898,1554.432478,-2834.553343
4228.558196,-9474.636058,2220.617826,-2834.553343
4228.558526,-9548.656652,2072.576638,-2681.334243
4228.558856,-9992.780217,1998.556043,-1149.143247
4228.559185,-9992.780217,2294.638420,0.000000
4228.559515,-9326.594869,1998.556043,-1302.362347
4228.559845,-9474.636058,2146.597232,-2374.896044
4228.560175,-9770.718434,2368.659014,-3370.820191
4228.560505,-10214.842000,2442.679609,-3370.820191
4228.560834,-9474.636058,2442.679609,-2681.334243
4228.561164,-9104.533087,2146.597232,-1225.752797
4228.561494,-9104.533087,2072.576638,-1378.971896
4228.561824,-9252.574275,2294.638420,-2068.457845
4228.562154,-9992.780217,1924.535449,-2757.943793
4228.562483,-9918.759623,2368.659014,-3370.820191
4228.562813,-9548.656652,2294.638420,-3600.648841
4228.563143,-9400.615463,2738.761985,-2298.286494
4228.563473,-9474.636058,2516.700203,-766.095498
4228.563803,-10658.965565,2442.679609,-689.485948
4228.564132,-10362.883188,2590.720797,-2068.457845
4228.564462,-9400.615463,1924.535449,-2757.943793
4228.564792,-9992.780217,1850.514855,-2528.115143
4228.565122,-9696.697840,2220.617826,-1838.629195
4228.565452,-9770.718434,1702.473667,-1225.752797
4228.565781,-8586.388927,1702.473667,-1532.190996
4228.566111,-9104.533087,1924.535449,-2145.067394
4228.566441,-10066.800811,2294.638420,-1532.190996
4228.566771,-10584.944971,2368.659014,-2068.457845
4228.567101,-10066.800811,2516.700203,-2221.676944
4228.567430,-9474.636058,2146.597232,-2298.286494
4228.567760,-10140.821405,2294.638420,-1838.629195
4228.568090,-10140.821405,1998.556043,-1225.752797
4228.568420,-9992.780217,1850.514855,-2068.457845
4228.568750,-9252.574275,1628.453072,-1991.848295
4228.569080,-9030.512492,1332.370696,-1455.581446
4228.569409,-9326.594869,1480.411884,-536.266849
4228.569739,-9918.759623,1850.514855,-919.314598
4228.570069,-10584.944971,1924.535449,-1455.581446
4228.570399,-10436.903782,1480.411884,-1532.190996
4228.570729,-9992.780217,1998.556043,-536.266849
4228.571058,-9844.739029,1406.391290,-306.438199
4228.571388,-9622.677246,1776.494261,-153.219100
4228.571718,-9844.739029,1554.432478,-536.266849
4228.572048,-9770.718434,1184.329507,-536.266849
4228.572378,-9474.636058,962.267725,-1225.752797
4228.572707,-9770.718434,888.247130,-1378.971896
4228.573037,-9548.656652,1036.288319,-2145.067394
4228.573367,-8882.471304,1110.308913,-2298.286494
4228.573697,-7994.224174,1110.308913,-2451.505594
4228.574027,-8882.471304,962.267725,-1991.848295
4228.574356,-9918.759623,1480.411884,-689.485948
4228.574686,-10288.862594,1554.432478,-1608.800546
4228.575016,-9918.759623,1702.473667,-2221.676944
4228.575346,-9326.594869,1332.370696,-3524.039291
4228.575676,-9474.636058,1258.350101,-2604.724693
4228.576005,-9918.759623,1406.391290,-1838.629195
4228.576335,-9622.677246,1406.391290,-1302.362347
4228.576665,-8956.491898,1110.308913,-1608.800546
4228.576995,-9030.512492,1184.329507,-1915.238745
4228.577325,-9622.677246,1924.535449,-2528.115143
4228.577654,-10214.842000,1998.556043,-2681.334243
4228.577984,-9992.780217,2072.576638,-3294.210641
4228.578314,-10140.821405,2516.700203,-2757.943793
4228.578644,-10066.800811,2294.638420,-2145.067394
4228.578974,-10214.842000,2664.741391,-1685.410096
4228.579303,-10362.883188,2368.659014,-1762.019645
4228.579633,-10362.883188,2368.659014,-2604.724693
4228.579963,-9918.759623,2072.576638,-2451.505594
4228.580293,-9622.677246,1998.556043,-1608.800546
4228.580623,-9622.677246,2368.659014,-2145.067394
4228.580952,-8808.450710,2886.803174,-2987.772442
4228.581282,-8956.491898,2812.782580,-2604.724693
4228.581612,-9918.759623,2812.782580,-2528.115143
4228.581942,-10732.986159,3330.926739,-2221.676944
4228.582272,-10807.006753,3330.926739,-1762.019645
4228.582601,-10140.821405,3552.988522,-2145.067394
4228.582931,-9474.636058,2960.823768,-3140.991542
4228.583261,-9696.697840,2960.823768,-2911.162892
4228.583591,-10436.903782,2886.803174,-1455.581446
4228.583921,-10140.821405,2886.803174,-612.876398
4228.584250,-9104.533087,3034.844362,-2145.067394
4228.584580,-8438.347739,3256.906145,-3064.381992
4228.584910,-8956.491898,3404.947333,-3677.258390
4228.585240,-9770.718434,3552.988522,-2757.943793
4228.585570,-10140.821405,3478.967927,-1455.581446
4228.585899,-9844.739029,3404.947333,-995.924147
4228.586229,-9622.677246,3478.967927,-1378.971896
4228.586559,-9326.594869,3182.885551,-842.705048
4228.586889,-10510.924376,3330.926739,-1072.533697
4228.587219,-10214.842000,2664.741391,-1991.848295
4228.587548,-9178.553681,2886.803174,-2911.162892
4228.587878,-8734.430116,3108.864956,-2451.505594
4228.588208,-9178.553681,3108.864956,-1991.848295
4228.588538,-9844.739029,3552.988522,-1685.410096
4228.588868,-9474.636058,3256.906145,-2604.724693
4228.589197,-9474.636058,3182.885551,-2451.505594
4228.589527,-9622.677246,2960.823768,-1455.581446
4228.589857,-10584.944971,2664.741391,-1072.533697
4228.590187,-10288.862594,2516.700203,-612.876398
4228.590517,-9918.759623,2442.679609,-2298.286494
4228.590846,-8808.450710,1628.453072,-2834.553343
4228.591176,-9326.594869,1480.411884,-1915.238745
4228.591506,-10066.800811,1924.535449,-383.047749
4228.591836,-9622.677246,1924.535449,-306.438199
4228.592166,-9252.574275,1776.494261,-766.095498
4228.592495,-9992.780217,2442.679609,-1991.848295
4228.592825,-10658.965565,2146.597232,-2987.772442
4228.593155,-11177.109724,2294.638420,-2911.162892
4228.593485,-10436.903782,1554.432478,-2068.457845
4228.593815,-10140.821405,1110.308913,-1302.362347
4228.594144,-9474.636058,518.144159,-1455.581446
4228.594474,-9104.533087,444.123565,-1608.800546
4228.594804,-8808.450710,296.082377,-2374.896044
4228.595134,-9252.574275,740.205942,-2374.896044
4228.595464,-9474.636058,74.020594,-1149.143247
4228.595793,-9474.636058,74.020594,0.000000
4228.596123,-10362.883188,888.247130,306.438199
4228.596453,-10066.800811,1258.350101,-919.314598
4228.596783,-9844.739029,740.205942,-2451.505594
4228.597113,-10288.862594,1110.308913,-2528.115143
4228.597442,-10510.924376,1036.288319,-2221.676944
4228.597772,-9992.780217,1332.370696,-995.924147
4228.598102,-9252.574275,1036.288319,-1608.800546
4228.598432,-8586.388927,518.144159,-3217.601092
4228.598762,-8438.347739,-222.061783,-2987.772442
4228.599091,-9548.656652,296.082377,-1991.848295
4228.599421,-9548.656652,962.267725,-1838.629195
4228.599751,-9326.594869,740.205942,-766.095498
4228.600081,-8660.409521,1776.494261,-1225.752797
4228.600411,-9992.780217,1702.473667,-995.924147
4228.600740,-12065.356855,2738.761985,-1455.581446
4228.601070,-11843.295072,2516.700203,-2068.457845
4228.601400,-10436.903782,2220.617826,-2911.162892
4228.601730,-9252.574275,2294.638420,-2757.943793
4228.602060,-9400.615463,1924.535449,-2298.286494
4228.602389,-8882.471304,1554.432478,-2068.457845
4228.602719,-8660.409521,2072.576638,-3983.696590
4228.603049,-8808.450710,2146.597232,-4519.963438
4228.603379,-9104.533087,2220.617826,-3217.601092
4228.603709,-9844.739029,2664.741391,-1149.143247
4228.604038,-10436.903782,2812.782580,76.609550
4228.604368,-9992.780217,3256.906145,-919.314598
4228.604698,-9992.780217,2220.617826,-1915.238745
4228.605028,-10584.944971,2516.700203,-1302.362347
4228.605358,-10510.924376,2664.741391,-1072.533697
4228.605687,-10288.862594,2960.823768,-995.924147
4228.606017,-9104.533087,2886.803174,-2145.067394
4228.606347,-8882.471304,2886.803174,-2757.943793
4228.606677,-8734.430116,2960.823768,-2681.334243
4228.607007,-9030.512492,3034.844362,-2987.772442
4228.607336,-9548.656652,3775.050304,-2911.162892
4228.607666,-9326.594869,3404.947333,-2987.772442
4228.607996,-9622.677246,3478.967927,-3140.991542
4228.608326,-9770.718434,3182.885551,-2987.772442
4228.608656,-9696.697840,3108.864956,-2528.115143
4228.608985,-9548.656652,2738.761985,-1991.848295
4228.609315,-9104.533087,2590.720797,-612.876398
4228.609645,-9104.533087,3034.844362,-536.266849
4228.609975,-9104.533087,3108.864956,-995.924147
4228.610305,-10140.821405,2812.782580,-1838.629195
4228.610634,-9474.636058,2886.803174,-2374.896044
4228.610964,-9474.636058,3034.844362,-3294.210641
4228.611294,-9844.739029,2960.823768,-3140.991542
4228.611624,-11029.068536,3404.947333,-1991.848295
4228.611954,-10362.883188,3108.864956,-1685.410096
4228.612283,-9844.739029,2368.659014,-2374.896044
4228.612613,-9548.656652,2886.803174,-2757.943793
4228.612943,-10362.883188,2442.679609,-2145.067394
4228.613273,-10510.924376,2960.823768,-1378.971896
4228.613603,-9252.574275,2368.659014,-842.705048
4228.613932,-8956.491898,2442.679609,-2068.457845
4228.614262,-10066.800811,2220.617826,-2298.286494
4228.614592,-10807.006753,2294.638420,-1915.238745
4228.614922,-10066.800811,3108.864956,-2221.676944
4228.615252,-9474.636058,2516.700203,-2911.162892
4228.615581,-10362.883188,2664.741391,-2298.286494
4228.615911,-10140.821405,2368.659014,-1072.533697
4228.616241,-10140.821405,2516.700203,-842.705048
4228.616571,-10510.924376,2220.617826,-1532.190996
4228.616901,-10288.862594,1332.370696,-2451.505594
4228.617230,-9326.594869,740.205942,-2374.896044
4228.617560,-8290.306550,888.247130,-2068.457845
4228.617890,-8734.430116,1702.473667,-842.705048
4228.618220,-9474.636058,1110.308913,-383.047749
4228.618550,-10288.862594,1702.473667,-612.876398
4228.618879,-10362.883188,1998.556043,-1455.581446
4228.619209,-10807.006753,1998.556043,-1072.533697
4228.619539,-10658.965565,2220.617826,-919.314598
4228.619869,-9844.739029,1628.453072,-76.609550
4228.620199,-9918.759623,1480.411884,-1762.019645
4228.620528,-8660.409521,1776.494261,-2681.334243
4228.620858,-8956.491898,1332.370696,-3907.087040
4228.621188,-9030.512492,814.226536,-4136.915689
4228.621518,-8660.409521,814.226536,-3064.381992
4228.621848,-9030.512492,814.226536,-1149.143247
4228.622177,-9622.677246,666.185348,153.219100
4228.622507,-9474.636058,1110.308913,612.876398
4228.622837,-9844.739029,962.267725,-689.485948
4228.623167,-11769.274478,1702.473667,-1915.238745
4228.623497,-11547.212695,888.247130,-1455.581446
4228.623826,-9770.718434,1776.494261,-766.095498
4228.624156,-8808.450710,1702.473667,-1608.800546
4228.624486,-9030.512492,1406.391290,-1532.190996
4228.624816,-9548.656652,1184.329507,-2221.676944
4228.625146,-9030.512492,1480.411884,-3294.210641
4228.625475,-9326.594869,1554.432478,-2987.772442
4228.625805,-9400.615463,1776.494261,-2145.067394
4228.626135,-9474.636058,888.247130,-2145.067394
4228.626465,-8882.471304,1406.391290,-766.095498
4228.626795,-8734.430116,888.247130,-919.314598
4228.627124,-10807.006753,1628.453072,-1225.752797
4228.627454,-11029.068536,1998.556043,-1762.019645
4228.627784,-9992.780217,2886.803174,-1149.143247
4228.628114,-9400.615463,1702.473667,-1455.581446
4228.628444,-10807.006753,2442.679609,-1608.800546
4228.628773,-10658.965565,1554.432478,-1685.410096
4228.629103,-9918.759623,1036.288319,-2298.286494
4228.629433,-7624.121203,814.226536,-3524.039291
4228.629763,-7476.080014,1924.535449,-2681.334243
4228.630093,-9696.697840,2368.659014,-1302.362347
4228.630422,-10807.006753,2664.741391,-766.095498
4228.630752,-10140.821405,1924.535449,-2298.286494
4228.631082,-10807.006753,2442.679609,-2757.943793
4228.631412,-11473.192101,2516.700203,-2145.067394
4228.631742,-10140.821405,1554.432478,-1532.190996
4228.632071,-9252.574275,2072.576638,-1378.971896
4228.632401,-8734.430116,1776.494261,-919.314598
4228.632731,-9918.759623,1998.556043,-1762.019645
4228.633061,-9326.594869,1850.514855,-2068.457845
4228.633391,-8364.327145,1480.411884,-1915.238745
4228.633720,-9770.718434,1850.514855,-459.657299
4228.634050,-9548.656652,1258.350101,-306.438199
4228.634380,-10140.821405,1184.329507,-153.219100
4228.634710,-9252.574275,1332.370696,0.000000
4228.635040,-9326.594869,1332.370696,-766.095498
4228.635369,-9474.636058,1554.432478,-1378.971896
4228.635699,-10214.842000,1406.391290,-689.485948
4228.636029,-10140.821405,1776.494261,536.266849
4228.636359,-9622.677246,1776.494261,1378.971896
4228.636689,-9400.615463,962.267725,306.438199
4228.637018,-9104.533087,592.164754,536.266849
4228.637348,-9770.718434,518.144159,383.047749
4228.637678,-9326.594869,222.061783,0.000000
4228.638008,-10214.842000,1110.308913,842.705048
4228.638338,-10436.903782,1480.411884,766.095498
4228.638667,-9992.780217,1332.370696,-229.828649
4228.638997,-8882.471304,1998.556043,-612.876398
4228.639327,-10066.800811,1332.370696,-689.485948
4228.639657,-12065.356855,1702.473667,-383.047749
4228.639986,-11991.336260,296.082377,0.000000
4228.640316,-9918.759623,-370.102971,229.828649
4228.640646,-7402.059420,-1110.308913,2068.457845
4228.640976,-7846.182985,-222.061783,2911.162892
4228.641305,-10066.800811,-888.247130,1072.533697
4228.641635,-10436.903782,-666.185348,-766.095498
4228.641965,-8660.409521,-888.247130,-2298.286494
4228.642295,-8364.327145,-1110.308913,-153.219100
4228.642624,-11769.274478,0.000000,2145.067394
4228.642954,-11843.295072,-518.144159,3447.429741
4228.643284,-9400.615463,-592.164754,1302.362347
4228.643613,-7105.977043,-888.247130,-689.485948
4228.643943,-9104.533087,-962.267725,-919.314598
4228.644273,-11769.274478,-814.226536,0.000000
4228.644603,-11251.130318,-1258.350101,1838.629195
4228.644932,-9548.656652,-666.185348,1915.238745
4228.645262,-8882.471304,-1776.494261,1302.362347
4228.645592,-10140.821405,-1776.494261,76.609550
4228.645922,-10362.883188,-1998.556043,-536.266849
4228.646251,-9326.594869,-370.102971,-842.705048
4228.646581,-10510.924376,0.000000,229.828649
4228.646911,-11399.171507,222.061783,842.705048
4228.647241,-10140.821405,-222.061783,1149.143247
4228.647570,-8808.450710,-814.226536,-76.609550
4228.647900,-9918.759623,-592.164754,-383.047749
4228.648230,-10658.965565,-2220.617826,153.219100
4228.648559,-10140.821405,-2072.576638,612.876398
4228.648889,-7920.203579,-2220.617826,1685.410096
4228.649219,-8660.409521,-1628.453072,2374.896044
4228.649549,-9844.739029,-888.247130,1608.800546
4228.649878,-10362.883188,0.000000,153.219100
4228.650208,-9918.759623,814.226536,-306.438199
4228.650538,-10732.986159,814.226536,-459.657299
4228.650868,-11473.192101,1258.350101,-383.047749
4228.651197,-10955.047942,444.123565,-995.924147
4228.651527,-9696.697840,740.205942,-2068.457845
4228.651857,-7846.182985,-370.102971,-1378.971896
4228.652187,-9548.656652,0.000000,-766.095498
4228.652516,-8586.388927,-1258.350101,-766.095498
4228.652846,-7920.203579,-962.267725,-842.705048
4228.653176,-8068.244768,-444.123565,612.876398
4228.653505,-9178.553681,148.041188,1762.019645
4228.653835,-10214.842000,444.123565,1915.238745
4228.654165,-10510.924376,592.164754,689.485948
4228.654495,-10881.027347,1258.350101,-306.438199
4228.654824,-11103.089130,962.267725,0.000000
4228.655154,-10732.986159,2072.576638,0.000000
4228.655484,-10288.862594,1110.308913,-1149.143247
4228.655814,-9030.512492,1036.288319,-2298.286494
4228.656143,-8216.285956,518.144159,-2068.457845
4228.656473,-9326.594869,666.185348,-842.705048
4228.656803,-9030.512492,222.061783,153.219100
4228.657133,-8956.491898,148.041188,1149.143247
4228.657462,-9252.574275,518.144159,1302.362347
4228.657792,-9104.533087,666.185348,0.000000
4228.658122,-10066.800811,2664.741391,0.000000
4228.658451,-11103.089130,1702.473667,459.657299
4228.658781,-10807.006753,1554.432478,1072.533697
4228.659111,-10436.903782,1184.329507,919.314598
4228.659441,-11325.150913,1924.535449,689.485948
4228.659770,-11399.171507,0.000000,229.828649
4228.660100,-8808.450710,740.205942,-919.314598
4228.660430,-7624.121203,518.144159,-1149.143247
4228.660760,-8586.388927,518.144159,-1455.581446
4228.661089,-8290.306550,370.102971,0.000000
4228.661419,-8882.471304,592.164754,766.095498
4228.661749,-9992.780217,2072.576638,536.266849
4228.662079,-11843.295072,1258.350101,-153.219100
4228.662408,-12065.356855,1332.370696,-766.095498
4228.662738,-9992.780217,740.205942,-689.485948
4228.663068,-9474.636058,814.226536,306.438199
4228.663397,-10214.842000,592.164754,1455.581446
4228.663727,-10658.965565,-148.041188,842.705048
4228.664057,-8882.471304,-296.082377,536.266849
4228.664387,-7698.141797,0.000000,-229.828649
4228.664716,-9548.656652,-370.102971,153.219100
4228.665046,-10732.986159,-518.144159,-76.609550
4228.665376,-9992.780217,-370.102971,536.266849
4228.665706,-8734.430116,-296.082377,689.485948
4228.666035,-9770.718434,-740.205942,919.314598
4228.666365,-11177.109724,0.000000,383.047749
4228.666695,-10436.903782,0.000000,1378.971896
4228.667025,-10214.842000,222.061783,1685.410096
4228.667354,-10584.944971,148.041188,1532.190996
4228.667684,-10658.965565,-370.102971,229.828649
4228.668014,-8660.409521,-1110.308913,-766.095498
4228.668344,-8142.265362,-740.205942,-689.485948
4228.668673,-9326.594869,-1036.288319,-76.609550
4228.669003,-9770.718434,-814.226536,229.828649
4228.669333,-8882.471304,-1110.308913,229.828649
4228.669662,-8660.409521,-370.102971,-76.609550
4228.669992,-10214.842000,-370.102971,612.876398
4228.670322,-12139.377449,444.123565,1991.848295
4228.670652,-11843.295072,148.041188,1225.752797
4228.670981,-10140.821405,-148.041188,-76.609550
4228.671311,-8586.388927,-666.185348,0.000000
4228.671641,-10732.986159,0.000000,612.876398
4228.671971,-9992.780217,-888.247130,0.000000
4228.672300,-8660.409521,-1036.288319,-383.047749
4228.672630,-8068.244768,-592.164754,-612.876398
4228.672960,-9030.512492,-962.267725,0.000000
4228.673290,-11103.089130,444.123565,995.924147
4228.673619,-10436.903782,-222.061783,612.876398
4228.673949,-10140.821405,-222.061783,-306.438199
4228.674279,-9104.533087,0.000000,0.000000
4228.674608,-10140.821405,148.041188,1455.581446
4228.674938,-11325.150913,592.164754,1532.190996
4228.675268,-10214.842000,0.000000,919.314598
4228.675598,-9474.636058,0.000000,383.047749
4228.675927,-9178.553681,-444.123565,383.047749
4228.676257,-10362.883188,-592.164754,153.219100
4228.676587,-10140.821405,-1628.453072,612.876398
4228.676917,-8882.471304,0.000000,842.705048
4228.677246,-7402.059420,-1036.288319,689.485948
4228.677576,-9030.512492,592.164754,76.609550
4228.677906,-10288.862594,370.102971,153.219100
4228.678236,-11029.068536,592.164754,459.657299
4228.678565,-9622.677246,666.185348,612.876398
4228.678895,-10881.027347,444.123565,995.924147
4228.679225,-10732.986159,296.082377,1302.362347
4228.679554,-10066.800811,0.000000,1455.581446
4228.679884,-8660.409521,0.000000,0.000000
4228.680214,-8364.327145,-592.164754,-919.314598
4228.680544,-9696.697840,296.082377,-1072.533697
4228.680873,-8734.430116,296.082377,0.000000
4228.681203,-9030.512492,962.267725,766.095498
4228.681533,-8808.450710,814.226536,689.485948
4228.681863,-10658.965565,1184.329507,-76.609550
4228.682192,-11547.212695,1480.411884,-536.266849
4228.682522,-10288.862594,370.102971,-612.876398
4228.682852,-9770.718434,1110.308913,-383.047749
4228.683182,-10510.924376,444.123565,-153.219100
4228.683511,-10140.821405,814.226536,-536.266849
4228.683841,-9178.553681,296.082377,0.000000
4228.684171,-9474.636058,962.267725,-536.266849
4228.684500,-10510.924376,222.061783,-612.876398
4228.684830,-9918.759623,1332.370696,-536.266849
4228.685160,-8290.306550,370.102971,0.000000
4228.685490,-9252.574275,592.164754,459.657299
4228.685819,-10807.006753,1406.391290,459.657299
4228.686149,-11621.233289,296.082377,306.438199
4228.686479,-9770.718434,666.185348,-919.314598
4228.686809,-8068.244768,0.000000,-612.876398
4228.687138,-9696.697840,888.247130,0.000000
4228.687468,-10807.006753,740.205942,842.705048
4228.687798,-10510.924376,444.123565,842.705048
4228.688128,-8660.409521,-148.041188,383.047749
4228.688457,-9474.636058,518.144159,76.609550
4228.688787,-9992.780217,370.102971,-306.438199
4228.689117,-8956.491898,-296.082377,383.047749
4228.689447,-9770.718434,370.102971,1072.533697
4228.689776,-10732.986159,518.144159,1378.971896
4228.690106,-10732.986159,740.205942,536.266849
4228.690436,-9400.615463,296.082377,-689.485948
4228.690765,-9400.615463,888.247130,-1072.533697
4228.691095,-9918.759623,518.144159,-689.485948
4228.691425,-10510.924376,444.123565,-1685.410096
4228.691755,-9104.533087,0.000000,-766.095498
4228.692084,-8734.430116,-888.247130,612.876398
4228.692414,-9696.697840,0.000000,1608.800546
4228.692744,-9548.656652,-962.267725,1072.533697
4228.693074,-10362.883188,0.000000,306.438199
4228.693403,-9474.636058,-444.123565,-459.657299
4228.693733,-9992.780217,-370.102971,306.438199
4228.694063,-10436.903782,-444.123565,1608.800546
4228.694393,-10807.006753,222.061783,1915.238745
4228.694722,-9918.759623,-666.185348,1991.848295
4228.695052,-8808.450710,-1258.350101,766.095498
4228.695382,-8586.388927,-1036.288319,-306.438199
4228.695711,-9696.697840,-740.205942,-459.657299
4228.696041,-10658.965565,-888.247130,842.705048
4228.696371,-10140.821405,-1480.411884,2145.067394
4228.696701,-9474.636058,-888.247130,2298.286494
4228.697030,-9326.594869,-1702.473667,0.000000
4228.697360,-10066.800811,-962.267725,-536.266849
4228.697690,-10955.047942,-1110.308913,306.438199
4228.698020,-10362.883188,-592.164754,1838.629195
4228.698349,-9622.677246,-814.226536,1991.848295
4228.698679,-10066.800811,-74.020594,842.705048
4228.699009,-10436.903782,-444.123565,459.657299
4228.699339,-9548.656652,-1776.494261,-459.657299
4228.699668,-9104.533087,-962.267725,-842.705048
4228.699998,-8808.450710,-1554.432478,1302.362347
4228.700328,-10436.903782,-666.185348,1838.629195
4228.700657,-10214.842000,-962.267725,1455.581446
4228.700987,-8808.450710,-962.267725,-612.876398
4228.701317,-8660.409521,-592.164754,-995.924147
4228.701647,-10955.047942,-296.082377,-842.705048
4228.701976,-9992.780217,-444.123565,383.047749
4228.702306,-9326.594869,222.061783,459.657299
4228.702636,-9178.553681,222.061783,459.657299
4228.702966,-10955.047942,-740.205942,76.609550
4228.703295,-10584.944971,-370.102971,-842.705048
4228.703625,-9548.656652,-888.247130,-383.047749
4228.703955,-9918.759623,370.102971,459.657299
4228.704285,-9474.636058,148.041188,306.438199
4228.704614,-9918.759623,1480.411884,76.609550
4228.704944,-9030.512492,962.267725,-1072.533697
4228.705274,-10140.821405,740.205942,-2451.505594
4228.705603,-10955.047942,1554.432478,-1915.238745
4228.705933,-10807.006753,1110.308913,-306.438199
4228.706263,-10362.883188,1480.411884,229.828649
4228.706593,-8586.388927,370.102971,-689.485948
4228.706922,-9474.636058,888.247130,-1685.410096
4228.707252,-9474.636058,666.185348,-1072.533697
4228.707582,-9770.718434,814.226536,76.609550
4228.707912,-9252.574275,518.144159,1685.410096
4228.708241,-9400.615463,1406.391290,1608.800546
4228.708571,-9844.739029,1332.370696,1302.362347
4228.708901,-10807.006753,1184.329507,383.047749
4228.709231,-10436.903782,1184.329507,0.000000
4228.709560,-10362.883188,740.205942,76.609550
4228.709890,-9622.677246,1924.535449,459.657299
4228.710220,-8882.471304,666.185348,919.314598
4228.710550,-9696.697840,1924.535449,76.609550
4228.710879,-9844.739029,370.102971,0.000000
4228.711209,-9770.718434,888.247130,-919.314598
4228.711539,-8808.450710,666.185348,-1225.752797
4228.711868,-9178.553681,444.123565,-995.924147
4228.712198,-9770.718434,148.041188,1532.190996
4228.712528,-9770.718434,666.185348,2681.334243
4228.712858,-9474.636058,518.144159,612.876398
4228.713187,-9918.759623,370.102971,-766.095498
4228.713517,-10214.842000,888.247130,76.609550
4228.713847,-10362.883188,296.082377,612.876398
4228.714177,-9326.594869,444.123565,306.438199
4228.714506,-9178.553681,740.205942,612.876398
4228.714836,-9770.718434,518.144159,-383.047749
4228.715166,-9696.697840,0.000000,-1302.362347
4228.715496,-9696.697840,148.041188,-1838.629195
4228.715825,-9030.512492,0.000000,-229.828649
4228.716155,-9622.677246,0.000000,536.266849
4228.716485,-8882.471304,-222.061783,1915.238745
4228.716814,-10881.027347,-148.041188,2298.286494
4228.717144,-11695.253884,0.000000,1225.752797
4228.717474,-10955.047942,-296.082377,766.095498
4228.717804,-9696.697840,0.000000,0.000000
4228.718133,-9548.656652,-592.164754,459.657299
4228.718463,-10732.986159,222.061783,1608.800546
4228.718793,-10362.883188,-518.144159,1225.752797
4228.719123,-10436.903782,222.061783,536.266849
4228.719452,-9326.594869,-518.144159,-536.266849
4228.719782,-10214.842000,-814.226536,-612.876398
4228.720112,-10955.047942,-1036.288319,-689.485948
4228.720442,-9844.739029,-888.247130,1302.362347
4228.720771,-8956.491898,-1480.411884,1608.800546
4228.721101,-9548.656652,-666.185348,1302.362347
4228.721431,-10362.883188,-1110.308913,689.485948
4228.721760,-9918.759623,-740.205942,-306.438199
4228.722090,-9770.718434,-148.041188,-612.876398
4228.722420,-9400.615463,-814.226536,76.609550
4228.722750,-9696.697840,-518.144159,1378.971896
4228.723079,-8956.491898,-592.164754,2145.067394
4228.723409,-8882.471304,-962.267725,919.314598
4228.723739,-9178.553681,-666.185348,-689.485948
4228.724069,-8660.409521,-814.226536,-1915.238745
4228.724398,-9178.553681,-222.061783,-1072.533697
4228.724728,-9178.553681,-666.185348,0.000000
4228.725058,-10066.800811,222.061783,1608.800546
4228.725388,-9400.615463,0.000000,229.828649
4228.725717,-10288.862594,444.123565,-919.314598
4228.726047,-10288.862594,740.205942,-2068.457845
4228.726377,-10658.965565,296.082377,-1608.800546
4228.726706,-9696.697840,814.226536,-995.924147
4228.727036,-8956.491898,0.000000,1072.533697
4228.727366,-9400.615463,0.000000,2145.067394
4228.727696,-9252.574275,-888.247130,1991.848295
4228.728025,-9548.656652,-370.102971,306.438199
4228.728355,-9400.615463,-1332.370696,0.000000
4228.728685,-10214.842000,-222.061783,459.657299
4228.729015,-9918.759623,-592.164754,1991.848295
4228.729344,-10436.903782,444.123565,2604.724693
4228.729674,-10140.821405,740.205942,1225.752797
4228.730004,-10066.800811,370.102971,-229.828649
4228.730334,-10288.862594,1480.411884,-766.095498
4228.730663,-10732.986159,814.226536,-76.609550
4228.730993,-11399.171507,1110.308913,229.828649
4228.731323,-10140.821405,0.000000,689.485948
4228.731652,-9770.718434,74.020594,459.657299
4228.731982,-9030.512492,-1110.308913,306.438199
4228.732312,-9030.512492,-148.041188,153.219100
4228.732642,-8734.430116,0.000000,153.219100
4228.732971,-9400.615463,148.041188,0.000000
4228.733301,-8734.430116,296.082377,306.438199
4228.733631,-9474.636058,814.226536,842.705048
4228.733961,-10658.965565,1554.432478,919.314598
4228.734290,-11843.295072,814.226536,0.000000
4228.734620,-10214.842000,74.020594,-919.314598
4228.734950,-8808.450710,-296.082377,-1149.143247
4228.735280,-9400.615463,0.000000,-612.876398
4228.735609,-8290.306550,-1258.350101,0.000000
4228.735939,-7920.203579,-296.082377,229.828649
4228.736269,-7698.141797,0.000000,-689.485948
4228.736599,-9548.656652,370.102971,-1072.533697
4228.736928,-10288.862594,148.041188,-153.219100
4228.737258,-10140.821405,148.041188,689.485948
4228.737588,-9474.636058,814.226536,1149.143247
4228.737917,-10214.842000,888.247130,766.095498
4228.738247,-11547.212695,666.185348,536.266849
4228.738577,-11103.089130,222.061783,306.438199
4228.738907,-10288.862594,814.226536,-919.314598
4228.739236,-10066.800811,370.102971,-1225.752797
4228.739566,-10807.006753,518.144159,0.000000
4228.739896,-9400.615463,444.123565,1455.581446
4228.740225,-9400.615463,444.123565,1072.533697
4228.740555,-9696.697840,888.247130,919.314598
4228.740885,-10584.944971,148.041188,612.876398
4228.741214,-11177.109724,1036.288319,0.000000
4228.741544,-10436.903782,222.061783,306.438199
4228.741874,-10732.986159,148.041188,1685.410096
4228.742203,-9770.718434,0.000000,2987.772442
4228.742533,-9696.697840,-74.020594,2298.286494
4228.742863,-8512.368333,-888.247130,919.314598
4228.743193,-8290.306550,-740.205942,0.000000
4228.743522,-9104.533087,-222.061783,612.876398
4228.743852,-9474.636058,-296.082377,1072.533697
4228.744182,-8956.491898,-592.164754,0.000000
4228.744511,-9030.512492,-740.205942,0.000000
4228.744841,-9474.636058,74.020594,-229.828649
4228.745171,-10140.821405,0.000000,-536.266849
4228.745500,-9252.574275,0.000000,-766.095498
4228.745830,-8290.306550,222.061783,0.000000
4228.746160,-8882.471304,740.205942,842.705048
4228.746490,-9844.739029,370.102971,919.314598
4228.746819,-10362.883188,740.205942,-995.924147
4228.747149,-9104.533087,-444.123565,-1302.362347
4228.747479,-9326.594869,-444.123565,-1608.800546
4228.747808,-9474.636058,-1110.308913,-459.657299
4228.748138,-9104.533087,-888.247130,1302.362347
4228.748468,-9030.512492,0.000000,919.314598
4228.748797,-9770.718434,-148.041188,612.876398
4228.749127,-10955.047942,962.267725,229.828649
4228.749457,-11103.089130,148.041188,-689.485948
4228.749787,-11547.212695,962.267725,153.219100
4228.750116,-11029.068536,222.061783,1838.629195
4228.750446,-11029.068536,-518.144159,1149.143247
4228.750776,-9474.636058,-888.247130,76.609550
4228.751105,-8512.368333,-740.205942,-1225.752797
4228.751435,-9104.533087,-1036.288319,-1149.143247
4228.751765,-9326.594869,-444.123565,919.314598
4228.752094,-10288.862594,-444.123565,2451.505594
4228.752424,-9770.718434,0.000000,2145.067394
4228.752754,-10658.965565,296.082377,919.314598
4228.753083,-11769.274478,-370.102971,842.705048
4228.753413,-11843.295072,148.041188,612.876398
4228.753743,-11547.212695,-888.247130,459.657299
4228.754073,-9474.636058,-814.226536,1378.971896
4228.754402,-7994.224174,-814.226536,1225.752797
4228.754732,-8364.327145,-1110.308913,689.485948
4228.755062,-8438.347739,-962.267725,-689.485948
4228.755391,-8290.306550,-1332.370696,-1302.362347
4228.755721,-9326.594869,-888.247130,-1149.143247
4228.756051,-9178.553681,-740.205942,383.047749
4228.756380,-9696.697840,-296.082377,1225.752797
4228.756710,-9844.739029,0.000000,689.485948
4228.757040,-10066.800811,0.000000,-306.438199
4228.757370,-9030.512492,370.102971,-1302.362347
4228.757699,-9252.574275,370.102971,-1378.971896
4228.758029,-10066.800811,592.164754,-766.095498
4228.758359,-9548.656652,888.247130,153.219100
4228.758688,-9548.656652,1184.329507,306.438199
4228.759018,-10510.924376,888.247130,-1225.752797
4228.759348,-10510.924376,592.164754,-1915.238745
4228.759677,-8438.347739,666.185348,-1302.362347
4228.760007,-7994.224174,1406.391290,-1149.143247
4228.760337,-8808.450710,1480.411884,153.219100
4228.760667,-10362.883188,1702.473667,842.705048
4228.760996,-11325.150913,2072.576638,76.609550
4228.761326,-11769.274478,1924.535449,-383.047749
4228.761656,-11103.089130,1184.329507,-995.924147
4228.761985,-10140.821405,740.205942,-306.438199
4228.762315,-9400.615463,1036.288319,306.438199
4228.762645,-9252.574275,592.164754,1302.362347
4228.762974,-9400.615463,888.247130,1225.752797
4228.763304,-9844.739029,222.061783,689.485948
4228.763634,-9400.615463,370.102971,-229.828649
4228.763964,-9770.718434,370.102971,229.828649
4228.764293,-11029.068536,814.226536,766.095498
4228.764623,-9622.677246,-148.041188,995.924147
4228.764953,-9474.636058,444.123565,1302.362347
4228.765282,-9474.636058,518.144159,842.705048
4228.765612,-10510.924376,740.205942,766.095498
4228.765942,-9992.780217,518.144159,-383.047749
4228.766271,-9326.594869,518.144159,229.828649
4228.766601,-9770.718434,148.041188,612.876398
4228.766931,-9400.615463,-444.123565,842.705048
4228.767260,-9474.636058,-518.144159,995.924147
4228.767590,-8734.430116,-592.164754,1685.410096
4228.767920,-7550.100608,-222.061783,306.438199
4228.768250,-9104.533087,0.000000,-459.657299
4228.768579,-11325.150913,888.247130,-995.924147
4228.768909,-10955.047942,444.123565,-842.705048
4228.769239,-10362.883188,592.164754,-1915.238745
4228.769568,-10066.800811,1110.308913,-1455.581446
4228.769898,-10288.862594,74.020594,0.000000
4228.770228,-10140.821405,296.082377,766.095498
4228.770557,-8734.430116,-518.144159,0.000000
4228.770887,-9696.697840,444.123565,-689.485948
4228.771217,-9474.636058,-518.144159,536.266849
4228.771547,-10510.924376,-1332.370696,536.266849
4228.771876,-10140.821405,-814.226536,689.485948
4228.772206,-9548.656652,-888.247130,1608.800546
4228.772536,-9918.759623,-666.185348,1532.190996
4228.772865,-9622.677246,-740.205942,1149.143247
4228.773195,-9548.656652,-444.123565,612.876398
4228.773525,-10288.862594,-370.102971,1072.533697
4228.773854,-10732.986159,518.144159,1302.362347
4228.774184,-11029.068536,-370.102971,1149.143247
4228.774514,-11029.068536,0.000000,612.876398
4228.774844,-10140.821405,-888.247130,383.047749
4228.775173,-9474.636058,-740.205942,-306.438199
4228.775503,-8660.409521,-666.185348,-153.219100
4228.775833,-8956.491898,-1406.391290,459.657299
4228.776162,-9252.574275,-296.082377,689.485948
4228.776492,-9030.512492,-296.082377,1072.533697
4228.776822,-10288.862594,-148.041188,842.705048
4228.777151,-10732.986159,0.000000,76.609550
4228.777481,-10584.944971,-222.061783,-1072.533697
4228.777811,-10510.924376,-592.164754,-306.438199
4228.778141,-10140.821405,-296.082377,842.705048
4228.778470,-9030.512492,-592.164754,1302.362347
4228.778800,-9178.553681,0.000000,1685.410096
4228.779130,-9030.512492,0.000000,0.000000
4228.779459,-9326.594869,-370.102971,-1302.362347
4228.779789,-9770.718434,0.000000,-1991.848295
4228.780119,-9844.739029,-148.041188,-1225.752797
4228.780448,-9696.697840,370.102971,229.828649
4228.780778,-9104.533087,148.041188,689.485948
4228.781108,-9252.574275,888.247130,-689.485948
4228.781437,-9474.636058,518.144159,-1991.848295
4228.781767,-9696.697840,444.123565,-2068.457845
4228.782097,-9252.574275,222.061783,-306.438199
4228.782427,-9696.697840,592.164754,2221.676944
4228.782756,-10807.006753,666.185348,2068.457845
4228.783086,-10288.862594,-370.102971,612.876398
4228.783416,-9770.718434,222.061783,-153.219100
4228.783745,-9252.574275,-222.061783,-153.219100
4228.784075,-9770.718434,148.041188,229.828649
4228.784405,-9326.594869,-74.020594,1455.581446
4228.784734,-8438.347739,1258.350101,1838.629195
4228.785064,-9178.553681,814.226536,1378.971896
4228.785394,-11029.068536,1184.329507,-1225.752797
4228.785724,-11547.212695,962.267725,-1838.629195
4228.786053,-10510.924376,740.205942,-1149.143247
4228.786383,-9548.656652,592.164754,0.000000
4228.786713,-8734.430116,222.061783,1608.800546
4228.787042,-9696.697840,444.123565,1608.800546
4228.787372,-10066.800811,444.123565,459.657299
4228.787702,-9844.739029,148.041188,-919.314598
4228.788031,-9474.636058,296.082377,-1302.362347
4228.788361,-10584.944971,666.185348,1302.362347
4228.788691,-10288.862594,666.185348,2757.943793
4228.789021,-10436.903782,740.205942,1838.629195
4228.789350,-10140.821405,1036.288319,0.000000
4228.789680,-10584.944971,740.205942,-1225.752797
4228.790010,-10584.944971,1184.329507,-1225.752797
4228.790339,-9622.677246,592.164754,-766.095498
4228.790669,-9474.636058,666.185348,-76.609550
4228.790999,-8438.347739,370.102971,0.000000
4228.791328,-9178.553681,296.082377,-459.657299
4228.791658,-10214.842000,296.082377,-1455.581446
4228.791988,-10140.821405,74.020594,-1915.238745
4228.792318,-9030.512492,74.020594,-1149.143247
4228.792647,-9326.594869,888.247130,842.705048
4228.792977,-10214.842000,518.144159,1838.629195
4228.793307,-10140.821405,444.123565,766.095498
4228.793636,-9918.759623,592.164754,-689.485948
4228.793966,-9918.759623,222.061783,-1072.533697
4228.794296,-9918.759623,0.000000,0.000000
4228.794625,-10658.965565,-444.123565,1838.629195
4228.794955,-9178.553681,0.000000,1302.362347
4228.795285,-7476.080014,-740.205942,612.876398
4228.795614,-8808.450710,-296.082377,-1225.752797
4228.795944,-9770.718434,-296.082377,-1378.971896
4228.796274,-10362.883188,-666.185348,0.000000
