#time,accel_x,accel_y,accel_z
3868.532405,-7179.997637,1480.411884,2374.896044
3868.532735,-10288.862594,1110.308913,459.657299
3868.533064,-11251.130318,1480.411884,383.047749
3868.533394,-11547.212695,1036.288319,1762.019645
3868.533724,-11695.253884,1480.411884,2681.334243
3868.534054,-12065.356855,444.123565,2911.162892
3868.534383,-11325.150913,-296.082377,2374.896044
3868.534713,-9992.780217,0.000000,2068.457845
3868.535043,-8512.368333,0.000000,2604.724693
3868.535372,-8216.285956,888.247130,3524.039291
3868.535702,-8734.430116,888.247130,3294.210641
3868.536032,-8808.450710,1924.535449,1685.410096
3868.536362,-9474.636058,1628.453072,-995.924147
3868.536691,-9844.739029,1406.391290,-2987.772442
3868.537021,-10658.965565,370.102971,-2757.943793
3868.537351,-10140.821405,-296.082377,-2221.676944
3868.537680,-9548.656652,-1110.308913,-612.876398
3868.538010,-9622.677246,-1406.391290,1608.800546
3868.538340,-9252.574275,-962.267725,2145.067394
3868.538670,-8512.368333,-888.247130,1378.971896
3868.538999,-9326.594869,-148.041188,459.657299
3868.539329,-10436.903782,296.082377,306.438199
3868.539659,-10288.862594,1110.308913,612.876398
3868.539988,-9548.656652,1110.308913,229.828649
3868.540318,-10140.821405,1258.350101,-1378.971896
3868.540648,-11177.109724,1110.308913,-3140.991542
3868.540978,-10955.047942,444.123565,-3370.820191
3868.541307,-9622.677246,-296.082377,-3064.381992
3868.541637,-8882.471304,-962.267725,-1225.752797
3868.541967,-9104.533087,-1036.288319,459.657299
3868.542296,-9474.636058,-888.247130,2451.505594
3868.542626,-8660.409521,-592.164754,2604.724693
3868.542956,-8512.368333,-518.144159,919.314598
3868.543286,-9474.636058,74.020594,919.314598
3868.543615,-11029.068536,370.102971,766.095498
3868.543945,-11769.274478,962.267725,842.705048
3868.544275,-10658.965565,518.144159,0.000000
3868.544604,-10362.883188,222.061783,76.609550
3868.544934,-10066.800811,-296.082377,-1225.752797
3868.545264,-9252.574275,-518.144159,-1838.629195
3868.545594,-8808.450710,-1110.308913,-766.095498
3868.545923,-8438.347739,-740.205942,459.657299
3868.546253,-8364.327145,-296.082377,1762.019645
3868.546583,-8438.347739,518.144159,153.219100
3868.546912,-9548.656652,296.082377,612.876398
3868.547242,-10955.047942,592.164754,229.828649
3868.547572,-11103.089130,370.102971,229.828649
3868.547902,-10658.965565,370.102971,229.828649
3868.548231,-10214.842000,148.041188,536.266849
3868.548561,-10584.944971,0.000000,1072.533697
3868.548891,-10140.821405,-296.082377,919.314598
3868.549220,-9400.615463,-592.164754,842.705048
3868.549550,-7994.224174,-222.061783,0.000000
3868.549880,-8438.347739,-74.020594,689.485948
3868.550210,-9252.574275,518.144159,1149.143247
3868.550539,-9992.780217,444.123565,689.485948
3868.550869,-9770.718434,1110.308913,-229.828649
3868.551199,-10658.965565,888.247130,-383.047749
3868.551528,-11029.068536,592.164754,-536.266849
3868.551858,-11029.068536,296.082377,0.000000
3868.552188,-10436.903782,0.000000,842.705048
3868.552518,-9844.739029,-370.102971,1225.752797
3868.552847,-9104.533087,-666.185348,1685.410096
3868.553177,-8586.388927,-666.185348,995.924147
3868.553507,-8660.409521,-370.102971,612.876398
3868.553836,-9104.533087,0.000000,766.095498
3868.554166,-9178.553681,0.000000,612.876398
3868.554496,-9326.594869,370.102971,536.266849
3868.554826,-9992.780217,222.061783,459.657299
3868.555155,-11103.089130,444.123565,-842.705048
3868.555485,-10807.006753,222.061783,-383.047749
3868.555815,-10140.821405,0.000000,-612.876398
3868.556144,-9548.656652,0.000000,-612.876398
3868.556474,-9252.574275,0.000000,153.219100
3868.556804,-9400.615463,-148.041188,612.876398
3868.557134,-9252.574275,-148.041188,153.219100
3868.557463,-8882.471304,0.000000,0.000000
3868.557793,-9030.512492,-296.082377,-612.876398
3868.558123,-10066.800811,148.041188,-306.438199
3868.558452,-10362.883188,74.020594,-766.095498
3868.558782,-9770.718434,0.000000,-612.876398
3868.559112,-10066.800811,-370.102971,0.000000
3868.559442,-10140.821405,222.061783,-383.047749
3868.559771,-10140.821405,-74.020594,0.000000
3868.560101,-10288.862594,74.020594,0.000000
3868.560431,-10066.800811,222.061783,229.828649
3868.560760,-10066.800811,518.144159,383.047749
3868.561090,-9696.697840,222.061783,842.705048
3868.561420,-10066.800811,148.041188,306.438199
3868.561750,-10140.821405,74.020594,-229.828649
3868.562079,-10140.821405,74.020594,-689.485948
3868.562409,-9622.677246,0.000000,-612.876398
3868.562739,-10066.800811,-148.041188,0.000000
3868.563068,-9770.718434,-518.144159,842.705048
3868.563398,-9770.718434,-222.061783,1378.971896
3868.563728,-9474.636058,0.000000,1455.581446
3868.564058,-9326.594869,-222.061783,919.314598
3868.564387,-9622.677246,-444.123565,383.047749
3868.564717,-9992.780217,0.000000,689.485948
3868.565047,-9400.615463,0.000000,76.609550
3868.565376,-9474.636058,74.020594,536.266849
3868.565706,-9548.656652,74.020594,383.047749
3868.566036,-9696.697840,-222.061783,0.000000
3868.566366,-9622.677246,74.020594,0.000000
3868.566695,-9400.615463,0.000000,306.438199
3868.567025,-9474.636058,0.000000,383.047749
3868.567355,-9696.697840,148.041188,995.924147
3868.567684,-9696.697840,370.102971,1072.533697
3868.568014,-9918.759623,444.123565,689.485948
3868.568344,-9992.780217,592.164754,306.438199
3868.568674,-9844.739029,74.020594,0.000000
3868.569003,-10436.903782,370.102971,153.219100
3868.569333,-9918.759623,370.102971,0.000000
3868.569663,-9548.656652,0.000000,229.828649
3868.569992,-9326.594869,0.000000,229.828649
3868.570322,-9474.636058,0.000000,229.828649
3868.570652,-9326.594869,592.164754,0.000000
3868.570982,-9622.677246,74.020594,0.000000
3868.571311,-10066.800811,370.102971,306.438199
3868.571641,-10436.903782,666.185348,383.047749
3868.571971,-10288.862594,592.164754,229.828649
3868.572300,-10510.924376,666.185348,0.000000
3868.572630,-10807.006753,444.123565,0.000000
3868.572977,-10066.800811,0.000000,-153.219100
3868.573307,-9622.677246,-296.082377,-76.609550
3868.573637,-8956.491898,0.000000,0.000000
3868.573966,-8956.491898,-444.123565,306.438199
3868.574296,-9030.512492,-370.102971,229.828649
3868.574626,-9474.636058,-296.082377,383.047749
3868.574956,-9400.615463,-370.102971,76.609550
3868.575285,-9918.759623,222.061783,76.609550
3868.575615,-9918.759623,296.082377,306.438199
3868.575945,-10066.800811,74.020594,306.438199
3868.576275,-9918.759623,0.000000,0.000000
3868.576605,-9918.759623,0.000000,153.219100
3868.576934,-9696.697840,0.000000,0.000000
3868.577264,-9696.697840,-148.041188,0.000000
3868.577594,-9252.574275,-74.020594,0.000000
3868.577924,-9178.553681,-148.041188,153.219100
3868.578254,-9474.636058,74.020594,306.438199
3868.578583,-9474.636058,0.000000,153.219100
3868.578913,-9548.656652,0.000000,306.438199
3868.579243,-9992.780217,592.164754,536.266849
3868.579573,-10066.800811,296.082377,153.219100
3868.579903,-10066.800811,74.020594,689.485948
3868.580232,-10066.800811,0.000000,842.705048
3868.580562,-9844.739029,0.000000,689.485948
3868.580892,-9696.697840,0.000000,306.438199
3868.581222,-9770.718434,0.000000,536.266849
3868.581552,-9696.697840,370.102971,306.438199
3868.581881,-9622.677246,222.061783,0.000000
3868.582211,-9696.697840,296.082377,306.438199
3868.582541,-9918.759623,296.082377,0.000000
3868.582871,-10066.800811,370.102971,-76.609550
3868.583201,-9992.780217,518.144159,0.000000
3868.583530,-10214.842000,666.185348,306.438199
3868.583860,-9696.697840,0.000000,459.657299
3868.584190,-9548.656652,-148.041188,536.266849
3868.584520,-9400.615463,-222.061783,919.314598
3868.584850,-9474.636058,0.000000,1149.143247
3868.585179,-9326.594869,0.000000,612.876398
3868.585509,-9326.594869,0.000000,76.609550
3868.585839,-9400.615463,0.000000,76.609550
3868.586169,-9770.718434,370.102971,-76.609550
3868.586499,-9918.759623,296.082377,76.609550
3868.586828,-10288.862594,222.061783,306.438199
3868.587158,-9770.718434,0.000000,0.000000
3868.587488,-9474.636058,0.000000,153.219100
3868.587818,-9178.553681,0.000000,153.219100
3868.588148,-9770.718434,0.000000,76.609550
3868.588477,-9548.656652,-222.061783,229.828649
3868.588807,-9844.739029,148.041188,459.657299
3868.589137,-9696.697840,0.000000,689.485948
3868.589467,-9548.656652,0.000000,612.876398
3868.589797,-9770.718434,148.041188,153.219100
3868.590126,-9992.780217,148.041188,229.828649
3868.590456,-9992.780217,0.000000,0.000000
3868.590786,-9622.677246,0.000000,689.485948
3868.591116,-9696.697840,-370.102971,1149.143247
3868.591446,-9918.759623,-74.020594,1455.581446
3868.591775,-9918.759623,0.000000,459.657299
3868.592105,-9918.759623,370.102971,0.000000
3868.592435,-9992.780217,222.061783,-612.876398
3868.592765,-9696.697840,222.061783,-689.485948
3868.593095,-9918.759623,370.102971,229.828649
3868.593424,-10362.883188,592.164754,689.485948
3868.593754,-9770.718434,0.000000,76.609550
3868.594084,-9622.677246,-148.041188,0.000000
3868.594414,-9548.656652,-592.164754,76.609550
3868.594744,-9548.656652,0.000000,383.047749
3868.595073,-9326.594869,-444.123565,306.438199
3868.595403,-9252.574275,-592.164754,459.657299
3868.595733,-9770.718434,0.000000,383.047749
3868.596063,-9844.739029,148.041188,153.219100
3868.596393,-9992.780217,444.123565,0.000000
3868.596722,-10140.821405,296.082377,-76.609550
3868.597052,-10140.821405,370.102971,153.219100
3868.597382,-9918.759623,148.041188,612.876398
3868.597712,-9770.718434,296.082377,-612.876398
3868.598042,-9844.739029,222.061783,0.000000
3868.598371,-9770.718434,0.000000,-383.047749
3868.598701,-9696.697840,148.041188,76.609550
3868.599031,-9844.739029,888.247130,459.657299
3868.599361,-9696.697840,518.144159,153.219100
3868.599691,-9770.718434,814.226536,1149.143247
3868.600020,-10066.800811,444.123565,1149.143247
3868.600350,-10288.862594,222.061783,842.705048
3868.600680,-9844.739029,74.020594,459.657299
3868.601010,-9918.759623,148.041188,76.609550
3868.601340,-9326.594869,0.000000,153.219100
3868.601669,-9548.656652,0.000000,459.657299
3868.601999,-9548.656652,148.041188,689.485948
3868.602329,-9918.759623,74.020594,306.438199
3868.602659,-9770.718434,444.123565,0.000000
3868.602989,-9400.615463,0.000000,153.219100
3868.603318,-9622.677246,74.020594,459.657299
3868.603648,-9548.656652,-222.061783,153.219100
3868.603978,-9548.656652,-296.082377,306.438199
3868.604308,-9474.636058,-444.123565,153.219100
3868.604638,-9622.677246,-296.082377,153.219100
3868.604967,-9622.677246,0.000000,459.657299
3868.605297,-9992.780217,222.061783,306.438199
3868.605627,-10066.800811,148.041188,153.219100
3868.605957,-9844.739029,222.061783,153.219100
3868.606287,-9696.697840,-148.041188,459.657299
3868.606616,-9548.656652,0.000000,459.657299
3868.606946,-9548.656652,-148.041188,229.828649
3868.607276,-9548.656652,-370.102971,0.000000
3868.607606,-9622.677246,0.000000,153.219100
3868.607936,-9622.677246,0.000000,229.828649
3868.608265,-9992.780217,148.041188,306.438199
3868.608595,-10436.903782,296.082377,459.657299
3868.608925,-10362.883188,592.164754,1225.752797
3868.609255,-10214.842000,518.144159,459.657299
3868.609585,-9770.718434,0.000000,383.047749
3868.609914,-9844.739029,0.000000,153.219100
3868.610244,-9992.780217,0.000000,689.485948
3868.610574,-9844.739029,0.000000,383.047749
3868.610904,-9696.697840,0.000000,0.000000
3868.611234,-9326.594869,0.000000,-229.828649
3868.611563,-9474.636058,0.000000,-383.047749
3868.611893,-9622.677246,370.102971,76.609550
3868.612223,-9918.759623,148.041188,383.047749
3868.612553,-9918.759623,148.041188,306.438199
3868.612883,-10140.821405,222.061783,459.657299
3868.613212,-10066.800811,0.000000,229.828649
3868.613542,-9696.697840,0.000000,383.047749
3868.613872,-9474.636058,-74.020594,76.609550
3868.614202,-10066.800811,0.000000,0.000000
3868.614532,-9844.739029,296.082377,536.266849
3868.614861,-9770.718434,148.041188,306.438199
3868.615191,-9696.697840,74.020594,0.000000
3868.615521,-9696.697840,222.061783,153.219100
3868.615851,-9918.759623,74.020594,76.609550
3868.616181,-9918.759623,0.000000,995.924147
3868.616510,-9918.759623,0.000000,689.485948
3868.616840,-9918.759623,0.000000,306.438199
3868.617170,-9622.677246,0.000000,306.438199
3868.617500,-9992.780217,0.000000,306.438199
3868.617830,-10140.821405,74.020594,689.485948
3868.618159,-9918.759623,370.102971,459.657299
3868.618489,-9844.739029,222.061783,153.219100
3868.618819,-10066.800811,370.102971,153.219100
3868.619149,-9918.759623,296.082377,0.000000
3868.619479,-9770.718434,74.020594,0.000000
3868.619808,-9918.759623,148.041188,0.000000
3868.620138,-9696.697840,0.000000,536.266849
3868.620468,-9474.636058,-222.061783,76.609550
3868.620798,-9548.656652,-74.020594,153.219100
3868.621128,-10066.800811,148.041188,0.000000
3868.621457,-10066.800811,0.000000,306.438199
3868.621787,-9844.739029,0.000000,383.047749
3868.622117,-9918.759623,0.000000,766.095498
3868.622447,-10066.800811,148.041188,306.438199
3868.622776,-9622.677246,148.041188,0.000000
3868.623106,-9474.636058,-222.061783,0.000000
3868.623436,-9326.594869,0.000000,-306.438199
3868.623766,-9696.697840,-148.041188,-383.047749
3868.624096,-9622.677246,0.000000,153.219100
3868.624425,-9770.718434,148.041188,306.438199
3868.624755,-9400.615463,-148.041188,612.876398
3868.625085,-9474.636058,-148.041188,536.266849
3868.625415,-9696.697840,-74.020594,1378.971896
3868.625745,-10066.800811,0.000000,1532.190996
3868.626074,-9696.697840,-370.102971,995.924147
3868.626404,-9992.780217,74.020594,306.438199
3868.626734,-9844.739029,370.102971,76.609550
3868.627064,-9770.718434,74.020594,-459.657299
3868.627394,-9622.677246,222.061783,459.657299
3868.627723,-9696.697840,296.082377,306.438199
3868.628053,-9474.636058,148.041188,229.828649
3868.628383,-9474.636058,0.000000,76.609550
3868.628713,-9474.636058,-444.123565,-76.609550
3868.629043,-9474.636058,-222.061783,-229.828649
3868.629372,-9326.594869,-370.102971,0.000000
3868.629702,-9326.594869,-444.123565,383.047749
3868.630032,-9844.739029,0.000000,306.438199
3868.630362,-9918.759623,222.061783,536.266849
3868.630692,-10140.821405,592.164754,459.657299
3868.631021,-10510.924376,444.123565,76.609550
3868.631351,-10510.924376,666.185348,-76.609550
3868.631681,-9992.780217,222.061783,612.876398
3868.632011,-9770.718434,296.082377,0.000000
3868.632341,-9548.656652,0.000000,229.828649
3868.632670,-9548.656652,74.020594,0.000000
3868.633000,-9474.636058,0.000000,-383.047749
3868.633330,-9548.656652,0.000000,-612.876398
3868.633660,-9844.739029,444.123565,76.609550
3868.633990,-9918.759623,74.020594,306.438199
3868.634319,-9992.780217,222.061783,459.657299
3868.634649,-9844.739029,148.041188,383.047749
3868.634979,-9770.718434,74.020594,153.219100
3868.635309,-10140.821405,0.000000,536.266849
3868.635639,-10362.883188,0.000000,689.485948
3868.635968,-9844.739029,-370.102971,229.828649
3868.636298,-9400.615463,-222.061783,1225.752797
3868.636628,-9696.697840,0.000000,1378.971896
3868.636958,-10066.800811,0.000000,459.657299
3868.637288,-9844.739029,0.000000,-842.705048
3868.637617,-9622.677246,370.102971,-995.924147
3868.637947,-9696.697840,222.061783,-612.876398
3868.638277,-9918.759623,148.041188,153.219100
3868.638607,-9844.739029,74.020594,383.047749
3868.638937,-9918.759623,0.000000,383.047749
3868.639266,-9474.636058,-592.164754,76.609550
3868.639596,-9400.615463,-888.247130,689.485948
3868.639926,-9622.677246,-740.205942,1072.533697
3868.640256,-9474.636058,-592.164754,459.657299
3868.640586,-9030.512492,-518.144159,612.876398
3868.640915,-9474.636058,0.000000,459.657299
3868.641245,-10066.800811,444.123565,153.219100
3868.641575,-9844.739029,444.123565,0.000000
3868.641905,-10214.842000,518.144159,0.000000
3868.642235,-10436.903782,592.164754,-153.219100
3868.642564,-10214.842000,74.020594,0.000000
3868.642894,-9548.656652,-222.061783,0.000000
3868.643224,-9696.697840,0.000000,76.609550
3868.643554,-9622.677246,-74.020594,76.609550
3868.643884,-9548.656652,-148.041188,-153.219100
3868.644213,-9400.615463,0.000000,0.000000
3868.644543,-9474.636058,0.000000,76.609550
3868.644873,-9844.739029,370.102971,919.314598
3868.645203,-10140.821405,222.061783,1072.533697
3868.645533,-10066.800811,222.061783,459.657299
3868.645862,-9696.697840,444.123565,0.000000
3868.646192,-10214.842000,148.041188,306.438199
3868.646522,-10214.842000,0.000000,612.876398
3868.646852,-9844.739029,0.000000,612.876398
3868.647182,-9252.574275,0.000000,76.609550
3868.647511,-9474.636058,148.041188,-459.657299
3868.647841,-9696.697840,74.020594,-383.047749
3868.648171,-9844.739029,370.102971,-459.657299
3868.648501,-9474.636058,370.102971,0.000000
3868.648831,-9474.636058,296.082377,153.219100
3868.649160,-9770.718434,0.000000,383.047749
3868.649490,-9992.780217,-74.020594,689.485948
3868.649820,-9844.739029,-296.082377,766.095498
3868.650150,-9770.718434,74.020594,919.314598
3868.650480,-9548.656652,-370.102971,459.657299
3868.650809,-9844.739029,148.041188,459.657299
3868.651139,-9696.697840,0.000000,459.657299
3868.651469,-9104.533087,0.000000,612.876398
3868.651799,-9696.697840,74.020594,76.609550
3868.652129,-9844.739029,148.041188,0.000000
3868.652458,-9696.697840,222.061783,76.609550
3868.652788,-9696.697840,222.061783,0.000000
3868.653118,-9696.697840,0.000000,0.000000
3868.653448,-9622.677246,148.041188,0.000000
3868.653778,-9474.636058,-222.061783,0.000000
3868.654107,-9844.739029,-148.041188,306.438199
3868.654437,-9918.759623,0.000000,1378.971896
3868.654767,-9992.780217,0.000000,689.485948
3868.655097,-9548.656652,0.000000,612.876398
3868.655427,-9696.697840,74.020594,459.657299
3868.655756,-9696.697840,0.000000,766.095498
3868.656086,-9918.759623,0.000000,612.876398
3868.656416,-9918.759623,222.061783,306.438199
3868.656746,-9770.718434,222.061783,0.000000
3868.657076,-9844.739029,74.020594,0.000000
3868.657405,-10066.800811,74.020594,153.219100
3868.657735,-10066.800811,222.061783,0.000000
3868.658065,-9844.739029,0.000000,0.000000
3868.658395,-9622.677246,0.000000,383.047749
3868.658725,-9474.636058,-296.082377,153.219100
3868.659054,-9696.697840,-222.061783,153.219100
3868.659384,-9622.677246,-296.082377,306.438199
3868.659714,-10066.800811,0.000000,612.876398
3868.660044,-9918.759623,222.061783,383.047749
3868.660374,-9844.739029,222.061783,383.047749
3868.660703,-9844.739029,296.082377,229.828649
3868.661033,-10288.862594,148.041188,0.000000
3868.661363,-9622.677246,222.061783,229.828649
3868.661693,-9548.656652,-370.102971,612.876398
3868.662023,-9548.656652,-296.082377,842.705048
3868.662352,-9770.718434,0.000000,1072.533697
3868.662682,-9548.656652,-74.020594,306.438199
3868.663012,-9474.636058,0.000000,0.000000
3868.663342,-9992.780217,148.041188,-842.705048
3868.663672,-10140.821405,592.164754,0.000000
3868.664001,-10584.944971,666.185348,229.828649
3868.664331,-9844.739029,592.164754,0.000000
3868.664661,-9770.718434,148.041188,76.609550
3868.664991,-9474.636058,-296.082377,153.219100
3868.665321,-9696.697840,-444.123565,0.000000
3868.665650,-9326.594869,-222.061783,0.000000
3868.665980,-9104.533087,-740.205942,0.000000
3868.666310,-9326.594869,-148.041188,229.828649
3868.666640,-9992.780217,74.020594,536.266849
3868.666970,-10140.821405,222.061783,153.219100
3868.667299,-10214.842000,518.144159,0.000000
3868.667629,-10732.986159,740.205942,153.219100
3868.667959,-10214.842000,370.102971,612.876398
3868.668289,-9844.739029,296.082377,536.266849
3868.668619,-9918.759623,518.144159,229.828649
3868.668948,-9918.759623,148.041188,0.000000
3868.669278,-9474.636058,0.000000,-536.266849
3868.669608,-9474.636058,-74.020594,-459.657299
3868.669938,-9252.574275,0.000000,536.266849
3868.670267,-9474.636058,74.020594,842.705048
3868.670597,-9844.739029,444.123565,1762.019645
3868.670927,-9992.780217,222.061783,842.705048
3868.671257,-10140.821405,888.247130,766.095498
3868.671587,-10140.821405,0.000000,153.219100
3868.671916,-10288.862594,148.041188,0.000000
3868.672246,-10066.800811,222.061783,0.000000
3868.672576,-9696.697840,0.000000,153.219100
3868.672906,-9474.636058,222.061783,536.266849
3868.673236,-9622.677246,74.020594,459.657299
3868.673565,-9474.636058,-74.020594,0.000000
3868.673895,-9178.553681,0.000000,-766.095498
3868.674225,-8808.450710,-296.082377,0.000000
3868.674555,-9326.594869,0.000000,229.828649
3868.674885,-9400.615463,-74.020594,459.657299
3868.675214,-10288.862594,444.123565,229.828649
3868.675544,-10066.800811,444.123565,153.219100
3868.675874,-10140.821405,0.000000,306.438199
3868.676204,-10436.903782,74.020594,842.705048
3868.676534,-10066.800811,296.082377,612.876398
3868.676863,-9918.759623,222.061783,536.266849
3868.677193,-9548.656652,0.000000,383.047749
3868.677523,-9622.677246,0.000000,0.000000
3868.677853,-9622.677246,0.000000,-459.657299
3868.678182,-9770.718434,0.000000,-689.485948
3868.678512,-9770.718434,518.144159,-995.924147
3868.678842,-9622.677246,518.144159,-229.828649
3868.679172,-9844.739029,296.082377,306.438199
3868.679502,-10362.883188,518.144159,766.095498
3868.679831,-10214.842000,518.144159,459.657299
3868.680161,-9918.759623,-370.102971,383.047749
3868.680491,-9844.739029,-222.061783,766.095498
3868.680821,-9622.677246,0.000000,689.485948
3868.681150,-9696.697840,-222.061783,459.657299
3868.681480,-9622.677246,0.000000,229.828649
3868.681810,-9548.656652,0.000000,0.000000
3868.682140,-9918.759623,148.041188,306.438199
3868.682470,-10066.800811,296.082377,0.000000
3868.682799,-9770.718434,444.123565,-306.438199
3868.683129,-9622.677246,296.082377,153.219100
3868.683459,-9400.615463,0.000000,76.609550
3868.683789,-9622.677246,-444.123565,153.219100
3868.684118,-9696.697840,-222.061783,459.657299
3868.684448,-9992.780217,-444.123565,383.047749
3868.684778,-9696.697840,-74.020594,536.266849
3868.685108,-9770.718434,0.000000,229.828649
3868.685437,-9918.759623,222.061783,229.828649
3868.685767,-9992.780217,0.000000,306.438199
3868.686097,-9548.656652,0.000000,459.657299
3868.686427,-9844.739029,296.082377,536.266849
3868.686757,-9770.718434,0.000000,383.047749
3868.687086,-9696.697840,0.000000,229.828649
3868.687416,-9622.677246,-518.144159,76.609550
3868.687746,-9844.739029,0.000000,153.219100
3868.688076,-9548.656652,74.020594,459.657299
3868.688405,-9844.739029,148.041188,689.485948
3868.688735,-10066.800811,0.000000,459.657299
3868.689065,-9992.780217,0.000000,153.219100
3868.689395,-10066.800811,222.061783,0.000000
3868.689725,-10288.862594,222.061783,383.047749
3868.690054,-9992.780217,0.000000,536.266849
3868.690384,-9770.718434,0.000000,766.095498
3868.690714,-9622.677246,0.000000,1072.533697
3868.691044,-9548.656652,-222.061783,76.609550
3868.691373,-9474.636058,-222.061783,0.000000
3868.691703,-10066.800811,0.000000,306.438199
3868.692033,-9844.739029,0.000000,536.266849
3868.692363,-9474.636058,0.000000,153.219100
3868.692693,-9770.718434,148.041188,229.828649
3868.693022,-9252.574275,222.061783,0.000000
3868.693352,-9770.718434,0.000000,-306.438199
3868.693682,-9770.718434,0.000000,306.438199
3868.694012,-9918.759623,0.000000,383.047749
3868.694341,-9918.759623,148.041188,0.000000
3868.694671,-9400.615463,-148.041188,229.828649
3868.695001,-9844.739029,0.000000,229.828649
3868.695331,-9770.718434,0.000000,153.219100
3868.695661,-9548.656652,-74.020594,76.609550
3868.695990,-9622.677246,0.000000,459.657299
3868.696320,-9918.759623,-296.082377,1149.143247
3868.696650,-10362.883188,0.000000,1149.143247
3868.696980,-9992.780217,296.082377,689.485948
3868.697309,-9770.718434,296.082377,-612.876398
3868.697639,-9770.718434,148.041188,-766.095498
3868.697969,-9770.718434,222.061783,-536.266849
3868.698299,-10140.821405,296.082377,229.828649
3868.698629,-9918.759623,296.082377,459.657299
3868.698958,-9326.594869,-296.082377,153.219100
3868.699288,-9178.553681,-592.164754,306.438199
3868.699618,-9474.636058,-370.102971,-383.047749
3868.699948,-9474.636058,-370.102971,0.000000
3868.700277,-9474.636058,-296.082377,383.047749
3868.700607,-9770.718434,0.000000,689.485948
3868.700937,-9918.759623,518.144159,919.314598
3868.701267,-10140.821405,444.123565,536.266849
3868.701596,-11029.068536,518.144159,-306.438199
3868.701926,-10510.924376,592.164754,0.000000
3868.702256,-10140.821405,148.041188,153.219100
3868.702586,-9696.697840,148.041188,229.828649
3868.702916,-9548.656652,-74.020594,612.876398
3868.703245,-8956.491898,-222.061783,0.000000
3868.703575,-9252.574275,-222.061783,-383.047749
3868.703905,-9474.636058,0.000000,-229.828649
3868.704235,-9622.677246,74.020594,0.000000
3868.704564,-9844.739029,222.061783,536.266849
3868.704894,-10214.842000,222.061783,842.705048
3868.705224,-10510.924376,814.226536,689.485948
3868.705554,-10066.800811,518.144159,0.000000
3868.705884,-10214.842000,444.123565,0.000000
3868.706213,-10066.800811,0.000000,153.219100
3868.706543,-9844.739029,0.000000,153.219100
3868.706873,-9326.594869,-74.020594,689.485948
3868.707203,-9178.553681,296.082377,766.095498
3868.707532,-9770.718434,74.020594,153.219100
3868.707862,-9770.718434,148.041188,0.000000
3868.708192,-9770.718434,296.082377,0.000000
3868.708522,-10066.800811,370.102971,383.047749
3868.708852,-9992.780217,296.082377,383.047749
3868.709181,-10066.800811,370.102971,536.266849
3868.709511,-10066.800811,74.020594,383.047749
3868.709841,-9918.759623,74.020594,0.000000
3868.710171,-9548.656652,-148.041188,229.828649
3868.710500,-9844.739029,0.000000,689.485948
3868.710830,-9622.677246,74.020594,919.314598
3868.711160,-9252.574275,-296.082377,153.219100
3868.711490,-9474.636058,-222.061783,0.000000
3868.711820,-9622.677246,-444.123565,-76.609550
3868.712149,-9770.718434,0.000000,-229.828649
3868.712479,-9622.677246,-296.082377,0.000000
3868.712809,-9844.739029,-444.123565,1149.143247
3868.713139,-10066.800811,0.000000,0.000000
3868.713468,-9992.780217,0.000000,0.000000
3868.713798,-10140.821405,444.123565,153.219100
3868.714128,-10288.862594,148.041188,306.438199
3868.714458,-9548.656652,0.000000,153.219100
3868.714788,-9548.656652,-296.082377,0.000000
3868.715117,-9400.615463,-444.123565,306.438199
3868.715447,-9326.594869,-148.041188,0.000000
3868.715777,-10362.883188,0.000000,229.828649
3868.716107,-9992.780217,0.000000,76.609550
3868.716436,-10140.821405,0.000000,0.000000
3868.716766,-9992.780217,222.061783,383.047749
3868.717096,-9992.780217,444.123565,995.924147
3868.717426,-9770.718434,222.061783,229.828649
3868.717755,-9992.780217,74.020594,153.219100
3868.718085,-9918.759623,222.061783,76.609550
3868.718415,-9696.697840,0.000000,153.219100
3868.718745,-9474.636058,74.020594,0.000000
3868.719075,-9622.677246,74.020594,0.000000
3868.719404,-9474.636058,0.000000,0.000000
3868.719734,-9622.677246,0.000000,306.438199
3868.720064,-9622.677246,0.000000,459.657299
3868.720394,-9844.739029,0.000000,383.047749
3868.720723,-9770.718434,74.020594,229.828649
3868.721053,-9992.780217,74.020594,536.266849
3868.721383,-9770.718434,74.020594,229.828649
3868.721713,-9992.780217,222.061783,459.657299
3868.722043,-9696.697840,0.000000,306.438199
3868.722372,-9326.594869,0.000000,76.609550
3868.722702,-9622.677246,222.061783,306.438199
3868.723032,-9844.739029,370.102971,306.438199
3868.723362,-9474.636058,0.000000,229.828649
3868.723691,-9474.636058,148.041188,0.000000
3868.724021,-9622.677246,0.000000,76.609550
3868.724351,-9844.739029,222.061783,0.000000
3868.724681,-9770.718434,74.020594,306.438199
3868.725011,-10066.800811,222.061783,459.657299
3868.725340,-9770.718434,0.000000,229.828649
3868.725670,-9770.718434,74.020594,459.657299
3868.726000,-9918.759623,148.041188,229.828649
3868.726330,-9844.739029,0.000000,689.485948
3868.726659,-9622.677246,0.000000,306.438199
3868.726989,-9548.656652,0.000000,306.438199
3868.727319,-9770.718434,148.041188,0.000000
3868.727649,-9548.656652,74.020594,0.000000
3868.727979,-9770.718434,296.082377,153.219100
3868.728308,-9992.780217,148.041188,306.438199
3868.728638,-9844.739029,148.041188,0.000000
3868.728968,-9548.656652,-148.041188,76.609550
3868.729298,-9844.739029,0.000000,536.266849
3868.729627,-9992.780217,-74.020594,306.438199
3868.729957,-9548.656652,-222.061783,229.828649
3868.730287,-9548.656652,-148.041188,153.219100
3868.730617,-9770.718434,74.020594,229.828649
3868.730946,-9548.656652,0.000000,383.047749
3868.731276,-9474.636058,-370.102971,76.609550
3868.731606,-9770.718434,74.020594,153.219100
3868.731936,-9918.759623,148.041188,229.828649
3868.732266,-9622.677246,-74.020594,306.438199
3868.732595,-10140.821405,74.020594,459.657299
3868.732925,-9548.656652,-370.102971,919.314598
3868.733255,-9548.656652,-296.082377,76.609550
3868.733585,-9770.718434,0.000000,-229.828649
3868.733914,-9844.739029,0.000000,-76.609550
3868.734244,-9770.718434,296.082377,0.000000
3868.734574,-9918.759623,148.041188,0.000000
3868.734904,-9992.780217,222.061783,459.657299
3868.735234,-9696.697840,222.061783,306.438199
3868.735563,-9622.677246,0.000000,0.000000
3868.735893,-9992.780217,-74.020594,76.609550
3868.736223,-9548.656652,-222.061783,0.000000
3868.736553,-9696.697840,-370.102971,306.438199
3868.736882,-9104.533087,0.000000,-383.047749
3868.737212,-9918.759623,148.041188,0.000000
3868.737542,-9548.656652,222.061783,0.000000
3868.737872,-9770.718434,296.082377,0.000000
3868.738202,-10362.883188,740.205942,0.000000
3868.738531,-10288.862594,518.144159,76.609550
3868.738861,-10066.800811,370.102971,459.657299
3868.739191,-9696.697840,0.000000,612.876398
3868.739521,-9696.697840,-296.082377,459.657299
3868.739850,-9178.553681,-296.082377,229.828649
3868.740180,-9622.677246,0.000000,153.219100
3868.740510,-9548.656652,0.000000,153.219100
3868.740840,-9548.656652,0.000000,612.876398
3868.741170,-9400.615463,74.020594,1378.971896
3868.741499,-10214.842000,222.061783,1149.143247
3868.741829,-10214.842000,296.082377,536.266849
3868.742159,-10214.842000,370.102971,229.828649
3868.742489,-9770.718434,74.020594,0.000000
3868.742818,-9548.656652,0.000000,0.000000
3868.743148,-9474.636058,-74.020594,-76.609550
3868.743478,-9622.677246,74.020594,153.219100
3868.743808,-9770.718434,222.061783,153.219100
3868.744138,-9474.636058,0.000000,153.219100
3868.744467,-9400.615463,-222.061783,0.000000
3868.744797,-9548.656652,-296.082377,0.000000
3868.745127,-9622.677246,-222.061783,383.047749
3868.745457,-9400.615463,-74.020594,0.000000
3868.745786,-9770.718434,-370.102971,689.485948
3868.746116,-9844.739029,0.000000,383.047749
3868.746446,-10066.800811,0.000000,76.609550
3868.746776,-10288.862594,148.041188,-306.438199
3868.747105,-10510.924376,444.123565,153.219100
3868.747435,-10066.800811,444.123565,76.609550
3868.747765,-9474.636058,0.000000,306.438199
3868.748095,-9844.739029,0.000000,229.828649
3868.748425,-10066.800811,74.020594,306.438199
3868.748754,-9548.656652,0.000000,-306.438199
3868.749084,-9622.677246,0.000000,-383.047749
3868.749414,-9622.677246,148.041188,0.000000
3868.749744,-9770.718434,518.144159,306.438199
3868.750073,-10214.842000,296.082377,842.705048
3868.750403,-10510.924376,518.144159,536.266849
3868.750733,-10140.821405,296.082377,306.438199
3868.751063,-9548.656652,222.061783,76.609550
3868.751393,-9918.759623,0.000000,459.657299
3868.751722,-9622.677246,0.000000,536.266849
3868.752052,-9548.656652,0.000000,459.657299
3868.752382,-9474.636058,-148.041188,0.000000
3868.752712,-9474.636058,148.041188,-306.438199
3868.753041,-9770.718434,222.061783,-76.609550
3868.753371,-9844.739029,296.082377,76.609550
3868.753701,-9992.780217,444.123565,689.485948
3868.754031,-9770.718434,222.061783,459.657299
3868.754361,-9400.615463,0.000000,612.876398
3868.754690,-9844.739029,0.000000,306.438199
3868.755020,-9548.656652,-370.102971,306.438199
3868.755350,-9622.677246,74.020594,306.438199
3868.755680,-9622.677246,-370.102971,153.219100
3868.756009,-9622.677246,74.020594,689.485948
3868.756339,-9474.636058,0.000000,459.657299
3868.756669,-9548.656652,148.041188,306.438199
3868.756999,-9992.780217,148.041188,153.219100
3868.757329,-10066.800811,74.020594,153.219100
3868.757658,-10140.821405,74.020594,383.047749
3868.757988,-10066.800811,74.020594,383.047749
3868.758318,-9844.739029,148.041188,536.266849
3868.758648,-9696.697840,0.000000,76.609550
3868.758977,-9992.780217,-74.020594,229.828649
3868.759307,-9992.780217,0.000000,842.705048
3868.759637,-10140.821405,222.061783,612.876398
3868.759967,-9474.636058,0.000000,383.047749
3868.760297,-9548.656652,0.000000,536.266849
3868.760626,-9992.780217,-74.020594,229.828649
3868.760956,-9918.759623,222.061783,459.657299
3868.761286,-9844.739029,0.000000,76.609550
3868.761616,-9696.697840,-148.041188,76.609550
3868.761945,-9770.718434,0.000000,0.000000
3868.762275,-9992.780217,0.000000,0.000000
3868.762605,-10214.842000,518.144159,76.609550
3868.762935,-9770.718434,74.020594,0.000000
3868.763264,-9474.636058,0.000000,306.438199
3868.763594,-9474.636058,0.000000,76.609550
3868.763924,-9622.677246,222.061783,0.000000
3868.764254,-9844.739029,222.061783,0.000000
3868.764584,-9918.759623,222.061783,306.438199
3868.764913,-10066.800811,0.000000,229.828649
3868.765243,-9844.739029,-222.061783,0.000000
3868.765573,-9474.636058,74.020594,0.000000
3868.765903,-9622.677246,0.000000,229.828649
3868.766232,-9770.718434,0.000000,153.219100
3868.766562,-9474.636058,-296.082377,842.705048
3868.766892,-9992.780217,0.000000,1378.971896
3868.767222,-9844.739029,0.000000,1225.752797
3868.767552,-9918.759623,0.000000,306.438199
3868.767881,-9622.677246,222.061783,-153.219100
3868.768211,-9696.697840,222.061783,-306.438199
3868.768541,-9918.759623,222.061783,-229.828649
3868.768871,-9844.739029,148.041188,153.219100
3868.769200,-10214.842000,592.164754,306.438199
3868.769530,-9918.759623,370.102971,842.705048
3868.769860,-9326.594869,0.000000,0.000000
3868.770190,-9548.656652,-296.082377,0.000000
3868.770520,-9252.574275,-592.164754,0.000000
3868.770849,-9326.594869,-148.041188,842.705048
3868.771179,-9326.594869,-592.164754,612.876398
3868.771509,-9696.697840,148.041188,689.485948
3868.771839,-9696.697840,0.000000,459.657299
3868.772168,-10288.862594,518.144159,0.000000
3868.772498,-10510.924376,444.123565,0.000000
3868.772828,-10362.883188,518.144159,-229.828649
3868.773158,-10214.842000,592.164754,459.657299
3868.773488,-9548.656652,148.041188,153.219100
3868.773817,-9696.697840,296.082377,0.000000
3868.774147,-9400.615463,0.000000,-536.266849
3868.774477,-9474.636058,-296.082377,-689.485948
3868.774806,-9474.636058,0.000000,0.000000
3868.775136,-10066.800811,444.123565,766.095498
3868.775466,-9696.697840,296.082377,766.095498
3868.775796,-9992.780217,444.123565,612.876398
3868.776125,-9844.739029,296.082377,153.219100
3868.776455,-9992.780217,0.000000,229.828649
3868.776785,-10140.821405,74.020594,306.438199
3868.777114,-9770.718434,0.000000,689.485948
3868.777444,-9252.574275,0.000000,842.705048
3868.777774,-9622.677246,0.000000,842.705048
3868.778103,-9918.759623,148.041188,1072.533697
3868.778433,-10140.821405,296.082377,383.047749
3868.778763,-9770.718434,444.123565,-536.266849
3868.779093,-9474.636058,370.102971,-612.876398
3868.779422,-9844.739029,592.164754,306.438199
3868.779752,-9918.759623,444.123565,229.828649
3868.780082,-9844.739029,0.000000,306.438199
3868.780411,-9844.739029,0.000000,612.876398
3868.780741,-9474.636058,-222.061783,383.047749
3868.781071,-9474.636058,-370.102971,612.876398
3868.781401,-9548.656652,-518.144159,919.314598
3868.781730,-9548.656652,-592.164754,229.828649
3868.782060,-9474.636058,-296.082377,229.828649
3868.782390,-9696.697840,-296.082377,153.219100
3868.782719,-9992.780217,296.082377,383.047749
3868.783049,-9992.780217,148.041188,-383.047749
3868.783379,-10362.883188,592.164754,-306.438199
3868.783708,-10362.883188,518.144159,306.438199
3868.784038,-9918.759623,148.041188,76.609550
3868.784368,-9696.697840,0.000000,0.000000
3868.784698,-9844.739029,0.000000,229.828649
3868.785027,-9622.677246,-222.061783,229.828649
3868.785357,-9474.636058,-222.061783,-229.828649
3868.785687,-9696.697840,0.000000,153.219100
3868.786016,-9918.759623,148.041188,459.657299
3868.786346,-9992.780217,296.082377,919.314598
3868.786676,-10140.821405,0.000000,689.485948
3868.787006,-9918.759623,0.000000,229.828649
3868.787335,-9918.759623,370.102971,229.828649
3868.787665,-10214.842000,74.020594,383.047749
3868.787995,-10214.842000,0.000000,459.657299
3868.788324,-9918.759623,0.000000,153.219100
3868.788654,-9474.636058,0.000000,76.609550
3868.788984,-9696.697840,74.020594,-459.657299
3868.789313,-9178.553681,222.061783,-536.266849
3868.789643,-9474.636058,0.000000,-459.657299
3868.789973,-9770.718434,518.144159,-306.438199
3868.790303,-9474.636058,0.000000,153.219100
3868.790632,-9400.615463,0.000000,612.876398
3868.790962,-9844.739029,0.000000,689.485948
3868.791292,-10214.842000,0.000000,766.095498
3868.791621,-10214.842000,-222.061783,229.828649
3868.791951,-9770.718434,-222.061783,383.047749
3868.792281,-9400.615463,-148.041188,306.438199
3868.792610,-9474.636058,0.000000,76.609550
3868.792940,-9548.656652,74.020594,76.609550
3868.793270,-9770.718434,222.061783,76.609550
3868.793600,-9326.594869,0.000000,76.609550
3868.793929,-9622.677246,148.041188,76.609550
3868.794259,-9770.718434,74.020594,229.828649
3868.794589,-9992.780217,148.041188,0.000000
3868.794918,-9696.697840,0.000000,536.266849
3868.795248,-9844.739029,0.000000,536.266849
3868.795578,-10436.903782,74.020594,1225.752797
3868.795908,-9918.759623,0.000000,995.924147
3868.796237,-9918.759623,0.000000,842.705048
3868.796567,-9474.636058,0.000000,536.266849
3868.796897,-10214.842000,518.144159,0.000000
3868.797226,-9992.780217,222.061783,0.000000
3868.797556,-9770.718434,222.061783,229.828649
3868.797886,-9918.759623,74.020594,536.266849
3868.798215,-9474.636058,0.000000,153.219100
3868.798545,-9696.697840,74.020594,0.000000
3868.798875,-9918.759623,74.020594,0.000000
3868.799205,-9992.780217,74.020594,76.609550
3868.799534,-9844.739029,-222.061783,153.219100
3868.799864,-9622.677246,0.000000,689.485948
3868.800194,-9696.697840,-370.102971,459.657299
3868.800523,-9696.697840,0.000000,76.609550
3868.800853,-10066.800811,74.020594,76.609550
3868.801183,-10140.821405,296.082377,0.000000
3868.801513,-9770.718434,0.000000,0.000000
3868.801842,-9622.677246,0.000000,76.609550
3868.802172,-10066.800811,666.185348,-153.219100
3868.802502,-9548.656652,0.000000,0.000000
3868.802831,-9326.594869,0.000000,0.000000
3868.803161,-9474.636058,-370.102971,766.095498
3868.803491,-9548.656652,-666.185348,995.924147
3868.803820,-9622.677246,-518.144159,995.924147
3868.804150,-9400.615463,-296.082377,383.047749
3868.804480,-9548.656652,0.000000,76.609550
3868.804810,-9918.759623,0.000000,0.000000
3868.805139,-10214.842000,444.123565,383.047749
3868.805469,-10140.821405,666.185348,229.828649
3868.805799,-9992.780217,296.082377,76.609550
3868.806128,-9696.697840,74.020594,76.609550
3868.806458,-9548.656652,-296.082377,306.438199
3868.806788,-9844.739029,-518.144159,0.000000
3868.807118,-9474.636058,-518.144159,-153.219100
3868.807447,-9104.533087,-518.144159,383.047749
3868.807777,-8956.491898,-370.102971,766.095498
3868.808107,-9400.615463,-222.061783,536.266849
3868.808436,-9770.718434,444.123565,229.828649
3868.808766,-10510.924376,666.185348,0.000000
3868.809096,-10584.944971,666.185348,0.000000
3868.809425,-10436.903782,518.144159,612.876398
3868.809755,-10214.842000,518.144159,842.705048
3868.810085,-9992.780217,222.061783,229.828649
3868.810415,-9696.697840,0.000000,0.000000
3868.810744,-9474.636058,-370.102971,-995.924147
3868.811074,-9548.656652,74.020594,-383.047749
3868.811404,-9474.636058,0.000000,0.000000
3868.811733,-9252.574275,0.000000,919.314598
3868.812063,-9770.718434,0.000000,1302.362347
3868.812393,-10066.800811,74.020594,1149.143247
3868.812723,-10362.883188,296.082377,229.828649
3868.813052,-10362.883188,222.061783,76.609550
3868.813382,-10066.800811,74.020594,919.314598
3868.813712,-9622.677246,0.000000,229.828649
3868.814041,-9696.697840,0.000000,383.047749
3868.814371,-9548.656652,0.000000,459.657299
3868.814701,-9548.656652,74.020594,0.000000
3868.815030,-9400.615463,74.020594,-229.828649
3868.815360,-9104.533087,0.000000,-612.876398
3868.815690,-9326.594869,-370.102971,0.000000
3868.816020,-9474.636058,-296.082377,0.000000
3868.816349,-9548.656652,148.041188,153.219100
3868.816679,-9474.636058,148.041188,0.000000
3868.817009,-9696.697840,0.000000,0.000000
3868.817338,-10362.883188,296.082377,153.219100
3868.817668,-10214.842000,296.082377,766.095498
3868.817998,-10436.903782,222.061783,689.485948
3868.818328,-9696.697840,0.000000,766.095498
3868.818657,-9622.677246,0.000000,536.266849
3868.818987,-9844.739029,148.041188,153.219100
3868.819317,-9474.636058,0.000000,-612.876398
3868.819646,-9548.656652,0.000000,-766.095498
3868.819976,-9326.594869,148.041188,-459.657299
3868.820306,-9918.759623,444.123565,0.000000
3868.820635,-9548.656652,444.123565,536.266849
3868.820965,-10436.903782,296.082377,766.095498
3868.821295,-10362.883188,296.082377,536.266849
3868.821625,-10066.800811,74.020594,229.828649
3868.821954,-9696.697840,-444.123565,229.828649
3868.822284,-9696.697840,0.000000,383.047749
3868.822614,-9622.677246,-222.061783,229.828649
3868.822943,-9918.759623,0.000000,306.438199
3868.823273,-9474.636058,148.041188,-306.438199
3868.823603,-9548.656652,148.041188,229.828649
3868.823932,-9622.677246,296.082377,153.219100
3868.824262,-9696.697840,222.061783,76.609550
3868.824592,-9770.718434,148.041188,0.000000
3868.824922,-9844.739029,444.123565,0.000000
3868.825251,-9622.677246,0.000000,229.828649
3868.825581,-9770.718434,74.020594,689.485948
3868.825911,-9696.697840,-296.082377,153.219100
3868.826240,-9474.636058,148.041188,0.000000
3868.826570,-9770.718434,0.000000,229.828649
3868.826900,-9770.718434,0.000000,383.047749
3868.827230,-9474.636058,0.000000,153.219100
3868.827559,-9548.656652,444.123565,229.828649
3868.827889,-9844.739029,296.082377,689.485948
3868.828219,-9474.636058,0.000000,229.828649
3868.828548,-9622.677246,0.000000,459.657299
3868.828878,-9844.739029,0.000000,0.000000
3868.829208,-10140.821405,0.000000,306.438199
3868.829537,-9844.739029,0.000000,536.266849
3868.829867,-9844.739029,148.041188,995.924147
3868.830197,-9844.739029,0.000000,306.438199
3868.830527,-9844.739029,148.041188,-76.609550
3868.830856,-9622.677246,0.000000,0.000000
3868.831186,-9992.780217,296.082377,0.000000
3868.831516,-9992.780217,222.061783,612.876398
3868.831845,-9844.739029,0.000000,383.047749
3868.832175,-9918.759623,0.000000,459.657299
3868.832505,-9770.718434,0.000000,0.000000
3868.832835,-9770.718434,0.000000,-76.609550
3868.833164,-9918.759623,0.000000,0.000000
3868.833494,-9696.697840,0.000000,383.047749
3868.833824,-9252.574275,-222.061783,536.266849
3868.834153,-9622.677246,-148.041188,459.657299
3868.834483,-9770.718434,370.102971,76.609550
3868.834813,-9474.636058,222.061783,-536.266849
3868.835142,-9992.780217,222.061783,-76.609550
3868.835472,-10214.842000,148.041188,0.000000
3868.835802,-9770.718434,0.000000,153.219100
3868.836132,-9326.594869,296.082377,536.266849
3868.836461,-10066.800811,0.000000,459.657299
3868.836791,-9844.739029,-148.041188,306.438199
3868.837121,-9474.636058,-222.061783,766.095498
3868.837450,-9474.636058,-74.020594,995.924147
3868.837780,-9918.759623,148.041188,1455.581446
3868.838110,-9992.780217,74.020594,919.314598
3868.838440,-9992.780217,74.020594,459.657299
3868.838769,-9918.759623,296.082377,-612.876398
3868.839099,-10066.800811,444.123565,-536.266849
3868.839429,-9992.780217,222.061783,-383.047749
3868.839758,-9992.780217,74.020594,459.657299
3868.840088,-9622.677246,296.082377,383.047749
3868.840418,-8956.491898,-148.041188,0.000000
3868.840747,-9474.636058,-370.102971,76.609550
3868.841077,-9474.636058,-444.123565,229.828649
3868.841407,-9474.636058,-444.123565,0.000000
3868.841737,-9252.574275,0.000000,612.876398
3868.842066,-9844.739029,222.061783,536.266849
3868.842396,-10066.800811,370.102971,459.657299
3868.842726,-10362.883188,222.061783,229.828649
3868.843055,-10066.800811,444.123565,-229.828649
3868.843385,-10362.883188,518.144159,-153.219100
3868.843715,-9918.759623,370.102971,0.000000
3868.844045,-9548.656652,222.061783,536.266849
3868.844374,-9252.574275,-148.041188,459.657299
3868.844704,-9178.553681,-222.061783,0.000000
3868.845034,-9178.553681,-222.061783,-306.438199
3868.845363,-9696.697840,0.000000,0.000000
3868.845693,-9844.739029,148.041188,383.047749
3868.846023,-9474.636058,0.000000,1149.143247
3868.846352,-10140.821405,370.102971,919.314598
3868.846682,-10362.883188,740.205942,612.876398
3868.847012,-10436.903782,222.061783,383.047749
3868.847342,-10436.903782,444.123565,383.047749
3868.847671,-10288.862594,148.041188,459.657299
3868.848001,-9548.656652,0.000000,383.047749
3868.848331,-9104.533087,0.000000,459.657299
3868.848660,-9400.615463,0.000000,383.047749
3868.848990,-9992.780217,222.061783,229.828649
3868.849320,-9548.656652,74.020594,0.000000
3868.849649,-9474.636058,222.061783,0.000000
3868.849979,-9844.739029,222.061783,536.266849
3868.850309,-10066.800811,740.205942,306.438199
3868.850639,-10140.821405,74.020594,689.485948
3868.850968,-10214.842000,222.061783,0.000000
3868.851298,-9844.739029,0.000000,0.000000
3868.851628,-9548.656652,592.164754,383.047749
3868.851957,-9918.759623,0.000000,842.705048
3868.852287,-9326.594869,-296.082377,459.657299
3868.852617,-9104.533087,-148.041188,76.609550
3868.852947,-9326.594869,-296.082377,-383.047749
3868.853276,-9548.656652,0.000000,-76.609550
3868.853606,-9548.656652,0.000000,0.000000
3868.853936,-9770.718434,0.000000,153.219100
3868.854265,-10066.800811,148.041188,229.828649
3868.854595,-10066.800811,370.102971,766.095498
3868.854925,-10066.800811,296.082377,153.219100
3868.855254,-10288.862594,222.061783,306.438199
3868.855584,-10214.842000,222.061783,383.047749
3868.855914,-9844.739029,148.041188,612.876398
3868.856244,-9696.697840,0.000000,229.828649
3868.856573,-9622.677246,-74.020594,229.828649
3868.856903,-9696.697840,148.041188,0.000000
3868.857233,-9844.739029,0.000000,0.000000
3868.857562,-9844.739029,296.082377,383.047749
3868.857892,-9844.739029,296.082377,459.657299
3868.858222,-10066.800811,296.082377,153.219100
3868.858552,-10288.862594,370.102971,0.000000
3868.858881,-9844.739029,0.000000,153.219100
3868.859211,-9622.677246,0.000000,0.000000
3868.859541,-9770.718434,0.000000,383.047749
3868.859870,-9844.739029,74.020594,536.266849
3868.860200,-9770.718434,296.082377,612.876398
3868.860530,-9474.636058,-148.041188,459.657299
3868.860859,-9770.718434,148.041188,0.000000
3868.861189,-9474.636058,0.000000,383.047749
3868.861519,-9548.656652,148.041188,153.219100
3868.861849,-9992.780217,74.020594,459.657299
3868.862178,-9770.718434,0.000000,383.047749
3868.862508,-9770.718434,74.020594,383.047749
3868.862838,-9622.677246,0.000000,383.047749
3868.863167,-9992.780217,74.020594,153.219100
3868.863497,-9474.636058,0.000000,76.609550
3868.863827,-9474.636058,0.000000,459.657299
3868.864157,-9400.615463,0.000000,612.876398
3868.864486,-9622.677246,-74.020594,689.485948
3868.864816,-9696.697840,370.102971,229.828649
3868.865146,-9918.759623,0.000000,76.609550
3868.865475,-9992.780217,222.061783,0.000000
3868.865805,-10140.821405,592.164754,459.657299
3868.866135,-9918.759623,444.123565,766.095498
3868.866464,-10214.842000,444.123565,612.876398
3868.866794,-9844.739029,222.061783,459.657299
3868.867124,-9622.677246,0.000000,153.219100
3868.867454,-10436.903782,74.020594,229.828649
3868.867783,-10288.862594,0.000000,536.266849
3868.868113,-9548.656652,-222.061783,0.000000
3868.868443,-9770.718434,0.000000,76.609550
3868.868772,-9918.759623,148.041188,76.609550
3868.869102,-9622.677246,0.000000,-306.438199
3868.869432,-10510.924376,222.061783,153.219100
3868.869762,-10214.842000,222.061783,306.438199
3868.870091,-10214.842000,370.102971,689.485948
3868.870421,-9622.677246,0.000000,689.485948
3868.870751,-10214.842000,74.020594,536.266849
3868.871080,-9622.677246,-296.082377,229.828649
3868.871410,-9548.656652,-222.061783,76.609550
3868.871740,-9696.697840,74.020594,0.000000
3868.872069,-9548.656652,-148.041188,153.219100
3868.872399,-9844.739029,0.000000,383.047749
3868.872729,-10066.800811,74.020594,229.828649
3868.873059,-10140.821405,148.041188,0.000000
3868.873388,-9548.656652,0.000000,0.000000
3868.873718,-9622.677246,-148.041188,459.657299
3868.874048,-9992.780217,-148.041188,689.485948
3868.874377,-9622.677246,-296.082377,766.095498
3868.874707,-9548.656652,-518.144159,459.657299
3868.875037,-9696.697840,0.000000,0.000000
3868.875366,-9622.677246,0.000000,-306.438199
3868.875696,-9770.718434,0.000000,76.609550
3868.876026,-9844.739029,148.041188,153.219100
3868.876355,-9992.780217,444.123565,306.438199
3868.876685,-9918.759623,444.123565,0.000000
3868.877015,-9770.718434,0.000000,0.000000
3868.877345,-9548.656652,-518.144159,459.657299
3868.877674,-9622.677246,-296.082377,-153.219100
3868.878004,-9474.636058,0.000000,76.609550
3868.878334,-9400.615463,0.000000,0.000000
3868.878663,-9622.677246,148.041188,0.000000
3868.878993,-9696.697840,222.061783,76.609550
3868.879323,-9992.780217,518.144159,-383.047749
3868.879652,-10362.883188,370.102971,0.000000
3868.879982,-10288.862594,592.164754,76.609550
3868.880312,-9844.739029,296.082377,842.705048
3868.880641,-9918.759623,74.020594,536.266849
3868.880971,-10214.842000,0.000000,0.000000
3868.881301,-9844.739029,74.020594,-153.219100
3868.881631,-9770.718434,74.020594,-229.828649
3868.881960,-9770.718434,222.061783,0.000000
3868.882290,-9474.636058,148.041188,995.924147
3868.882620,-9844.739029,296.082377,1072.533697
3868.882949,-10140.821405,148.041188,1225.752797
3868.883279,-10436.903782,0.000000,306.438199
3868.883609,-10066.800811,0.000000,229.828649
3868.883938,-9696.697840,0.000000,76.609550
3868.884268,-9400.615463,74.020594,0.000000
3868.884598,-9326.594869,-74.020594,0.000000
3868.884927,-9918.759623,222.061783,306.438199
3868.885257,-9844.739029,0.000000,459.657299
3868.885587,-9474.636058,0.000000,0.000000
3868.885916,-9474.636058,148.041188,-306.438199
3868.886246,-9770.718434,0.000000,229.828649
3868.886576,-9918.759623,-148.041188,153.219100
3868.886906,-9696.697840,-296.082377,153.219100
3868.887235,-9474.636058,0.000000,383.047749
3868.887565,-9844.739029,0.000000,229.828649
3868.887895,-9918.759623,222.061783,0.000000
3868.888224,-10066.800811,518.144159,0.000000
3868.888554,-9918.759623,0.000000,229.828649
3868.888884,-9622.677246,148.041188,459.657299
3868.889213,-9400.615463,0.000000,0.000000
3868.889543,-9696.697840,0.000000,229.828649
3868.889873,-9770.718434,0.000000,0.000000
3868.890202,-9770.718434,-222.061783,0.000000
3868.890532,-9622.677246,0.000000,229.828649
3868.890862,-9770.718434,0.000000,76.609550
3868.891192,-10066.800811,148.041188,306.438199
3868.891521,-10436.903782,370.102971,459.657299
3868.891851,-10362.883188,592.164754,229.828649
3868.892181,-10214.842000,148.041188,76.609550
3868.892510,-9696.697840,74.020594,0.000000
3868.892840,-9844.739029,0.000000,689.485948
3868.893170,-9548.656652,-518.144159,229.828649
3868.893499,-9548.656652,-296.082377,-306.438199
3868.893829,-9326.594869,0.000000,0.000000
3868.894159,-9326.594869,0.000000,-76.609550
3868.894488,-9400.615463,148.041188,0.000000
3868.894818,-9696.697840,148.041188,153.219100
3868.895148,-10066.800811,148.041188,459.657299
3868.895478,-10214.842000,0.000000,612.876398
3868.895807,-9844.739029,0.000000,536.266849
3868.896137,-9992.780217,74.020594,459.657299
3868.896467,-9770.718434,-148.041188,153.219100
3868.896796,-9622.677246,0.000000,0.000000
3868.897126,-9474.636058,0.000000,229.828649
3868.897456,-9326.594869,0.000000,536.266849
3868.897785,-9326.594869,0.000000,0.000000
3868.898115,-9622.677246,0.000000,612.876398
3868.898445,-9918.759623,296.082377,306.438199
3868.898774,-9992.780217,-370.102971,306.438199
3868.899104,-9770.718434,74.020594,842.705048
3868.899434,-9844.739029,0.000000,536.266849
3868.899763,-10066.800811,0.000000,536.266849
3868.900093,-9992.780217,-148.041188,306.438199
3868.900423,-10214.842000,-296.082377,689.485948
3868.900753,-10140.821405,0.000000,689.485948
3868.901082,-9548.656652,148.041188,536.266849
3868.901412,-9474.636058,0.000000,383.047749
3868.901742,-9474.636058,74.020594,76.609550
3868.902071,-9770.718434,148.041188,0.000000
3868.902401,-9844.739029,0.000000,0.000000
3868.902731,-9844.739029,0.000000,229.828649
3868.903060,-9622.677246,-592.164754,459.657299
3868.903390,-9770.718434,0.000000,383.047749
3868.903720,-9992.780217,-148.041188,153.219100
3868.904049,-10214.842000,0.000000,0.000000
3868.904379,-9474.636058,-148.041188,76.609550
3868.904709,-9622.677246,-222.061783,153.219100
3868.905039,-9770.718434,0.000000,536.266849
3868.905368,-9844.739029,148.041188,536.266849
3868.905698,-10140.821405,370.102971,76.609550
3868.906028,-9992.780217,0.000000,-306.438199
3868.906357,-10066.800811,74.020594,-536.266849
3868.906687,-9844.739029,0.000000,-153.219100
3868.907017,-10066.800811,74.020594,229.828649
3868.907346,-9548.656652,0.000000,689.485948
3868.907676,-9474.636058,-370.102971,459.657299
3868.908006,-9474.636058,-296.082377,612.876398
3868.908335,-9918.759623,-370.102971,919.314598
3868.908665,-9992.780217,0.000000,1378.971896
3868.908995,-9844.739029,-296.082377,689.485948
3868.909325,-9844.739029,148.041188,76.609550
3868.909654,-9622.677246,296.082377,0.000000
3868.909984,-9844.739029,592.164754,-76.609550
3868.910314,-10584.944971,888.247130,-459.657299
3868.910643,-10140.821405,518.144159,153.219100
3868.910973,-9474.636058,148.041188,76.609550
3868.911303,-9326.594869,0.000000,76.609550
3868.911632,-9770.718434,0.000000,0.000000
3868.911962,-9400.615463,-370.102971,76.609550
3868.912292,-9104.533087,-518.144159,0.000000
3868.912621,-9326.594869,-370.102971,153.219100
3868.912951,-9696.697840,222.061783,1149.143247
3868.913281,-9844.739029,222.061783,459.657299
3868.913610,-10288.862594,444.123565,76.609550
3868.913940,-10510.924376,518.144159,0.000000
3868.914270,-10510.924376,444.123565,-76.609550
3868.914600,-9918.759623,148.041188,459.657299
3868.914929,-9548.656652,74.020594,306.438199
3868.915259,-9474.636058,-222.061783,153.219100
3868.915589,-9178.553681,-296.082377,0.000000
3868.915918,-9696.697840,-518.144159,-383.047749
3868.916248,-9474.636058,0.000000,0.000000
3868.916578,-9992.780217,222.061783,383.047749
3868.916907,-9770.718434,740.205942,536.266849
3868.917237,-9844.739029,222.061783,842.705048
3868.917567,-10066.800811,814.226536,0.000000
3868.917896,-10436.903782,74.020594,612.876398
3868.918226,-10362.883188,74.020594,459.657299
3868.918556,-9770.718434,148.041188,842.705048
3868.918886,-9030.512492,-148.041188,842.705048
3868.919215,-9326.594869,-148.041188,1149.143247
3868.919545,-9844.739029,0.000000,919.314598
3868.919875,-9844.739029,0.000000,306.438199
3868.920204,-9696.697840,444.123565,-536.266849
3868.920534,-9622.677246,444.123565,-766.095498
3868.920864,-9844.739029,370.102971,-229.828649
3868.921193,-9918.759623,444.123565,153.219100
3868.921523,-10214.842000,0.000000,842.705048
3868.921853,-9844.739029,-74.020594,229.828649
3868.922182,-9252.574275,-518.144159,-229.828649
3868.922512,-9326.594869,-370.102971,153.219100
3868.922842,-9400.615463,-1184.329507,766.095498
3868.923172,-9178.553681,-814.226536,689.485948
3868.923501,-9104.533087,-370.102971,306.438199
3868.923831,-9548.656652,0.000000,76.609550
3868.924161,-10066.800811,296.082377,0.000000
3868.924490,-10362.883188,592.164754,0.000000
3868.924820,-10288.862594,444.123565,0.000000
3868.925150,-10584.944971,296.082377,306.438199
3868.925479,-10214.842000,74.020594,306.438199
3868.925809,-9474.636058,0.000000,229.828649
3868.926139,-9844.739029,-444.123565,229.828649
3868.926468,-9474.636058,-444.123565,-306.438199
3868.926798,-9622.677246,-222.061783,-383.047749
3868.927128,-9474.636058,-444.123565,306.438199
3868.927458,-9548.656652,222.061783,0.000000
3868.927787,-9844.739029,222.061783,766.095498
3868.928117,-10140.821405,222.061783,536.266849
3868.928447,-10140.821405,74.020594,383.047749
3868.928776,-9844.739029,74.020594,0.000000
3868.929106,-10288.862594,0.000000,306.438199
3868.929436,-10214.842000,0.000000,612.876398
3868.929765,-9474.636058,-222.061783,0.000000
3868.930095,-9178.553681,-148.041188,229.828649
3868.930425,-9696.697840,0.000000,76.609550
3868.930754,-9770.718434,148.041188,0.000000
3868.931084,-9474.636058,222.061783,-153.219100
3868.931414,-9474.636058,222.061783,306.438199
3868.931743,-9770.718434,222.061783,153.219100
3868.932073,-9622.677246,0.000000,459.657299
3868.932403,-9918.759623,0.000000,306.438199
3868.932733,-9844.739029,-296.082377,536.266849
3868.933062,-9770.718434,-296.082377,306.438199
3868.933392,-9622.677246,-148.041188,306.438199
3868.933722,-9918.759623,148.041188,383.047749
3868.934051,-9474.636058,-296.082377,459.657299
3868.934381,-9622.677246,148.041188,0.000000
3868.934711,-9548.656652,0.000000,153.219100
3868.935040,-10066.800811,370.102971,153.219100
3868.935370,-9918.759623,74.020594,459.657299
3868.935700,-10214.842000,592.164754,153.219100
3868.936029,-9918.759623,296.082377,0.000000
3868.936359,-9696.697840,148.041188,76.609550
3868.936689,-9770.718434,0.000000,689.485948
3868.937019,-9992.780217,0.000000,919.314598
3868.937348,-10214.842000,148.041188,383.047749
3868.937678,-9770.718434,0.000000,306.438199
3868.938008,-9548.656652,0.000000,0.000000
3868.938337,-9918.759623,0.000000,76.609550
3868.938667,-9992.780217,-148.041188,383.047749
3868.938997,-9918.759623,148.041188,153.219100
3868.939326,-9548.656652,0.000000,153.219100
3868.939656,-9770.718434,296.082377,0.000000
3868.939986,-10140.821405,0.000000,383.047749
3868.940315,-10288.862594,0.000000,153.219100
3868.940645,-10140.821405,0.000000,306.438199
3868.940975,-9548.656652,-222.061783,306.438199
3868.941305,-9474.636058,0.000000,1455.581446
3868.941634,-9474.636058,-370.102971,76.609550
3868.941964,-9622.677246,-222.061783,0.000000
3868.942294,-9474.636058,0.000000,0.000000
3868.942623,-9844.739029,148.041188,153.219100
3868.942953,-9918.759623,296.082377,229.828649
3868.943283,-9770.718434,222.061783,0.000000
3868.943612,-10066.800811,74.020594,0.000000
3868.943942,-10066.800811,148.041188,-306.438199
3868.944272,-9400.615463,-296.082377,383.047749
3868.944601,-9696.697840,-370.102971,1072.533697
3868.944931,-9844.739029,-444.123565,1685.410096
3868.945261,-9844.739029,-74.020594,842.705048
3868.945590,-9696.697840,-74.020594,153.219100
3868.945920,-9770.718434,222.061783,-612.876398
3868.946250,-10066.800811,222.061783,-306.438199
3868.946580,-10140.821405,518.144159,76.609550
3868.946909,-10214.842000,222.061783,459.657299
3868.947239,-9992.780217,592.164754,306.438199
3868.947569,-9622.677246,0.000000,76.609550
3868.947898,-9844.739029,0.000000,0.000000
3868.948228,-9992.780217,-370.102971,0.000000
3868.948558,-9252.574275,-888.247130,153.219100
3868.948887,-8956.491898,-518.144159,153.219100
3868.949217,-9400.615463,0.000000,766.095498
3868.949547,-9622.677246,0.000000,383.047749
3868.949876,-9844.739029,0.000000,612.876398
3868.950206,-10658.965565,666.185348,0.000000
3868.950536,-10510.924376,444.123565,229.828649
3868.950866,-10436.903782,444.123565,306.438199
3868.951195,-9992.780217,296.082377,1532.190996
3868.951525,-9918.759623,0.000000,383.047749
3868.951855,-9622.677246,-296.082377,-459.657299
3868.952184,-9474.636058,-370.102971,-842.705048
3868.952514,-9474.636058,-444.123565,-76.609550
3868.952844,-9400.615463,-148.041188,76.609550
3868.953173,-8956.491898,-370.102971,1072.533697
3868.953503,-9548.656652,0.000000,1378.971896
3868.953833,-10066.800811,222.061783,919.314598
3868.954162,-9992.780217,0.000000,383.047749
3868.954492,-10066.800811,0.000000,153.219100
3868.954822,-10214.842000,148.041188,229.828649
3868.955152,-9992.780217,148.041188,0.000000
3868.955481,-9918.759623,74.020594,536.266849
3868.955811,-10066.800811,444.123565,306.438199
3868.956141,-9770.718434,0.000000,76.609550
3868.956470,-9178.553681,0.000000,-612.876398
3868.956800,-9030.512492,74.020594,-383.047749
3868.957130,-9400.615463,0.000000,153.219100
3868.957459,-9474.636058,-74.020594,612.876398
3868.957789,-9770.718434,74.020594,153.219100
3868.958119,-9622.677246,148.041188,76.609550
3868.958448,-9844.739029,0.000000,0.000000
3868.958778,-10140.821405,222.061783,536.266849
3868.959108,-10436.903782,296.082377,612.876398
3868.959437,-10066.800811,148.041188,766.095498
3868.959767,-9252.574275,-222.061783,919.314598
3868.960097,-9474.636058,0.000000,306.438199
3868.960427,-9622.677246,0.000000,76.609550
3868.960756,-9844.739029,148.041188,-459.657299
3868.961086,-9622.677246,-370.102971,-612.876398
3868.961416,-9770.718434,740.205942,-536.266849
3868.961745,-9918.759623,444.123565,0.000000
3868.962075,-9992.780217,296.082377,536.266849
3868.962405,-10732.986159,296.082377,536.266849
3868.962734,-10140.821405,296.082377,536.266849
3868.963064,-9770.718434,0.000000,0.000000
3868.963394,-9474.636058,-148.041188,383.047749
3868.963723,-9474.636058,0.000000,306.438199
3868.964053,-9696.697840,-222.061783,459.657299
3868.964383,-9696.697840,0.000000,306.438199
3868.964713,-9696.697840,0.000000,153.219100
3868.965042,-9622.677246,0.000000,153.219100
3868.965372,-9400.615463,222.061783,76.609550
3868.965702,-9622.677246,74.020594,76.609550
3868.966031,-9844.739029,74.020594,76.609550
3868.966361,-9844.739029,0.000000,153.219100
3868.966691,-9844.739029,0.000000,383.047749
3868.967020,-9992.780217,0.000000,919.314598
3868.967350,-9844.739029,-74.020594,383.047749
3868.967680,-9548.656652,0.000000,153.219100
3868.968009,-9474.636058,0.000000,153.219100
3868.968339,-9474.636058,74.020594,76.609550
3868.968669,-9622.677246,0.000000,536.266849
3868.968999,-9622.677246,74.020594,612.876398
3868.969328,-9918.759623,74.020594,459.657299
3868.969658,-9696.697840,-296.082377,229.828649
3868.969988,-9918.759623,0.000000,0.000000
3868.970317,-9992.780217,-74.020594,229.828649
3868.970647,-9622.677246,-222.061783,383.047749
3868.970977,-9326.594869,-74.020594,689.485948
3868.971306,-9548.656652,0.000000,612.876398
3868.971636,-9770.718434,518.144159,383.047749
3868.971966,-9992.780217,370.102971,0.000000
3868.972295,-9844.739029,222.061783,0.000000
3868.972625,-9844.739029,222.061783,383.047749
3868.972955,-9696.697840,0.000000,612.876398
3868.973285,-9844.739029,0.000000,612.876398
3868.973614,-9918.759623,0.000000,383.047749
3868.973944,-9770.718434,0.000000,153.219100
3868.974274,-9844.739029,0.000000,0.000000
3868.974603,-9844.739029,0.000000,383.047749
3868.974933,-10066.800811,0.000000,459.657299
3868.975263,-9844.739029,0.000000,1455.581446
3868.975592,-9770.718434,0.000000,229.828649
3868.975922,-9696.697840,296.082377,-76.609550
3868.976252,-9992.780217,222.061783,-229.828649
3868.976581,-10362.883188,222.061783,76.609550
3868.976911,-10140.821405,518.144159,0.000000
3868.977241,-9844.739029,0.000000,229.828649
3868.977570,-9622.677246,-74.020594,536.266849
3868.977900,-9844.739029,-74.020594,383.047749
3868.978230,-9400.615463,0.000000,153.219100
3868.978559,-9474.636058,-296.082377,459.657299
3868.978889,-9622.677246,0.000000,995.924147
3868.979219,-10140.821405,-222.061783,1149.143247
3868.979548,-9770.718434,222.061783,536.266849
3868.979878,-10140.821405,222.061783,-229.828649
3868.980208,-10066.800811,222.061783,-536.266849
3868.980537,-9844.739029,370.102971,-383.047749
3868.980867,-9918.759623,74.020594,306.438199
3868.981197,-9844.739029,74.020594,689.485948
3868.981526,-9844.739029,74.020594,766.095498
3868.981856,-9400.615463,-148.041188,153.219100
3868.982186,-9104.533087,-592.164754,0.000000
3868.982515,-9474.636058,-370.102971,459.657299
3868.982845,-9474.636058,-222.061783,229.828649
3868.983175,-9474.636058,0.000000,459.657299
3868.983504,-9770.718434,74.020594,459.657299
3868.983834,-9622.677246,518.144159,0.000000
3868.984164,-10214.842000,148.041188,76.609550
3868.984493,-10362.883188,666.185348,-306.438199
3868.984823,-9992.780217,222.061783,76.609550
3868.985153,-9770.718434,222.061783,-766.095498
3868.985482,-9548.656652,0.000000,306.438199
3868.985812,-9252.574275,-296.082377,0.000000
3868.986142,-9326.594869,0.000000,-459.657299
3868.986471,-9104.533087,-148.041188,-153.219100
3868.986801,-9400.615463,74.020594,-536.266849
3868.987131,-9844.739029,296.082377,383.047749
3868.987460,-10066.800811,444.123565,766.095498
3868.987790,-10362.883188,740.205942,689.485948
3868.988120,-9918.759623,666.185348,459.657299
3868.988449,-10066.800811,444.123565,76.609550
3868.988779,-9992.780217,74.020594,383.047749
3868.989109,-9992.780217,222.061783,459.657299
3868.989438,-9474.636058,74.020594,459.657299
3868.989768,-9400.615463,-296.082377,536.266849
3868.990098,-9696.697840,0.000000,459.657299
3868.990427,-9844.739029,148.041188,306.438199
3868.990757,-9622.677246,0.000000,383.047749
3868.991087,-9696.697840,222.061783,842.705048
3868.991416,-9918.759623,296.082377,459.657299
3868.991746,-10288.862594,296.082377,612.876398
3868.992076,-9992.780217,370.102971,383.047749
3868.992405,-9844.739029,74.020594,0.000000
3868.992735,-9696.697840,0.000000,306.438199
3868.993065,-9696.697840,0.000000,0.000000
3868.993394,-9548.656652,0.000000,612.876398
3868.993724,-8808.450710,-148.041188,612.876398
3868.994054,-9474.636058,-148.041188,153.219100
3868.994383,-9178.553681,-592.164754,153.219100
3868.994713,-9548.656652,-148.041188,76.609550
3868.995043,-9548.656652,-296.082377,229.828649
3868.995372,-9844.739029,296.082377,612.876398
3868.995702,-10288.862594,222.061783,919.314598
3868.996032,-10436.903782,0.000000,306.438199
3868.996361,-10066.800811,74.020594,459.657299
3868.996691,-10288.862594,0.000000,536.266849
3868.997021,-10066.800811,74.020594,76.609550
3868.997350,-9400.615463,0.000000,0.000000
3868.997680,-9252.574275,0.000000,0.000000
3868.998010,-8956.491898,-518.144159,0.000000
3868.998339,-9474.636058,-74.020594,0.000000
3868.998669,-9696.697840,74.020594,229.828649
3868.998999,-9844.739029,222.061783,153.219100
3868.999329,-9992.780217,296.082377,459.657299
3868.999658,-10140.821405,222.061783,689.485948
3868.999988,-10510.924376,296.082377,536.266849
3869.000318,-10140.821405,0.000000,153.219100
3869.000647,-9622.677246,0.000000,0.000000
3869.000977,-9696.697840,0.000000,153.219100
3869.001307,-9474.636058,74.020594,229.828649
3869.001636,-9400.615463,0.000000,0.000000
3869.001966,-9326.594869,0.000000,-76.609550
3869.002296,-9326.594869,148.041188,-153.219100
3869.002625,-9474.636058,0.000000,0.000000
3869.002955,-9696.697840,148.041188,306.438199
3869.003285,-10066.800811,296.082377,459.657299
3869.003614,-9770.718434,148.041188,383.047749
3869.003944,-9696.697840,74.020594,229.828649
3869.004274,-9992.780217,0.000000,383.047749
3869.004603,-9696.697840,74.020594,229.828649
3869.004933,-9326.594869,0.000000,306.438199
3869.005263,-9622.677246,74.020594,842.705048
3869.005592,-9770.718434,148.041188,689.485948
3869.005922,-9622.677246,0.000000,153.219100
3869.006252,-9770.718434,0.000000,229.828649
3869.006581,-9770.718434,296.082377,76.609550
3869.006911,-9696.697840,74.020594,229.828649
3869.007241,-9844.739029,370.102971,383.047749
3869.007570,-9918.759623,296.082377,689.485948
3869.007900,-9844.739029,888.247130,536.266849
3869.008230,-9844.739029,148.041188,76.609550
3869.008559,-10140.821405,74.020594,153.219100
3869.008889,-9844.739029,0.000000,306.438199
3869.009219,-9844.739029,-296.082377,689.485948
3869.009548,-9696.697840,0.000000,842.705048
3869.009878,-9622.677246,0.000000,0.000000
3869.010208,-9770.718434,0.000000,0.000000
3869.010537,-9770.718434,0.000000,0.000000
3869.010867,-10066.800811,0.000000,459.657299
3869.011197,-9992.780217,0.000000,842.705048
3869.011526,-9918.759623,0.000000,229.828649
3869.011856,-9844.739029,0.000000,612.876398
3869.012186,-9844.739029,222.061783,0.000000
3869.012515,-9696.697840,0.000000,229.828649
3869.012845,-9548.656652,-296.082377,-76.609550
3869.013175,-9548.656652,0.000000,306.438199
3869.013504,-9770.718434,0.000000,0.000000
3869.013834,-9770.718434,0.000000,306.438199
3869.014164,-9548.656652,0.000000,0.000000
3869.014493,-9844.739029,222.061783,76.609550
3869.014823,-9548.656652,0.000000,153.219100
3869.015153,-9696.697840,0.000000,1225.752797
3869.015482,-9918.759623,-222.061783,842.705048
3869.015812,-9548.656652,-222.061783,919.314598
3869.016142,-9696.697840,-296.082377,0.000000
3869.016471,-9326.594869,148.041188,-306.438199
3869.016801,-9770.718434,0.000000,-229.828649
3869.017131,-9474.636058,222.061783,-383.047749
3869.017460,-9770.718434,296.082377,0.000000
3869.017790,-9770.718434,518.144159,229.828649
3869.018120,-9696.697840,148.041188,229.828649
3869.018449,-9844.739029,74.020594,0.000000
3869.018779,-10140.821405,-148.041188,153.219100
3869.019109,-9844.739029,0.000000,0.000000
3869.019438,-9326.594869,0.000000,0.000000
3869.019768,-9548.656652,0.000000,153.219100
3869.020098,-9844.739029,222.061783,536.266849
3869.020427,-10140.821405,444.123565,383.047749
3869.020757,-9770.718434,444.123565,76.609550
3869.021087,-10140.821405,444.123565,0.000000
3869.021416,-9844.739029,444.123565,536.266849
3869.021746,-10066.800811,296.082377,842.705048
3869.022076,-10436.903782,222.061783,689.485948
3869.022405,-9548.656652,0.000000,0.000000
3869.022735,-9844.739029,0.000000,-229.828649
3869.023065,-9844.739029,74.020594,0.000000
3869.023394,-9696.697840,0.000000,459.657299
3869.023724,-9326.594869,0.000000,459.657299
3869.024054,-9622.677246,74.020594,1225.752797
3869.024383,-9844.739029,222.061783,919.314598
3869.024713,-10066.800811,296.082377,842.705048
3869.025043,-9696.697840,74.020594,383.047749
3869.025372,-10288.862594,74.020594,0.000000
3869.025702,-9622.677246,74.020594,-536.266849
3869.026032,-9696.697840,148.041188,0.000000
3869.026361,-9918.759623,666.185348,1072.533697
3869.026691,-9918.759623,296.082377,383.047749
3869.027021,-9474.636058,0.000000,-306.438199
3869.027350,-9252.574275,-370.102971,0.000000
3869.027680,-9474.636058,0.000000,612.876398
3869.028010,-9548.656652,-296.082377,612.876398
3869.028339,-9696.697840,-74.020594,459.657299
3869.028669,-9770.718434,0.000000,383.047749
3869.028999,-9844.739029,0.000000,229.828649
3869.029328,-10066.800811,0.000000,-229.828649
3869.029658,-10362.883188,370.102971,153.219100
3869.029988,-10066.800811,370.102971,306.438199
3869.030317,-9622.677246,222.061783,306.438199
3869.030647,-9622.677246,-74.020594,459.657299
3869.030977,-9770.718434,0.000000,306.438199
3869.031306,-9696.697840,74.020594,229.828649
3869.031636,-9252.574275,0.000000,-536.266849
3869.031966,-9844.739029,-74.020594,383.047749
3869.032295,-9696.697840,0.000000,76.609550
3869.032625,-10066.800811,222.061783,306.438199
3869.032955,-10214.842000,222.061783,306.438199
3869.033284,-10214.842000,148.041188,536.266849
3869.033614,-9770.718434,148.041188,0.000000
3869.033944,-9770.718434,0.000000,306.438199
3869.034273,-9992.780217,0.000000,306.438199
3869.034603,-9622.677246,0.000000,536.266849
3869.034933,-9696.697840,-296.082377,0.000000
3869.035262,-9474.636058,0.000000,0.000000
3869.035592,-9548.656652,148.041188,-383.047749
3869.035922,-9844.739029,296.082377,-76.609550
3869.036251,-10214.842000,666.185348,383.047749
3869.036581,-9918.759623,370.102971,689.485948
3869.036911,-9770.718434,222.061783,612.876398
3869.037240,-9548.656652,0.000000,612.876398
3869.037570,-9770.718434,74.020594,153.219100
3869.037900,-9696.697840,0.000000,0.000000
3869.038230,-9844.739029,-222.061783,76.609550
3869.038559,-9548.656652,0.000000,153.219100
3869.038889,-9844.739029,0.000000,536.266849
3869.039219,-9696.697840,74.020594,306.438199
3869.039548,-9770.718434,74.020594,383.047749
3869.039878,-10066.800811,222.061783,536.266849
3869.040208,-10140.821405,74.020594,536.266849
3869.040537,-9844.739029,74.020594,383.047749
3869.040867,-9918.759623,0.000000,766.095498
3869.041197,-9770.718434,0.000000,153.219100
3869.041526,-9918.759623,-296.082377,76.609550
3869.041856,-10214.842000,74.020594,383.047749
3869.042186,-9622.677246,0.000000,306.438199
3869.042515,-9770.718434,148.041188,306.438199
3869.042845,-9474.636058,0.000000,0.000000
3869.043175,-9696.697840,148.041188,0.000000
3869.043504,-9548.656652,0.000000,0.000000
3869.043834,-9696.697840,0.000000,229.828649
3869.044164,-9770.718434,-148.041188,76.609550
3869.044493,-9622.677246,-148.041188,383.047749
3869.044823,-9474.636058,-148.041188,383.047749
3869.045153,-10066.800811,-370.102971,612.876398
3869.045482,-9918.759623,0.000000,229.828649
3869.045812,-9622.677246,0.000000,0.000000
3869.046142,-9622.677246,-296.082377,459.657299
3869.046471,-9844.739029,0.000000,306.438199
3869.046801,-9918.759623,0.000000,306.438199
3869.047131,-9696.697840,0.000000,229.828649
3869.047460,-9696.697840,148.041188,0.000000
3869.047790,-9622.677246,148.041188,-612.876398
3869.048120,-9696.697840,148.041188,-153.219100
3869.048449,-9992.780217,148.041188,0.000000
3869.048779,-9770.718434,0.000000,229.828649
3869.049109,-9474.636058,-222.061783,612.876398
3869.049438,-9622.677246,-222.061783,919.314598
3869.049768,-10140.821405,-296.082377,1378.971896
3869.050098,-10140.821405,0.000000,1149.143247
3869.050427,-9918.759623,0.000000,306.438199
3869.050757,-9844.739029,222.061783,76.609550
3869.051087,-9548.656652,296.082377,-229.828649
3869.051416,-9992.780217,444.123565,0.000000
3869.051746,-10436.903782,740.205942,-536.266849
3869.052076,-9918.759623,518.144159,76.609550
3869.052405,-9622.677246,148.041188,-229.828649
3869.052735,-9400.615463,-148.041188,153.219100
3869.053065,-9400.615463,-222.061783,0.000000
3869.053394,-9474.636058,-296.082377,-306.438199
3869.053724,-9400.615463,-518.144159,536.266849
3869.054054,-9548.656652,-222.061783,612.876398
3869.054383,-9548.656652,0.000000,383.047749
3869.054713,-10510.924376,74.020594,0.000000
3869.055043,-10362.883188,444.123565,229.828649
3869.055372,-10436.903782,296.082377,76.609550
3869.055702,-10140.821405,296.082377,76.609550
3869.056032,-9844.739029,296.082377,0.000000
3869.056361,-9622.677246,222.061783,0.000000
3869.056691,-9474.636058,0.000000,-536.266849
3869.057021,-9178.553681,-296.082377,-383.047749
3869.057350,-9474.636058,0.000000,-383.047749
3869.057680,-9918.759623,0.000000,0.000000
3869.058010,-9770.718434,222.061783,0.000000
3869.058339,-9992.780217,222.061783,536.266849
3869.058669,-9992.780217,296.082377,689.485948
3869.058999,-9918.759623,592.164754,76.609550
3869.059328,-10140.821405,222.061783,536.266849
3869.059658,-10362.883188,296.082377,459.657299
3869.059988,-9844.739029,-148.041188,459.657299
3869.060317,-9474.636058,0.000000,612.876398
3869.060647,-9770.718434,0.000000,1149.143247
3869.060977,-10066.800811,74.020594,612.876398
3869.061306,-9622.677246,370.102971,383.047749
3869.061636,-9474.636058,148.041188,-766.095498
3869.061966,-9770.718434,444.123565,-459.657299
3869.062295,-9696.697840,222.061783,76.609550
3869.062625,-10140.821405,370.102971,229.828649
3869.062955,-9992.780217,148.041188,536.266849
3869.063284,-9622.677246,0.000000,459.657299
3869.063614,-9474.636058,-370.102971,612.876398
3869.063944,-9474.636058,-444.123565,612.876398
3869.064273,-9696.697840,-296.082377,536.266849
3869.064603,-9030.512492,-370.102971,229.828649
3869.064933,-9030.512492,-370.102971,689.485948
3869.065262,-9696.697840,222.061783,306.438199
3869.065592,-10066.800811,370.102971,153.219100
3869.065922,-10214.842000,444.123565,-229.828649
3869.066251,-10510.924376,962.267725,-306.438199
3869.066581,-10140.821405,222.061783,153.219100
3869.066911,-9622.677246,148.041188,306.438199
3869.067240,-9992.780217,222.061783,536.266849
3869.067570,-9844.739029,0.000000,0.000000
3869.067900,-9548.656652,-444.123565,0.000000
3869.068229,-9548.656652,-148.041188,0.000000
3869.068559,-9474.636058,0.000000,76.609550
3869.068889,-9770.718434,0.000000,536.266849
3869.069218,-9548.656652,296.082377,766.095498
3869.069548,-10288.862594,518.144159,1149.143247
3869.069878,-9992.780217,148.041188,76.609550
3869.070207,-9918.759623,148.041188,229.828649
3869.070537,-9918.759623,0.000000,919.314598
3869.070867,-10140.821405,0.000000,229.828649
3869.071196,-9474.636058,0.000000,0.000000
3869.071526,-9548.656652,0.000000,306.438199
3869.071856,-9474.636058,74.020594,0.000000
3869.072185,-9474.636058,74.020594,0.000000
3869.072515,-9474.636058,0.000000,-76.609550
3869.072845,-9474.636058,296.082377,0.000000
3869.073174,-9844.739029,222.061783,153.219100
3869.073504,-9844.739029,296.082377,536.266849
3869.073834,-9844.739029,0.000000,536.266849
3869.074164,-9992.780217,-370.102971,842.705048
3869.074493,-9992.780217,0.000000,383.047749
3869.074823,-9622.677246,0.000000,995.924147
3869.075153,-9770.718434,0.000000,536.266849
3869.075483,-9474.636058,0.000000,383.047749
3869.075812,-9326.594869,74.020594,76.609550
3869.076142,-9548.656652,444.123565,306.438199
3869.076472,-9696.697840,222.061783,459.657299
3869.076802,-9622.677246,0.000000,229.828649
3869.077131,-9992.780217,74.020594,0.000000
3869.077461,-9696.697840,0.000000,0.000000
3869.077791,-9400.615463,-296.082377,0.000000
3869.078120,-9844.739029,0.000000,612.876398
3869.078450,-9992.780217,0.000000,995.924147
3869.078780,-9844.739029,0.000000,995.924147
3869.079110,-9474.636058,74.020594,383.047749
3869.079439,-9696.697840,148.041188,229.828649
3869.079769,-9992.780217,148.041188,383.047749
3869.080099,-9918.759623,148.041188,306.438199
3869.080429,-9770.718434,222.061783,919.314598
3869.080758,-9622.677246,222.061783,0.000000
3869.081088,-9770.718434,0.000000,76.609550
3869.081418,-9918.759623,0.000000,0.000000
3869.081748,-10214.842000,0.000000,0.000000
3869.082077,-9992.780217,0.000000,76.609550
3869.082407,-9474.636058,-148.041188,153.219100
3869.082737,-9474.636058,-296.082377,536.266849
3869.083067,-9548.656652,0.000000,306.438199
3869.083396,-9770.718434,148.041188,229.828649
3869.083726,-9992.780217,-74.020594,229.828649
3869.084056,-10214.842000,0.000000,229.828649
3869.084386,-9770.718434,0.000000,153.219100
3869.084715,-9918.759623,0.000000,842.705048
3869.085045,-10140.821405,222.061783,229.828649
3869.085375,-9474.636058,-296.082377,-153.219100
3869.085705,-9178.553681,-222.061783,153.219100
3869.086034,-9622.677246,-296.082377,919.314598
3869.086364,-10066.800811,-370.102971,1302.362347
3869.086694,-9844.739029,-296.082377,766.095498
3869.087024,-9622.677246,74.020594,-153.219100
3869.087353,-9548.656652,0.000000,-459.657299
3869.087683,-9844.739029,370.102971,-229.828649
3869.088013,-10214.842000,296.082377,0.000000
3869.088342,-10140.821405,518.144159,383.047749
3869.088672,-9770.718434,370.102971,229.828649
3869.089002,-9474.636058,148.041188,459.657299
3869.089332,-9992.780217,74.020594,0.000000
3869.089661,-9696.697840,-148.041188,0.000000
3869.089991,-9474.636058,-444.123565,229.828649
3869.090321,-9178.553681,-666.185348,153.219100
3869.090651,-9474.636058,-74.020594,536.266849
3869.090980,-9918.759623,444.123565,536.266849
3869.091310,-10288.862594,888.247130,0.000000
3869.091640,-10288.862594,518.144159,0.000000
3869.091970,-10362.883188,740.205942,0.000000
3869.092299,-10066.800811,444.123565,153.219100
3869.092629,-9918.759623,296.082377,306.438199
3869.092959,-9548.656652,0.000000,0.000000
3869.093289,-9548.656652,0.000000,229.828649
3869.093618,-9252.574275,-370.102971,-459.657299
3869.093948,-9474.636058,-222.061783,-383.047749
3869.094278,-9474.636058,0.000000,536.266849
3869.094608,-9474.636058,-74.020594,1455.581446
3869.094937,-9844.739029,222.061783,1225.752797
3869.095267,-10510.924376,296.082377,1149.143247
3869.095597,-10510.924376,444.123565,459.657299
3869.095927,-10288.862594,370.102971,76.609550
3869.096256,-9992.780217,444.123565,0.000000
3869.096586,-9622.677246,74.020594,306.438199
3869.096916,-9918.759623,222.061783,229.828649
3869.097246,-10066.800811,0.000000,229.828649
3869.097575,-9400.615463,0.000000,0.000000
3869.097905,-8956.491898,0.000000,-612.876398
3869.098235,-9252.574275,0.000000,-383.047749
3869.098565,-9548.656652,0.000000,-76.609550
3869.098894,-9400.615463,-518.144159,459.657299
3869.099224,-9548.656652,0.000000,459.657299
3869.099554,-9844.739029,296.082377,383.047749
3869.099883,-10140.821405,0.000000,306.438199
3869.100213,-10362.883188,148.041188,383.047749
3869.100543,-10584.944971,148.041188,766.095498
3869.100873,-10214.842000,148.041188,689.485948
3869.101202,-9474.636058,0.000000,766.095498
3869.101532,-9622.677246,-74.020594,76.609550
3869.101862,-9918.759623,-148.041188,-229.828649
3869.102192,-9844.739029,74.020594,-766.095498
3869.102521,-9548.656652,0.000000,-766.095498
3869.102851,-9548.656652,222.061783,-689.485948
3869.103181,-9400.615463,222.061783,0.000000
3869.103511,-9918.759623,518.144159,689.485948
3869.103840,-10140.821405,0.000000,459.657299
3869.104170,-9918.759623,0.000000,0.000000
3869.104500,-9770.718434,-222.061783,229.828649
3869.104830,-9622.677246,0.000000,995.924147
3869.105159,-9770.718434,-222.061783,612.876398
3869.105489,-9548.656652,0.000000,306.438199
3869.105819,-9770.718434,0.000000,229.828649
3869.106149,-10066.800811,444.123565,0.000000
3869.106478,-9696.697840,148.041188,153.219100
3869.106808,-9844.739029,518.144159,0.000000
3869.107138,-9622.677246,222.061783,153.219100
3869.107468,-9992.780217,148.041188,229.828649
3869.107797,-9844.739029,-74.020594,76.609550
3869.108127,-9622.677246,-296.082377,229.828649
3869.108457,-9696.697840,0.000000,459.657299
3869.108787,-9770.718434,0.000000,689.485948
3869.109116,-9548.656652,296.082377,459.657299
3869.109446,-9474.636058,0.000000,229.828649
3869.109776,-9474.636058,148.041188,459.657299
3869.110106,-9844.739029,0.000000,612.876398
3869.110435,-9992.780217,74.020594,612.876398
3869.110765,-9918.759623,0.000000,383.047749
3869.111095,-9770.718434,0.000000,153.219100
3869.111424,-10066.800811,0.000000,0.000000
3869.111754,-9696.697840,-74.020594,76.609550
3869.112084,-9474.636058,0.000000,153.219100
3869.112414,-9770.718434,148.041188,689.485948
3869.112743,-9918.759623,370.102971,459.657299
3869.113073,-9770.718434,0.000000,229.828649
3869.113403,-9844.739029,0.000000,0.000000
3869.113733,-9918.759623,148.041188,-229.828649
3869.114062,-10066.800811,0.000000,0.000000
3869.114392,-9992.780217,0.000000,919.314598
3869.114722,-9770.718434,0.000000,1072.533697
3869.115052,-9622.677246,0.000000,536.266849
3869.115381,-9548.656652,-148.041188,0.000000
3869.115711,-9844.739029,0.000000,0.000000
3869.116041,-9918.759623,-148.041188,306.438199
3869.116371,-9622.677246,0.000000,383.047749
3869.116700,-9770.718434,370.102971,612.876398
3869.117030,-9622.677246,296.082377,306.438199
3869.117360,-9770.718434,0.000000,76.609550
3869.117690,-9992.780217,444.123565,0.000000
3869.118019,-10140.821405,74.020594,-229.828649
3869.118349,-9992.780217,0.000000,0.000000
3869.118679,-9474.636058,0.000000,229.828649
3869.119009,-9548.656652,296.082377,383.047749
3869.119338,-9844.739029,0.000000,612.876398
3869.119668,-9548.656652,-444.123565,0.000000
3869.119998,-9474.636058,-370.102971,153.219100
3869.120328,-9474.636058,-148.041188,995.924147
3869.120657,-9770.718434,0.000000,1072.533697
3869.120987,-9992.780217,0.000000,919.314598
3869.121317,-10066.800811,222.061783,229.828649
3869.121646,-9770.718434,444.123565,-612.876398
3869.121976,-9548.656652,518.144159,-842.705048
3869.122306,-9918.759623,0.000000,0.000000
3869.122636,-9696.697840,148.041188,383.047749
3869.122965,-9474.636058,148.041188,459.657299
3869.123295,-9178.553681,-148.041188,612.876398
3869.123625,-9474.636058,-296.082377,0.000000
3869.123955,-9548.656652,-296.082377,-76.609550
3869.124284,-9400.615463,-296.082377,383.047749
3869.124614,-9696.697840,0.000000,766.095498
3869.124944,-10140.821405,518.144159,1149.143247
3869.125274,-9844.739029,296.082377,919.314598
3869.125603,-10436.903782,814.226536,76.609550
3869.125933,-10362.883188,444.123565,-306.438199
3869.126263,-10362.883188,592.164754,0.000000
3869.126593,-10066.800811,370.102971,0.000000
3869.126922,-9770.718434,222.061783,459.657299
3869.127252,-9252.574275,0.000000,306.438199
3869.127582,-9400.615463,0.000000,229.828649
3869.127912,-9326.594869,0.000000,-919.314598
3869.128241,-9770.718434,0.000000,-153.219100
3869.128571,-9844.739029,296.082377,689.485948
3869.128901,-9918.759623,74.020594,1149.143247
3869.129231,-10362.883188,814.226536,919.314598
3869.129560,-10362.883188,592.164754,383.047749
3869.129890,-9992.780217,0.000000,306.438199
3869.130220,-10288.862594,0.000000,229.828649
3869.130550,-9992.780217,296.082377,689.485948
3869.130879,-9104.533087,0.000000,536.266849
3869.131209,-9178.553681,-74.020594,536.266849
3869.131539,-9548.656652,222.061783,842.705048
3869.131869,-9622.677246,74.020594,612.876398
3869.132198,-9770.718434,148.041188,-229.828649
3869.132528,-9844.739029,-74.020594,153.219100
3869.132858,-9918.759623,0.000000,229.828649
3869.133187,-9918.759623,0.000000,689.485948
3869.133517,-9992.780217,0.000000,689.485948
3869.133847,-9770.718434,0.000000,0.000000
3869.134177,-9696.697840,-296.082377,-76.609550
3869.134506,-9918.759623,-222.061783,-229.828649
3869.134836,-9474.636058,-296.082377,306.438199
3869.135166,-9474.636058,-296.082377,306.438199
3869.135496,-8956.491898,-444.123565,229.828649
3869.135825,-9400.615463,-370.102971,0.000000
3869.136155,-9918.759623,-296.082377,153.219100
3869.136485,-9770.718434,0.000000,0.000000
3869.136815,-9992.780217,0.000000,229.828649
3869.137144,-10066.800811,74.020594,689.485948
3869.137474,-9992.780217,0.000000,842.705048
3869.137804,-9918.759623,222.061783,612.876398
3869.138134,-10214.842000,222.061783,229.828649
3869.138463,-9992.780217,74.020594,76.609550
3869.138793,-9474.636058,0.000000,0.000000
3869.139123,-9474.636058,-296.082377,0.000000
3869.139453,-9548.656652,-222.061783,153.219100
3869.139782,-9400.615463,0.000000,536.266849
3869.140112,-9844.739029,74.020594,229.828649
3869.140442,-10214.842000,-148.041188,-76.609550
3869.140772,-9844.739029,74.020594,229.828649
3869.141101,-10140.821405,370.102971,383.047749
3869.141431,-10140.821405,518.144159,76.609550
3869.141761,-9992.780217,518.144159,536.266849
3869.142091,-9992.780217,74.020594,76.609550
3869.142420,-10214.842000,370.102971,153.219100
3869.142750,-9770.718434,296.082377,76.609550
3869.143080,-9400.615463,0.000000,0.000000
3869.143410,-9400.615463,74.020594,-153.219100
3869.143739,-9252.574275,0.000000,0.000000
3869.144069,-9696.697840,222.061783,459.657299
3869.144399,-9770.718434,0.000000,459.657299
3869.144728,-10066.800811,296.082377,536.266849
3869.145058,-10066.800811,222.061783,229.828649
3869.145388,-9770.718434,74.020594,306.438199
3869.145718,-10066.800811,0.000000,76.609550
3869.146047,-9548.656652,0.000000,459.657299
3869.146377,-9696.697840,0.000000,842.705048
3869.146707,-9622.677246,0.000000,689.485948
3869.147037,-9696.697840,222.061783,536.266849
3869.147366,-9622.677246,0.000000,766.095498
3869.147696,-9696.697840,0.000000,-383.047749
3869.148026,-9844.739029,74.020594,0.000000
3869.148356,-9696.697840,222.061783,0.000000
3869.148685,-9844.739029,222.061783,229.828649
3869.149015,-9844.739029,592.164754,459.657299
3869.149345,-9918.759623,222.061783,0.000000
3869.149675,-9770.718434,0.000000,153.219100
3869.150004,-9770.718434,-74.020594,689.485948
3869.150334,-9548.656652,-518.144159,919.314598
3869.150664,-9548.656652,0.000000,689.485948
3869.150994,-9844.739029,0.000000,612.876398
3869.151323,-9548.656652,0.000000,0.000000
3869.151653,-9400.615463,0.000000,0.000000
3869.151983,-9918.759623,74.020594,0.000000
3869.152313,-9918.759623,148.041188,229.828649
3869.152642,-9844.739029,0.000000,383.047749
3869.152972,-9474.636058,74.020594,306.438199
3869.153302,-9252.574275,0.000000,306.438199
3869.153632,-9696.697840,0.000000,0.000000
3869.153961,-9918.759623,-222.061783,0.000000
3869.154291,-9622.677246,-370.102971,-383.047749
3869.154621,-9696.697840,-444.123565,995.924147
3869.154950,-9844.739029,0.000000,383.047749
3869.155280,-9474.636058,148.041188,383.047749
3869.155610,-9992.780217,444.123565,76.609550
3869.155940,-10066.800811,74.020594,-229.828649
3869.156269,-9696.697840,-296.082377,536.266849
3869.156599,-9696.697840,-296.082377,842.705048
3869.156929,-9844.739029,0.000000,1072.533697
3869.157259,-9548.656652,0.000000,0.000000
3869.157588,-9770.718434,-296.082377,0.000000
3869.157918,-9992.780217,148.041188,0.000000
3869.158248,-9622.677246,0.000000,-306.438199
3869.158578,-9844.739029,0.000000,153.219100
3869.158907,-9770.718434,74.020594,459.657299
3869.159237,-9622.677246,370.102971,76.609550
3869.159567,-9622.677246,0.000000,0.000000
3869.159897,-9770.718434,0.000000,0.000000
3869.160226,-10140.821405,0.000000,76.609550
3869.160556,-9844.739029,-148.041188,229.828649
3869.160886,-9622.677246,-148.041188,536.266849
3869.161216,-9548.656652,74.020594,153.219100
3869.161545,-9474.636058,222.061783,153.219100
3869.161875,-9696.697840,444.123565,0.000000
3869.162205,-9770.718434,370.102971,76.609550
3869.162535,-10288.862594,444.123565,153.219100
3869.162864,-10140.821405,370.102971,383.047749
3869.163194,-9474.636058,74.020594,229.828649
3869.163524,-10066.800811,74.020594,0.000000
3869.163854,-9622.677246,-148.041188,-76.609550
3869.164183,-9548.656652,0.000000,-229.828649
3869.164513,-9474.636058,0.000000,229.828649
3869.164843,-9696.697840,0.000000,306.438199
3869.165173,-9474.636058,0.000000,919.314598
3869.165502,-9918.759623,0.000000,1455.581446
3869.165832,-9918.759623,740.205942,1302.362347
3869.166162,-10140.821405,0.000000,842.705048
3869.166491,-10066.800811,0.000000,0.000000
3869.166821,-9622.677246,0.000000,0.000000
3869.167151,-9474.636058,74.020594,0.000000
3869.167481,-9696.697840,222.061783,229.828649
3869.167810,-9918.759623,222.061783,153.219100
3869.168140,-9474.636058,296.082377,229.828649
3869.168470,-9474.636058,0.000000,0.000000
3869.168800,-9178.553681,296.082377,76.609550
3869.169129,-9622.677246,0.000000,229.828649
3869.169459,-9918.759623,148.041188,383.047749
3869.169789,-9622.677246,0.000000,153.219100
3869.170119,-9252.574275,222.061783,153.219100
3869.170448,-9918.759623,222.061783,76.609550
3869.170778,-9918.759623,74.020594,153.219100
3869.171108,-10214.842000,370.102971,0.000000
3869.171438,-10214.842000,888.247130,0.000000
3869.171767,-9400.615463,0.000000,0.000000
3869.172097,-9474.636058,148.041188,383.047749
3869.172427,-9770.718434,74.020594,459.657299
3869.172757,-9474.636058,0.000000,-306.438199
3869.173086,-9696.697840,74.020594,0.000000
3869.173416,-9474.636058,0.000000,153.219100
3869.173746,-9696.697840,0.000000,459.657299
3869.174076,-10140.821405,296.082377,306.438199
3869.174405,-10066.800811,370.102971,459.657299
3869.174735,-10140.821405,296.082377,76.609550
3869.175065,-9992.780217,0.000000,153.219100
3869.175395,-9918.759623,222.061783,229.828649
3869.175724,-9918.759623,296.082377,689.485948
3869.176054,-9844.739029,0.000000,76.609550
3869.176384,-9474.636058,0.000000,153.219100
3869.176714,-9474.636058,0.000000,-459.657299
3869.177044,-9400.615463,148.041188,-536.266849
3869.177373,-9918.759623,222.061783,76.609550
3869.177703,-10214.842000,444.123565,612.876398
3869.178033,-10214.842000,296.082377,766.095498
3869.178363,-9992.780217,0.000000,766.095498
3869.178693,-9548.656652,0.000000,536.266849
3869.179023,-9548.656652,-148.041188,229.828649
3869.179352,-9622.677246,0.000000,229.828649
3869.179682,-9770.718434,-222.061783,153.219100
3869.180012,-9474.636058,74.020594,842.705048
3869.180342,-9474.636058,0.000000,76.609550
3869.180672,-9400.615463,0.000000,0.000000
3869.181002,-9622.677246,148.041188,153.219100
3869.181331,-10066.800811,296.082377,383.047749
3869.181661,-9770.718434,0.000000,536.266849
3869.181991,-10066.800811,148.041188,766.095498
3869.182321,-9770.718434,0.000000,689.485948
3869.182651,-9918.759623,0.000000,459.657299
3869.182981,-10066.800811,148.041188,612.876398
3869.183310,-9844.739029,0.000000,306.438199
3869.183640,-9770.718434,0.000000,459.657299
3869.183970,-9696.697840,222.061783,383.047749
3869.184300,-9252.574275,148.041188,153.219100
3869.184630,-9918.759623,0.000000,459.657299
3869.184960,-9918.759623,0.000000,76.609550
3869.185289,-9622.677246,-296.082377,153.219100
3869.185619,-9844.739029,0.000000,153.219100
3869.185949,-9844.739029,0.000000,76.609550
3869.186279,-9622.677246,74.020594,229.828649
3869.186609,-9844.739029,148.041188,459.657299
3869.186939,-9844.739029,0.000000,306.438199
3869.187268,-9844.739029,0.000000,0.000000
3869.187598,-9770.718434,0.000000,76.609550
3869.187928,-9696.697840,296.082377,459.657299
3869.188258,-9770.718434,296.082377,689.485948
3869.188588,-9770.718434,148.041188,229.828649
3869.188918,-9696.697840,0.000000,153.219100
3869.189247,-9844.739029,296.082377,-459.657299
3869.189577,-9844.739029,222.061783,76.609550
3869.189907,-9770.718434,0.000000,612.876398
3869.190237,-9918.759623,0.000000,153.219100
3869.190567,-9400.615463,-296.082377,153.219100
3869.190897,-9770.718434,-296.082377,766.095498
3869.191226,-10288.862594,0.000000,1378.971896
3869.191556,-9918.759623,0.000000,995.924147
3869.191886,-9622.677246,0.000000,383.047749
3869.192216,-9548.656652,74.020594,229.828649
3869.192546,-9992.780217,296.082377,0.000000
3869.192876,-9992.780217,592.164754,0.000000
3869.193206,-10288.862594,370.102971,0.000000
3869.193535,-9918.759623,222.061783,0.000000
3869.193865,-9326.594869,0.000000,76.609550
3869.194195,-9474.636058,-74.020594,76.609550
3869.194525,-9474.636058,-296.082377,-229.828649
3869.194855,-9326.594869,-666.185348,-153.219100
3869.195185,-9178.553681,-592.164754,76.609550
3869.195514,-9548.656652,-148.041188,842.705048
3869.195844,-9696.697840,74.020594,766.095498
3869.196174,-10140.821405,370.102971,459.657299
3869.196504,-10658.965565,814.226536,0.000000
3869.196834,-10436.903782,666.185348,0.000000
3869.197164,-10584.944971,592.164754,0.000000
3869.197493,-10066.800811,370.102971,153.219100
3869.197823,-9696.697840,148.041188,76.609550
3869.198153,-9474.636058,74.020594,0.000000
3869.198483,-9474.636058,0.000000,-153.219100
3869.198813,-9474.636058,-148.041188,-76.609550
3869.199143,-9696.697840,148.041188,153.219100
3869.199472,-10066.800811,370.102971,766.095498
3869.199802,-9696.697840,148.041188,1225.752797
3869.200132,-9918.759623,296.082377,76.609550
3869.200462,-10066.800811,222.061783,306.438199
3869.200792,-10140.821405,296.082377,383.047749
3869.201122,-10362.883188,444.123565,306.438199
3869.201451,-9400.615463,-444.123565,536.266849
3869.201781,-9400.615463,-74.020594,919.314598
3869.202111,-9622.677246,-148.041188,1072.533697
3869.202441,-9844.739029,0.000000,612.876398
3869.202771,-9474.636058,74.020594,-153.219100
3869.203101,-9400.615463,296.082377,-689.485948
3869.203430,-9548.656652,0.000000,-536.266849
3869.203760,-9844.739029,592.164754,153.219100
3869.204090,-10288.862594,444.123565,919.314598
3869.204420,-10140.821405,222.061783,842.705048
3869.204750,-9696.697840,-296.082377,229.828649
3869.205080,-9474.636058,-518.144159,459.657299
3869.205409,-9548.656652,-296.082377,995.924147
3869.205739,-9474.636058,-592.164754,842.705048
3869.206069,-9104.533087,-518.144159,306.438199
3869.206399,-9474.636058,-296.082377,0.000000
3869.206729,-9918.759623,370.102971,0.000000
3869.207059,-10436.903782,518.144159,0.000000
3869.207388,-10288.862594,370.102971,-383.047749
3869.207718,-10140.821405,444.123565,-153.219100
3869.208048,-9918.759623,296.082377,0.000000
3869.208378,-9770.718434,-148.041188,689.485948
3869.208708,-9992.780217,0.000000,536.266849
3869.209038,-9696.697840,-222.061783,76.609550
3869.209367,-9474.636058,-370.102971,-153.219100
3869.209697,-9474.636058,0.000000,306.438199
3869.210027,-9622.677246,0.000000,383.047749
3869.210357,-10066.800811,444.123565,842.705048
3869.210687,-10140.821405,148.041188,842.705048
3869.211017,-10066.800811,148.041188,459.657299
3869.211346,-10140.821405,370.102971,153.219100
3869.211676,-9918.759623,0.000000,0.000000
3869.212006,-10214.842000,0.000000,229.828649
3869.212336,-9548.656652,-444.123565,76.609550
3869.212666,-9474.636058,-74.020594,0.000000
3869.212996,-9474.636058,-222.061783,-76.609550
3869.213326,-9548.656652,74.020594,-459.657299
3869.213655,-9622.677246,296.082377,0.000000
3869.213985,-9326.594869,296.082377,0.000000
3869.214315,-9548.656652,0.000000,76.609550
3869.214645,-9696.697840,74.020594,306.438199
3869.214975,-9770.718434,0.000000,536.266849
3869.215305,-9918.759623,-74.020594,766.095498
3869.215634,-9696.697840,74.020594,459.657299
3869.215964,-9844.739029,0.000000,536.266849
3869.216294,-9622.677246,0.000000,612.876398
3869.216624,-9622.677246,148.041188,612.876398
3869.216954,-9474.636058,370.102971,229.828649
3869.217284,-9548.656652,518.144159,0.000000
3869.217613,-9992.780217,518.144159,76.609550
3869.217943,-10066.800811,666.185348,0.000000
3869.218273,-10066.800811,444.123565,612.876398
3869.218603,-9844.739029,0.000000,0.000000
3869.218933,-9696.697840,0.000000,-76.609550
3869.219263,-9622.677246,0.000000,0.000000
3869.219592,-9770.718434,74.020594,995.924147
3869.219922,-10288.862594,444.123565,1149.143247
3869.220252,-9770.718434,0.000000,842.705048
3869.220582,-9696.697840,0.000000,383.047749
3869.220912,-9622.677246,0.000000,153.219100
3869.221242,-9844.739029,74.020594,229.828649
3869.221571,-9844.739029,74.020594,76.609550
3869.221901,-9992.780217,74.020594,76.609550
3869.222231,-9548.656652,0.000000,0.000000
3869.222561,-9992.780217,148.041188,153.219100
3869.222891,-9918.759623,74.020594,-306.438199
3869.223221,-10362.883188,296.082377,0.000000
3869.223550,-9992.780217,148.041188,0.000000
3869.223880,-9400.615463,-444.123565,689.485948
3869.224210,-9474.636058,-148.041188,383.047749
3869.224540,-9548.656652,-74.020594,306.438199
3869.224870,-9992.780217,-296.082377,76.609550
3869.225200,-9918.759623,0.000000,153.219100
3869.225529,-9992.780217,222.061783,612.876398
3869.225859,-10140.821405,148.041188,536.266849
3869.226189,-10066.800811,148.041188,383.047749
3869.226519,-10066.800811,0.000000,0.000000
3869.226849,-9844.739029,222.061783,153.219100
3869.227179,-9252.574275,-370.102971,153.219100
3869.227508,-9474.636058,-370.102971,1225.752797
3869.227838,-9696.697840,-296.082377,1149.143247
3869.228168,-9474.636058,-222.061783,689.485948
3869.228498,-9696.697840,-148.041188,-229.828649
3869.228828,-10066.800811,0.000000,-229.828649
3869.229158,-9992.780217,444.123565,-306.438199
3869.229487,-10288.862594,666.185348,229.828649
3869.229817,-10362.883188,444.123565,383.047749
3869.230147,-9770.718434,148.041188,459.657299
3869.230477,-9770.718434,74.020594,153.219100
3869.230807,-9548.656652,-296.082377,0.000000
3869.231137,-9770.718434,-296.082377,306.438199
3869.231466,-8956.491898,-592.164754,-229.828649
3869.231796,-9030.512492,-296.082377,383.047749
3869.232126,-9400.615463,0.000000,536.266849
3869.232456,-9992.780217,296.082377,229.828649
3869.232786,-9918.759623,370.102971,-76.609550
3869.233116,-10584.944971,814.226536,0.000000
3869.233446,-10362.883188,444.123565,306.438199
3869.233775,-10288.862594,592.164754,995.924147
3869.234105,-10066.800811,296.082377,842.705048
3869.234435,-9992.780217,74.020594,-229.828649
3869.234765,-9474.636058,148.041188,-229.828649
3869.235095,-9178.553681,-370.102971,-459.657299
3869.235425,-9474.636058,-148.041188,0.000000
3869.235754,-9474.636058,74.020594,766.095498
3869.236084,-9400.615463,0.000000,1608.800546
3869.236414,-9918.759623,444.123565,1072.533697
3869.236744,-10510.924376,666.185348,1072.533697
3869.237074,-10288.862594,296.082377,459.657299
3869.237404,-10288.862594,148.041188,153.219100
3869.237733,-10066.800811,296.082377,0.000000
3869.238063,-9770.718434,222.061783,76.609550
3869.238393,-9918.759623,74.020594,229.828649
3869.238723,-9770.718434,296.082377,229.828649
3869.239053,-9474.636058,0.000000,-306.438199
3869.239383,-8956.491898,0.000000,-536.266849
3869.239712,-9474.636058,0.000000,0.000000
3869.240042,-9178.553681,-74.020594,459.657299
3869.240372,-9104.533087,-296.082377,459.657299
3869.240702,-9400.615463,-296.082377,306.438199
3869.241032,-9918.759623,74.020594,383.047749
3869.241362,-10214.842000,74.020594,76.609550
3869.241691,-10140.821405,148.041188,612.876398
3869.242021,-10362.883188,74.020594,842.705048
3869.242351,-10140.821405,296.082377,995.924147
3869.242681,-9400.615463,0.000000,459.657299
3869.243011,-9770.718434,0.000000,-229.828649
3869.243341,-9474.636058,0.000000,-536.266849
3869.243670,-9622.677246,74.020594,-689.485948
3869.244000,-9770.718434,222.061783,-612.876398
3869.244330,-9474.636058,222.061783,0.000000
3869.244660,-9770.718434,444.123565,536.266849
3869.244990,-10140.821405,296.082377,919.314598
3869.245320,-10510.924376,222.061783,995.924147
3869.245649,-10214.842000,74.020594,612.876398
3869.245979,-9918.759623,-148.041188,383.047749
3869.246309,-9844.739029,0.000000,612.876398
3869.246639,-9696.697840,222.061783,766.095498
3869.246969,-9474.636058,0.000000,229.828649
3869.247299,-9622.677246,222.061783,76.609550
3869.247628,-9844.739029,518.144159,76.609550
3869.247958,-9992.780217,592.164754,76.609550
3869.248288,-9770.718434,296.082377,0.000000
3869.248618,-9696.697840,296.082377,0.000000
3869.248948,-9696.697840,222.061783,0.000000
3869.249278,-9548.656652,0.000000,229.828649
3869.249607,-10066.800811,0.000000,383.047749
3869.249937,-9696.697840,0.000000,536.266849
3869.250267,-9474.636058,-370.102971,459.657299
3869.250597,-9548.656652,-148.041188,383.047749
3869.250927,-9844.739029,148.041188,536.266849
3869.251257,-9696.697840,148.041188,612.876398
3869.251586,-9918.759623,0.000000,459.657299
3869.251916,-9992.780217,148.041188,229.828649
3869.252246,-10436.903782,370.102971,766.095498
3869.252576,-9622.677246,0.000000,-153.219100
3869.252906,-9918.759623,-148.041188,0.000000
3869.253236,-9918.759623,-148.041188,-153.219100
3869.253566,-9474.636058,-444.123565,229.828649
3869.253895,-9622.677246,0.000000,612.876398
3869.254225,-9844.739029,148.041188,536.266849
3869.254555,-9696.697840,0.000000,229.828649
3869.254885,-9696.697840,296.082377,76.609550
3869.255215,-9992.780217,148.041188,153.219100
3869.255545,-10362.883188,74.020594,306.438199
3869.255874,-10066.800811,0.000000,689.485948
3869.256204,-10066.800811,0.000000,842.705048
3869.256534,-10362.883188,148.041188,842.705048
3869.256864,-9548.656652,-296.082377,0.000000
3869.257194,-9918.759623,74.020594,-306.438199
3869.257524,-9696.697840,148.041188,76.609550
3869.257853,-9696.697840,74.020594,153.219100
3869.258183,-9474.636058,148.041188,0.000000
3869.258513,-10140.821405,296.082377,0.000000
3869.258843,-10214.842000,222.061783,0.000000
3869.259173,-9992.780217,0.000000,76.609550
3869.259503,-9918.759623,148.041188,383.047749
3869.259832,-9918.759623,0.000000,153.219100
3869.260162,-9400.615463,-148.041188,536.266849
3869.260492,-9622.677246,0.000000,306.438199
3869.260822,-9918.759623,222.061783,1072.533697
3869.261152,-9844.739029,0.000000,229.828649
3869.261482,-9474.636058,0.000000,842.705048
3869.261811,-10140.821405,222.061783,995.924147
3869.262141,-9992.780217,222.061783,1762.019645
3869.262471,-10214.842000,74.020594,612.876398
3869.262801,-9918.759623,74.020594,-383.047749
3869.263131,-9696.697840,74.020594,-919.314598
3869.263461,-9548.656652,0.000000,-536.266849
3869.263790,-9918.759623,444.123565,0.000000
3869.264120,-9770.718434,222.061783,306.438199
3869.264450,-9400.615463,0.000000,76.609550
3869.264780,-9400.615463,-370.102971,0.000000
3869.265110,-9474.636058,-74.020594,459.657299
3869.265440,-9770.718434,-74.020594,76.609550
3869.265769,-9400.615463,-370.102971,229.828649
3869.266099,-9918.759623,0.000000,459.657299
3869.266429,-10066.800811,592.164754,919.314598
3869.266759,-10584.944971,592.164754,0.000000
3869.267089,-10214.842000,740.205942,0.000000
3869.267419,-10362.883188,592.164754,0.000000
3869.267748,-10140.821405,370.102971,0.000000
3869.268078,-9622.677246,296.082377,153.219100
3869.268408,-9474.636058,74.020594,0.000000
3869.268738,-9326.594869,-222.061783,-383.047749
3869.269068,-9252.574275,0.000000,-306.438199
3869.269398,-9474.636058,0.000000,-153.219100
3869.269727,-9474.636058,222.061783,153.219100
3869.270057,-9844.739029,222.061783,842.705048
3869.270387,-10066.800811,444.123565,919.314598
3869.270717,-10955.047942,888.247130,1149.143247
3869.271047,-10214.842000,444.123565,153.219100
3869.271377,-9992.780217,222.061783,76.609550
3869.271706,-10066.800811,148.041188,153.219100
3869.272036,-9622.677246,0.000000,766.095498
3869.272366,-9104.533087,0.000000,0.000000
3869.272696,-9030.512492,-370.102971,-306.438199
3869.273026,-9474.636058,74.020594,383.047749
3869.273356,-9770.718434,0.000000,153.219100
3869.273686,-9844.739029,222.061783,153.219100
3869.274015,-9844.739029,0.000000,612.876398
3869.274345,-10066.800811,74.020594,612.876398
3869.274675,-9992.780217,0.000000,842.705048
3869.275005,-10362.883188,518.144159,612.876398
3869.275335,-9992.780217,0.000000,229.828649
3869.275665,-9548.656652,-296.082377,153.219100
3869.275994,-9770.718434,0.000000,306.438199
3869.276324,-9548.656652,0.000000,842.705048
3869.276654,-9474.636058,-74.020594,383.047749
3869.276984,-9474.636058,-296.082377,0.000000
3869.277314,-9548.656652,0.000000,0.000000
3869.277644,-9622.677246,-148.041188,-229.828649
3869.277973,-9696.697840,0.000000,153.219100
3869.278303,-10436.903782,222.061783,536.266849
3869.278633,-10066.800811,518.144159,459.657299
3869.278963,-9918.759623,74.020594,153.219100
3869.279293,-10066.800811,0.000000,766.095498
3869.279623,-10362.883188,0.000000,383.047749
3869.279952,-9918.759623,74.020594,536.266849
3869.280282,-9474.636058,0.000000,229.828649
3869.280612,-9326.594869,0.000000,919.314598
3869.280942,-9548.656652,-296.082377,229.828649
3869.281272,-9770.718434,0.000000,0.000000
3869.281602,-9918.759623,0.000000,0.000000
3869.281931,-9992.780217,74.020594,153.219100
3869.282261,-9918.759623,148.041188,153.219100
3869.282591,-10214.842000,222.061783,383.047749
3869.282921,-10362.883188,222.061783,0.000000
3869.283251,-9696.697840,0.000000,0.000000
3869.283581,-9622.677246,0.000000,76.609550
3869.283910,-9622.677246,-74.020594,76.609550
3869.284240,-9696.697840,0.000000,612.876398
3869.284570,-9252.574275,0.000000,153.219100
3869.284900,-9326.594869,-296.082377,306.438199
3869.285230,-9548.656652,0.000000,76.609550
3869.285560,-9696.697840,0.000000,306.438199
3869.285889,-9992.780217,148.041188,306.438199
3869.286219,-9696.697840,0.000000,612.876398
3869.286549,-9770.718434,222.061783,229.828649
3869.286879,-9770.718434,148.041188,153.219100
3869.287209,-9992.780217,148.041188,536.266849
3869.287539,-9918.759623,222.061783,0.000000
3869.287868,-9474.636058,222.061783,536.266849
3869.288198,-9474.636058,0.000000,612.876398
3869.288528,-9622.677246,0.000000,842.705048
3869.288858,-9548.656652,0.000000,76.609550
3869.289188,-9622.677246,-148.041188,0.000000
3869.289518,-10066.800811,444.123565,306.438199
3869.289847,-9548.656652,0.000000,306.438199
3869.290177,-9770.718434,222.061783,306.438199
3869.290507,-10362.883188,444.123565,1072.533697
3869.290837,-9696.697840,222.061783,536.266849
3869.291167,-9622.677246,0.000000,383.047749
3869.291497,-9918.759623,0.000000,306.438199
3869.291826,-9844.739029,0.000000,612.876398
3869.292156,-9770.718434,0.000000,459.657299
3869.292486,-9770.718434,-74.020594,229.828649
3869.292816,-9474.636058,0.000000,0.000000
3869.293146,-9622.677246,74.020594,-383.047749
3869.293476,-9696.697840,-222.061783,-229.828649
3869.293805,-10066.800811,74.020594,76.609550
3869.294135,-10214.842000,296.082377,766.095498
3869.294465,-9548.656652,0.000000,459.657299
3869.294795,-9770.718434,0.000000,0.000000
3869.295125,-10066.800811,0.000000,0.000000
3869.295455,-9918.759623,-148.041188,76.609550
3869.295785,-9548.656652,-74.020594,153.219100
3869.296114,-9770.718434,0.000000,0.000000
3869.296444,-9918.759623,296.082377,383.047749
3869.296774,-9992.780217,0.000000,383.047749
3869.297104,-9918.759623,370.102971,153.219100
3869.297434,-9844.739029,0.000000,0.000000
3869.297764,-9252.574275,0.000000,0.000000
3869.298093,-9696.697840,0.000000,842.705048
3869.298423,-10066.800811,0.000000,995.924147
3869.298753,-9770.718434,-370.102971,536.266849
3869.299083,-9400.615463,74.020594,-612.876398
3869.299413,-9548.656652,0.000000,0.000000
3869.299743,-10066.800811,296.082377,0.000000
3869.300072,-9918.759623,370.102971,153.219100
3869.300402,-10066.800811,222.061783,0.000000
3869.300732,-9918.759623,296.082377,383.047749
3869.301062,-9770.718434,222.061783,0.000000
3869.301392,-9844.739029,0.000000,306.438199
3869.301722,-9696.697840,-222.061783,536.266849
3869.302051,-9400.615463,-222.061783,0.000000
3869.302381,-9474.636058,-296.082377,76.609550
3869.302711,-9474.636058,148.041188,0.000000
3869.303041,-9770.718434,222.061783,229.828649
3869.303371,-10066.800811,148.041188,-76.609550
3869.303701,-9844.739029,296.082377,0.000000
3869.304030,-10140.821405,222.061783,383.047749
3869.304360,-9770.718434,222.061783,459.657299
3869.304690,-9474.636058,74.020594,0.000000
3869.305020,-9474.636058,0.000000,0.000000
3869.305350,-9770.718434,0.000000,-306.438199
3869.305680,-9770.718434,0.000000,0.000000
3869.306009,-9770.718434,148.041188,76.609550
3869.306339,-9918.759623,296.082377,153.219100
3869.306669,-9474.636058,518.144159,612.876398
3869.306999,-9918.759623,148.041188,1072.533697
3869.307329,-10362.883188,296.082377,842.705048
3869.307659,-10140.821405,296.082377,536.266849
3869.307988,-9992.780217,0.000000,0.000000
3869.308318,-9474.636058,0.000000,0.000000
3869.308648,-9622.677246,74.020594,-153.219100
3869.308978,-9252.574275,0.000000,536.266849
3869.309308,-10066.800811,0.000000,689.485948
3869.309638,-9622.677246,296.082377,229.828649
3869.309967,-9326.594869,74.020594,229.828649
3869.310297,-9474.636058,0.000000,-689.485948
3869.310627,-9474.636058,0.000000,0.000000
3869.310957,-9918.759623,-74.020594,383.047749
3869.311287,-9474.636058,-518.144159,689.485948
3869.311617,-9622.677246,0.000000,383.047749
3869.311946,-9844.739029,222.061783,153.219100
3869.312276,-10362.883188,148.041188,0.000000
3869.312606,-10362.883188,444.123565,76.609550
3869.312936,-9992.780217,296.082377,0.000000
3869.313266,-9178.553681,296.082377,536.266849
3869.313596,-9252.574275,0.000000,153.219100
3869.313925,-9548.656652,0.000000,0.000000
3869.314255,-9622.677246,-222.061783,-153.219100
3869.314585,-9474.636058,-222.061783,0.000000
3869.314915,-9548.656652,-148.041188,459.657299
3869.315245,-10066.800811,222.061783,536.266849
3869.315575,-10066.800811,444.123565,842.705048
3869.315904,-10436.903782,370.102971,842.705048
3869.316234,-10066.800811,222.061783,153.219100
3869.316564,-9770.718434,222.061783,0.000000
3869.316894,-10066.800811,148.041188,229.828649
3869.317224,-9992.780217,0.000000,383.047749
3869.317554,-9696.697840,-296.082377,306.438199
3869.317883,-9770.718434,0.000000,0.000000
3869.318213,-9548.656652,0.000000,-229.828649
3869.318543,-9548.656652,74.020594,0.000000
3869.318873,-9622.677246,296.082377,153.219100
3869.319203,-10066.800811,518.144159,153.219100
3869.319533,-10066.800811,370.102971,459.657299
3869.319863,-9992.780217,222.061783,229.828649
3869.320192,-9918.759623,0.000000,229.828649
3869.320522,-9696.697840,0.000000,0.000000
3869.320852,-9548.656652,0.000000,-229.828649
3869.321182,-9474.636058,0.000000,229.828649
3869.321512,-9622.677246,0.000000,383.047749
3869.321842,-9474.636058,0.000000,536.266849
3869.322171,-9252.574275,148.041188,0.000000
3869.322501,-9770.718434,0.000000,229.828649
3869.322831,-10066.800811,0.000000,153.219100
3869.323161,-9918.759623,74.020594,153.219100
3869.323491,-9622.677246,-370.102971,766.095498
3869.323821,-9696.697840,0.000000,383.047749
3869.324150,-9474.636058,-148.041188,459.657299
3869.324480,-9474.636058,-222.061783,153.219100
3869.324810,-9992.780217,222.061783,612.876398
3869.325140,-9770.718434,148.041188,459.657299
3869.325470,-9696.697840,296.082377,306.438199
3869.325800,-9548.656652,222.061783,229.828649
3869.326129,-9696.697840,0.000000,0.000000
3869.326459,-9770.718434,74.020594,0.000000
3869.326789,-9918.759623,0.000000,383.047749
3869.327119,-9844.739029,0.000000,229.828649
3869.327449,-9548.656652,0.000000,229.828649
3869.327779,-9474.636058,-444.123565,383.047749
3869.328108,-10066.800811,0.000000,229.828649
3869.328438,-9844.739029,0.000000,76.609550
3869.328768,-9548.656652,0.000000,0.000000
3869.329098,-9844.739029,370.102971,0.000000
3869.329428,-9844.739029,222.061783,459.657299
3869.329758,-9918.759623,74.020594,383.047749
3869.330087,-9992.780217,148.041188,0.000000
3869.330417,-9844.739029,0.000000,0.000000
3869.330747,-9696.697840,0.000000,-459.657299
3869.331077,-9844.739029,0.000000,76.609550
3869.331407,-9696.697840,0.000000,306.438199
3869.331737,-9918.759623,148.041188,459.657299
3869.332066,-9252.574275,-148.041188,229.828649
3869.332396,-9622.677246,-148.041188,1072.533697
3869.332726,-9918.759623,0.000000,995.924147
3869.333056,-10288.862594,0.000000,536.266849
3869.333386,-9992.780217,148.041188,-383.047749
3869.333716,-9918.759623,148.041188,-306.438199
3869.334045,-9770.718434,296.082377,-306.438199
3869.334375,-9770.718434,222.061783,-306.438199
3869.334705,-9918.759623,444.123565,0.000000
3869.335035,-9844.739029,370.102971,153.219100
3869.335365,-9474.636058,148.041188,229.828649
3869.335695,-9474.636058,0.000000,0.000000
3869.336024,-9548.656652,-74.020594,-229.828649
3869.336354,-9104.533087,-518.144159,-306.438199
3869.336684,-9474.636058,-592.164754,459.657299
3869.337014,-9548.656652,0.000000,995.924147
3869.337344,-9770.718434,74.020594,766.095498
3869.337674,-9770.718434,740.205942,0.000000
3869.338003,-10584.944971,666.185348,0.000000
3869.338333,-10436.903782,592.164754,76.609550
3869.338663,-10214.842000,444.123565,76.609550
3869.338993,-9770.718434,370.102971,306.438199
3869.339323,-9548.656652,0.000000,-76.609550
3869.339653,-9474.636058,-148.041188,-306.438199
3869.339982,-9400.615463,-74.020594,-76.609550
3869.340312,-9622.677246,-296.082377,-306.438199
3869.340642,-9622.677246,0.000000,383.047749
3869.340972,-9622.677246,0.000000,459.657299
3869.341302,-9844.739029,518.144159,536.266849
3869.341632,-10214.842000,814.226536,612.876398
3869.341962,-10066.800811,148.041188,689.485948
3869.342291,-10288.862594,74.020594,689.485948
3869.342621,-10066.800811,370.102971,306.438199
3869.342951,-9474.636058,0.000000,229.828649
3869.343281,-9252.574275,74.020594,383.047749
3869.343611,-9918.759623,148.041188,995.924147
3869.343941,-10140.821405,0.000000,536.266849
3869.344270,-9622.677246,0.000000,-306.438199
3869.344600,-9622.677246,74.020594,-842.705048
3869.344930,-9474.636058,370.102971,-459.657299
3869.345260,-9770.718434,148.041188,0.000000
3869.345590,-9770.718434,148.041188,766.095498
3869.345920,-9622.677246,0.000000,459.657299
3869.346249,-9474.636058,-444.123565,153.219100
3869.346579,-9696.697840,-370.102971,76.609550
3869.346909,-9770.718434,-370.102971,536.266849
3869.347239,-9474.636058,-370.102971,306.438199
3869.347569,-8660.409521,-592.164754,919.314598
3869.347899,-9400.615463,-296.082377,612.876398
3869.348228,-9622.677246,148.041188,76.609550
3869.348558,-10066.800811,444.123565,76.609550
3869.348888,-10066.800811,740.205942,0.000000
3869.349218,-10436.903782,370.102971,0.000000
3869.349548,-10066.800811,370.102971,76.609550
3869.349878,-9918.759623,-148.041188,612.876398
3869.350207,-9622.677246,74.020594,383.047749
3869.350537,-9622.677246,-222.061783,0.000000
3869.350867,-9696.697840,-296.082377,0.000000
3869.351197,-9844.739029,-222.061783,0.000000
3869.351527,-9622.677246,74.020594,383.047749
3869.351857,-9548.656652,0.000000,842.705048
3869.352186,-9696.697840,0.000000,919.314598
3869.352516,-9918.759623,148.041188,536.266849
3869.352846,-10066.800811,0.000000,306.438199
3869.353176,-10066.800811,0.000000,229.828649
3869.353506,-10140.821405,148.041188,153.219100
3869.353836,-9696.697840,0.000000,0.000000
3869.354165,-9474.636058,0.000000,-229.828649
3869.354495,-9844.739029,0.000000,0.000000
3869.354825,-9400.615463,0.000000,-76.609550
3869.355155,-9400.615463,0.000000,-383.047749
3869.355485,-9326.594869,0.000000,0.000000
3869.355815,-9474.636058,0.000000,153.219100
3869.356144,-9474.636058,148.041188,995.924147
3869.356474,-9622.677246,0.000000,919.314598
3869.356804,-9844.739029,0.000000,1225.752797
3869.357134,-10066.800811,0.000000,612.876398
3869.357464,-9696.697840,-74.020594,536.266849
3869.357794,-9770.718434,0.000000,459.657299
3869.358123,-9696.697840,74.020594,536.266849
3869.358453,-9104.533087,0.000000,306.438199
3869.358783,-9548.656652,370.102971,766.095498
3869.359113,-9770.718434,296.082377,306.438199
3869.359443,-9696.697840,0.000000,153.219100
3869.359773,-9696.697840,0.000000,306.438199
3869.360102,-9770.718434,296.082377,229.828649
3869.360432,-9844.739029,0.000000,76.609550
3869.360762,-9622.677246,74.020594,612.876398
3869.361092,-9918.759623,74.020594,1072.533697
3869.361422,-9992.780217,74.020594,995.924147
3869.361752,-9844.739029,74.020594,459.657299
3869.362081,-9400.615463,0.000000,383.047749
3869.362411,-9844.739029,74.020594,229.828649
3869.362741,-10140.821405,0.000000,459.657299
3869.363071,-9844.739029,222.061783,306.438199
3869.363401,-9844.739029,74.020594,0.000000
3869.363731,-9770.718434,148.041188,-536.266849
3869.364061,-9548.656652,296.082377,-229.828649
3869.364390,-9622.677246,-222.061783,0.000000
3869.364720,-9770.718434,-74.020594,229.828649
3869.365050,-9548.656652,0.000000,153.219100
3869.365380,-9474.636058,-518.144159,612.876398
3869.365710,-9844.739029,0.000000,459.657299
3869.366040,-9548.656652,0.000000,76.609550
3869.366369,-10066.800811,-74.020594,0.000000
3869.366699,-9918.759623,0.000000,383.047749
3869.367029,-10214.842000,296.082377,306.438199
3869.367359,-9844.739029,296.082377,689.485948
3869.367689,-9844.739029,148.041188,76.609550
3869.368019,-9918.759623,296.082377,-153.219100
3869.368348,-9474.636058,0.000000,-383.047749
3869.368678,-9844.739029,-148.041188,536.266849
3869.369008,-9844.739029,-444.123565,1302.362347
3869.369338,-9844.739029,-296.082377,1225.752797
3869.369668,-9622.677246,-444.123565,229.828649
3869.369998,-9548.656652,-444.123565,-153.219100
3869.370327,-10066.800811,296.082377,-229.828649
3869.370657,-10140.821405,296.082377,0.000000
3869.370987,-10510.924376,518.144159,306.438199
3869.371317,-10066.800811,666.185348,919.314598
3869.371647,-9696.697840,222.061783,153.219100
3869.371977,-9548.656652,0.000000,-153.219100
3869.372306,-9696.697840,-444.123565,-76.609550
3869.372636,-9474.636058,-296.082377,0.000000
3869.372966,-8808.450710,-592.164754,153.219100
3869.373296,-8956.491898,-370.102971,306.438199
3869.373626,-9252.574275,0.000000,153.219100
3869.373956,-9992.780217,0.000000,0.000000
3869.374285,-10066.800811,444.123565,0.000000
3869.374615,-10436.903782,444.123565,383.047749
3869.374945,-10362.883188,888.247130,689.485948
3869.375275,-9992.780217,74.020594,842.705048
3869.375605,-10066.800811,370.102971,383.047749
3869.375935,-9844.739029,444.123565,0.000000
3869.376264,-9770.718434,0.000000,-459.657299
3869.376594,-9474.636058,74.020594,-383.047749
3869.376924,-9622.677246,0.000000,-76.609550
3869.377254,-9178.553681,0.000000,459.657299
3869.377584,-9696.697840,74.020594,1532.190996
3869.377913,-10140.821405,444.123565,1455.581446
3869.378243,-10288.862594,0.000000,76.609550
3869.378573,-10214.842000,296.082377,0.000000
3869.378903,-10140.821405,296.082377,306.438199
3869.379232,-9844.739029,74.020594,536.266849
3869.379562,-9696.697840,222.061783,689.485948
3869.379892,-9844.739029,296.082377,536.266849
3869.380222,-9770.718434,222.061783,0.000000
3869.380552,-9548.656652,0.000000,-306.438199
3869.380881,-9252.574275,-74.020594,-229.828649
3869.381211,-9474.636058,0.000000,0.000000
3869.381541,-9326.594869,-148.041188,229.828649
3869.381871,-9548.656652,0.000000,612.876398
3869.382200,-9992.780217,0.000000,76.609550
3869.382530,-10066.800811,148.041188,0.000000
3869.382860,-10436.903782,0.000000,0.000000
3869.383190,-10214.842000,0.000000,842.705048
3869.383519,-10510.924376,370.102971,995.924147
3869.383849,-9844.739029,74.020594,766.095498
3869.384179,-9252.574275,-222.061783,229.828649
3869.384509,-9326.594869,0.000000,0.000000
3869.384838,-9696.697840,0.000000,-459.657299
3869.385168,-9548.656652,-296.082377,-612.876398
3869.385498,-9548.656652,148.041188,-459.657299
