#time,accel_x,accel_y,accel_z
4136.277368,-9844.739029,74.020594,383.047749
4136.277698,-10066.800811,0.000000,306.438199
4136.278028,-9918.759623,74.020594,0.000000
4136.278358,-9918.759623,74.020594,383.047749
4136.278688,-9696.697840,296.082377,0.000000
4136.279018,-9770.718434,74.020594,153.219100
4136.279348,-9918.759623,0.000000,383.047749
4136.279678,-9622.677246,-296.082377,153.219100
4136.280008,-9622.677246,0.000000,0.000000
4136.280337,-9844.739029,222.061783,306.438199
4136.280667,-9992.780217,0.000000,459.657299
4136.280997,-10214.842000,296.082377,76.609550
4136.281327,-10066.800811,222.061783,536.266849
4136.281657,-9844.739029,74.020594,0.000000
4136.281987,-9696.697840,0.000000,153.219100
4136.282317,-9622.677246,-296.082377,153.219100
4136.282647,-9770.718434,0.000000,306.438199
4136.282977,-9326.594869,0.000000,766.095498
4136.283307,-9696.697840,0.000000,612.876398
4136.283637,-9844.739029,148.041188,766.095498
4136.283967,-9696.697840,222.061783,0.000000
4136.284297,-9844.739029,0.000000,459.657299
4136.284626,-10288.862594,222.061783,689.485948
4136.284956,-9992.780217,0.000000,842.705048
4136.285286,-9326.594869,-666.185348,1532.190996
4136.285616,-9696.697840,-296.082377,1685.410096
4136.285946,-9696.697840,-370.102971,2068.457845
4136.286276,-10288.862594,-296.082377,1225.752797
4136.286606,-9918.759623,-222.061783,612.876398
4136.286936,-9918.759623,-296.082377,-229.828649
4136.287266,-9474.636058,-222.061783,0.000000
4136.287596,-9696.697840,-296.082377,306.438199
4136.287926,-9992.780217,-444.123565,1378.971896
4136.288256,-9844.739029,-370.102971,1991.848295
4136.288586,-9252.574275,-740.205942,2374.896044
4136.288916,-9326.594869,-888.247130,1991.848295
4136.289245,-9918.759623,-740.205942,1915.238745
4136.289575,-9770.718434,-1702.473667,1762.019645
4136.289905,-9992.780217,-1184.329507,2374.896044
4136.290235,-10140.821405,-1036.288319,2911.162892
4136.290565,-10214.842000,-666.185348,2911.162892
4136.290895,-10362.883188,-518.144159,2451.505594
4136.291225,-10362.883188,-518.144159,2221.676944
4136.291555,-10584.944971,-444.123565,1991.848295
4136.291885,-10510.924376,-444.123565,1225.752797
4136.292215,-9770.718434,-740.205942,1378.971896
4136.292545,-9770.718434,-1258.350101,2068.457845
4136.292875,-9992.780217,-1924.535449,2757.943793
4136.293205,-10214.842000,-2516.700203,3217.601092
4136.293534,-9844.739029,-2590.720797,2604.724693
4136.293864,-9104.533087,-3256.906145,2068.457845
4136.294194,-8808.450710,-3330.926739,3064.381992
4136.294524,-8734.430116,-3330.926739,3983.696590
4136.294854,-9178.553681,-3034.844362,4136.915689
4136.295184,-9548.656652,-2664.741391,4443.353888
4136.295514,-10510.924376,-2886.803174,3830.477490
4136.295844,-11325.150913,-2590.720797,2604.724693
4136.296174,-10807.006753,-2442.679609,1762.019645
4136.296504,-10584.944971,-2738.761985,612.876398
4136.296834,-9548.656652,-2812.782580,842.705048
4136.297164,-8956.491898,-2886.803174,1608.800546
4136.297494,-8438.347739,-3404.947333,2528.115143
4136.297823,-9252.574275,-3775.050304,3064.381992
4136.298153,-9474.636058,-3849.070898,3294.210641
4136.298483,-9548.656652,-4071.132681,2757.943793
4136.298813,-9770.718434,-4515.256246,2451.505594
4136.299143,-9104.533087,-4589.276840,2911.162892
4136.299473,-9474.636058,-4293.194464,3370.820191
4136.299803,-9696.697840,-3701.029710,4596.572988
4136.300133,-10140.821405,-2960.823768,3294.210641
4136.300463,-10732.986159,-2442.679609,1455.581446
4136.300793,-10807.006753,-2368.659014,76.609550
4136.301123,-10807.006753,-2812.782580,1225.752797
4136.301453,-10436.903782,-3404.947333,2604.724693
4136.301783,-10066.800811,-3478.967927,2298.286494
4136.302112,-9474.636058,-3627.009116,1608.800546
4136.302442,-8438.347739,-3627.009116,995.924147
4136.302772,-8882.471304,-3701.029710,1532.190996
4136.303102,-9992.780217,-2812.782580,3064.381992
4136.303432,-10881.027347,-2590.720797,3907.087040
4136.303762,-10881.027347,-1850.514855,3294.210641
4136.304092,-10362.883188,-1998.556043,2911.162892
4136.304422,-9992.780217,-2368.659014,2298.286494
4136.304752,-9770.718434,-2220.617826,1838.629195
4136.305082,-10214.842000,-2220.617826,1685.410096
4136.305412,-9992.780217,-2220.617826,3294.210641
4136.305742,-9178.553681,-2368.659014,3064.381992
4136.306072,-9178.553681,-2146.597232,2834.553343
4136.306401,-9844.739029,-1924.535449,1532.190996
4136.306731,-10214.842000,-1554.432478,995.924147
4136.307061,-10288.862594,-1406.391290,1532.190996
4136.307391,-9474.636058,-1628.453072,2298.286494
4136.307721,-9030.512492,-1776.494261,3524.039291
4136.308051,-9622.677246,-1258.350101,3753.867940
4136.308381,-10066.800811,-1258.350101,3217.601092
4136.308711,-10140.821405,-1036.288319,2221.676944
4136.309041,-10732.986159,-1110.308913,2145.067394
4136.309371,-9844.739029,-888.247130,2221.676944
4136.309701,-9548.656652,-962.267725,2987.772442
4136.310031,-9030.512492,-666.185348,2757.943793
4136.310361,-9622.677246,-444.123565,1915.238745
4136.310690,-9918.759623,0.000000,689.485948
4136.311020,-9104.533087,-814.226536,229.828649
4136.311350,-9400.615463,-740.205942,766.095498
4136.311680,-9548.656652,-814.226536,1455.581446
4136.312010,-9474.636058,-296.082377,2451.505594
4136.312340,-9474.636058,-666.185348,2681.334243
4136.312670,-9918.759623,-592.164754,1838.629195
4136.313000,-10362.883188,-740.205942,1378.971896
4136.313330,-10362.883188,-888.247130,1608.800546
4136.313660,-10140.821405,-296.082377,1685.410096
4136.313990,-10510.924376,-962.267725,2911.162892
4136.314320,-9918.759623,-962.267725,2604.724693
4136.314650,-9696.697840,-888.247130,1455.581446
4136.314979,-8956.491898,-740.205942,0.000000
4136.315309,-8956.491898,-1480.411884,383.047749
4136.315639,-9770.718434,-962.267725,2068.457845
4136.315969,-10658.965565,-962.267725,3140.991542
4136.316299,-10510.924376,-1702.473667,2604.724693
4136.316629,-10140.821405,-1850.514855,2068.457845
4136.316959,-9622.677246,-2294.638420,1838.629195
4136.317289,-9844.739029,-2368.659014,2145.067394
4136.317619,-9918.759623,-2368.659014,2987.772442
4136.317949,-10140.821405,-2294.638420,3447.429741
4136.318279,-9622.677246,-2516.700203,3600.648841
4136.318609,-9548.656652,-2516.700203,3294.210641
4136.318939,-11029.068536,-2442.679609,3217.601092
4136.319268,-10732.986159,-2368.659014,1378.971896
4136.319598,-9918.759623,-2590.720797,1225.752797
4136.319928,-9252.574275,-2590.720797,1225.752797
4136.320258,-8364.327145,-3182.885551,1532.190996
4136.320588,-9252.574275,-2516.700203,2451.505594
4136.320918,-10066.800811,-2886.803174,2911.162892
4136.321248,-10584.944971,-3627.009116,2298.286494
4136.321578,-9252.574275,-3849.070898,2528.115143
4136.321908,-8808.450710,-4441.235652,3140.991542
4136.322238,-10510.924376,-3552.988522,4519.963438
4136.322568,-10510.924376,-3552.988522,4826.401637
4136.322898,-9844.739029,-3404.947333,3600.648841
4136.323228,-10214.842000,-2886.803174,2911.162892
4136.323558,-10510.924376,-2590.720797,2374.896044
4136.323887,-11029.068536,-3256.906145,2298.286494
4136.324217,-10288.862594,-2516.700203,2528.115143
4136.324547,-9474.636058,-3034.844362,2451.505594
4136.324877,-9474.636058,-2812.782580,1685.410096
4136.325207,-9474.636058,-3478.967927,1685.410096
4136.325537,-9696.697840,-3108.864956,2221.676944
4136.325867,-9770.718434,-3256.906145,2911.162892
4136.326197,-9548.656652,-3034.844362,3064.381992
4136.326527,-9474.636058,-3182.885551,3677.258390
4136.326857,-10288.862594,-2812.782580,4519.963438
4136.327187,-10362.883188,-2368.659014,3983.696590
4136.327517,-10584.944971,-2590.720797,3294.210641
4136.327847,-9696.697840,-1702.473667,2681.334243
4136.328176,-9696.697840,-1924.535449,2145.067394
4136.328506,-9844.739029,-1702.473667,1225.752797
4136.328836,-10066.800811,-2072.576638,459.657299
4136.329166,-9696.697840,-1480.411884,1225.752797
4136.329496,-9252.574275,-1702.473667,919.314598
4136.329826,-9474.636058,-1480.411884,1072.533697
4136.330156,-9474.636058,-1184.329507,2068.457845
4136.330486,-9548.656652,-962.267725,1608.800546
4136.330816,-9326.594869,-962.267725,1149.143247
4136.331146,-9548.656652,-1184.329507,1532.190996
4136.331476,-11029.068536,-666.185348,2068.457845
4136.331806,-10955.047942,-740.205942,1915.238745
4136.332136,-9548.656652,-888.247130,1378.971896
4136.332465,-8956.491898,-666.185348,459.657299
4136.332795,-10140.821405,0.000000,612.876398
4136.333125,-9844.739029,222.061783,766.095498
4136.333455,-10288.862594,370.102971,1072.533697
4136.333785,-9400.615463,-222.061783,459.657299
4136.334114,-9104.533087,-74.020594,1378.971896
4136.334444,-9770.718434,0.000000,1455.581446
4136.334774,-9548.656652,740.205942,995.924147
4136.335104,-9178.553681,148.041188,0.000000
4136.335433,-9844.739029,814.226536,0.000000
4136.335763,-11103.089130,1258.350101,229.828649
4136.336093,-11843.295072,1406.391290,0.000000
4136.336423,-9918.759623,1036.288319,-306.438199
4136.336752,-9400.615463,1258.350101,-689.485948
4136.337082,-9548.656652,518.144159,-1378.971896
4136.337412,-9178.553681,148.041188,-1072.533697
4136.337742,-8586.388927,-148.041188,-612.876398
4136.338072,-8216.285956,370.102971,383.047749
4136.338401,-8956.491898,740.205942,612.876398
4136.338731,-10140.821405,1036.288319,-383.047749
4136.339061,-10214.842000,1110.308913,-536.266849
4136.339391,-10362.883188,1332.370696,-842.705048
4136.339720,-10732.986159,1258.350101,-612.876398
4136.340050,-11325.150913,888.247130,76.609550
4136.340380,-9548.656652,592.164754,919.314598
4136.340710,-8364.327145,592.164754,1838.629195
4136.341040,-9326.594869,814.226536,383.047749
4136.341369,-10510.924376,740.205942,-536.266849
4136.341699,-9548.656652,148.041188,-995.924147
4136.342029,-9326.594869,222.061783,-306.438199
4136.342359,-9992.780217,888.247130,689.485948
4136.342688,-10510.924376,1036.288319,612.876398
4136.343018,-10955.047942,1110.308913,-842.705048
4136.343348,-10584.944971,1110.308913,-1225.752797
4136.343678,-10362.883188,1258.350101,-1455.581446
4136.344007,-9696.697840,814.226536,-766.095498
4136.344337,-9474.636058,148.041188,0.000000
4136.344667,-9104.533087,740.205942,1378.971896
4136.344997,-9400.615463,0.000000,995.924147
4136.345327,-9918.759623,370.102971,-229.828649
4136.345656,-10140.821405,-148.041188,-842.705048
4136.345986,-10362.883188,0.000000,-76.609550
4136.346316,-10881.027347,-74.020594,1225.752797
4136.346646,-9696.697840,222.061783,1302.362347
4136.346975,-8512.368333,-74.020594,383.047749
4136.347305,-8586.388927,0.000000,-536.266849
4136.347635,-9918.759623,296.082377,306.438199
4136.347965,-10436.903782,74.020594,383.047749
4136.348294,-10140.821405,0.000000,919.314598
4136.348624,-9030.512492,-444.123565,1532.190996
4136.348954,-9326.594869,-592.164754,1455.581446
4136.349284,-9844.739029,-222.061783,995.924147
4136.349614,-10362.883188,-296.082377,-306.438199
4136.349943,-9844.739029,-444.123565,-689.485948
4136.350273,-9696.697840,0.000000,612.876398
4136.350603,-9992.780217,370.102971,1149.143247
4136.350933,-9474.636058,296.082377,689.485948
4136.351262,-9992.780217,444.123565,0.000000
4136.351592,-10066.800811,0.000000,0.000000
4136.351922,-10658.965565,-518.144159,689.485948
4136.352252,-10140.821405,-888.247130,689.485948
4136.352582,-10288.862594,-1258.350101,1455.581446
4136.352911,-9696.697840,-666.185348,1991.848295
4136.353241,-8956.491898,-1406.391290,1302.362347
4136.353571,-9030.512492,-1332.370696,-383.047749
4136.353901,-9326.594869,-1258.350101,0.000000
4136.354230,-10066.800811,-814.226536,1608.800546
4136.354560,-10658.965565,-740.205942,2145.067394
4136.354890,-9696.697840,-814.226536,2145.067394
4136.355220,-9326.594869,-740.205942,612.876398
4136.355549,-10066.800811,-518.144159,-306.438199
4136.355879,-10955.047942,-666.185348,-1532.190996
4136.356209,-9770.718434,-1184.329507,-1532.190996
4136.356539,-8956.491898,-1184.329507,-612.876398
4136.356869,-8956.491898,-814.226536,766.095498
4136.357198,-9400.615463,-1110.308913,1149.143247
4136.357528,-9918.759623,-1036.288319,-306.438199
4136.357858,-10066.800811,-518.144159,-1149.143247
4136.358188,-10140.821405,-592.164754,-229.828649
4136.358517,-10214.842000,-592.164754,1149.143247
4136.358847,-9326.594869,-518.144159,1991.848295
4136.359177,-9326.594869,-444.123565,1532.190996
4136.359507,-9326.594869,0.000000,153.219100
4136.359836,-10807.006753,-148.041188,-612.876398
4136.360166,-10807.006753,296.082377,-459.657299
4136.360496,-10066.800811,518.144159,0.000000
4136.360826,-9770.718434,0.000000,306.438199
4136.361156,-8438.347739,222.061783,306.438199
4136.361485,-8808.450710,370.102971,0.000000
4136.361815,-9770.718434,740.205942,-689.485948
4136.362145,-9918.759623,222.061783,-383.047749
4136.362475,-9992.780217,1110.308913,0.000000
4136.362804,-11029.068536,1184.329507,689.485948
4136.363134,-10955.047942,1628.453072,1072.533697
4136.363464,-10510.924376,1258.350101,536.266849
4136.363794,-9622.677246,814.226536,-842.705048
4136.364124,-9400.615463,1406.391290,-1149.143247
4136.364453,-9474.636058,1110.308913,-612.876398
4136.364783,-9844.739029,740.205942,0.000000
4136.365113,-10066.800811,1480.411884,536.266849
4136.365443,-9622.677246,962.267725,153.219100
4136.365772,-9252.574275,592.164754,-919.314598
4136.366102,-9770.718434,666.185348,-1532.190996
4136.366432,-8956.491898,518.144159,612.876398
4136.366762,-8660.409521,888.247130,1225.752797
4136.367091,-8956.491898,962.267725,1532.190996
4136.367421,-10140.821405,1036.288319,995.924147
4136.367751,-10436.903782,1480.411884,-306.438199
4136.368081,-10214.842000,888.247130,-1072.533697
4136.368411,-9326.594869,0.000000,-1378.971896
4136.368740,-8586.388927,444.123565,76.609550
4136.369070,-9252.574275,0.000000,1455.581446
4136.369400,-9030.512492,148.041188,1302.362347
4136.369730,-8882.471304,740.205942,0.000000
4136.370059,-9548.656652,666.185348,-1149.143247
4136.370389,-10510.924376,888.247130,-1149.143247
4136.370719,-11177.109724,1406.391290,766.095498
4136.371049,-10362.883188,518.144159,1149.143247
4136.371378,-10140.821405,518.144159,1378.971896
4136.371708,-9400.615463,0.000000,-689.485948
4136.372038,-9770.718434,74.020594,-1072.533697
4136.372368,-10510.924376,-222.061783,-842.705048
4136.372698,-9326.594869,-518.144159,612.876398
4136.373027,-9400.615463,-444.123565,229.828649
4136.373357,-9400.615463,0.000000,1072.533697
4136.373687,-9252.574275,0.000000,76.609550
4136.374017,-9696.697840,-296.082377,-383.047749
4136.374346,-10436.903782,-444.123565,-612.876398
4136.374676,-10288.862594,-444.123565,153.219100
4136.375006,-9844.739029,-444.123565,919.314598
4136.375336,-9918.759623,-370.102971,1225.752797
4136.375666,-9696.697840,-592.164754,689.485948
4136.375995,-9622.677246,-666.185348,-459.657299
4136.376325,-9696.697840,-962.267725,-1455.581446
4136.376655,-9548.656652,-962.267725,-1072.533697
4136.376985,-9400.615463,-1036.288319,306.438199
4136.377314,-9770.718434,-666.185348,1455.581446
4136.377644,-9992.780217,-814.226536,1378.971896
4136.377974,-9548.656652,-740.205942,0.000000
4136.378304,-9992.780217,-666.185348,-306.438199
4136.378633,-9474.636058,-1258.350101,0.000000
4136.378963,-9326.594869,-740.205942,1302.362347
4136.379293,-10288.862594,-148.041188,2374.896044
4136.379623,-9548.656652,-518.144159,1532.190996
4136.379953,-9548.656652,-296.082377,153.219100
4136.380282,-9474.636058,-444.123565,-1302.362347
4136.380612,-10436.903782,-296.082377,306.438199
4136.380942,-10510.924376,-666.185348,1608.800546
4136.381272,-9696.697840,-888.247130,2068.457845
4136.381601,-9030.512492,-518.144159,1685.410096
4136.381931,-9400.615463,296.082377,0.000000
4136.382261,-10288.862594,296.082377,-766.095498
4136.382591,-10807.006753,444.123565,-612.876398
4136.382921,-10214.842000,296.082377,229.828649
4136.383250,-10436.903782,222.061783,1302.362347
4136.383580,-10362.883188,222.061783,1762.019645
4136.383910,-9548.656652,222.061783,689.485948
4136.384240,-9104.533087,-370.102971,-1455.581446
4136.384569,-8808.450710,-518.144159,-1915.238745
4136.384899,-9178.553681,0.000000,-306.438199
4136.385229,-9918.759623,222.061783,1685.410096
4136.385559,-9918.759623,148.041188,1685.410096
4136.385888,-9918.759623,0.000000,383.047749
4136.386218,-9326.594869,0.000000,-1991.848295
4136.386548,-9770.718434,0.000000,-1608.800546
4136.386878,-9474.636058,-518.144159,-689.485948
4136.387208,-9474.636058,370.102971,1149.143247
4136.387537,-9622.677246,148.041188,1072.533697
4136.387867,-8808.450710,148.041188,76.609550
4136.388197,-8586.388927,370.102971,-1072.533697
4136.388527,-10510.924376,444.123565,-1532.190996
4136.388856,-10510.924376,148.041188,-1149.143247
4136.389186,-9104.533087,444.123565,-689.485948
4136.389516,-8956.491898,0.000000,612.876398
4136.389846,-9030.512492,370.102971,1149.143247
4136.390175,-9918.759623,666.185348,536.266849
4136.390505,-10066.800811,814.226536,-1225.752797
4136.390835,-11103.089130,814.226536,-1225.752797
4136.391165,-10658.965565,888.247130,-306.438199
4136.391495,-10436.903782,148.041188,1072.533697
4136.391824,-9844.739029,518.144159,1762.019645
4136.392154,-9474.636058,888.247130,536.266849
4136.392484,-9474.636058,444.123565,-689.485948
4136.392814,-9548.656652,74.020594,-1532.190996
4136.393143,-10584.944971,666.185348,-459.657299
4136.393473,-10955.047942,592.164754,1149.143247
4136.393803,-10584.944971,592.164754,1302.362347
4136.394133,-9104.533087,0.000000,919.314598
4136.394463,-8586.388927,370.102971,0.000000
4136.394792,-9548.656652,444.123565,-229.828649
4136.395122,-10732.986159,-444.123565,-766.095498
4136.395452,-9844.739029,-296.082377,459.657299
4136.395782,-9696.697840,-296.082377,1762.019645
4136.396111,-9548.656652,222.061783,1532.190996
4136.396441,-8956.491898,-740.205942,612.876398
4136.396771,-9474.636058,-74.020594,-919.314598
4136.397101,-9104.533087,-444.123565,-842.705048
4136.397430,-9474.636058,0.000000,0.000000
4136.397760,-10066.800811,0.000000,1762.019645
4136.398090,-9844.739029,222.061783,1838.629195
4136.398420,-10066.800811,370.102971,1072.533697
4136.398750,-10214.842000,0.000000,-689.485948
4136.399079,-9770.718434,74.020594,-1072.533697
4136.399409,-9622.677246,0.000000,153.219100
4136.399739,-9770.718434,444.123565,1225.752797
4136.400069,-9252.574275,-148.041188,689.485948
4136.400398,-8660.409521,444.123565,0.000000
4136.400728,-10066.800811,0.000000,-612.876398
4136.401058,-10436.903782,0.000000,0.000000
4136.401388,-10140.821405,0.000000,766.095498
4136.401717,-10066.800811,0.000000,1149.143247
4136.402047,-9474.636058,444.123565,1838.629195
4136.402377,-10436.903782,518.144159,1225.752797
4136.402707,-11251.130318,370.102971,76.609550
4136.403037,-10510.924376,-444.123565,-612.876398
4136.403366,-9844.739029,296.082377,-459.657299
4136.403696,-9104.533087,148.041188,459.657299
4136.404026,-9474.636058,370.102971,1302.362347
4136.404356,-9326.594869,0.000000,689.485948
4136.404685,-8734.430116,370.102971,-612.876398
4136.405015,-10066.800811,0.000000,-766.095498
4136.405345,-10362.883188,0.000000,-536.266849
4136.405675,-9474.636058,-518.144159,1149.143247
4136.406005,-8956.491898,-444.123565,1991.848295
4136.406334,-9178.553681,-666.185348,1455.581446
4136.406664,-9918.759623,-296.082377,0.000000
4136.406994,-9622.677246,-444.123565,-1072.533697
4136.407324,-9252.574275,-444.123565,-306.438199
4136.407653,-9696.697840,0.000000,306.438199
4136.407983,-9696.697840,74.020594,1455.581446
4136.408313,-9400.615463,-296.082377,766.095498
4136.408643,-9104.533087,0.000000,-76.609550
4136.408972,-8808.450710,0.000000,-1532.190996
4136.409302,-9696.697840,0.000000,-1072.533697
4136.409632,-10066.800811,740.205942,-612.876398
4136.409962,-10214.842000,222.061783,459.657299
4136.410292,-9474.636058,444.123565,536.266849
4136.410621,-10066.800811,222.061783,0.000000
4136.410951,-10807.006753,370.102971,0.000000
4136.411281,-10140.821405,222.061783,-306.438199
4136.411611,-9474.636058,0.000000,-306.438199
4136.411940,-9992.780217,74.020594,1149.143247
4136.412270,-9474.636058,592.164754,1915.238745
4136.412600,-10436.903782,444.123565,995.924147
4136.412930,-10436.903782,148.041188,153.219100
4136.413259,-10807.006753,-222.061783,536.266849
4136.413589,-9622.677246,-666.185348,1302.362347
4136.413919,-9326.594869,-518.144159,1302.362347
4136.414249,-9548.656652,-296.082377,1302.362347
4136.414579,-9400.615463,-222.061783,1302.362347
4136.414908,-9252.574275,0.000000,383.047749
4136.415238,-10066.800811,0.000000,-383.047749
4136.415568,-10066.800811,0.000000,-459.657299
4136.415898,-9474.636058,-74.020594,-306.438199
4136.416227,-9474.636058,74.020594,306.438199
4136.416557,-9326.594869,-148.041188,383.047749
4136.416887,-9696.697840,-222.061783,76.609550
4136.417217,-10214.842000,0.000000,0.000000
4136.417547,-9474.636058,-296.082377,-459.657299
4136.417876,-8882.471304,0.000000,-842.705048
4136.418206,-9622.677246,0.000000,306.438199
4136.418536,-9770.718434,-296.082377,1072.533697
4136.418866,-9474.636058,148.041188,229.828649
4136.419195,-9548.656652,222.061783,-612.876398
4136.419525,-9474.636058,0.000000,-1838.629195
4136.419855,-9252.574275,74.020594,-766.095498
4136.420185,-9400.615463,518.144159,842.705048
4136.420514,-9548.656652,222.061783,1915.238745
4136.420844,-10362.883188,592.164754,1149.143247
4136.421174,-10362.883188,296.082377,-383.047749
4136.421504,-10214.842000,222.061783,-995.924147
4136.421834,-9918.759623,1036.288319,-536.266849
4136.422163,-10510.924376,962.267725,612.876398
4136.422493,-10362.883188,888.247130,995.924147
4136.422823,-9622.677246,296.082377,1608.800546
4136.423153,-9844.739029,814.226536,842.705048
4136.423482,-10436.903782,148.041188,306.438199
4136.423812,-10436.903782,0.000000,-536.266849
4136.424142,-9548.656652,-222.061783,153.219100
4136.424472,-9548.656652,222.061783,995.924147
4136.424801,-9326.594869,74.020594,1762.019645
4136.425131,-9918.759623,0.000000,1072.533697
4136.425461,-10140.821405,0.000000,229.828649
4136.425791,-9178.553681,148.041188,-383.047749
4136.426121,-9770.718434,444.123565,153.219100
4136.426450,-10288.862594,444.123565,612.876398
4136.426780,-9622.677246,-370.102971,1225.752797
4136.427110,-9104.533087,0.000000,0.000000
4136.427440,-9548.656652,0.000000,-1225.752797
4136.427769,-9696.697840,-592.164754,-612.876398
4136.428099,-9326.594869,74.020594,-306.438199
4136.428429,-9104.533087,-148.041188,0.000000
4136.428759,-8882.471304,-592.164754,612.876398
4136.429089,-9844.739029,0.000000,1072.533697
4136.429418,-10214.842000,0.000000,1149.143247
4136.429748,-9326.594869,-666.185348,76.609550
4136.430078,-9474.636058,-296.082377,-383.047749
4136.430408,-10288.862594,-370.102971,383.047749
4136.430737,-9844.739029,-370.102971,1149.143247
4136.431067,-9918.759623,444.123565,1762.019645
4136.431397,-10214.842000,444.123565,76.609550
4136.431727,-9918.759623,0.000000,-1532.190996
4136.432056,-9992.780217,-148.041188,-612.876398
4136.432386,-10140.821405,222.061783,0.000000
4136.432715,-10881.027347,296.082377,1149.143247
4136.433045,-10732.986159,370.102971,842.705048
4136.433375,-9696.697840,-444.123565,-536.266849
4136.433704,-9548.656652,0.000000,-383.047749
4136.434034,-9622.677246,0.000000,-612.876398
4136.434364,-9992.780217,0.000000,229.828649
4136.434693,-9992.780217,148.041188,1149.143247
4136.435023,-9252.574275,296.082377,1072.533697
4136.435353,-9474.636058,0.000000,612.876398
4136.435682,-10584.944971,0.000000,0.000000
4136.436012,-10510.924376,-222.061783,-306.438199
4136.436342,-9548.656652,-148.041188,-536.266849
4136.436671,-8956.491898,-222.061783,-612.876398
4136.437001,-8882.471304,0.000000,0.000000
4136.437330,-9178.553681,592.164754,0.000000
4136.437660,-9400.615463,444.123565,-1072.533697
4136.437990,-10066.800811,666.185348,-1072.533697
4136.438319,-9696.697840,370.102971,-1225.752797
4136.438649,-10066.800811,222.061783,0.000000
4136.438979,-9474.636058,0.000000,76.609550
4136.439308,-9030.512492,296.082377,153.219100
4136.439638,-9474.636058,74.020594,0.000000
4136.439968,-9992.780217,370.102971,-76.609550
4136.440297,-10214.842000,148.041188,-536.266849
4136.440627,-9252.574275,814.226536,-229.828649
4136.440957,-9104.533087,814.226536,229.828649
4136.441286,-10066.800811,518.144159,919.314598
4136.441616,-10288.862594,888.247130,842.705048
4136.441945,-10066.800811,518.144159,229.828649
4136.442275,-9474.636058,0.000000,153.219100
4136.442605,-9622.677246,148.041188,0.000000
4136.442934,-10584.944971,592.164754,459.657299
4136.443264,-10214.842000,370.102971,536.266849
4136.443594,-10066.800811,518.144159,153.219100
4136.443923,-10362.883188,148.041188,306.438199
4136.444253,-10288.862594,0.000000,306.438199
4136.444583,-9918.759623,148.041188,842.705048
4136.444912,-9696.697840,0.000000,689.485948
4136.445242,-9474.636058,0.000000,689.485948
4136.445572,-9622.677246,0.000000,-153.219100
4136.445901,-9918.759623,-740.205942,-919.314598
4136.446231,-9844.739029,-666.185348,229.828649
4136.446560,-9622.677246,-592.164754,1608.800546
4136.446890,-9622.677246,-888.247130,1915.238745
4136.447220,-8956.491898,-888.247130,1149.143247
4136.447549,-8512.368333,-518.144159,612.876398
4136.447879,-9326.594869,-1036.288319,229.828649
4136.448209,-10436.903782,-814.226536,536.266849
4136.448538,-10436.903782,-592.164754,536.266849
4136.448868,-9770.718434,-518.144159,766.095498
4136.449198,-8216.285956,-518.144159,0.000000
4136.449527,-8586.388927,-444.123565,-459.657299
4136.449857,-9622.677246,0.000000,-612.876398
4136.450187,-9992.780217,-444.123565,-1072.533697
4136.450516,-9696.697840,74.020594,-536.266849
4136.450846,-9992.780217,0.000000,536.266849
4136.451175,-10807.006753,74.020594,1225.752797
4136.451505,-9918.759623,-222.061783,612.876398
4136.451835,-9178.553681,740.205942,0.000000
4136.452164,-9400.615463,-222.061783,-766.095498
4136.452494,-10288.862594,-296.082377,-306.438199
4136.452824,-10807.006753,-370.102971,842.705048
4136.453153,-10288.862594,148.041188,1149.143247
4136.453483,-9474.636058,-74.020594,612.876398
4136.453813,-9696.697840,0.000000,-689.485948
4136.454142,-10140.821405,0.000000,-766.095498
4136.454472,-10066.800811,-222.061783,-612.876398
4136.454802,-9400.615463,666.185348,0.000000
4136.455131,-9252.574275,0.000000,459.657299
4136.455461,-9400.615463,444.123565,995.924147
4136.455790,-10955.047942,518.144159,995.924147
4136.456120,-11843.295072,666.185348,-229.828649
4136.456450,-10288.862594,0.000000,-689.485948
4136.456779,-9326.594869,0.000000,-1378.971896
4136.457109,-9474.636058,148.041188,0.000000
4136.457439,-9474.636058,370.102971,1455.581446
4136.457768,-9474.636058,592.164754,0.000000
4136.458098,-9400.615463,148.041188,-919.314598
4136.458428,-9400.615463,222.061783,-1532.190996
4136.458757,-9474.636058,148.041188,-1072.533697
4136.459087,-9992.780217,0.000000,0.000000
4136.459416,-9992.780217,0.000000,1225.752797
4136.459746,-9326.594869,-296.082377,1378.971896
4136.460076,-8438.347739,-518.144159,306.438199
4136.460405,-8512.368333,0.000000,229.828649
4136.460735,-9474.636058,518.144159,383.047749
4136.461065,-10362.883188,740.205942,536.266849
4136.461394,-10214.842000,740.205942,689.485948
4136.461724,-9844.739029,592.164754,919.314598
4136.462054,-9622.677246,518.144159,306.438199
4136.462383,-10436.903782,444.123565,536.266849
4136.462713,-9844.739029,962.267725,0.000000
4136.463043,-9918.759623,518.144159,-536.266849
4136.463372,-9622.677246,740.205942,306.438199
4136.463702,-10140.821405,592.164754,766.095498
4136.464031,-10288.862594,592.164754,919.314598
4136.464361,-10510.924376,222.061783,459.657299
4136.464691,-9178.553681,444.123565,229.828649
4136.465020,-9178.553681,0.000000,306.438199
4136.465350,-9770.718434,444.123565,153.219100
4136.465680,-9918.759623,296.082377,306.438199
4136.466009,-10214.842000,518.144159,842.705048
4136.466339,-10658.965565,518.144159,536.266849
4136.466669,-10362.883188,0.000000,1149.143247
4136.466998,-10362.883188,222.061783,536.266849
4136.467328,-9104.533087,-296.082377,0.000000
4136.467658,-8512.368333,-222.061783,-919.314598
4136.467987,-9030.512492,-222.061783,-383.047749
4136.468317,-9844.739029,-296.082377,0.000000
4136.468646,-10288.862594,-148.041188,383.047749
4136.468976,-10436.903782,74.020594,229.828649
4136.469306,-10066.800811,-222.061783,153.219100
4136.469635,-9696.697840,-296.082377,0.000000
4136.469965,-9696.697840,74.020594,0.000000
4136.470295,-9844.739029,296.082377,306.438199
4136.470624,-9992.780217,0.000000,229.828649
4136.470954,-9844.739029,-296.082377,383.047749
4136.471284,-10066.800811,-296.082377,76.609550
4136.471613,-9992.780217,222.061783,459.657299
4136.471943,-9696.697840,-444.123565,-459.657299
4136.472273,-9548.656652,-296.082377,-842.705048
4136.472602,-9548.656652,-296.082377,-536.266849
4136.472932,-9400.615463,-296.082377,612.876398
4136.473261,-9844.739029,148.041188,1532.190996
4136.473591,-10732.986159,222.061783,1072.533697
4136.473921,-10807.006753,296.082377,383.047749
4136.474250,-10288.862594,222.061783,-459.657299
4136.474580,-10288.862594,0.000000,-76.609550
4136.474910,-9696.697840,0.000000,76.609550
4136.475239,-10066.800811,0.000000,995.924147
4136.475569,-10140.821405,-222.061783,153.219100
4136.475899,-9474.636058,-296.082377,76.609550
4136.476228,-8586.388927,-370.102971,76.609550
4136.476558,-9474.636058,-444.123565,306.438199
4136.476888,-10214.842000,0.000000,612.876398
4136.477217,-9474.636058,-592.164754,919.314598
4136.477547,-9326.594869,-592.164754,612.876398
4136.477876,-9178.553681,0.000000,612.876398
4136.478206,-10214.842000,-444.123565,229.828649
4136.478536,-10510.924376,370.102971,153.219100
4136.478865,-10066.800811,0.000000,0.000000
4136.479195,-8882.471304,296.082377,-383.047749
4136.479525,-8364.327145,0.000000,-689.485948
4136.479854,-9770.718434,740.205942,-766.095498
4136.480184,-9992.780217,296.082377,-536.266849
4136.480514,-8956.491898,74.020594,-919.314598
4136.480843,-10066.800811,296.082377,-306.438199
4136.481173,-10066.800811,0.000000,919.314598
4136.481503,-9696.697840,0.000000,1225.752797
4136.481832,-9474.636058,222.061783,459.657299
4136.482162,-9770.718434,0.000000,459.657299
4136.482491,-10140.821405,74.020594,919.314598
4136.482821,-10436.903782,518.144159,1072.533697
4136.483151,-10584.944971,148.041188,1149.143247
4136.483480,-10140.821405,444.123565,919.314598
4136.483810,-10362.883188,666.185348,0.000000
4136.484140,-9844.739029,-74.020594,-536.266849
4136.484469,-9622.677246,74.020594,0.000000
4136.484799,-9770.718434,296.082377,0.000000
4136.485129,-9992.780217,222.061783,612.876398
4136.485458,-10140.821405,444.123565,919.314598
4136.485788,-10732.986159,888.247130,1302.362347
4136.486117,-10288.862594,0.000000,153.219100
4136.486447,-9770.718434,0.000000,76.609550
4136.486777,-9844.739029,148.041188,383.047749
4136.487106,-10066.800811,-74.020594,689.485948
4136.487436,-10140.821405,222.061783,766.095498
4136.487766,-9844.739029,-444.123565,995.924147
4136.488095,-9548.656652,-592.164754,0.000000
4136.488425,-9030.512492,-814.226536,-306.438199
4136.488755,-9104.533087,0.000000,0.000000
4136.489084,-9252.574275,-814.226536,0.000000
4136.489414,-9326.594869,-222.061783,0.000000
4136.489744,-9474.636058,-444.123565,76.609550
4136.490073,-9918.759623,0.000000,-459.657299
4136.490403,-10066.800811,-296.082377,-689.485948
4136.490732,-9844.739029,-222.061783,-459.657299
4136.491062,-9252.574275,-592.164754,306.438199
4136.491392,-8660.409521,-444.123565,612.876398
4136.491721,-8734.430116,0.000000,76.609550
4136.492051,-10214.842000,74.020594,-306.438199
4136.492381,-10288.862594,222.061783,-229.828649
4136.492710,-9918.759623,74.020594,76.609550
4136.493040,-10584.944971,148.041188,0.000000
4136.493370,-9992.780217,296.082377,612.876398
4136.493699,-9474.636058,0.000000,842.705048
4136.494029,-9400.615463,74.020594,383.047749
4136.494359,-9548.656652,296.082377,-229.828649
4136.494688,-10732.986159,1110.308913,229.828649
4136.495018,-10955.047942,1036.288319,153.219100
4136.495347,-10658.965565,814.226536,306.438199
4136.495677,-10584.944971,666.185348,612.876398
4136.496007,-10066.800811,148.041188,689.485948
4136.496336,-9400.615463,-148.041188,-383.047749
4136.496666,-9104.533087,-518.144159,-229.828649
4136.496996,-9548.656652,0.000000,459.657299
4136.497325,-9770.718434,0.000000,459.657299
4136.497655,-9770.718434,444.123565,383.047749
4136.497985,-9548.656652,222.061783,-383.047749
4136.498314,-9474.636058,296.082377,-919.314598
4136.498644,-8882.471304,0.000000,-842.705048
4136.498974,-9474.636058,0.000000,0.000000
4136.499303,-9992.780217,74.020594,459.657299
4136.499633,-9770.718434,-148.041188,229.828649
4136.499962,-8734.430116,-148.041188,-536.266849
4136.500292,-9178.553681,74.020594,-842.705048
4136.500622,-9400.615463,222.061783,-536.266849
4136.500951,-9918.759623,666.185348,842.705048
4136.501281,-10066.800811,444.123565,306.438199
4136.501611,-9696.697840,888.247130,0.000000
4136.501940,-9992.780217,518.144159,-536.266849
4136.502270,-11103.089130,666.185348,-306.438199
4136.502600,-10214.842000,370.102971,-306.438199
4136.502929,-9622.677246,444.123565,-689.485948
4136.503259,-9178.553681,222.061783,-689.485948
4136.503589,-9030.512492,-222.061783,153.219100
4136.503918,-10436.903782,518.144159,1149.143247
4136.504248,-11103.089130,296.082377,459.657299
4136.504577,-10732.986159,-370.102971,536.266849
4136.504907,-9844.739029,74.020594,995.924147
4136.505237,-10362.883188,148.041188,1762.019645
4136.505566,-10362.883188,-222.061783,2145.067394
4136.505896,-10214.842000,-666.185348,1532.190996
4136.506226,-10214.842000,-370.102971,612.876398
4136.506555,-9844.739029,0.000000,919.314598
4136.506885,-10066.800811,0.000000,229.828649
4136.507215,-9400.615463,-592.164754,0.000000
4136.507544,-9252.574275,-222.061783,306.438199
4136.507874,-8956.491898,-296.082377,229.828649
4136.508204,-10066.800811,-518.144159,153.219100
4136.508533,-9992.780217,-370.102971,-536.266849
4136.508863,-8956.491898,-740.205942,-536.266849
4136.509192,-8660.409521,-370.102971,-153.219100
4136.509522,-9474.636058,-740.205942,76.609550
4136.509852,-9474.636058,-592.164754,306.438199
4136.510181,-9178.553681,-444.123565,919.314598
4136.510511,-9770.718434,370.102971,536.266849
4136.510841,-9696.697840,0.000000,-153.219100
4136.511170,-9474.636058,-148.041188,-536.266849
4136.511500,-9474.636058,0.000000,-229.828649
4136.511830,-9770.718434,0.000000,383.047749
4136.512159,-10140.821405,0.000000,153.219100
4136.512489,-9770.718434,-296.082377,-842.705048
4136.512818,-9030.512492,-148.041188,-1149.143247
4136.513148,-9326.594869,222.061783,0.000000
4136.513478,-10510.924376,888.247130,-153.219100
4136.513807,-11547.212695,148.041188,612.876398
4136.514137,-10732.986159,370.102971,1378.971896
4136.514467,-11029.068536,-148.041188,2068.457845
4136.514796,-10955.047942,74.020594,842.705048
4136.515126,-9622.677246,-666.185348,459.657299
4136.515456,-9474.636058,0.000000,842.705048
4136.515785,-9548.656652,-518.144159,1225.752797
4136.516115,-10807.006753,0.000000,1455.581446
4136.516445,-10732.986159,0.000000,1149.143247
4136.516774,-9844.739029,-74.020594,612.876398
4136.517104,-9474.636058,-370.102971,-306.438199
4136.517433,-9252.574275,-1036.288319,0.000000
4136.517763,-9474.636058,-740.205942,536.266849
4136.518093,-8734.430116,-518.144159,1225.752797
4136.518422,-9252.574275,-666.185348,1149.143247
4136.518752,-9622.677246,-814.226536,919.314598
4136.519082,-9474.636058,-222.061783,306.438199
4136.519411,-9178.553681,-592.164754,-306.438199
4136.519741,-9770.718434,0.000000,-459.657299
4136.520071,-9918.759623,-1480.411884,-842.705048
4136.520400,-7698.141797,-740.205942,229.828649
4136.520730,-8142.265362,-296.082377,919.314598
4136.521060,-9474.636058,74.020594,0.000000
4136.521389,-9844.739029,-518.144159,-1225.752797
4136.521719,-9474.636058,0.000000,-1225.752797
4136.522048,-9326.594869,148.041188,-612.876398
4136.522378,-10362.883188,222.061783,0.000000
4136.522708,-11547.212695,0.000000,919.314598
4136.523037,-10066.800811,0.000000,995.924147
4136.523367,-9252.574275,592.164754,-536.266849
4136.523697,-10510.924376,1036.288319,-1149.143247
4136.524026,-10732.986159,296.082377,-612.876398
4136.524356,-9696.697840,1480.411884,-306.438199
4136.524686,-9622.677246,1480.411884,0.000000
4136.525015,-11177.109724,1110.308913,76.609550
4136.525345,-11177.109724,1110.308913,229.828649
4136.525675,-10658.965565,370.102971,536.266849
4136.526004,-9992.780217,0.000000,306.438199
4136.526334,-10214.842000,444.123565,919.314598
4136.526663,-10066.800811,222.061783,1608.800546
4136.526993,-9474.636058,222.061783,1455.581446
4136.527323,-9400.615463,1110.308913,1225.752797
4136.527652,-10510.924376,888.247130,229.828649
4136.527982,-11029.068536,814.226536,-383.047749
4136.528312,-9474.636058,74.020594,-306.438199
4136.528641,-9252.574275,518.144159,383.047749
4136.528971,-9178.553681,296.082377,612.876398
4136.529301,-9030.512492,0.000000,-612.876398
4136.529630,-7994.224174,-296.082377,-1225.752797
4136.529960,-8512.368333,0.000000,-995.924147
4136.530290,-9696.697840,370.102971,0.000000
4136.530619,-9844.739029,74.020594,383.047749
4136.530949,-9474.636058,518.144159,306.438199
4136.531278,-9178.553681,370.102971,612.876398
4136.531608,-9770.718434,444.123565,229.828649
4136.531938,-9844.739029,222.061783,0.000000
4136.532267,-9178.553681,74.020594,-383.047749
4136.532597,-8956.491898,962.267725,-919.314598
4136.532927,-10510.924376,1406.391290,-689.485948
4136.533256,-10732.986159,592.164754,-919.314598
4136.533586,-9326.594869,740.205942,-995.924147
4136.533916,-9474.636058,518.144159,-1378.971896
4136.534246,-9696.697840,518.144159,-1225.752797
4136.534575,-9548.656652,74.020594,-536.266849
4136.534905,-9770.718434,444.123565,459.657299
4136.535235,-10066.800811,518.144159,306.438199
4136.535565,-10362.883188,592.164754,689.485948
4136.535895,-11473.192101,74.020594,1149.143247
4136.536224,-11547.212695,0.000000,1762.019645
4136.536554,-10510.924376,0.000000,1838.629195
4136.536884,-9844.739029,-518.144159,2068.457845
4136.537214,-9696.697840,-666.185348,1455.581446
4136.537544,-9548.656652,-370.102971,766.095498
4136.537874,-9844.739029,-296.082377,766.095498
4136.538203,-10214.842000,-518.144159,306.438199
4136.538533,-10140.821405,0.000000,1455.581446
4136.538863,-9178.553681,-1036.288319,1225.752797
4136.539193,-9696.697840,-518.144159,1378.971896
4136.539523,-10288.862594,-518.144159,1149.143247
4136.539852,-10066.800811,-1036.288319,536.266849
4136.540182,-9844.739029,-666.185348,153.219100
4136.540512,-9178.553681,-740.205942,229.828649
4136.540842,-9326.594869,-370.102971,1072.533697
4136.541172,-9696.697840,-518.144159,1149.143247
4136.541502,-9326.594869,148.041188,612.876398
4136.541831,-9474.636058,-296.082377,-229.828649
4136.542161,-9992.780217,-148.041188,-995.924147
4136.542491,-9622.677246,-370.102971,-306.438199
4136.542821,-8660.409521,-592.164754,0.000000
4136.543151,-8660.409521,-370.102971,-306.438199
4136.543480,-8956.491898,-148.041188,-383.047749
4136.543810,-9696.697840,222.061783,-459.657299
4136.544140,-10584.944971,0.000000,-383.047749
4136.544470,-10881.027347,370.102971,383.047749
4136.544800,-10140.821405,74.020594,919.314598
4136.545130,-10066.800811,370.102971,1225.752797
4136.545459,-9400.615463,148.041188,1225.752797
4136.545789,-10066.800811,222.061783,0.000000
4136.546119,-9918.759623,518.144159,-1225.752797
4136.546449,-10510.924376,296.082377,-689.485948
4136.546779,-11251.130318,740.205942,612.876398
4136.547108,-11103.089130,1110.308913,2221.676944
4136.547438,-10066.800811,222.061783,919.314598
4136.547768,-9252.574275,0.000000,612.876398
4136.548098,-9474.636058,-296.082377,-919.314598
4136.548428,-10214.842000,-222.061783,0.000000
4136.548758,-9918.759623,-370.102971,612.876398
4136.549087,-9178.553681,-592.164754,1838.629195
4136.549417,-9104.533087,-518.144159,1991.848295
4136.549747,-9696.697840,-888.247130,306.438199
4136.550077,-9104.533087,-1332.370696,-153.219100
4136.550407,-9030.512492,-1036.288319,0.000000
4136.550736,-9400.615463,-1036.288319,1149.143247
4136.551066,-9400.615463,-222.061783,1608.800546
4136.551396,-9252.574275,-222.061783,689.485948
4136.551726,-9252.574275,-370.102971,-153.219100
4136.552056,-9178.553681,74.020594,-1608.800546
4136.552386,-10140.821405,222.061783,-1302.362347
4136.552715,-10510.924376,-518.144159,-612.876398
4136.553045,-9400.615463,74.020594,76.609550
4136.553375,-8734.430116,74.020594,1072.533697
4136.553705,-9178.553681,0.000000,689.485948
4136.554035,-10436.903782,222.061783,-383.047749
4136.554364,-10658.965565,74.020594,-1302.362347
4136.554694,-9770.718434,222.061783,-612.876398
4136.555024,-9326.594869,666.185348,0.000000
4136.555354,-9548.656652,666.185348,1149.143247
4136.555684,-10732.986159,1110.308913,1225.752797
4136.556014,-10436.903782,370.102971,0.000000
4136.556343,-10881.027347,666.185348,-1072.533697
4136.556673,-11251.130318,666.185348,-766.095498
4136.557003,-10436.903782,0.000000,1455.581446
4136.557333,-10214.842000,518.144159,2757.943793
4136.557663,-9992.780217,370.102971,2221.676944
4136.557992,-9696.697840,444.123565,0.000000
4136.558322,-9770.718434,444.123565,-1302.362347
4136.558652,-9622.677246,592.164754,-1608.800546
4136.558982,-9696.697840,740.205942,0.000000
4136.559312,-9844.739029,1110.308913,612.876398
4136.559641,-9844.739029,666.185348,842.705048
4136.559971,-10066.800811,518.144159,76.609550
4136.560301,-10362.883188,148.041188,-1378.971896
4136.560631,-10362.883188,-296.082377,-1149.143247
4136.560961,-10066.800811,0.000000,0.000000
4136.561291,-9622.677246,-222.061783,2451.505594
4136.561620,-8882.471304,0.000000,1838.629195
4136.561950,-7550.100608,-148.041188,536.266849
4136.562280,-8068.244768,-148.041188,-1225.752797
4136.562610,-9770.718434,370.102971,-1608.800546
4136.562940,-9770.718434,74.020594,-919.314598
4136.563269,-9326.594869,0.000000,229.828649
4136.563599,-9030.512492,-74.020594,306.438199
4136.563929,-9030.512492,0.000000,229.828649
4136.564259,-8512.368333,-444.123565,-459.657299
4136.564589,-9178.553681,296.082377,-1532.190996
4136.564919,-9696.697840,0.000000,-842.705048
4136.565248,-9844.739029,518.144159,229.828649
4136.565578,-9400.615463,0.000000,766.095498
4136.565908,-10066.800811,518.144159,919.314598
4136.566238,-10362.883188,592.164754,306.438199
4136.566568,-10881.027347,0.000000,-689.485948
4136.566897,-10436.903782,0.000000,-383.047749
4136.567227,-9030.512492,-148.041188,0.000000
4136.567557,-9622.677246,518.144159,459.657299
4136.567887,-10436.903782,296.082377,612.876398
4136.568217,-10510.924376,296.082377,0.000000
4136.568547,-10066.800811,74.020594,-842.705048
4136.568876,-10436.903782,222.061783,-1225.752797
4136.569206,-10288.862594,-296.082377,0.000000
4136.569536,-9770.718434,-296.082377,1302.362347
4136.569866,-9770.718434,-370.102971,1991.848295
4136.570196,-9918.759623,-370.102971,459.657299
4136.570525,-10288.862594,-370.102971,-153.219100
4136.570855,-9844.739029,-518.144159,-536.266849
4136.571185,-9178.553681,-518.144159,-536.266849
4136.571515,-9178.553681,-148.041188,689.485948
4136.571845,-9992.780217,0.000000,2068.457845
4136.572175,-10214.842000,-222.061783,1072.533697
4136.572504,-9622.677246,0.000000,0.000000
4136.572834,-9474.636058,0.000000,-995.924147
4136.573164,-9992.780217,-74.020594,0.000000
4136.573494,-9474.636058,-370.102971,1072.533697
4136.573824,-9178.553681,-888.247130,1838.629195
4136.574153,-9104.533087,-444.123565,995.924147
4136.574483,-9844.739029,0.000000,459.657299
4136.574813,-10066.800811,74.020594,-536.266849
4136.575143,-10066.800811,-148.041188,-536.266849
4136.575473,-9992.780217,296.082377,919.314598
4136.575803,-10362.883188,296.082377,1915.238745
4136.576132,-10288.862594,370.102971,1302.362347
4136.576462,-9474.636058,296.082377,-306.438199
4136.576792,-9770.718434,296.082377,-1302.362347
4136.577122,-9770.718434,296.082377,-842.705048
4136.577452,-10584.944971,370.102971,383.047749
4136.577781,-10436.903782,74.020594,1149.143247
4136.578111,-9696.697840,0.000000,1762.019645
4136.578441,-9918.759623,518.144159,919.314598
4136.578771,-9992.780217,296.082377,0.000000
4136.579101,-10436.903782,518.144159,-1072.533697
4136.579431,-9696.697840,666.185348,-612.876398
4136.579760,-9770.718434,1036.288319,306.438199
4136.580090,-10066.800811,370.102971,995.924147
4136.580420,-9696.697840,222.061783,383.047749
4136.580750,-8882.471304,0.000000,-689.485948
4136.581080,-8660.409521,518.144159,-1915.238745
4136.581409,-9178.553681,0.000000,-1225.752797
4136.581739,-9474.636058,0.000000,76.609550
4136.582069,-9770.718434,0.000000,1532.190996
4136.582399,-9400.615463,0.000000,1455.581446
4136.582729,-9252.574275,148.041188,76.609550
4136.583059,-9030.512492,0.000000,-995.924147
4136.583388,-9548.656652,0.000000,-536.266849
4136.583718,-9622.677246,0.000000,0.000000
4136.584048,-9696.697840,444.123565,0.000000
4136.584378,-9400.615463,0.000000,536.266849
4136.584708,-9178.553681,0.000000,229.828649
4136.585037,-9252.574275,0.000000,-536.266849
4136.585367,-10140.821405,0.000000,-1302.362347
4136.585697,-9770.718434,222.061783,-383.047749
4136.586027,-10214.842000,222.061783,383.047749
4136.586357,-10288.862594,222.061783,1149.143247
4136.586687,-10066.800811,370.102971,0.000000
4136.587016,-10140.821405,444.123565,0.000000
4136.587346,-10732.986159,148.041188,-612.876398
4136.587676,-10955.047942,296.082377,-383.047749
4136.588006,-10584.944971,0.000000,842.705048
4136.588336,-9992.780217,-74.020594,1072.533697
4136.588665,-9326.594869,-296.082377,536.266849
4136.588995,-9252.574275,-296.082377,229.828649
4136.589325,-9474.636058,-148.041188,-995.924147
4136.589655,-9548.656652,222.061783,-919.314598
4136.589985,-9918.759623,74.020594,0.000000
4136.590315,-10955.047942,296.082377,229.828649
4136.590644,-10288.862594,0.000000,229.828649
4136.590974,-9770.718434,0.000000,-306.438199
4136.591304,-9400.615463,-296.082377,0.000000
4136.591634,-9252.574275,-888.247130,612.876398
4136.591964,-9326.594869,-296.082377,1149.143247
4136.592293,-9696.697840,-518.144159,1685.410096
4136.592623,-9696.697840,0.000000,1762.019645
4136.592953,-9400.615463,148.041188,689.485948
4136.593283,-9474.636058,296.082377,-842.705048
4136.593613,-9770.718434,-296.082377,-1915.238745
4136.593942,-9178.553681,74.020594,-459.657299
4136.594272,-9548.656652,-74.020594,689.485948
4136.594602,-10066.800811,0.000000,1225.752797
4136.594932,-8808.450710,-592.164754,153.219100
4136.595262,-8142.265362,-222.061783,-919.314598
4136.595592,-9104.533087,0.000000,-306.438199
4136.595921,-9918.759623,-222.061783,766.095498
4136.596251,-11177.109724,222.061783,2221.676944
4136.596581,-11695.253884,0.000000,2298.286494
4136.596911,-10436.903782,-444.123565,1225.752797
4136.597241,-9252.574275,-592.164754,306.438199
4136.597570,-9030.512492,-296.082377,76.609550
4136.597900,-9326.594869,0.000000,689.485948
4136.598230,-9104.533087,814.226536,0.000000
4136.598560,-10214.842000,222.061783,842.705048
4136.598890,-10436.903782,888.247130,612.876398
4136.599220,-10584.944971,518.144159,-229.828649
4136.599549,-10807.006753,592.164754,-612.876398
4136.599879,-9770.718434,0.000000,-766.095498
4136.600209,-8512.368333,-444.123565,-229.828649
4136.600539,-8512.368333,-296.082377,842.705048
4136.600869,-9178.553681,444.123565,1762.019645
4136.601198,-10140.821405,296.082377,689.485948
4136.601528,-10066.800811,370.102971,-459.657299
4136.601858,-10510.924376,518.144159,-995.924147
4136.602188,-10066.800811,444.123565,-459.657299
4136.602518,-9400.615463,296.082377,76.609550
4136.602848,-9326.594869,0.000000,0.000000
4136.603177,-9326.594869,0.000000,0.000000
4136.603507,-9104.533087,74.020594,-459.657299
4136.603837,-9474.636058,370.102971,-1072.533697
4136.604167,-9474.636058,74.020594,-1072.533697
4136.604497,-9474.636058,0.000000,0.000000
4136.604826,-9622.677246,148.041188,766.095498
4136.605156,-9770.718434,740.205942,995.924147
4136.605486,-9770.718434,296.082377,0.000000
4136.605816,-10214.842000,740.205942,-612.876398
4136.606146,-10140.821405,888.247130,-229.828649
4136.606476,-10584.944971,592.164754,536.266849
4136.606805,-10955.047942,296.082377,1378.971896
4136.607135,-10436.903782,-74.020594,995.924147
4136.607465,-9474.636058,74.020594,229.828649
4136.607795,-9474.636058,-222.061783,-612.876398
4136.608125,-9770.718434,74.020594,689.485948
4136.608454,-9992.780217,0.000000,1225.752797
4136.608784,-9696.697840,0.000000,1915.238745
4136.609114,-9400.615463,444.123565,1225.752797
4136.609444,-9474.636058,148.041188,459.657299
4136.609774,-10584.944971,148.041188,-689.485948
4136.610104,-9770.718434,0.000000,-612.876398
4136.610433,-10214.842000,74.020594,0.000000
4136.610763,-9992.780217,0.000000,229.828649
4136.611093,-9548.656652,-592.164754,1072.533697
4136.611423,-9104.533087,-740.205942,536.266849
4136.611753,-8660.409521,-370.102971,0.000000
4136.612082,-8882.471304,0.000000,-536.266849
4136.612412,-9104.533087,148.041188,0.000000
4136.612742,-9548.656652,888.247130,0.000000
4136.613072,-10436.903782,814.226536,153.219100
4136.613402,-10732.986159,814.226536,0.000000
4136.613732,-9770.718434,444.123565,-612.876398
4136.614061,-9918.759623,74.020594,-1225.752797
4136.614391,-9474.636058,222.061783,-995.924147
4136.614721,-9326.594869,-370.102971,76.609550
4136.615051,-9400.615463,222.061783,919.314598
4136.615381,-9622.677246,222.061783,459.657299
4136.615710,-10362.883188,296.082377,536.266849
4136.616040,-10362.883188,74.020594,0.000000
4136.616370,-10288.862594,0.000000,536.266849
4136.616700,-9918.759623,-74.020594,1149.143247
4136.617030,-9844.739029,0.000000,1072.533697
4136.617360,-10214.842000,-296.082377,1149.143247
4136.617689,-9622.677246,148.041188,1072.533697
4136.618019,-9400.615463,518.144159,995.924147
4136.618349,-10066.800811,666.185348,0.000000
4136.618679,-9770.718434,592.164754,-766.095498
4136.619009,-9992.780217,0.000000,-306.438199
4136.619338,-9844.739029,74.020594,383.047749
4136.619668,-9474.636058,148.041188,229.828649
4136.619998,-9474.636058,-74.020594,229.828649
4136.620328,-8882.471304,-148.041188,0.000000
4136.620658,-9622.677246,148.041188,842.705048
4136.620988,-10955.047942,296.082377,1455.581446
4136.621317,-10140.821405,0.000000,766.095498
4136.621647,-9696.697840,0.000000,766.095498
4136.621977,-9918.759623,0.000000,536.266849
4136.622307,-10436.903782,-148.041188,842.705048
4136.622637,-10510.924376,-222.061783,1225.752797
4136.622966,-9548.656652,-814.226536,459.657299
4136.623296,-9030.512492,-888.247130,-536.266849
4136.623626,-8290.306550,-1184.329507,-306.438199
4136.623956,-8142.265362,-370.102971,-459.657299
4136.624286,-9326.594869,-444.123565,76.609550
4136.624616,-9992.780217,0.000000,0.000000
4136.624945,-9918.759623,-666.185348,-306.438199
4136.625275,-9622.677246,-888.247130,-306.438199
4136.625605,-10066.800811,-814.226536,229.828649
4136.625935,-9844.739029,-888.247130,1072.533697
4136.626265,-9474.636058,-1036.288319,229.828649
4136.626594,-8660.409521,-592.164754,-76.609550
4136.626924,-9474.636058,-222.061783,-459.657299
4136.627254,-10732.986159,0.000000,-229.828649
4136.627584,-11103.089130,-370.102971,229.828649
4136.627914,-10140.821405,0.000000,689.485948
4136.628243,-9474.636058,-518.144159,229.828649
4136.628573,-9622.677246,-444.123565,76.609550
4136.628903,-9474.636058,-592.164754,153.219100
4136.629233,-9474.636058,0.000000,-459.657299
4136.629563,-9696.697840,222.061783,-153.219100
4136.629893,-10881.027347,296.082377,919.314598
4136.630222,-11621.233289,74.020594,842.705048
4136.630552,-10732.986159,-370.102971,919.314598
4136.630882,-9400.615463,-74.020594,153.219100
4136.631212,-9474.636058,-444.123565,-229.828649
4136.631542,-9178.553681,-370.102971,0.000000
4136.631871,-9548.656652,-370.102971,842.705048
4136.632201,-9918.759623,148.041188,1225.752797
4136.632531,-9918.759623,0.000000,306.438199
4136.632861,-9770.718434,370.102971,76.609550
4136.633190,-9844.739029,296.082377,459.657299
4136.633520,-10214.842000,0.000000,459.657299
4136.633850,-9992.780217,0.000000,229.828649
4136.634179,-9252.574275,0.000000,229.828649
4136.634509,-9474.636058,592.164754,-459.657299
4136.634838,-9474.636058,814.226536,-536.266849
4136.635168,-9326.594869,740.205942,76.609550
4136.635498,-9696.697840,814.226536,766.095498
4136.635827,-10066.800811,1036.288319,842.705048
4136.636157,-10362.883188,518.144159,459.657299
4136.636487,-10732.986159,148.041188,383.047749
4136.636816,-9474.636058,1036.288319,76.609550
4136.637146,-8586.388927,222.061783,-76.609550
4136.637475,-9770.718434,1036.288319,-306.438199
4136.637805,-10214.842000,1110.308913,-689.485948
4136.638135,-9474.636058,1184.329507,0.000000
4136.638464,-9622.677246,1036.288319,0.000000
4136.638794,-10510.924376,740.205942,536.266849
4136.639124,-10732.986159,740.205942,459.657299
4136.639453,-9844.739029,370.102971,306.438199
4136.639783,-8660.409521,0.000000,-459.657299
4136.640112,-8734.430116,74.020594,0.000000
4136.640442,-10066.800811,1036.288319,229.828649
4136.640772,-9992.780217,370.102971,536.266849
4136.641101,-9326.594869,1036.288319,229.828649
4136.641431,-10807.006753,1480.411884,229.828649
4136.641761,-11103.089130,962.267725,-919.314598
4136.642090,-9770.718434,370.102971,-1072.533697
4136.642420,-9400.615463,370.102971,-995.924147
4136.642749,-9326.594869,74.020594,-306.438199
4136.643079,-9548.656652,296.082377,612.876398
4136.643409,-9474.636058,-222.061783,0.000000
4136.643738,-9474.636058,-592.164754,76.609550
4136.644068,-9474.636058,-740.205942,0.000000
4136.644398,-10288.862594,-666.185348,766.095498
4136.644727,-10362.883188,-666.185348,995.924147
4136.645057,-8364.327145,-740.205942,919.314598
4136.645386,-8808.450710,-740.205942,612.876398
4136.645716,-9696.697840,-74.020594,-536.266849
4136.646046,-10140.821405,-296.082377,-536.266849
4136.646375,-9918.759623,-370.102971,-536.266849
4136.646705,-9918.759623,-296.082377,0.000000
4136.647035,-9770.718434,-444.123565,383.047749
4136.647364,-9474.636058,-740.205942,536.266849
4136.647694,-9770.718434,-592.164754,1302.362347
4136.648023,-10140.821405,-444.123565,766.095498
4136.648353,-9992.780217,-592.164754,536.266849
4136.648683,-10288.862594,0.000000,306.438199
4136.649012,-9844.739029,-592.164754,766.095498
4136.649342,-9918.759623,148.041188,995.924147
4136.649672,-11251.130318,222.061783,995.924147
4136.650001,-10584.944971,222.061783,536.266849
4136.650331,-9474.636058,296.082377,-842.705048
4136.650660,-9474.636058,222.061783,-306.438199
4136.650990,-10658.965565,-370.102971,306.438199
4136.651320,-10140.821405,-148.041188,1072.533697
4136.651649,-9178.553681,-592.164754,919.314598
4136.651979,-8956.491898,-444.123565,842.705048
4136.652309,-10436.903782,-518.144159,459.657299
4136.652638,-10066.800811,-592.164754,459.657299
4136.652968,-9622.677246,0.000000,153.219100
4136.653297,-9104.533087,-296.082377,536.266849
4136.653627,-9474.636058,0.000000,1225.752797
4136.653957,-9992.780217,-148.041188,766.095498
4136.654286,-9474.636058,370.102971,-536.266849
4136.654616,-9400.615463,-592.164754,-1608.800546
4136.654946,-9252.574275,-148.041188,-689.485948
4136.655275,-9030.512492,-518.144159,76.609550
4136.655605,-9104.533087,-370.102971,229.828649
4136.655934,-9474.636058,0.000000,766.095498
4136.656264,-9548.656652,74.020594,306.438199
4136.656594,-10362.883188,222.061783,153.219100
4136.656923,-9696.697840,592.164754,0.000000
4136.657253,-10288.862594,296.082377,383.047749
4136.657583,-10214.842000,1110.308913,536.266849
4136.657912,-10362.883188,0.000000,766.095498
4136.658242,-9474.636058,296.082377,-76.609550
4136.658571,-9622.677246,-296.082377,-766.095498
4136.658901,-10066.800811,0.000000,-306.438199
4136.659231,-9178.553681,-592.164754,0.000000
4136.659560,-9252.574275,0.000000,459.657299
4136.659890,-9548.656652,-370.102971,612.876398
4136.660219,-9992.780217,148.041188,536.266849
4136.660549,-9770.718434,296.082377,0.000000
4136.660879,-9918.759623,74.020594,0.000000
4136.661208,-10362.883188,222.061783,229.828649
4136.661538,-10881.027347,666.185348,1072.533697
4136.661868,-9844.739029,518.144159,1225.752797
4136.662197,-9400.615463,148.041188,0.000000
4136.662527,-9252.574275,222.061783,-1302.362347
4136.662856,-9474.636058,0.000000,-1225.752797
4136.663186,-9252.574275,148.041188,-919.314598
4136.663516,-8808.450710,0.000000,689.485948
4136.663845,-9178.553681,222.061783,306.438199
4136.664175,-9400.615463,222.061783,-306.438199
4136.664505,-9696.697840,370.102971,-1072.533697
4136.664834,-10436.903782,444.123565,-842.705048
4136.665164,-10066.800811,148.041188,-766.095498
4136.665493,-9918.759623,0.000000,536.266849
4136.665823,-8956.491898,148.041188,766.095498
4136.666153,-9696.697840,296.082377,1608.800546
4136.666482,-10214.842000,444.123565,689.485948
4136.666812,-10584.944971,296.082377,306.438199
4136.667142,-10066.800811,666.185348,0.000000
4136.667471,-9696.697840,74.020594,689.485948
4136.667801,-10436.903782,296.082377,766.095498
4136.668130,-10066.800811,222.061783,612.876398
4136.668460,-8882.471304,296.082377,-229.828649
4136.668790,-9474.636058,740.205942,-995.924147
4136.669119,-11029.068536,888.247130,-536.266849
4136.669449,-11251.130318,444.123565,-383.047749
4136.669779,-10288.862594,814.226536,842.705048
4136.670108,-10140.821405,0.000000,2145.067394
4136.670438,-10658.965565,222.061783,1838.629195
4136.670767,-9252.574275,-296.082377,919.314598
4136.671097,-8734.430116,0.000000,0.000000
4136.671427,-9178.553681,222.061783,-919.314598
4136.671756,-10214.842000,444.123565,0.000000
4136.672086,-10881.027347,444.123565,459.657299
4136.672416,-10436.903782,148.041188,229.828649
4136.672745,-9844.739029,0.000000,0.000000
4136.673075,-9104.533087,-740.205942,0.000000
4136.673404,-8808.450710,-666.185348,0.000000
4136.673734,-9030.512492,-222.061783,383.047749
4136.674064,-9252.574275,-222.061783,383.047749
4136.674393,-9696.697840,-222.061783,-153.219100
4136.674723,-10140.821405,444.123565,306.438199
4136.675053,-9992.780217,0.000000,-153.219100
4136.675382,-9326.594869,0.000000,-612.876398
4136.675712,-8438.347739,-444.123565,-766.095498
4136.676041,-9252.574275,0.000000,459.657299
4136.676371,-9548.656652,-148.041188,306.438199
4136.676701,-9992.780217,-74.020594,459.657299
4136.677030,-10510.924376,148.041188,0.000000
4136.677360,-9992.780217,370.102971,0.000000
4136.677690,-9918.759623,-296.082377,0.000000
4136.678019,-10066.800811,148.041188,383.047749
4136.678349,-10436.903782,0.000000,766.095498
4136.678678,-10066.800811,296.082377,383.047749
4136.679008,-9770.718434,0.000000,0.000000
4136.679338,-9992.780217,518.144159,306.438199
4136.679667,-10362.883188,148.041188,1302.362347
4136.679997,-11103.089130,666.185348,1225.752797
4136.680327,-10436.903782,0.000000,612.876398
4136.680656,-9252.574275,-518.144159,-306.438199
4136.680986,-9178.553681,0.000000,-153.219100
4136.681315,-9326.594869,0.000000,229.828649
4136.681645,-9918.759623,-296.082377,536.266849
4136.681975,-9844.739029,518.144159,0.000000
4136.682304,-9992.780217,-74.020594,0.000000
4136.682634,-9770.718434,-296.082377,76.609550
4136.682964,-9474.636058,-592.164754,612.876398
4136.683293,-9030.512492,-740.205942,919.314598
4136.683623,-8586.388927,-1184.329507,919.314598
4136.683952,-8808.450710,-666.185348,1225.752797
4136.684282,-9178.553681,-370.102971,1149.143247
4136.684612,-10436.903782,-518.144159,153.219100
4136.684941,-10510.924376,-148.041188,-766.095498
4136.685271,-9844.739029,-296.082377,-689.485948
4136.685601,-9474.636058,0.000000,-76.609550
4136.685930,-8956.491898,-370.102971,766.095498
4136.686260,-9548.656652,296.082377,229.828649
4136.686589,-10584.944971,-222.061783,-153.219100
4136.686919,-10362.883188,444.123565,-536.266849
4136.687249,-9918.759623,74.020594,-306.438199
4136.687578,-9844.739029,222.061783,229.828649
4136.687908,-9770.718434,148.041188,995.924147
4136.688238,-9992.780217,74.020594,995.924147
4136.688567,-9918.759623,222.061783,306.438199
4136.688897,-10066.800811,888.247130,-919.314598
4136.689226,-10732.986159,592.164754,-766.095498
4136.689556,-10955.047942,666.185348,153.219100
4136.689886,-10140.821405,444.123565,689.485948
4136.690215,-9474.636058,444.123565,153.219100
4136.690545,-9474.636058,74.020594,153.219100
4136.690874,-9030.512492,0.000000,229.828649
4136.691204,-8956.491898,0.000000,-612.876398
4136.691534,-9844.739029,74.020594,0.000000
4136.691863,-10510.924376,0.000000,1378.971896
4136.692193,-10140.821405,-148.041188,2374.896044
4136.692523,-9252.574275,0.000000,1378.971896
4136.692852,-9104.533087,0.000000,0.000000
4136.693182,-9178.553681,0.000000,-383.047749
4136.693511,-9474.636058,740.205942,-612.876398
4136.693841,-9844.739029,962.267725,0.000000
4136.694171,-9844.739029,814.226536,306.438199
4136.694500,-10288.862594,888.247130,-536.266849
4136.694830,-10510.924376,444.123565,-1225.752797
4136.695160,-9474.636058,444.123565,-1915.238745
4136.695489,-9474.636058,74.020594,-1532.190996
4136.695819,-9400.615463,74.020594,-919.314598
4136.696148,-9400.615463,222.061783,842.705048
4136.696478,-9474.636058,444.123565,1532.190996
4136.696808,-10140.821405,296.082377,1532.190996
4136.697137,-10066.800811,518.144159,459.657299
4136.697467,-9918.759623,518.144159,76.609550
4136.697797,-9844.739029,592.164754,689.485948
4136.698126,-10436.903782,296.082377,1225.752797
4136.698456,-10436.903782,0.000000,1225.752797
4136.698785,-9326.594869,74.020594,612.876398
4136.699115,-9548.656652,-296.082377,-306.438199
4136.699445,-9622.677246,0.000000,-153.219100
4136.699774,-9178.553681,-666.185348,-306.438199
4136.700104,-9844.739029,-370.102971,766.095498
4136.700434,-9548.656652,296.082377,2374.896044
4136.700763,-10066.800811,0.000000,1838.629195
4136.701093,-10658.965565,592.164754,919.314598
4136.701422,-10066.800811,-444.123565,76.609550
4136.701752,-9992.780217,0.000000,229.828649
4136.702082,-9622.677246,148.041188,0.000000
4136.702411,-9844.739029,74.020594,229.828649
4136.702741,-9326.594869,-74.020594,229.828649
4136.703071,-9326.594869,0.000000,-612.876398
4136.703400,-9252.574275,-444.123565,-612.876398
4136.703730,-10288.862594,-518.144159,-842.705048
4136.704059,-9844.739029,0.000000,76.609550
4136.704389,-9400.615463,-740.205942,459.657299
4136.704719,-9104.533087,-444.123565,76.609550
4136.705048,-9178.553681,-666.185348,0.000000
4136.705378,-9548.656652,-222.061783,0.000000
4136.705708,-9770.718434,0.000000,229.828649
4136.706037,-10066.800811,518.144159,0.000000
4136.706367,-10066.800811,0.000000,919.314598
4136.706696,-10510.924376,296.082377,306.438199
4136.707026,-10881.027347,-296.082377,0.000000
4136.707356,-10140.821405,-74.020594,0.000000
4136.707685,-9474.636058,74.020594,-536.266849
4136.708015,-8364.327145,74.020594,-76.609550
4136.708345,-8956.491898,740.205942,76.609550
4136.708674,-10362.883188,1406.391290,229.828649
4136.709004,-11251.130318,740.205942,0.000000
4136.709333,-10658.965565,814.226536,-383.047749
4136.709663,-10362.883188,74.020594,-536.266849
4136.709993,-9918.759623,0.000000,689.485948
4136.710322,-9474.636058,0.000000,995.924147
4136.710652,-9104.533087,370.102971,1532.190996
4136.710982,-8956.491898,74.020594,459.657299
4136.711311,-9474.636058,888.247130,-76.609550
4136.711641,-10881.027347,814.226536,-383.047749
4136.711970,-10066.800811,222.061783,0.000000
4136.712300,-9696.697840,0.000000,0.000000
4136.712630,-8882.471304,-74.020594,0.000000
4136.712959,-9030.512492,-296.082377,-153.219100
4136.713289,-8956.491898,0.000000,-459.657299
4136.713619,-9474.636058,-370.102971,0.000000
4136.713948,-10066.800811,518.144159,-306.438199
4136.714278,-10066.800811,296.082377,383.047749
4136.714607,-9770.718434,-444.123565,1378.971896
4136.714937,-9474.636058,-444.123565,995.924147
4136.715267,-9770.718434,-444.123565,1149.143247
4136.715596,-9548.656652,-666.185348,0.000000
4136.715926,-9696.697840,-296.082377,0.000000
4136.716256,-9548.656652,0.000000,-229.828649
4136.716585,-9400.615463,-296.082377,306.438199
4136.716915,-9622.677246,444.123565,536.266849
4136.717244,-9696.697840,-370.102971,76.609550
4136.717574,-9992.780217,0.000000,0.000000
4136.717904,-10732.986159,-370.102971,76.609550
4136.718233,-10955.047942,148.041188,536.266849
4136.718563,-10436.903782,-296.082377,153.219100
4136.718892,-9400.615463,222.061783,306.438199
4136.719222,-9548.656652,148.041188,306.438199
4136.719552,-10881.027347,740.205942,-153.219100
4136.719881,-10584.944971,296.082377,-689.485948
4136.720211,-10362.883188,222.061783,-306.438199
4136.720541,-9918.759623,-148.041188,-306.438199
4136.720870,-9770.718434,0.000000,995.924147
4136.721200,-9918.759623,-296.082377,1072.533697
4136.721529,-9030.512492,-296.082377,76.609550
4136.721859,-9030.512492,0.000000,-919.314598
4136.722189,-9696.697840,0.000000,-919.314598
4136.722518,-10510.924376,666.185348,0.000000
4136.722848,-9992.780217,74.020594,1072.533697
4136.723178,-9104.533087,-74.020594,995.924147
4136.723507,-9104.533087,-148.041188,1225.752797
4136.723837,-10066.800811,148.041188,536.266849
4136.724166,-10214.842000,-74.020594,-536.266849
4136.724496,-9326.594869,-222.061783,-383.047749
4136.724826,-8364.327145,0.000000,0.000000
4136.725155,-8882.471304,444.123565,766.095498
4136.725485,-10510.924376,592.164754,76.609550
4136.725815,-9992.780217,370.102971,-995.924147
4136.726144,-9474.636058,74.020594,-1302.362347
4136.726474,-9770.718434,592.164754,-1225.752797
4136.726803,-10066.800811,518.144159,0.000000
4136.727133,-9770.718434,222.061783,1225.752797
4136.727463,-9474.636058,0.000000,1378.971896
4136.727792,-9992.780217,740.205942,842.705048
4136.728122,-10732.986159,0.000000,-229.828649
4136.728452,-10288.862594,0.000000,-76.609550
4136.728781,-9252.574275,-444.123565,1225.752797
4136.729111,-9844.739029,444.123565,2221.676944
4136.729440,-10658.965565,148.041188,1838.629195
4136.729770,-10140.821405,0.000000,459.657299
4136.730100,-8808.450710,0.000000,153.219100
4136.730429,-9400.615463,888.247130,-612.876398
4136.730759,-11399.171507,1110.308913,-383.047749
4136.731089,-10510.924376,148.041188,919.314598
4136.731418,-8956.491898,0.000000,766.095498
4136.731748,-8808.450710,0.000000,153.219100
4136.732077,-9770.718434,0.000000,-612.876398
4136.732407,-10066.800811,0.000000,-919.314598
4136.732737,-9992.780217,370.102971,0.000000
4136.733066,-10288.862594,962.267725,1072.533697
4136.733396,-10436.903782,222.061783,995.924147
4136.733726,-10288.862594,74.020594,842.705048
4136.734055,-9622.677246,74.020594,0.000000
4136.734385,-9844.739029,296.082377,-766.095498
4136.734714,-9474.636058,0.000000,-995.924147
4136.735044,-9474.636058,-592.164754,-153.219100
4136.735374,-9104.533087,-370.102971,919.314598
4136.735704,-9178.553681,-1036.288319,1608.800546
4136.736033,-10140.821405,-296.082377,1149.143247
4136.736363,-9696.697840,-592.164754,153.219100
4136.736693,-9252.574275,-518.144159,0.000000
4136.737022,-9548.656652,370.102971,459.657299
4136.737352,-10658.965565,222.061783,1455.581446
4136.737682,-11103.089130,0.000000,1455.581446
4136.738012,-9918.759623,74.020594,76.609550
4136.738341,-9474.636058,370.102971,-536.266849
4136.738671,-9030.512492,222.061783,-1302.362347
4136.739001,-9622.677246,222.061783,-995.924147
4136.739330,-9696.697840,444.123565,153.219100
4136.739660,-10140.821405,0.000000,919.314598
4136.739990,-10732.986159,0.000000,383.047749
4136.740320,-10362.883188,-296.082377,919.314598
4136.740649,-9844.739029,-592.164754,459.657299
4136.740979,-9548.656652,-222.061783,536.266849
4136.741309,-9474.636058,-148.041188,1532.190996
4136.741639,-9844.739029,-74.020594,1225.752797
4136.741968,-10732.986159,0.000000,1149.143247
4136.742298,-9622.677246,148.041188,459.657299
4136.742628,-9844.739029,0.000000,-459.657299
4136.742957,-9252.574275,0.000000,-76.609550
4136.743287,-9178.553681,-888.247130,383.047749
4136.743617,-9844.739029,0.000000,612.876398
4136.743947,-9696.697840,-370.102971,0.000000
4136.744276,-8956.491898,-518.144159,-229.828649
4136.744606,-8956.491898,-296.082377,-536.266849
4136.744936,-9548.656652,0.000000,-383.047749
4136.745265,-10658.965565,0.000000,766.095498
4136.745595,-10214.842000,-222.061783,1072.533697
4136.745925,-9918.759623,-296.082377,1072.533697
4136.746255,-9622.677246,-148.041188,383.047749
4136.746584,-9918.759623,0.000000,-536.266849
4136.746914,-9252.574275,-444.123565,-383.047749
4136.747244,-8438.347739,-444.123565,-995.924147
4136.747573,-8808.450710,148.041188,0.000000
4136.747903,-10140.821405,0.000000,536.266849
4136.748233,-10881.027347,592.164754,459.657299
4136.748563,-9992.780217,518.144159,0.000000
4136.748892,-9992.780217,370.102971,-459.657299
4136.749222,-9918.759623,370.102971,0.000000
4136.749552,-10436.903782,592.164754,306.438199
4136.749882,-9992.780217,296.082377,0.000000
4136.750211,-10066.800811,814.226536,-76.609550
4136.750541,-10362.883188,1036.288319,0.000000
4136.750871,-10362.883188,148.041188,-153.219100
4136.751200,-10584.944971,518.144159,0.000000
4136.751530,-9252.574275,0.000000,1072.533697
4136.751860,-9400.615463,444.123565,766.095498
4136.752190,-9326.594869,0.000000,306.438199
4136.752519,-9548.656652,222.061783,-459.657299
4136.752849,-9918.759623,592.164754,-229.828649
4136.753179,-10066.800811,592.164754,0.000000
4136.753508,-9622.677246,-296.082377,383.047749
4136.753838,-9622.677246,0.000000,1225.752797
4136.754168,-9918.759623,666.185348,1455.581446
4136.754498,-9844.739029,0.000000,1072.533697
4136.754827,-9178.553681,370.102971,-459.657299
4136.755157,-8512.368333,666.185348,-536.266849
4136.755487,-9696.697840,888.247130,-76.609550
4136.755816,-10436.903782,518.144159,153.219100
4136.756146,-10584.944971,296.082377,612.876398
4136.756476,-9178.553681,0.000000,-229.828649
4136.756806,-8882.471304,0.000000,-1149.143247
4136.757135,-9400.615463,740.205942,-995.924147
4136.757465,-9548.656652,0.000000,-306.438199
4136.757795,-10214.842000,518.144159,1072.533697
4136.758124,-10066.800811,-370.102971,1532.190996
4136.758454,-9844.739029,444.123565,1378.971896
4136.758784,-9474.636058,0.000000,766.095498
4136.759114,-9548.656652,0.000000,0.000000
4136.759443,-9548.656652,-296.082377,-1225.752797
4136.759773,-10066.800811,222.061783,-995.924147
4136.760103,-10066.800811,0.000000,229.828649
4136.760433,-9474.636058,-148.041188,76.609550
4136.760762,-8956.491898,74.020594,153.219100
4136.761092,-9622.677246,-296.082377,-306.438199
4136.761422,-10066.800811,370.102971,0.000000
4136.761751,-10140.821405,-222.061783,0.000000
4136.762081,-9992.780217,-370.102971,306.438199
4136.762411,-10066.800811,-592.164754,1072.533697
4136.762741,-9548.656652,74.020594,1225.752797
4136.763070,-9918.759623,-592.164754,153.219100
4136.763400,-9400.615463,-296.082377,-766.095498
4136.763730,-9326.594869,-222.061783,-995.924147
4136.764059,-10066.800811,0.000000,-229.828649
4136.764389,-10362.883188,-370.102971,383.047749
4136.764719,-9474.636058,0.000000,766.095498
4136.765049,-9770.718434,0.000000,229.828649
4136.765378,-9992.780217,-370.102971,-612.876398
4136.765708,-9696.697840,-370.102971,-995.924147
4136.766038,-9400.615463,-518.144159,0.000000
4136.766367,-9252.574275,-148.041188,995.924147
4136.766697,-9844.739029,0.000000,1915.238745
4136.767027,-10436.903782,0.000000,1302.362347
4136.767357,-9548.656652,0.000000,0.000000
4136.767686,-10140.821405,148.041188,0.000000
4136.768016,-10066.800811,74.020594,612.876398
4136.768346,-9104.533087,0.000000,1532.190996
4136.768676,-9474.636058,148.041188,612.876398
4136.769005,-9696.697840,74.020594,-306.438199
4136.769335,-10066.800811,0.000000,-766.095498
4136.769665,-9400.615463,-666.185348,-1149.143247
4136.769994,-8734.430116,0.000000,-919.314598
4136.770324,-9252.574275,-296.082377,1149.143247
4136.770654,-10214.842000,444.123565,1838.629195
4136.770984,-9474.636058,74.020594,1072.533697
4136.771313,-9178.553681,592.164754,76.609550
4136.771643,-10288.862594,740.205942,0.000000
4136.771973,-11325.150913,444.123565,153.219100
4136.772302,-10658.965565,666.185348,689.485948
4136.772632,-9918.759623,592.164754,1608.800546
4136.772962,-9326.594869,592.164754,0.000000
4136.773292,-10140.821405,296.082377,-766.095498
4136.773621,-9992.780217,222.061783,-1455.581446
4136.773951,-9178.553681,-296.082377,-383.047749
4136.774281,-9622.677246,444.123565,459.657299
4136.774610,-10362.883188,148.041188,1378.971896
4136.774940,-9770.718434,0.000000,1302.362347
4136.775270,-9622.677246,-296.082377,76.609550
4136.775600,-9622.677246,-296.082377,-459.657299
4136.775929,-10807.006753,-148.041188,536.266849
4136.776259,-10214.842000,0.000000,1378.971896
4136.776589,-9844.739029,-370.102971,2145.067394
4136.776918,-9252.574275,-518.144159,995.924147
4136.777248,-9770.718434,0.000000,0.000000
4136.777578,-9696.697840,-370.102971,-842.705048
4136.777908,-9400.615463,0.000000,-1225.752797
4136.778237,-9252.574275,148.041188,-459.657299
4136.778567,-9992.780217,148.041188,76.609550
4136.778897,-9548.656652,-370.102971,306.438199
4136.779227,-9548.656652,-296.082377,229.828649
4136.779556,-9992.780217,-222.061783,0.000000
4136.779886,-10807.006753,0.000000,0.000000
4136.780216,-10066.800811,-296.082377,-383.047749
4136.780545,-9030.512492,74.020594,459.657299
4136.780875,-9918.759623,0.000000,1378.971896
4136.781205,-10436.903782,296.082377,1455.581446
4136.781535,-10807.006753,296.082377,536.266849
4136.781864,-9548.656652,74.020594,-1225.752797
4136.782194,-8882.471304,-370.102971,-1532.190996
4136.782524,-10362.883188,-74.020594,-383.047749
4136.782853,-9622.677246,-444.123565,0.000000
4136.783183,-8808.450710,74.020594,0.000000
4136.783513,-8808.450710,222.061783,-1072.533697
4136.783843,-9844.739029,444.123565,-229.828649
4136.784172,-10584.944971,148.041188,842.705048
4136.784502,-10510.924376,814.226536,842.705048
4136.784832,-10362.883188,148.041188,612.876398
4136.785161,-10214.842000,222.061783,459.657299
4136.785491,-9178.553681,0.000000,-536.266849
4136.785821,-8364.327145,0.000000,-995.924147
4136.786151,-9770.718434,1036.288319,-919.314598
4136.786480,-10510.924376,518.144159,-842.705048
4136.786810,-9548.656652,444.123565,-459.657299
4136.787140,-8734.430116,0.000000,0.000000
4136.787470,-9548.656652,814.226536,-306.438199
4136.787799,-10584.944971,296.082377,306.438199
4136.788129,-10436.903782,296.082377,-383.047749
4136.788459,-9400.615463,0.000000,76.609550
4136.788788,-9474.636058,0.000000,153.219100
4136.789118,-10732.986159,370.102971,766.095498
4136.789448,-9770.718434,222.061783,0.000000
4136.789778,-9326.594869,0.000000,-536.266849
4136.790107,-9178.553681,222.061783,-383.047749
4136.790437,-10362.883188,296.082377,919.314598
4136.790767,-10066.800811,296.082377,1378.971896
4136.791096,-9178.553681,-74.020594,306.438199
4136.791426,-8882.471304,296.082377,229.828649
4136.791756,-10066.800811,0.000000,76.609550
4136.792086,-10732.986159,74.020594,306.438199
4136.792415,-9400.615463,0.000000,0.000000
4136.792745,-9104.533087,0.000000,-306.438199
4136.793075,-10362.883188,148.041188,0.000000
4136.793404,-10214.842000,148.041188,612.876398
4136.793734,-9622.677246,222.061783,229.828649
4136.794064,-9178.553681,0.000000,0.000000
4136.794394,-9326.594869,222.061783,76.609550
4136.794723,-9770.718434,148.041188,306.438199
4136.795053,-10066.800811,0.000000,306.438199
4136.795383,-9918.759623,0.000000,306.438199
4136.795712,-9918.759623,-222.061783,766.095498
4136.796042,-9622.677246,-222.061783,995.924147
4136.796372,-9548.656652,0.000000,0.000000
4136.796702,-9474.636058,370.102971,383.047749
4136.797031,-10140.821405,0.000000,383.047749
4136.797361,-10288.862594,148.041188,766.095498
4136.797691,-10288.862594,222.061783,383.047749
4136.798021,-10362.883188,74.020594,0.000000
4136.798350,-10436.903782,-148.041188,536.266849
4136.798680,-9770.718434,-74.020594,229.828649
4136.799010,-9326.594869,0.000000,76.609550
4136.799339,-9844.739029,-814.226536,0.000000
4136.799669,-9770.718434,0.000000,766.095498
4136.799999,-9400.615463,0.000000,459.657299
4136.800329,-9474.636058,0.000000,383.047749
4136.800658,-9400.615463,0.000000,229.828649
4136.800988,-10066.800811,-74.020594,306.438199
4136.801318,-9844.739029,-222.061783,76.609550
4136.801647,-9918.759623,148.041188,766.095498
4136.801977,-10584.944971,0.000000,842.705048
4136.802307,-9252.574275,-518.144159,229.828649
4136.802637,-9252.574275,-296.082377,76.609550
4136.802966,-10066.800811,592.164754,153.219100
4136.803296,-9918.759623,-518.144159,-536.266849
4136.803626,-9548.656652,0.000000,0.000000
4136.803955,-8734.430116,-148.041188,-459.657299
4136.804285,-9474.636058,222.061783,153.219100
4136.804615,-10732.986159,0.000000,-76.609550
4136.804945,-9992.780217,296.082377,-153.219100
4136.805274,-9770.718434,-740.205942,229.828649
4136.805604,-9622.677246,0.000000,766.095498
4136.805934,-10436.903782,0.000000,995.924147
4136.806264,-9696.697840,-518.144159,689.485948
4136.806593,-9104.533087,-296.082377,-306.438199
4136.806923,-8882.471304,592.164754,0.000000
4136.807253,-10066.800811,-296.082377,306.438199
4136.807582,-10955.047942,148.041188,1072.533697
4136.807912,-10288.862594,0.000000,1149.143247
4136.808242,-9770.718434,148.041188,76.609550
4136.808572,-9622.677246,148.041188,-766.095498
4136.808901,-9548.656652,222.061783,-153.219100
4136.809231,-9992.780217,370.102971,306.438199
4136.809561,-9918.759623,296.082377,306.438199
4136.809890,-8956.491898,444.123565,76.609550
4136.810220,-10288.862594,592.164754,-306.438199
4136.810550,-10140.821405,296.082377,-612.876398
4136.810880,-9992.780217,0.000000,-153.219100
4136.811209,-9548.656652,666.185348,153.219100
4136.811539,-9696.697840,-444.123565,919.314598
4136.811869,-9992.780217,74.020594,2298.286494
4136.812198,-10584.944971,148.041188,1838.629195
4136.812528,-10510.924376,148.041188,612.876398
4136.812858,-9992.780217,0.000000,-383.047749
4136.813188,-9696.697840,296.082377,76.609550
4136.813517,-9400.615463,-222.061783,689.485948
4136.813847,-9400.615463,370.102971,383.047749
4136.814177,-9474.636058,296.082377,0.000000
4136.814506,-9992.780217,148.041188,-689.485948
4136.814836,-9696.697840,148.041188,-1072.533697
4136.815166,-9400.615463,-296.082377,-153.219100
4136.815496,-9326.594869,-296.082377,0.000000
4136.815825,-9474.636058,-592.164754,842.705048
4136.816155,-9770.718434,-74.020594,995.924147
4136.816485,-9770.718434,0.000000,1149.143247
4136.816815,-9770.718434,518.144159,0.000000
4136.817144,-9770.718434,296.082377,229.828649
4136.817474,-10510.924376,370.102971,0.000000
4136.817804,-9474.636058,-296.082377,0.000000
4136.818133,-8660.409521,222.061783,0.000000
4136.818463,-9474.636058,0.000000,0.000000
4136.818793,-10066.800811,-222.061783,-536.266849
4136.819123,-9918.759623,-592.164754,-919.314598
4136.819452,-9252.574275,-888.247130,-229.828649
4136.819782,-9844.739029,-222.061783,766.095498
4136.820112,-9548.656652,0.000000,1378.971896
4136.820441,-9770.718434,0.000000,1378.971896
4136.820771,-10066.800811,444.123565,306.438199
4136.821101,-10362.883188,222.061783,0.000000
4136.821431,-11325.150913,74.020594,-383.047749
4136.821760,-10510.924376,0.000000,229.828649
4136.822090,-9474.636058,0.000000,153.219100
4136.822420,-9844.739029,-296.082377,0.000000
4136.822749,-9474.636058,0.000000,-383.047749
4136.823079,-9178.553681,-222.061783,-536.266849
4136.823409,-9474.636058,444.123565,306.438199
4136.823739,-10881.027347,666.185348,842.705048
4136.824068,-10807.006753,592.164754,919.314598
4136.824398,-9770.718434,1036.288319,919.314598
4136.824728,-9548.656652,444.123565,306.438199
4136.825058,-10214.842000,814.226536,-612.876398
4136.825387,-10436.903782,222.061783,0.000000
4136.825717,-10288.862594,518.144159,-76.609550
4136.826047,-9030.512492,222.061783,-306.438199
4136.826376,-8734.430116,148.041188,0.000000
4136.826706,-9104.533087,74.020594,383.047749
4136.827036,-9400.615463,222.061783,306.438199
4136.827366,-9474.636058,370.102971,0.000000
4136.827695,-10140.821405,370.102971,76.609550
4136.828025,-10584.944971,74.020594,383.047749
4136.828355,-9844.739029,222.061783,1455.581446
4136.828684,-9696.697840,222.061783,1762.019645
4136.829014,-9696.697840,74.020594,1225.752797
4136.829344,-9474.636058,222.061783,612.876398
4136.829674,-9474.636058,518.144159,-153.219100
4136.830003,-8882.471304,-296.082377,-1302.362347
4136.830333,-9178.553681,296.082377,0.000000
4136.830663,-9844.739029,-296.082377,153.219100
4136.830992,-9770.718434,148.041188,536.266849
4136.831322,-9104.533087,-74.020594,689.485948
4136.831652,-9770.718434,74.020594,0.000000
4136.831982,-10362.883188,0.000000,-306.438199
4136.832311,-10362.883188,0.000000,76.609550
4136.832641,-9992.780217,296.082377,536.266849
4136.832971,-10214.842000,148.041188,919.314598
4136.833300,-10732.986159,74.020594,842.705048
4136.833630,-9474.636058,-296.082377,383.047749
4136.833957,-9030.512492,0.000000,-76.609550
4136.834287,-9918.759623,-518.144159,-459.657299
4136.834616,-10658.965565,-370.102971,76.609550
4136.834946,-10066.800811,-370.102971,536.266849
4136.835276,-9918.759623,-74.020594,536.266849
4136.835606,-9178.553681,-296.082377,0.000000
4136.835936,-9992.780217,-148.041188,0.000000
4136.836265,-9992.780217,-222.061783,-536.266849
4136.836595,-9770.718434,296.082377,-459.657299
4136.836925,-10584.944971,296.082377,-153.219100
4136.837255,-10807.006753,0.000000,383.047749
4136.837584,-9622.677246,-222.061783,229.828649
4136.837914,-9696.697840,-370.102971,306.438199
4136.838244,-9992.780217,-518.144159,-689.485948
4136.838574,-9252.574275,-740.205942,0.000000
4136.838904,-9030.512492,-444.123565,689.485948
4136.839233,-9474.636058,-296.082377,1149.143247
4136.839563,-9918.759623,74.020594,1072.533697
4136.839893,-9992.780217,444.123565,459.657299
4136.840223,-10214.842000,740.205942,-153.219100
4136.840552,-10362.883188,370.102971,-383.047749
4136.840882,-10510.924376,0.000000,0.000000
4136.841212,-10510.924376,-148.041188,766.095498
4136.841542,-9030.512492,-518.144159,919.314598
4136.841872,-7994.224174,148.041188,536.266849
4136.842201,-9030.512492,0.000000,0.000000
4136.842531,-9918.759623,518.144159,-153.219100
4136.842861,-10510.924376,222.061783,153.219100
4136.843191,-9992.780217,296.082377,689.485948
4136.843520,-9992.780217,0.000000,995.924147
4136.843850,-9548.656652,0.000000,1532.190996
4136.844180,-9178.553681,-444.123565,919.314598
4136.844510,-9474.636058,444.123565,-306.438199
4136.844840,-10066.800811,888.247130,-995.924147
4136.845169,-10140.821405,592.164754,-153.219100
4136.845499,-10214.842000,666.185348,-306.438199
4136.845829,-9252.574275,888.247130,153.219100
4136.846159,-9770.718434,592.164754,306.438199
4136.846488,-10362.883188,444.123565,-306.438199
4136.846818,-9400.615463,74.020594,-383.047749
4136.847148,-9992.780217,296.082377,-229.828649
4136.847478,-10066.800811,0.000000,76.609550
4136.847808,-9548.656652,0.000000,1072.533697
4136.848137,-9104.533087,296.082377,1455.581446
4136.848467,-9622.677246,444.123565,919.314598
4136.848797,-9696.697840,0.000000,306.438199
4136.849127,-10436.903782,0.000000,153.219100
4136.849457,-10658.965565,-444.123565,842.705048
4136.849786,-9770.718434,-74.020594,306.438199
4136.850116,-8808.450710,0.000000,536.266849
4136.850446,-9178.553681,-74.020594,76.609550
4136.850776,-9326.594869,0.000000,-229.828649
4136.851105,-10214.842000,74.020594,-1149.143247
4136.851435,-9770.718434,-296.082377,-1302.362347
4136.851765,-9474.636058,222.061783,229.828649
4136.852095,-9622.677246,518.144159,919.314598
4136.852425,-9622.677246,0.000000,689.485948
4136.852754,-9918.759623,-74.020594,-459.657299
4136.853084,-9696.697840,-444.123565,-1149.143247
4136.853414,-10066.800811,-666.185348,-689.485948
4136.853744,-9844.739029,-592.164754,919.314598
4136.854073,-9252.574275,-444.123565,1532.190996
4136.854403,-9104.533087,0.000000,1532.190996
4136.854733,-9252.574275,-148.041188,0.000000
4136.855063,-9918.759623,444.123565,-612.876398
4136.855393,-10140.821405,0.000000,-612.876398
4136.855722,-10955.047942,222.061783,383.047749
4136.856052,-10066.800811,370.102971,1608.800546
4136.856382,-10140.821405,-296.082377,1302.362347
4136.856712,-9770.718434,-296.082377,0.000000
4136.857041,-8956.491898,0.000000,-995.924147
4136.857371,-9474.636058,74.020594,-1915.238745
4136.857701,-10436.903782,0.000000,-842.705048
4136.858031,-9548.656652,444.123565,306.438199
4136.858361,-9548.656652,222.061783,1302.362347
4136.858690,-10066.800811,222.061783,1149.143247
4136.859020,-10140.821405,-148.041188,0.000000
4136.859350,-10510.924376,0.000000,-229.828649
4136.859680,-9844.739029,-296.082377,153.219100
4136.860009,-9326.594869,0.000000,612.876398
4136.860339,-9918.759623,592.164754,1455.581446
4136.860669,-10288.862594,74.020594,995.924147
4136.860999,-9992.780217,444.123565,-383.047749
4136.861329,-9992.780217,740.205942,-1225.752797
4136.861658,-9622.677246,148.041188,-1225.752797
4136.861988,-9326.594869,74.020594,-383.047749
4136.862318,-8586.388927,666.185348,1149.143247
4136.862648,-9474.636058,148.041188,1378.971896
4136.862977,-10362.883188,370.102971,766.095498
4136.863307,-9844.739029,0.000000,-306.438199
4136.863637,-9548.656652,-222.061783,-306.438199
4136.863967,-9622.677246,74.020594,612.876398
4136.864297,-9474.636058,-74.020594,1838.629195
4136.864626,-9474.636058,0.000000,1838.629195
4136.864956,-9474.636058,0.000000,1149.143247
4136.865286,-9400.615463,148.041188,-689.485948
4136.865616,-9992.780217,222.061783,-1302.362347
4136.865946,-9474.636058,296.082377,-1302.362347
4136.866275,-8956.491898,518.144159,0.000000
4136.866605,-9622.677246,296.082377,689.485948
4136.866935,-10732.986159,-148.041188,459.657299
4136.867265,-9844.739029,-74.020594,-689.485948
4136.867594,-9400.615463,-148.041188,-1072.533697
4136.867924,-9474.636058,-74.020594,-229.828649
4136.868254,-9918.759623,0.000000,1149.143247
4136.868584,-9696.697840,0.000000,2221.676944
4136.868914,-10214.842000,0.000000,1838.629195
4136.869243,-10140.821405,444.123565,766.095498
4136.869573,-10955.047942,148.041188,-459.657299
4136.869903,-10807.006753,0.000000,-689.485948
4136.870233,-9844.739029,148.041188,-306.438199
4136.870562,-9548.656652,0.000000,306.438199
4136.870892,-9104.533087,-518.144159,306.438199
4136.871222,-8882.471304,-370.102971,-306.438199
4136.871552,-9696.697840,0.000000,-995.924147
4136.871882,-10140.821405,0.000000,-612.876398
4136.872211,-10658.965565,0.000000,536.266849
4136.872541,-9770.718434,370.102971,1838.629195
4136.872871,-9992.780217,74.020594,1762.019645
4136.873201,-10288.862594,74.020594,1072.533697
4136.873530,-10214.842000,74.020594,-459.657299
4136.873860,-9326.594869,0.000000,-1149.143247
4136.874190,-9326.594869,0.000000,-919.314598
4136.874520,-9474.636058,444.123565,383.047749
4136.874850,-9918.759623,0.000000,306.438199
4136.875179,-9548.656652,148.041188,-383.047749
4136.875509,-8882.471304,-222.061783,-1072.533697
4136.875839,-10362.883188,444.123565,-536.266849
4136.876169,-10510.924376,0.000000,229.828649
4136.876498,-9844.739029,0.000000,1072.533697
4136.876828,-9104.533087,-222.061783,1225.752797
4136.877158,-9992.780217,0.000000,1762.019645
4136.877488,-9992.780217,0.000000,459.657299
4136.877818,-9992.780217,0.000000,-76.609550
4136.878147,-8808.450710,74.020594,-995.924147
4136.878477,-9326.594869,222.061783,0.000000
4136.878807,-9548.656652,370.102971,612.876398
4136.879137,-9696.697840,222.061783,612.876398
4136.879467,-9474.636058,666.185348,-612.876398
4136.879796,-9844.739029,222.061783,-919.314598
4136.880126,-10066.800811,0.000000,-995.924147
4136.880456,-10066.800811,0.000000,229.828649
4136.880786,-9474.636058,74.020594,1302.362347
4136.881115,-9770.718434,74.020594,1455.581446
4136.881445,-9548.656652,296.082377,689.485948
4136.881775,-9770.718434,370.102971,-76.609550
4136.882105,-9474.636058,592.164754,-306.438199
4136.882435,-9252.574275,74.020594,-536.266849
4136.882764,-10066.800811,0.000000,1072.533697
4136.883094,-10288.862594,296.082377,1378.971896
4136.883424,-9622.677246,-74.020594,229.828649
4136.883754,-9474.636058,0.000000,-383.047749
4136.884083,-9400.615463,296.082377,-536.266849
4136.884413,-9770.718434,592.164754,-766.095498
4136.884743,-9992.780217,592.164754,-153.219100
4136.885073,-10288.862594,370.102971,919.314598
4136.885403,-10140.821405,0.000000,766.095498
4136.885732,-9548.656652,0.000000,306.438199
4136.886062,-9770.718434,-444.123565,-612.876398
4136.886392,-9844.739029,-592.164754,-306.438199
4136.886722,-8882.471304,-370.102971,766.095498
4136.887051,-9844.739029,222.061783,1072.533697
4136.887381,-10066.800811,222.061783,459.657299
4136.887711,-10288.862594,0.000000,0.000000
4136.888041,-10362.883188,0.000000,383.047749
4136.888371,-9918.759623,-518.144159,76.609550
4136.888700,-9474.636058,-740.205942,0.000000
4136.889030,-9030.512492,-666.185348,0.000000
4136.889360,-8586.388927,-740.205942,229.828649
4136.889690,-9548.656652,0.000000,842.705048
4136.890019,-10732.986159,296.082377,1149.143247
4136.890349,-11029.068536,-296.082377,536.266849
4136.890679,-9252.574275,-518.144159,-153.219100
4136.891009,-8808.450710,296.082377,-536.266849
4136.891339,-9918.759623,-148.041188,383.047749
4136.891668,-9992.780217,-222.061783,459.657299
4136.891998,-9770.718434,0.000000,842.705048
4136.892328,-9474.636058,74.020594,76.609550
4136.892658,-10584.944971,-74.020594,-766.095498
4136.892987,-9770.718434,-444.123565,-229.828649
4136.893317,-9918.759623,-592.164754,612.876398
4136.893647,-9548.656652,-444.123565,919.314598
4136.893977,-9178.553681,-518.144159,612.876398
4136.894307,-9252.574275,0.000000,766.095498
4136.894636,-9844.739029,296.082377,689.485948
4136.894966,-10362.883188,518.144159,0.000000
4136.895296,-10807.006753,148.041188,0.000000
4136.895626,-10658.965565,-370.102971,-383.047749
4136.895956,-9474.636058,0.000000,0.000000
4136.896285,-9622.677246,0.000000,0.000000
4136.896615,-9252.574275,-814.226536,0.000000
4136.896945,-8734.430116,-370.102971,-459.657299
4136.897275,-9178.553681,518.144159,153.219100
4136.897604,-9770.718434,148.041188,919.314598
4136.897934,-10066.800811,740.205942,766.095498
4136.898264,-10214.842000,888.247130,612.876398
4136.898594,-10214.842000,296.082377,0.000000
4136.898924,-10066.800811,0.000000,-536.266849
4136.899253,-9696.697840,0.000000,229.828649
4136.899583,-9474.636058,74.020594,1225.752797
4136.899913,-8660.409521,0.000000,1072.533697
4136.900243,-9104.533087,148.041188,0.000000
4136.900572,-9622.677246,296.082377,229.828649
4136.900902,-10214.842000,962.267725,-842.705048
4136.901232,-10362.883188,962.267725,76.609550
4136.901562,-10288.862594,444.123565,153.219100
4136.901892,-9474.636058,518.144159,-153.219100
4136.902221,-8586.388927,518.144159,-306.438199
4136.902551,-9400.615463,0.000000,-306.438199
4136.902881,-10732.986159,222.061783,-229.828649
4136.903211,-9992.780217,148.041188,153.219100
4136.903540,-9030.512492,222.061783,459.657299
4136.903870,-9992.780217,148.041188,612.876398
4136.904200,-10362.883188,296.082377,842.705048
4136.904530,-10584.944971,296.082377,306.438199
4136.904860,-9844.739029,592.164754,-229.828649
4136.905189,-9474.636058,296.082377,0.000000
4136.905519,-10362.883188,592.164754,0.000000
4136.905849,-10436.903782,222.061783,0.000000
4136.906179,-9770.718434,518.144159,-459.657299
4136.906508,-9326.594869,592.164754,-919.314598
4136.906838,-9918.759623,222.061783,-689.485948
4136.907168,-9770.718434,222.061783,306.438199
4136.907498,-9844.739029,0.000000,766.095498
4136.907828,-9696.697840,74.020594,1072.533697
4136.908157,-9992.780217,222.061783,383.047749
4136.908487,-9918.759623,0.000000,-766.095498
4136.908817,-9918.759623,0.000000,-459.657299
4136.909147,-9548.656652,0.000000,-383.047749
4136.909476,-9400.615463,0.000000,995.924147
4136.909806,-10214.842000,148.041188,1455.581446
4136.910136,-9918.759623,0.000000,766.095498
4136.910466,-9548.656652,-148.041188,-612.876398
4136.910796,-9326.594869,296.082377,-612.876398
4136.911125,-9474.636058,0.000000,-689.485948
4136.911455,-9474.636058,0.000000,0.000000
4136.911785,-9844.739029,0.000000,766.095498
4136.912115,-10214.842000,0.000000,536.266849
4136.912445,-9696.697840,-148.041188,-536.266849
4136.912774,-9474.636058,-444.123565,-229.828649
4136.913104,-9326.594869,0.000000,383.047749
4136.913434,-9326.594869,0.000000,1608.800546
4136.913764,-9992.780217,222.061783,1685.410096
4136.914093,-10140.821405,-370.102971,919.314598
4136.914423,-9030.512492,-444.123565,-306.438199
4136.914753,-9474.636058,0.000000,-383.047749
4136.915083,-10362.883188,222.061783,229.828649
4136.915413,-9918.759623,148.041188,1225.752797
4136.915742,-10288.862594,296.082377,919.314598
4136.916072,-9918.759623,0.000000,0.000000
4136.916402,-9252.574275,-370.102971,-612.876398
4136.916732,-9400.615463,296.082377,-306.438199
4136.917061,-9400.615463,0.000000,536.266849
4136.917391,-10807.006753,148.041188,919.314598
4136.917721,-10658.965565,-296.082377,995.924147
4136.918051,-9696.697840,0.000000,995.924147
4136.918381,-9474.636058,148.041188,536.266849
4136.918710,-10214.842000,-222.061783,-306.438199
4136.919040,-9844.739029,0.000000,383.047749
4136.919370,-9326.594869,-444.123565,-306.438199
4136.919700,-8660.409521,0.000000,0.000000
4136.920029,-9992.780217,-444.123565,995.924147
4136.920359,-11103.089130,0.000000,995.924147
4136.920689,-9918.759623,-518.144159,383.047749
4136.921019,-9326.594869,-444.123565,-612.876398
4136.921349,-9474.636058,-962.267725,-612.876398
4136.921678,-9252.574275,-370.102971,612.876398
4136.922008,-9178.553681,-222.061783,1225.752797
4136.922338,-9400.615463,-148.041188,766.095498
4136.922668,-10510.924376,296.082377,459.657299
4136.922997,-10658.965565,-444.123565,-306.438199
4136.923327,-10066.800811,-518.144159,-995.924147
4136.923657,-9104.533087,-666.185348,0.000000
4136.923987,-9326.594869,0.000000,1072.533697
4136.924317,-9474.636058,-148.041188,1149.143247
4136.924646,-9400.615463,74.020594,153.219100
4136.924976,-9696.697840,740.205942,-766.095498
4136.925306,-10658.965565,666.185348,-995.924147
4136.925636,-10955.047942,74.020594,-229.828649
4136.925966,-10362.883188,666.185348,689.485948
4136.926295,-9622.677246,222.061783,1608.800546
4136.926625,-9548.656652,592.164754,383.047749
4136.926955,-9696.697840,0.000000,-919.314598
4136.927285,-10214.842000,0.000000,-842.705048
4136.927614,-9696.697840,74.020594,0.000000
4136.927944,-10362.883188,888.247130,1149.143247
4136.928274,-10066.800811,888.247130,842.705048
4136.928604,-9326.594869,518.144159,0.000000
4136.928934,-9548.656652,740.205942,-459.657299
4136.929263,-10732.986159,518.144159,-612.876398
4136.929593,-11473.192101,444.123565,-689.485948
4136.929923,-9326.594869,0.000000,689.485948
4136.930253,-8068.244768,0.000000,1072.533697
4136.930582,-8660.409521,74.020594,1608.800546
4136.930912,-9474.636058,-148.041188,0.000000
4136.931242,-9548.656652,0.000000,-689.485948
4136.931572,-8882.471304,444.123565,-1225.752797
4136.931902,-9326.594869,518.144159,0.000000
4136.932231,-10658.965565,296.082377,1302.362347
4136.932561,-10881.027347,370.102971,1608.800546
4136.932891,-9622.677246,296.082377,153.219100
4136.933221,-8512.368333,222.061783,-1302.362347
4136.933550,-9252.574275,0.000000,-1915.238745
4136.933880,-9474.636058,370.102971,-842.705048
4136.934210,-9918.759623,0.000000,306.438199
4136.934540,-9326.594869,74.020594,612.876398
4136.934870,-9844.739029,0.000000,1378.971896
4136.935199,-10732.986159,444.123565,612.876398
4136.935529,-10214.842000,0.000000,306.438199
4136.935859,-9474.636058,-222.061783,-229.828649
4136.936189,-9474.636058,0.000000,1149.143247
4136.936518,-10288.862594,74.020594,1762.019645
4136.936848,-10732.986159,148.041188,1225.752797
4136.937178,-10066.800811,0.000000,-383.047749
4136.937508,-9030.512492,-888.247130,-612.876398
4136.937838,-9844.739029,-518.144159,0.000000
4136.938167,-10807.006753,-370.102971,1149.143247
4136.938497,-10288.862594,-666.185348,1685.410096
4136.938827,-9474.636058,-740.205942,1532.190996
4136.939157,-9548.656652,-370.102971,995.924147
4136.939486,-9992.780217,-370.102971,-76.609550
4136.939816,-10510.924376,-666.185348,-76.609550
4136.940146,-9474.636058,-370.102971,536.266849
4136.940476,-9770.718434,0.000000,1608.800546
4136.940806,-10362.883188,-74.020594,153.219100
4136.941135,-10214.842000,-296.082377,153.219100
4136.941465,-9844.739029,-592.164754,0.000000
4136.941795,-9178.553681,-444.123565,-306.438199
4136.942125,-8882.471304,-222.061783,-459.657299
4136.942454,-9622.677246,-148.041188,383.047749
4136.942784,-9770.718434,-592.164754,689.485948
4136.943114,-9474.636058,74.020594,1225.752797
4136.943444,-10066.800811,148.041188,-383.047749
4136.943774,-10362.883188,0.000000,-1378.971896
4136.944103,-9770.718434,-370.102971,-919.314598
4136.944433,-9696.697840,0.000000,919.314598
4136.944763,-9992.780217,0.000000,2145.067394
4136.945093,-9696.697840,74.020594,842.705048
4136.945422,-9696.697840,370.102971,-383.047749
4136.945752,-10066.800811,74.020594,-995.924147
4136.946082,-10066.800811,296.082377,-1225.752797
4136.946412,-10288.862594,592.164754,-383.047749
4136.946742,-10362.883188,444.123565,842.705048
4136.947071,-9548.656652,370.102971,689.485948
4136.947401,-9104.533087,370.102971,459.657299
4136.947731,-9696.697840,222.061783,-766.095498
4136.948061,-9992.780217,814.226536,-842.705048
4136.948390,-10288.862594,1110.308913,-229.828649
4136.948720,-10732.986159,518.144159,229.828649
4136.949050,-10732.986159,814.226536,842.705048
4136.949380,-10140.821405,444.123565,383.047749
4136.949710,-9622.677246,444.123565,76.609550
4136.950039,-8660.409521,74.020594,-919.314598
4136.950369,-8512.368333,518.144159,0.000000
4136.950699,-9622.677246,888.247130,612.876398
4136.951029,-10881.027347,1036.288319,919.314598
4136.951358,-10658.965565,888.247130,229.828649
4136.951688,-9770.718434,444.123565,-612.876398
4136.952018,-9474.636058,518.144159,-995.924147
4136.952348,-8956.491898,592.164754,-536.266849
4136.952678,-8956.491898,740.205942,536.266849
4136.953007,-9474.636058,888.247130,919.314598
4136.953337,-9400.615463,592.164754,612.876398
4136.953667,-10510.924376,814.226536,0.000000
4136.953997,-10658.965565,518.144159,0.000000
4136.954326,-9622.677246,222.061783,0.000000
4136.954656,-8882.471304,-222.061783,1302.362347
4136.954986,-9252.574275,-296.082377,919.314598
4136.955316,-8956.491898,0.000000,1072.533697
4136.955646,-9400.615463,222.061783,383.047749
4136.955975,-9844.739029,444.123565,-306.438199
4136.956305,-10362.883188,740.205942,0.000000
4136.956635,-10732.986159,666.185348,306.438199
4136.956965,-10658.965565,0.000000,1302.362347
4136.957294,-10066.800811,-222.061783,612.876398
4136.957624,-10362.883188,-518.144159,153.219100
4136.957954,-9104.533087,-888.247130,306.438199
4136.958284,-9252.574275,-518.144159,306.438199
4136.958614,-9474.636058,296.082377,842.705048
4136.958943,-9918.759623,0.000000,919.314598
4136.959273,-10288.862594,518.144159,612.876398
4136.959603,-11473.192101,-666.185348,-1225.752797
4136.959933,-10214.842000,0.000000,-76.609550
4136.960262,-10584.944971,-1184.329507,1608.800546
4136.960592,-9844.739029,-1406.391290,1225.752797
4136.960922,-8142.265362,-1406.391290,1302.362347
4136.961252,-8068.244768,-1554.432478,766.095498
4136.961582,-8882.471304,-1184.329507,766.095498
4136.961911,-10288.862594,0.000000,1302.362347
4136.962241,-12139.377449,-1110.308913,842.705048
4136.962571,-10214.842000,-592.164754,766.095498
4136.962901,-9104.533087,-888.247130,919.314598
4136.963230,-9178.553681,-1036.288319,76.609550
4136.963560,-9622.677246,-1036.288319,-229.828649
4136.963890,-9474.636058,-666.185348,-1072.533697
4136.964220,-8586.388927,-518.144159,-1225.752797
4136.964550,-9844.739029,222.061783,0.000000
4136.964879,-10584.944971,148.041188,919.314598
4136.965209,-9918.759623,0.000000,459.657299
4136.965539,-9844.739029,-296.082377,-1532.190996
4136.965869,-10066.800811,-740.205942,-1072.533697
4136.966198,-9400.615463,-666.185348,-229.828649
4136.966528,-9400.615463,-444.123565,766.095498
4136.966858,-9474.636058,0.000000,1608.800546
4136.967188,-10140.821405,148.041188,1532.190996
4136.967518,-9622.677246,-518.144159,153.219100
4136.967847,-9696.697840,370.102971,-306.438199
4136.968177,-10140.821405,592.164754,-612.876398
4136.968507,-10807.006753,222.061783,0.000000
4136.968837,-9400.615463,148.041188,-459.657299
4136.969166,-9030.512492,222.061783,383.047749
4136.969496,-9770.718434,0.000000,306.438199
4136.969826,-10362.883188,296.082377,-306.438199
4136.970156,-9696.697840,222.061783,-689.485948
4136.970486,-8808.450710,444.123565,-536.266849
4136.970815,-9252.574275,592.164754,766.095498
4136.971145,-10732.986159,1036.288319,2145.067394
4136.971475,-10807.006753,444.123565,1685.410096
4136.971805,-9548.656652,888.247130,-153.219100
4136.972134,-9918.759623,518.144159,-842.705048
4136.972464,-10362.883188,814.226536,-459.657299
4136.972794,-9474.636058,222.061783,0.000000
4136.973124,-7624.121203,592.164754,0.000000
4136.973454,-8808.450710,148.041188,459.657299
4136.973783,-10066.800811,740.205942,383.047749
4136.974113,-10807.006753,814.226536,-306.438199
4136.974443,-9844.739029,962.267725,-1149.143247
4136.974773,-9622.677246,444.123565,-766.095498
4136.975102,-9622.677246,814.226536,306.438199
4136.975432,-10140.821405,370.102971,689.485948
4136.975762,-9770.718434,370.102971,-153.219100
4136.976092,-9104.533087,740.205942,-689.485948
4136.976422,-8512.368333,222.061783,-766.095498
4136.976751,-9622.677246,296.082377,0.000000
4136.977081,-10436.903782,518.144159,1225.752797
4136.977411,-11029.068536,444.123565,1149.143247
4136.977741,-10955.047942,222.061783,459.657299
4136.978070,-9918.759623,74.020594,-766.095498
4136.978400,-9030.512492,444.123565,-919.314598
4136.978730,-9252.574275,1036.288319,-229.828649
4136.979060,-9696.697840,740.205942,689.485948
4136.979390,-10214.842000,888.247130,689.485948
4136.979719,-10510.924376,444.123565,229.828649
4136.980049,-9844.739029,0.000000,-766.095498
4136.980379,-9548.656652,0.000000,-229.828649
4136.980709,-10214.842000,-370.102971,229.828649
4136.981038,-9400.615463,-814.226536,306.438199
4136.981368,-9474.636058,-740.205942,919.314598
4136.981698,-9030.512492,-592.164754,1532.190996
4136.982028,-9252.574275,-148.041188,1072.533697
4136.982358,-10066.800811,148.041188,459.657299
4136.982687,-10214.842000,444.123565,0.000000
4136.983017,-10362.883188,-74.020594,153.219100
4136.983347,-10288.862594,0.000000,459.657299
4136.983677,-8734.430116,-814.226536,0.000000
4136.984006,-9252.574275,-518.144159,-459.657299
4136.984336,-9696.697840,-518.144159,-612.876398
4136.984666,-9178.553681,-888.247130,-383.047749
4136.984996,-9178.553681,-370.102971,-306.438199
4136.985326,-8956.491898,-296.082377,536.266849
4136.985655,-10214.842000,0.000000,995.924147
4136.985985,-10140.821405,-370.102971,1302.362347
4136.986315,-9696.697840,0.000000,459.657299
4136.986645,-10732.986159,0.000000,153.219100
4136.986974,-10584.944971,-592.164754,-153.219100
4136.987304,-9252.574275,-296.082377,76.609550
4136.987634,-8586.388927,0.000000,536.266849
4136.987964,-9326.594869,0.000000,1072.533697
4136.988294,-10807.006753,0.000000,76.609550
4136.988623,-10214.842000,222.061783,0.000000
4136.988953,-9252.574275,-296.082377,-1608.800546
4136.989283,-9400.615463,148.041188,-536.266849
4136.989613,-10214.842000,0.000000,1072.533697
4136.989942,-10510.924376,-148.041188,1915.238745
4136.990272,-8956.491898,-222.061783,689.485948
4136.990602,-9770.718434,-148.041188,-383.047749
4136.990932,-10732.986159,-296.082377,0.000000
4136.991262,-10955.047942,0.000000,1072.533697
4136.991591,-9770.718434,296.082377,1608.800546
4136.991921,-9326.594869,-370.102971,1762.019645
4136.992251,-9770.718434,0.000000,1149.143247
4136.992581,-9696.697840,-592.164754,76.609550
4136.992910,-8216.285956,-740.205942,-842.705048
4136.993240,-8512.368333,0.000000,-1149.143247
4136.993570,-10362.883188,518.144159,153.219100
4136.993900,-11325.150913,74.020594,1225.752797
4136.994230,-10436.903782,222.061783,919.314598
4136.994559,-9326.594869,-444.123565,0.000000
4136.994889,-9400.615463,-222.061783,229.828649
4136.995219,-9696.697840,-518.144159,612.876398
4136.995549,-9030.512492,74.020594,1225.752797
4136.995878,-9326.594869,74.020594,383.047749
4136.996208,-10214.842000,518.144159,-459.657299
4136.996538,-10658.965565,74.020594,-995.924147
4136.996868,-9770.718434,296.082377,-842.705048
4136.997198,-9326.594869,-148.041188,76.609550
4136.997527,-9326.594869,444.123565,689.485948
4136.997857,-9696.697840,74.020594,229.828649
4136.998187,-9474.636058,74.020594,-536.266849
4136.998517,-9474.636058,296.082377,-76.609550
4136.998846,-10807.006753,888.247130,-459.657299
4136.999176,-11177.109724,888.247130,153.219100
4136.999506,-9844.739029,444.123565,76.609550
4136.999836,-8882.471304,74.020594,-612.876398
4137.000166,-9400.615463,-814.226536,76.609550
4137.000495,-9696.697840,444.123565,383.047749
4137.000825,-10140.821405,296.082377,612.876398
4137.001155,-9178.553681,222.061783,0.000000
4137.001485,-8808.450710,148.041188,536.266849
4137.001814,-10066.800811,518.144159,842.705048
4137.002144,-10955.047942,296.082377,459.657299
4137.002474,-10140.821405,518.144159,-306.438199
4137.002804,-9548.656652,370.102971,-689.485948
4137.003134,-9400.615463,296.082377,153.219100
4137.003463,-10288.862594,296.082377,76.609550
4137.003793,-9622.677246,666.185348,-306.438199
4137.004123,-8808.450710,74.020594,-306.438199
4137.004453,-8882.471304,518.144159,-383.047749
4137.004782,-10436.903782,296.082377,0.000000
4137.005112,-9918.759623,74.020594,306.438199
4137.005442,-9696.697840,0.000000,383.047749
4137.005772,-8956.491898,148.041188,536.266849
4137.006101,-10584.944971,370.102971,919.314598
4137.006431,-10584.944971,296.082377,459.657299
4137.006761,-9178.553681,814.226536,536.266849
4137.007091,-9030.512492,1184.329507,-306.438199
4137.007421,-9992.780217,1110.308913,-459.657299
4137.007750,-10732.986159,1036.288319,-459.657299
4137.008080,-10436.903782,1184.329507,-459.657299
4137.008410,-9622.677246,592.164754,-1072.533697
4137.008740,-9622.677246,518.144159,-1685.410096
4137.009069,-9918.759623,0.000000,-1915.238745
4137.009399,-8512.368333,-222.061783,-1072.533697
4137.009729,-8512.368333,0.000000,0.000000
4137.010059,-9474.636058,444.123565,1149.143247
4137.010389,-10584.944971,370.102971,919.314598
4137.010718,-10510.924376,814.226536,-153.219100
4137.011048,-10955.047942,888.247130,-536.266849
4137.011378,-10881.027347,814.226536,-306.438199
4137.011708,-10510.924376,592.164754,-689.485948
4137.012037,-9178.553681,222.061783,-842.705048
4137.012367,-8586.388927,518.144159,-842.705048
4137.012697,-9178.553681,814.226536,-919.314598
4137.013027,-10214.842000,1184.329507,-1302.362347
4137.013357,-9918.759623,1036.288319,-1762.019645
4137.013686,-9474.636058,962.267725,-2298.286494
4137.014016,-9844.739029,962.267725,-1378.971896
4137.014346,-9844.739029,1036.288319,-383.047749
4137.014676,-9770.718434,1332.370696,-459.657299
4137.015005,-9474.636058,1628.453072,-1838.629195
4137.015335,-9474.636058,1924.535449,-2374.896044
4137.015665,-10066.800811,1850.514855,-2451.505594
4137.015995,-10140.821405,1628.453072,-2681.334243
4137.016325,-9474.636058,962.267725,-2834.553343
4137.016654,-8512.368333,814.226536,-1532.190996
4137.016984,-8660.409521,1332.370696,0.000000
4137.017314,-8438.347739,1702.473667,-1225.752797
4137.017644,-8512.368333,1998.556043,-2451.505594
4137.017973,-9104.533087,2664.741391,-2451.505594
4137.018303,-10807.006753,3256.906145,-2298.286494
4137.018633,-11917.315666,3404.947333,-2987.772442
4137.018963,-11251.130318,2960.823768,-2757.943793
4137.019293,-10066.800811,2812.782580,-2528.115143
4137.019622,-9104.533087,1998.556043,-2451.505594
4137.019952,-9030.512492,2664.741391,-2068.457845
4137.020282,-8882.471304,2516.700203,-1608.800546
4137.020612,-9030.512492,3182.885551,-1685.410096
4137.020941,-9770.718434,3478.967927,-1838.629195
4137.021271,-10436.903782,3404.947333,-1532.190996
4137.021601,-10510.924376,3330.926739,-2221.676944
4137.021931,-9770.718434,2886.803174,-2451.505594
4137.022261,-10066.800811,3034.844362,-2528.115143
4137.022590,-10436.903782,2886.803174,-2298.286494
4137.022920,-9548.656652,2664.741391,-2145.067394
4137.023250,-8734.430116,2812.782580,-2451.505594
4137.023580,-9400.615463,3478.967927,-1762.019645
4137.023909,-10584.944971,3923.091493,-1685.410096
4137.024239,-10732.986159,3478.967927,-2145.067394
4137.024569,-10510.924376,3404.947333,-2145.067394
4137.024899,-10881.027347,3182.885551,-2068.457845
4137.025229,-9844.739029,2738.761985,-2068.457845
4137.025558,-9030.512492,2294.638420,-1991.848295
4137.025888,-7994.224174,2590.720797,-2604.724693
4137.026218,-9030.512492,2072.576638,-2221.676944
4137.026548,-10140.821405,2590.720797,-2221.676944
4137.026877,-10140.821405,2294.638420,-2374.896044
4137.027207,-9326.594869,2368.659014,-2298.286494
4137.027537,-10436.903782,2220.617826,-1378.971896
4137.027867,-10510.924376,2960.823768,-612.876398
4137.028197,-9918.759623,2368.659014,-1378.971896
4137.028526,-8660.409521,2442.679609,-2451.505594
4137.028856,-8734.430116,1702.473667,-2834.553343
4137.029186,-10288.862594,1924.535449,-2221.676944
4137.029516,-9696.697840,2072.576638,-2374.896044
4137.029845,-9178.553681,1332.370696,-2298.286494
4137.030175,-8364.327145,1406.391290,-2451.505594
4137.030505,-8586.388927,1184.329507,-1685.410096
4137.030835,-9918.759623,1850.514855,-153.219100
4137.031165,-10584.944971,1184.329507,0.000000
4137.031494,-11621.233289,1480.411884,-919.314598
4137.031824,-10214.842000,2368.659014,-766.095498
4137.032154,-9992.780217,2590.720797,-2757.943793
4137.032484,-11177.109724,1850.514855,-2068.457845
4137.032813,-9326.594869,1110.308913,-842.705048
4137.033143,-7920.203579,1036.288319,-1991.848295
4137.033473,-8142.265362,222.061783,-3217.601092
4137.033803,-9252.574275,888.247130,-3217.601092
4137.034133,-8956.491898,1776.494261,-1455.581446
4137.034462,-10436.903782,1850.514855,-76.609550
4137.034792,-10362.883188,1480.411884,-766.095498
4137.035122,-10510.924376,1998.556043,-2604.724693
4137.035452,-10362.883188,1776.494261,-2451.505594
4137.035781,-10436.903782,1998.556043,-2221.676944
4137.036111,-10436.903782,1332.370696,-1302.362347
4137.036441,-9622.677246,1554.432478,-1608.800546
4137.036771,-9252.574275,1184.329507,-2068.457845
4137.037101,-9474.636058,1258.350101,-1991.848295
4137.037430,-9844.739029,1702.473667,-1915.238745
4137.037760,-9844.739029,1184.329507,-2374.896044
4137.038090,-9844.739029,1628.453072,-2145.067394
4137.038420,-9918.759623,1702.473667,-2298.286494
4137.038749,-9474.636058,1702.473667,-1532.190996
4137.039079,-9696.697840,1776.494261,76.609550
4137.039409,-9696.697840,1628.453072,0.000000
4137.039739,-9992.780217,1702.473667,-1838.629195
4137.040069,-9992.780217,1406.391290,-2604.724693
4137.040398,-9474.636058,1998.556043,-1915.238745
4137.040728,-9400.615463,1776.494261,-919.314598
4137.041058,-9696.697840,2072.576638,-1149.143247
4137.041388,-9918.759623,2442.679609,-919.314598
4137.041717,-9770.718434,2368.659014,-2068.457845
4137.042047,-9548.656652,2590.720797,-3064.381992
4137.042377,-9844.739029,2294.638420,-3294.210641
4137.042707,-9770.718434,2368.659014,-2911.162892
4137.043037,-9252.574275,2220.617826,-2298.286494
4137.043366,-9400.615463,1998.556043,-1685.410096
4137.043696,-9622.677246,1850.514855,-1608.800546
4137.044026,-9548.656652,1776.494261,-2221.676944
4137.044356,-8956.491898,2072.576638,-2528.115143
4137.044685,-8734.430116,2146.597232,-2145.067394
4137.045015,-9622.677246,2368.659014,-459.657299
4137.045345,-10807.006753,2664.741391,536.266849
4137.045675,-10510.924376,2664.741391,-1149.143247
4137.046004,-10140.821405,2886.803174,-4060.306139
4137.046334,-10066.800811,3034.844362,-4903.011187
4137.046664,-10066.800811,3256.906145,-4213.525239
4137.046994,-10140.821405,2738.761985,-2604.724693
4137.047324,-9770.718434,2960.823768,-1455.581446
4137.047653,-8882.471304,2812.782580,-1608.800546
4137.047983,-8956.491898,2294.638420,-1915.238745
4137.048313,-9400.615463,2294.638420,-2834.553343
4137.048643,-10214.842000,2072.576638,-2604.724693
4137.048972,-9844.739029,2294.638420,-1532.190996
4137.049302,-9252.574275,2146.597232,-612.876398
4137.049632,-9030.512492,2442.679609,-766.095498
4137.049962,-9548.656652,2590.720797,-1302.362347
4137.050292,-10584.944971,3108.864956,-2528.115143
4137.050621,-10881.027347,3404.947333,-3217.601092
4137.050951,-10362.883188,3330.926739,-3140.991542
4137.051281,-10140.821405,3108.864956,-2451.505594
4137.051611,-9696.697840,2812.782580,-1378.971896
4137.051940,-9474.636058,2442.679609,-1225.752797
4137.052270,-9400.615463,2072.576638,-2221.676944
4137.052600,-8586.388927,1110.308913,-2987.772442
4137.052930,-8734.430116,1554.432478,-3370.820191
4137.053260,-8808.450710,1628.453072,-1991.848295
4137.053589,-9178.553681,2220.617826,-1378.971896
4137.053919,-9252.574275,2516.700203,-1225.752797
4137.054249,-10140.821405,2590.720797,-995.924147
4137.054579,-11399.171507,2664.741391,-1302.362347
4137.054908,-11769.274478,2590.720797,-1455.581446
4137.055238,-10732.986159,2368.659014,-2298.286494
4137.055568,-9178.553681,1406.391290,-2221.676944
4137.055898,-9030.512492,1554.432478,-1991.848295
4137.056227,-9326.594869,1480.411884,-2298.286494
4137.056557,-8808.450710,1258.350101,-2528.115143
4137.056887,-8512.368333,888.247130,-2911.162892
4137.057217,-9326.594869,1184.329507,-2451.505594
4137.057547,-10066.800811,1406.391290,-766.095498
4137.057876,-10807.006753,1480.411884,76.609550
4137.058206,-9918.759623,1480.411884,0.000000
4137.058536,-10362.883188,962.267725,-536.266849
4137.058866,-10436.903782,888.247130,0.000000
4137.059195,-10584.944971,888.247130,383.047749
4137.059525,-9326.594869,592.164754,0.000000
4137.059855,-9400.615463,740.205942,-919.314598
4137.060185,-9252.574275,740.205942,-1455.581446
4137.060515,-9030.512492,592.164754,-2145.067394
4137.060844,-9252.574275,888.247130,-1991.848295
4137.061174,-9030.512492,814.226536,-2451.505594
4137.061504,-9474.636058,1110.308913,-2987.772442
4137.061834,-9548.656652,444.123565,-2298.286494
4137.062163,-9400.615463,444.123565,-1302.362347
4137.062493,-10510.924376,444.123565,-153.219100
4137.062823,-10214.842000,740.205942,-689.485948
4137.063153,-9474.636058,296.082377,-2068.457845
4137.063483,-9104.533087,148.041188,-2757.943793
4137.063812,-8808.450710,592.164754,-2834.553343
4137.064142,-9474.636058,666.185348,-1149.143247
4137.064472,-9844.739029,1332.370696,-689.485948
4137.064802,-9030.512492,1258.350101,-2298.286494
4137.065131,-9104.533087,1332.370696,-3064.381992
4137.065461,-9844.739029,1924.535449,-3294.210641
4137.065791,-10881.027347,2220.617826,-3217.601092
4137.066121,-10881.027347,2294.638420,-3064.381992
4137.066451,-9622.677246,2294.638420,-2757.943793
4137.066780,-9548.656652,2368.659014,-1685.410096
4137.067110,-10214.842000,2294.638420,-1378.971896
4137.067440,-10140.821405,2590.720797,-1915.238745
4137.067770,-10214.842000,2368.659014,-2528.115143
4137.068099,-9252.574275,2664.741391,-2528.115143
4137.068429,-9474.636058,2738.761985,-1608.800546
4137.068759,-9918.759623,2738.761985,-2068.457845
4137.069089,-9474.636058,3182.885551,-2681.334243
4137.069418,-9474.636058,3552.988522,-2834.553343
4137.069748,-10214.842000,3404.947333,-2298.286494
4137.070078,-10881.027347,3701.029710,-1685.410096
4137.070408,-10584.944971,4145.153275,-1608.800546
4137.070738,-9622.677246,3701.029710,-2451.505594
4137.071067,-9252.574275,3701.029710,-3753.867940
4137.071397,-9326.594869,3330.926739,-3217.601092
4137.071727,-9770.718434,3478.967927,-2374.896044
4137.072057,-10066.800811,3478.967927,-1072.533697
4137.072386,-9030.512492,3997.112087,-1455.581446
4137.072716,-9030.512492,3849.070898,-3217.601092
4137.073046,-9474.636058,4071.132681,-3294.210641
4137.073376,-10436.903782,4441.235652,-2528.115143
4137.073706,-10436.903782,4145.153275,-1838.629195
4137.074035,-10066.800811,3775.050304,-1072.533697
4137.074365,-9252.574275,3478.967927,-1149.143247
4137.074695,-9474.636058,3330.926739,-1072.533697
4137.075025,-9918.759623,3478.967927,-1608.800546
4137.075354,-9622.677246,2738.761985,-2451.505594
4137.075684,-8586.388927,3034.844362,-3294.210641
4137.076014,-8438.347739,3256.906145,-2987.772442
4137.076344,-9030.512492,3256.906145,-2451.505594
4137.076674,-10362.883188,3849.070898,-2221.676944
4137.077003,-10066.800811,3478.967927,-2604.724693
4137.077333,-9770.718434,2886.803174,-2757.943793
4137.077663,-10214.842000,2738.761985,-1762.019645
4137.077993,-10658.965565,2590.720797,-842.705048
4137.078322,-10066.800811,2368.659014,-383.047749
4137.078652,-8882.471304,1776.494261,-1838.629195
4137.078982,-8586.388927,1480.411884,-2911.162892
4137.079312,-9178.553681,1480.411884,-2451.505594
4137.079642,-9770.718434,1702.473667,-1455.581446
4137.079971,-10362.883188,1702.473667,-383.047749
4137.080301,-9918.759623,1924.535449,-1149.143247
4137.080631,-10066.800811,1554.432478,-2145.067394
4137.080961,-10732.986159,1480.411884,-2221.676944
4137.081290,-11177.109724,1406.391290,-2221.676944
4137.081620,-10658.965565,1480.411884,-1532.190996
4137.081950,-9622.677246,1036.288319,-689.485948
4137.082280,-8882.471304,740.205942,-689.485948
4137.082609,-9548.656652,296.082377,-1532.190996
4137.082939,-9844.739029,-296.082377,-2451.505594
4137.083269,-9474.636058,0.000000,-1991.848295
4137.083599,-9474.636058,0.000000,-1608.800546
4137.083929,-9992.780217,0.000000,-612.876398
4137.084258,-9992.780217,592.164754,0.000000
4137.084588,-10140.821405,814.226536,-995.924147
4137.084918,-9992.780217,592.164754,-1762.019645
4137.085248,-10658.965565,1036.288319,-2068.457845
4137.085577,-10955.047942,1406.391290,-1532.190996
4137.085907,-10584.944971,814.226536,-612.876398
4137.086237,-9548.656652,666.185348,-1532.190996
4137.086567,-8290.306550,444.123565,-3524.039291
4137.086897,-8290.306550,-222.061783,-3294.210641
4137.087226,-9400.615463,222.061783,-2374.896044
4137.087556,-9474.636058,888.247130,-689.485948
4137.087886,-9474.636058,592.164754,0.000000
4137.088216,-9400.615463,1184.329507,-383.047749
4137.088545,-10140.821405,1554.432478,-383.047749
4137.088875,-11399.171507,1924.535449,-919.314598
4137.089205,-10807.006753,2220.617826,-1225.752797
4137.089535,-9770.718434,1776.494261,-1302.362347
4137.089865,-9474.636058,1850.514855,-1915.238745
4137.090194,-9178.553681,1850.514855,-1991.848295
4137.090524,-9992.780217,1702.473667,-2221.676944
4137.090854,-9030.512492,2146.597232,-3140.991542
4137.091184,-8438.347739,1998.556043,-3753.867940
4137.091513,-8808.450710,2516.700203,-2681.334243
4137.091843,-9696.697840,3256.906145,-995.924147
4137.092173,-10362.883188,3108.864956,-1302.362347
4137.092503,-10066.800811,3182.885551,-1915.238745
4137.092832,-9548.656652,3182.885551,-2681.334243
4137.093162,-10436.903782,2664.741391,-2221.676944
4137.093492,-10510.924376,3108.864956,-1149.143247
4137.093822,-10140.821405,2664.741391,-612.876398
4137.094152,-8734.430116,2442.679609,-2221.676944
4137.094481,-8216.285956,2442.679609,-2987.772442
4137.094811,-8660.409521,3330.926739,-2911.162892
4137.095141,-9178.553681,3330.926739,-2374.896044
4137.095471,-10288.862594,4071.132681,-2604.724693
4137.095800,-9474.636058,3627.009116,-2451.505594
4137.096130,-10066.800811,3775.050304,-2987.772442
4137.096460,-10510.924376,4367.215058,-3217.601092
4137.096790,-9918.759623,3701.029710,-2374.896044
4137.097120,-9474.636058,3256.906145,-2145.067394
4137.097449,-9400.615463,2738.761985,-2145.067394
4137.097779,-9770.718434,3108.864956,-1762.019645
4137.098109,-9030.512492,3034.844362,-2451.505594
4137.098439,-9474.636058,2812.782580,-2757.943793
4137.098768,-9326.594869,1998.556043,-2451.505594
4137.099098,-9548.656652,2368.659014,-1915.238745
4137.099428,-8660.409521,2368.659014,-1302.362347
4137.099758,-10436.903782,2960.823768,-766.095498
4137.100088,-10362.883188,3034.844362,-919.314598
4137.100417,-10584.944971,2812.782580,-1072.533697
4137.100747,-11029.068536,3034.844362,-1455.581446
4137.101077,-10658.965565,1924.535449,-1302.362347
4137.101407,-10584.944971,1702.473667,-612.876398
4137.101736,-8808.450710,1184.329507,-383.047749
4137.102066,-8512.368333,1036.288319,-766.095498
4137.102396,-8660.409521,666.185348,-1685.410096
4137.102726,-9622.677246,1406.391290,-842.705048
4137.103056,-9918.759623,1702.473667,-766.095498
4137.103385,-10510.924376,1776.494261,-306.438199
4137.103715,-11473.192101,1924.535449,0.000000
