#time,accel_x,accel_y,accel_z
3639.379146,-11325.150913,-1628.453072,-2451.505594
3639.379476,-10732.986159,-2294.638420,-2834.553343
3639.379806,-10584.944971,-2664.741391,-2681.334243
3639.380136,-9992.780217,-2516.700203,-2451.505594
3639.380466,-10066.800811,-2442.679609,-1915.238745
3639.380796,-9400.615463,-2294.638420,-1838.629195
3639.381126,-8364.327145,-2072.576638,-2068.457845
3639.381456,-8438.347739,-962.267725,229.828649
3639.381786,-9918.759623,1184.329507,153.219100
3639.382116,-8882.471304,0.000000,-995.924147
3639.382446,-11547.212695,-592.164754,-1762.019645
3639.382776,-10807.006753,-518.144159,-689.485948
3639.383106,-9844.739029,0.000000,-536.266849
3639.383436,-11547.212695,-814.226536,-1608.800546
3639.383766,-9696.697840,-592.164754,-2374.896044
3639.384096,-9696.697840,-296.082377,-2451.505594
3639.384426,-10436.903782,-740.205942,-1762.019645
3639.384756,-10214.842000,0.000000,-1149.143247
3639.385086,-9326.594869,0.000000,-2528.115143
3639.385416,-8068.244768,222.061783,-1915.238745
3639.385746,-8586.388927,296.082377,-1378.971896
3639.386076,-10362.883188,666.185348,-306.438199
3639.386406,-10436.903782,666.185348,-306.438199
3639.386736,-9326.594869,0.000000,-995.924147
3639.387066,-9326.594869,518.144159,-766.095498
3639.387396,-9918.759623,370.102971,-1149.143247
3639.387726,-10807.006753,518.144159,-459.657299
3639.388056,-10732.986159,444.123565,-459.657299
3639.388386,-10436.903782,814.226536,-766.095498
3639.388716,-10436.903782,370.102971,-2528.115143
3639.389046,-9918.759623,74.020594,-3907.087040
3639.389376,-9622.677246,74.020594,-2757.943793
3639.389706,-9326.594869,-148.041188,-1225.752797
3639.390036,-8660.409521,-370.102971,0.000000
3639.390366,-8882.471304,-666.185348,-536.266849
3639.390696,-9474.636058,-370.102971,-612.876398
3639.391026,-10658.965565,-148.041188,0.000000
3639.391356,-11843.295072,-296.082377,-995.924147
3639.391686,-11991.336260,-518.144159,-2451.505594
3639.392016,-11103.089130,-1332.370696,-3907.087040
3639.392346,-11103.089130,-1850.514855,-3983.696590
3639.392676,-9844.739029,-2516.700203,-3907.087040
3639.393006,-8142.265362,-3330.926739,-3983.696590
3639.393336,-7402.059420,-3182.885551,-3677.258390
3639.393666,-7402.059420,-2886.803174,-2604.724693
3639.393996,-7846.182985,-2590.720797,-1685.410096
3639.394326,-8586.388927,-2516.700203,-459.657299
3639.394656,-10066.800811,-2368.659014,0.000000
3639.394986,-12065.356855,-2368.659014,-306.438199
3639.395316,-13471.748144,-2738.761985,-1915.238745
3639.395646,-12287.418637,-3627.009116,-4519.963438
3639.395976,-10510.924376,-4885.359217,-6205.373534
3639.396306,-9474.636058,-5477.523971,-5362.668486
3639.396636,-8290.306550,-5921.647536,-2451.505594
3639.396966,-7920.203579,-5181.441594,-1225.752797
3639.397296,-6661.853478,-5033.400406,-1762.019645
3639.397626,-6735.874072,-4737.318029,-2451.505594
3639.397956,-7105.977043,-4145.153275,-1532.190996
3639.398286,-9548.656652,-2960.823768,0.000000
3639.398616,-11991.336260,-3108.864956,995.924147
3639.398946,-12879.583391,-3330.926739,306.438199
3639.399276,-12435.459826,-4071.132681,-1838.629195
3639.399606,-12139.377449,-5181.441594,-2681.334243
3639.399936,-12287.418637,-5699.585753,-2145.067394
3639.400266,-10881.027347,-5921.647536,-1685.410096
3639.400596,-7328.038826,-5551.544565,-1608.800546
3639.400926,-4811.338623,-4737.318029,-842.705048
3639.401256,-5403.503377,-3034.844362,306.438199
3639.401586,-8364.327145,-2072.576638,-153.219100
3639.401916,-10955.047942,-962.267725,-1149.143247
3639.402245,-11251.130318,-1776.494261,-1685.410096
3639.402575,-11473.192101,-2220.617826,76.609550
3639.402905,-13101.645173,-3256.906145,2604.724693
3639.403235,-13323.706956,-3478.967927,4136.915689
3639.403565,-11769.274478,-3627.009116,3140.991542
3639.403895,-8808.450710,-2812.782580,229.828649
3639.404225,-8290.306550,-2368.659014,229.828649
3639.404555,-9030.512492,-1184.329507,1455.581446
3639.404885,-8660.409521,-296.082377,2451.505594
3639.405215,-8216.285956,0.000000,1915.238745
3639.405545,-8142.265362,-222.061783,76.609550
3639.405874,-9548.656652,-518.144159,-612.876398
3639.406204,-10881.027347,-148.041188,-153.219100
3639.406534,-10066.800811,0.000000,536.266849
3639.406864,-9770.718434,592.164754,1762.019645
3639.407194,-10955.047942,888.247130,2528.115143
3639.407524,-12213.398043,814.226536,2451.505594
3639.407854,-12213.398043,592.164754,1762.019645
3639.408184,-10732.986159,666.185348,153.219100
3639.408514,-8882.471304,296.082377,0.000000
3639.408844,-7105.977043,222.061783,689.485948
3639.409174,-6661.853478,1110.308913,1838.629195
3639.409503,-7031.956449,3256.906145,1455.581446
3639.409833,-7772.162391,3330.926739,-1838.629195
3639.410163,-9474.636058,3775.050304,-4596.572988
3639.410493,-11251.130318,3775.050304,-3294.210641
3639.410823,-13249.686362,3182.885551,306.438199
3639.411153,-12805.562797,1924.535449,2451.505594
3639.411483,-10214.842000,1184.329507,1915.238745
3639.411813,-7476.080014,666.185348,0.000000
3639.412143,-7105.977043,1406.391290,-383.047749
3639.412473,-7772.162391,2812.782580,0.000000
3639.412803,-8512.368333,3701.029710,0.000000
3639.413132,-8586.388927,4589.276840,-766.095498
3639.413462,-9844.739029,4663.297435,-383.047749
3639.413792,-11399.171507,4737.318029,229.828649
3639.414122,-11843.295072,4071.132681,0.000000
3639.414452,-11325.150913,3552.988522,-1072.533697
3639.414782,-10436.903782,3034.844362,-1685.410096
3639.415112,-9770.718434,2442.679609,-1149.143247
3639.415442,-9178.553681,1702.473667,-459.657299
3639.415772,-8808.450710,1850.514855,766.095498
3639.416102,-9474.636058,1776.494261,1838.629195
3639.416432,-9992.780217,1924.535449,1838.629195
3639.416761,-9326.594869,2368.659014,2145.067394
3639.417091,-9400.615463,2886.803174,2451.505594
3639.417421,-9918.759623,3552.988522,2528.115143
3639.417751,-11695.253884,3701.029710,1072.533697
3639.418081,-11251.130318,2960.823768,-536.266849
3639.418411,-11547.212695,1998.556043,-1149.143247
3639.418741,-11325.150913,888.247130,-995.924147
3639.419071,-10658.965565,-74.020594,-612.876398
3639.419401,-8364.327145,-1036.288319,-306.438199
3639.419731,-6735.874072,-1110.308913,459.657299
3639.420061,-7328.038826,0.000000,1991.848295
3639.420391,-9474.636058,1110.308913,1302.362347
3639.420720,-9918.759623,1036.288319,-306.438199
3639.421050,-10066.800811,296.082377,-842.705048
3639.421380,-10214.842000,0.000000,612.876398
3639.421710,-11473.192101,-740.205942,2221.676944
3639.422040,-11177.109724,-1776.494261,1762.019645
3639.422370,-8660.409521,-2442.679609,0.000000
3639.422700,-7846.182985,-2664.741391,-689.485948
3639.423030,-9252.574275,-2368.659014,-689.485948
3639.423360,-9622.677246,-1554.432478,-383.047749
3639.423690,-8956.491898,-1554.432478,-842.705048
3639.424020,-9252.574275,-1258.350101,-153.219100
3639.424349,-9474.636058,-1406.391290,-919.314598
3639.424679,-9252.574275,-2368.659014,-842.705048
3639.425009,-8808.450710,-2294.638420,-306.438199
3639.425339,-9992.780217,-2072.576638,766.095498
3639.425669,-10955.047942,-1628.453072,0.000000
3639.425999,-10881.027347,-2516.700203,-766.095498
3639.426329,-10584.944971,-2442.679609,-689.485948
3639.426659,-10732.986159,-2294.638420,459.657299
3639.426989,-11621.233289,-2442.679609,2068.457845
3639.427319,-10214.842000,-2960.823768,2068.457845
3639.427649,-7920.203579,-2368.659014,1532.190996
3639.427978,-8142.265362,-1480.411884,306.438199
3639.428308,-9770.718434,-1258.350101,0.000000
3639.428638,-10584.944971,-1702.473667,-612.876398
3639.428968,-9918.759623,-1924.535449,-536.266849
3639.429298,-10732.986159,-1332.370696,919.314598
3639.429628,-11177.109724,-1998.556043,1378.971896
3639.429958,-9992.780217,-2442.679609,919.314598
3639.430288,-9030.512492,-2146.597232,383.047749
3639.430618,-9770.718434,-962.267725,842.705048
3639.430948,-11251.130318,-444.123565,612.876398
3639.431278,-9992.780217,-592.164754,76.609550
3639.431607,-8586.388927,-740.205942,-689.485948
3639.431937,-8586.388927,-444.123565,-306.438199
3639.432267,-9622.677246,-370.102971,-229.828649
3639.432597,-9400.615463,-740.205942,842.705048
3639.432927,-8512.368333,-740.205942,383.047749
3639.433257,-8882.471304,148.041188,0.000000
3639.433587,-10214.842000,222.061783,-229.828649
3639.433917,-11251.130318,296.082377,-842.705048
3639.434247,-10436.903782,0.000000,-612.876398
3639.434577,-10066.800811,518.144159,-995.924147
3639.434907,-9622.677246,0.000000,-919.314598
3639.435236,-8142.265362,0.000000,-306.438199
3639.435566,-7402.059420,592.164754,229.828649
3639.435896,-8956.491898,1998.556043,459.657299
3639.436226,-10436.903782,2294.638420,-1302.362347
3639.436556,-9770.718434,2072.576638,-1991.848295
3639.436886,-9104.533087,1332.370696,-2451.505594
3639.437216,-10362.883188,1554.432478,-536.266849
3639.437546,-10955.047942,1184.329507,1762.019645
3639.437876,-9252.574275,814.226536,1302.362347
3639.438206,-7624.121203,888.247130,0.000000
3639.438536,-8660.409521,1628.453072,229.828649
3639.438865,-10362.883188,2072.576638,459.657299
3639.439195,-10510.924376,2294.638420,689.485948
3639.439525,-9696.697840,2590.720797,842.705048
3639.439855,-10436.903782,2812.782580,766.095498
3639.440185,-10732.986159,2072.576638,612.876398
3639.440515,-9474.636058,1702.473667,842.705048
3639.440845,-8586.388927,2072.576638,0.000000
3639.441175,-10436.903782,3034.844362,689.485948
3639.441505,-11769.274478,3034.844362,0.000000
3639.441835,-10510.924376,2664.741391,-919.314598
3639.442165,-9030.512492,2368.659014,-459.657299
3639.442494,-10510.924376,2072.576638,1608.800546
3639.442824,-11547.212695,1480.411884,2834.553343
3639.443154,-9918.759623,1110.308913,2834.553343
3639.443484,-7994.224174,1258.350101,1838.629195
3639.443814,-8364.327145,1776.494261,1455.581446
3639.444144,-10732.986159,1850.514855,1455.581446
3639.444474,-11103.089130,1406.391290,842.705048
3639.444804,-10658.965565,1184.329507,995.924147
3639.445134,-10436.903782,1110.308913,1302.362347
3639.445464,-10510.924376,74.020594,1225.752797
3639.445794,-8660.409521,-444.123565,459.657299
3639.446123,-8142.265362,-444.123565,459.657299
3639.446453,-9030.512492,296.082377,459.657299
3639.446783,-10510.924376,592.164754,459.657299
3639.447113,-9696.697840,518.144159,0.000000
3639.447443,-8956.491898,296.082377,-383.047749
3639.447773,-10066.800811,444.123565,0.000000
3639.448103,-11473.192101,-74.020594,1072.533697
3639.448433,-10066.800811,-666.185348,1225.752797
3639.448763,-8364.327145,-888.247130,0.000000
3639.449093,-9178.553681,-222.061783,-536.266849
3639.449423,-10881.027347,-592.164754,-1072.533697
3639.449752,-10658.965565,-740.205942,-1532.190996
3639.450082,-10066.800811,-1036.288319,-1378.971896
3639.450412,-10066.800811,-962.267725,-612.876398
3639.450742,-9622.677246,-1258.350101,0.000000
3639.451072,-8142.265362,-1480.411884,306.438199
3639.451402,-8142.265362,-1184.329507,383.047749
3639.451732,-9992.780217,-444.123565,0.000000
3639.452062,-11029.068536,-370.102971,-1838.629195
3639.452392,-10288.862594,-1258.350101,-1991.848295
3639.452722,-9918.759623,-1554.432478,-1455.581446
3639.453052,-10807.006753,-1702.473667,612.876398
3639.453381,-10881.027347,-2146.597232,2298.286494
3639.453711,-9252.574275,-2220.617826,1302.362347
3639.454041,-8142.265362,-1850.514855,0.000000
3639.454371,-9178.553681,-1110.308913,-459.657299
3639.454701,-10732.986159,-1184.329507,-842.705048
3639.455031,-10362.883188,-1184.329507,-919.314598
3639.455361,-9844.739029,-1332.370696,-153.219100
3639.455691,-10288.862594,-1702.473667,0.000000
3639.456021,-9992.780217,-2294.638420,-76.609550
3639.456351,-7846.182985,-2664.741391,229.828649
3639.456681,-8216.285956,-2072.576638,153.219100
3639.457010,-10140.821405,-1406.391290,766.095498
3639.457340,-10658.965565,-1184.329507,536.266849
3639.457670,-8808.450710,-1258.350101,-689.485948
3639.458000,-9252.574275,-1184.329507,-383.047749
3639.458330,-10510.924376,-1554.432478,689.485948
3639.458660,-10807.006753,-1628.453072,1685.410096
3639.458990,-8808.450710,-1554.432478,1302.362347
3639.459320,-7402.059420,-814.226536,536.266849
3639.459650,-9252.574275,-222.061783,-306.438199
3639.459980,-10362.883188,-222.061783,-1072.533697
3639.460310,-10658.965565,222.061783,-1225.752797
3639.460639,-10140.821405,148.041188,0.000000
3639.460969,-10955.047942,0.000000,76.609550
3639.461299,-9844.739029,-296.082377,0.000000
3639.461629,-7994.224174,-222.061783,-229.828649
3639.461959,-7920.203579,74.020594,-383.047749
3639.462289,-10140.821405,1036.288319,-612.876398
3639.462619,-10732.986159,814.226536,-1378.971896
3639.462949,-9326.594869,1036.288319,-1302.362347
3639.463279,-9474.636058,666.185348,-842.705048
3639.463609,-10658.965565,666.185348,1072.533697
3639.463939,-10658.965565,370.102971,2221.676944
3639.464268,-9104.533087,518.144159,1915.238745
3639.464598,-8808.450710,1184.329507,1149.143247
3639.464928,-10140.821405,1480.411884,766.095498
3639.465258,-10881.027347,1480.411884,459.657299
3639.465588,-10140.821405,1332.370696,612.876398
3639.465918,-9992.780217,1406.391290,536.266849
3639.466248,-10658.965565,1332.370696,1455.581446
3639.466578,-9622.677246,592.164754,689.485948
3639.466908,-8364.327145,962.267725,1149.143247
3639.467238,-8956.491898,1554.432478,1302.362347
3639.467568,-11177.109724,2072.576638,1149.143247
3639.467897,-11103.089130,1850.514855,229.828649
3639.468227,-9474.636058,1258.350101,-383.047749
3639.468557,-9696.697840,1406.391290,0.000000
3639.468887,-10881.027347,740.205942,1762.019645
3639.469217,-10362.883188,222.061783,2987.772442
3639.469547,-7846.182985,814.226536,1685.410096
3639.469877,-7772.162391,1258.350101,842.705048
3639.470207,-9548.656652,1628.453072,0.000000
3639.470537,-10584.944971,1702.473667,76.609550
3639.470867,-10362.883188,1554.432478,0.000000
3639.471197,-10881.027347,1406.391290,229.828649
3639.471526,-11103.089130,962.267725,76.609550
3639.471856,-9326.594869,-518.144159,0.000000
3639.472186,-7698.141797,0.000000,-536.266849
3639.472516,-8586.388927,740.205942,-76.609550
3639.472846,-11029.068536,1554.432478,0.000000
3639.473176,-10807.006753,1110.308913,-1225.752797
3639.473506,-9474.636058,222.061783,-1302.362347
3639.473836,-9844.739029,444.123565,-76.609550
3639.474166,-11029.068536,0.000000,1149.143247
3639.474496,-9696.697840,-370.102971,1302.362347
3639.474826,-7846.182985,-962.267725,1378.971896
3639.475155,-8734.430116,814.226536,306.438199
3639.475485,-10436.903782,740.205942,-383.047749
3639.475815,-11325.150913,740.205942,-689.485948
3639.476145,-11177.109724,444.123565,0.000000
3639.476475,-11177.109724,74.020594,76.609550
3639.476805,-11325.150913,-370.102971,536.266849
3639.477135,-9474.636058,-888.247130,229.828649
3639.477465,-7772.162391,-1036.288319,76.609550
3639.477795,-8808.450710,222.061783,76.609550
3639.478125,-10955.047942,666.185348,-229.828649
3639.478455,-10955.047942,0.000000,-1302.362347
3639.478784,-9548.656652,-740.205942,-1072.533697
3639.479114,-10436.903782,-814.226536,0.000000
3639.479444,-11029.068536,-1702.473667,1608.800546
3639.479774,-9548.656652,-1702.473667,2145.067394
3639.480104,-7846.182985,-1850.514855,1608.800546
3639.480434,-7994.224174,-1332.370696,1072.533697
3639.480764,-10288.862594,-296.082377,0.000000
3639.481094,-10510.924376,-888.247130,-306.438199
3639.481424,-10510.924376,-814.226536,306.438199
3639.481754,-11029.068536,-592.164754,1072.533697
3639.482084,-10807.006753,-1480.411884,1225.752797
3639.482413,-8734.430116,-2072.576638,229.828649
3639.482743,-7846.182985,-1776.494261,0.000000
3639.483073,-9474.636058,-888.247130,0.000000
3639.483403,-10658.965565,-888.247130,0.000000
3639.483733,-9844.739029,-814.226536,-1072.533697
3639.484063,-8364.327145,-1406.391290,-1455.581446
3639.484393,-9030.512492,-1332.370696,0.000000
3639.484723,-10362.883188,-1924.535449,1608.800546
3639.485053,-9474.636058,-1850.514855,2068.457845
3639.485383,-8142.265362,-888.247130,1302.362347
3639.485713,-9104.533087,-74.020594,153.219100
3639.486042,-10807.006753,148.041188,-459.657299
3639.486372,-10584.944971,-296.082377,-919.314598
3639.486702,-9844.739029,0.000000,-919.314598
3639.487032,-10732.986159,0.000000,153.219100
3639.487362,-10807.006753,-444.123565,459.657299
3639.487692,-8290.306550,-962.267725,-306.438199
3639.488022,-7624.121203,0.000000,-766.095498
3639.488352,-9400.615463,666.185348,-919.314598
3639.488682,-11177.109724,962.267725,-1302.362347
3639.489012,-10066.800811,740.205942,-1991.848295
3639.489342,-9104.533087,148.041188,-1532.190996
3639.489671,-9992.780217,0.000000,153.219100
3639.490001,-11103.089130,-296.082377,1915.238745
3639.490331,-9252.574275,-740.205942,2221.676944
3639.490661,-8068.244768,-74.020594,1455.581446
3639.490991,-8882.471304,444.123565,536.266849
3639.491321,-10362.883188,814.226536,459.657299
3639.491651,-10066.800811,814.226536,612.876398
3639.491981,-9992.780217,1036.288319,1072.533697
3639.492311,-10955.047942,1258.350101,842.705048
3639.492641,-10732.986159,518.144159,995.924147
3639.492971,-8956.491898,222.061783,383.047749
3639.493300,-7994.224174,444.123565,229.828649
3639.493630,-9844.739029,1332.370696,689.485948
3639.493960,-10658.965565,1480.411884,153.219100
3639.494290,-9326.594869,1184.329507,-919.314598
3639.494620,-8438.347739,666.185348,-1149.143247
3639.494950,-10510.924376,666.185348,459.657299
3639.495280,-10881.027347,296.082377,2145.067394
3639.495610,-9030.512492,296.082377,2374.896044
3639.495940,-7846.182985,1036.288319,1685.410096
3639.496270,-8956.491898,1110.308913,229.828649
3639.496600,-10658.965565,1332.370696,0.000000
3639.496929,-10362.883188,888.247130,-459.657299
3639.497259,-9992.780217,962.267725,153.219100
3639.497589,-10881.027347,1110.308913,1455.581446
3639.497919,-10510.924376,222.061783,1685.410096
3639.498249,-8364.327145,0.000000,766.095498
3639.498579,-8216.285956,814.226536,0.000000
3639.498909,-10140.821405,1998.556043,-766.095498
3639.499239,-11473.192101,1776.494261,-1302.362347
3639.499569,-9844.739029,1184.329507,-1225.752797
3639.499899,-9104.533087,740.205942,-766.095498
3639.500229,-10584.944971,666.185348,919.314598
3639.500558,-10807.006753,0.000000,1991.848295
3639.500890,-9252.574275,0.000000,1378.971896
3639.501220,-8364.327145,222.061783,229.828649
3639.501550,-9622.677246,740.205942,0.000000
3639.501880,-10362.883188,740.205942,0.000000
3639.502210,-9844.739029,222.061783,229.828649
3639.502540,-10214.842000,592.164754,1455.581446
3639.502870,-11103.089130,148.041188,842.705048
3639.503200,-10436.903782,0.000000,612.876398
3639.503530,-8068.244768,-666.185348,-383.047749
3639.503860,-8216.285956,-222.061783,-153.219100
3639.504190,-10362.883188,592.164754,153.219100
3639.504520,-11177.109724,814.226536,229.828649
3639.504849,-10288.862594,-148.041188,-1915.238745
3639.505179,-9400.615463,-296.082377,-1608.800546
3639.505509,-10881.027347,-740.205942,153.219100
3639.505839,-10584.944971,-962.267725,1838.629195
3639.506169,-8364.327145,-1480.411884,1762.019645
3639.506499,-7846.182985,-444.123565,1302.362347
3639.506829,-9770.718434,74.020594,229.828649
3639.507159,-10955.047942,-74.020594,-383.047749
3639.507489,-10510.924376,-592.164754,-306.438199
3639.507819,-10362.883188,-444.123565,612.876398
3639.508149,-10658.965565,-1036.288319,1149.143247
3639.508479,-9770.718434,-1480.411884,919.314598
3639.508809,-8364.327145,-1184.329507,76.609550
3639.509139,-8660.409521,-666.185348,-459.657299
3639.509468,-10658.965565,74.020594,-919.314598
3639.509798,-11103.089130,-148.041188,-1378.971896
3639.510128,-9252.574275,-888.247130,-1378.971896
3639.510458,-9178.553681,-592.164754,-383.047749
3639.510788,-10510.924376,-1110.308913,1455.581446
3639.511118,-9770.718434,-1554.432478,1532.190996
3639.511448,-8364.327145,-1554.432478,842.705048
3639.511778,-8068.244768,-888.247130,229.828649
3639.512108,-10288.862594,-74.020594,0.000000
3639.512438,-10807.006753,-370.102971,0.000000
3639.512768,-9992.780217,-888.247130,0.000000
3639.513098,-9992.780217,-592.164754,306.438199
3639.513428,-10807.006753,-888.247130,459.657299
3639.513757,-9622.677246,-1258.350101,229.828649
3639.514087,-8290.306550,-592.164754,-612.876398
3639.514417,-9030.512492,0.000000,-612.876398
3639.514747,-11029.068536,814.226536,-842.705048
3639.515077,-11029.068536,518.144159,-1915.238745
3639.515407,-9178.553681,-222.061783,-1915.238745
3639.515737,-9548.656652,-222.061783,-689.485948
3639.516067,-10510.924376,-666.185348,919.314598
3639.516397,-9844.739029,-888.247130,1838.629195
3639.516727,-7772.162391,-888.247130,1455.581446
3639.517057,-8364.327145,0.000000,1149.143247
3639.517387,-10436.903782,740.205942,76.609550
3639.517717,-10510.924376,370.102971,229.828649
3639.518046,-9770.718434,444.123565,612.876398
3639.518376,-10140.821405,666.185348,1225.752797
3639.518706,-10658.965565,444.123565,1455.581446
3639.519036,-9696.697840,148.041188,919.314598
3639.519366,-7994.224174,592.164754,0.000000
3639.519696,-9178.553681,1480.411884,-383.047749
3639.520026,-11103.089130,1776.494261,-689.485948
3639.520356,-10584.944971,1332.370696,-995.924147
3639.520686,-9326.594869,888.247130,-766.095498
3639.521016,-9622.677246,1036.288319,153.219100
3639.521346,-11251.130318,518.144159,1685.410096
3639.521676,-10140.821405,296.082377,2145.067394
3639.522006,-8068.244768,518.144159,1762.019645
3639.522336,-8364.327145,740.205942,1532.190996
3639.522665,-10584.944971,1258.350101,842.705048
3639.522995,-10955.047942,888.247130,1149.143247
3639.523325,-9918.759623,1110.308913,689.485948
3639.523655,-10140.821405,1184.329507,1225.752797
3639.523985,-10584.944971,666.185348,1149.143247
3639.524315,-9178.553681,0.000000,1378.971896
3639.524645,-7920.203579,666.185348,76.609550
3639.524975,-9474.636058,1702.473667,-459.657299
3639.525305,-11399.171507,1702.473667,-1149.143247
3639.525635,-10584.944971,1406.391290,-1608.800546
3639.525965,-9400.615463,1110.308913,-1608.800546
3639.526295,-9844.739029,888.247130,-76.609550
3639.526625,-10955.047942,0.000000,1378.971896
3639.526954,-9548.656652,-592.164754,1838.629195
3639.527284,-7698.141797,148.041188,1225.752797
3639.527614,-8734.430116,888.247130,459.657299
3639.527944,-10066.800811,814.226536,76.609550
3639.528274,-10510.924376,592.164754,0.000000
3639.528604,-11177.109724,666.185348,383.047749
3639.528934,-11103.089130,74.020594,689.485948
3639.529264,-10881.027347,-74.020594,306.438199
3639.529594,-8438.347739,-666.185348,-306.438199
3639.529924,-7550.100608,-222.061783,-689.485948
3639.530254,-9548.656652,444.123565,-383.047749
3639.530584,-11399.171507,1184.329507,-1149.143247
3639.530914,-10362.883188,518.144159,-1838.629195
3639.531243,-9400.615463,-148.041188,-1915.238745
3639.531573,-10584.944971,-740.205942,0.000000
3639.531903,-11251.130318,-1258.350101,1532.190996
3639.532233,-9030.512492,-1850.514855,2145.067394
3639.532563,-7624.121203,-1628.453072,1072.533697
3639.532893,-8808.450710,-666.185348,612.876398
3639.533223,-10436.903782,-666.185348,-153.219100
3639.533553,-10584.944971,-740.205942,153.219100
3639.533883,-10214.842000,-814.226536,536.266849
3639.534213,-10732.986159,-370.102971,1762.019645
3639.534543,-10510.924376,-1480.411884,995.924147
3639.534873,-8586.388927,-1776.494261,306.438199
3639.535203,-8142.265362,-1406.391290,-76.609550
3639.535533,-9918.759623,-222.061783,0.000000
3639.535862,-11251.130318,0.000000,-76.609550
3639.536192,-9844.739029,-592.164754,-919.314598
3639.536522,-9474.636058,-740.205942,-1072.533697
3639.536852,-10362.883188,-1036.288319,229.828649
3639.537182,-10955.047942,-1332.370696,1149.143247
3639.537512,-9178.553681,-1480.411884,1149.143247
3639.537842,-7772.162391,-1036.288319,459.657299
3639.538172,-8734.430116,-370.102971,306.438199
3639.538502,-10584.944971,0.000000,383.047749
3639.538832,-10362.883188,-148.041188,-536.266849
3639.539162,-10436.903782,-370.102971,0.000000
3639.539492,-11103.089130,-296.082377,383.047749
3639.539822,-10732.986159,-962.267725,0.000000
3639.540151,-8586.388927,-962.267725,0.000000
3639.540481,-7772.162391,-444.123565,306.438199
3639.540811,-9918.759623,518.144159,0.000000
3639.541141,-10955.047942,814.226536,-612.876398
3639.541471,-9770.718434,222.061783,-1915.238745
3639.541801,-9400.615463,222.061783,-1532.190996
3639.542131,-10732.986159,0.000000,-306.438199
3639.542461,-11177.109724,-370.102971,1302.362347
3639.542791,-8956.491898,-518.144159,1838.629195
3639.543121,-7550.100608,-148.041188,995.924147
3639.543451,-9326.594869,0.000000,612.876398
3639.543781,-9844.739029,0.000000,459.657299
3639.544111,-10066.800811,148.041188,995.924147
3639.544441,-10436.903782,814.226536,1302.362347
3639.544770,-11325.150913,666.185348,1532.190996
3639.545100,-10584.944971,74.020594,1072.533697
3639.545430,-8290.306550,74.020594,536.266849
3639.545760,-8142.265362,888.247130,229.828649
3639.546090,-10510.924376,1480.411884,76.609550
3639.546420,-11029.068536,1850.514855,-536.266849
3639.546750,-9474.636058,1406.391290,-1532.190996
3639.547080,-9030.512492,1110.308913,-612.876398
3639.547410,-11029.068536,888.247130,612.876398
3639.547740,-10584.944971,518.144159,2068.457845
3639.548070,-8882.471304,222.061783,1532.190996
3639.548400,-7994.224174,740.205942,1302.362347
3639.548730,-9548.656652,1036.288319,689.485948
3639.549059,-10510.924376,1184.329507,919.314598
3639.549389,-10288.862594,1036.288319,459.657299
3639.549719,-10510.924376,1406.391290,689.485948
3639.550049,-11547.212695,1110.308913,1149.143247
3639.550379,-10066.800811,370.102971,383.047749
3639.550709,-8068.244768,148.041188,536.266849
3639.551039,-8660.409521,1036.288319,536.266849
3639.551369,-9992.780217,1702.473667,-306.438199
3639.551699,-10881.027347,1628.453072,-919.314598
3639.552029,-9400.615463,962.267725,-1762.019645
3639.552359,-9326.594869,666.185348,-1685.410096
3639.552689,-10807.006753,1036.288319,0.000000
3639.553019,-9992.780217,0.000000,1302.362347
3639.553348,-7846.182985,-148.041188,1378.971896
3639.553678,-8068.244768,296.082377,842.705048
3639.554008,-9770.718434,666.185348,0.000000
3639.554338,-10584.944971,148.041188,-306.438199
3639.554668,-10214.842000,518.144159,76.609550
3639.554998,-10807.006753,592.164754,995.924147
3639.555328,-11473.192101,296.082377,1762.019645
3639.555658,-10140.821405,-296.082377,1302.362347
3639.555988,-8142.265362,-370.102971,0.000000
3639.556318,-8734.430116,592.164754,-306.438199
3639.556648,-10881.027347,814.226536,-536.266849
3639.556978,-10288.862594,814.226536,-766.095498
3639.557308,-9474.636058,296.082377,-1302.362347
3639.557638,-9548.656652,222.061783,-459.657299
3639.557967,-11325.150913,-518.144159,842.705048
3639.558297,-10658.965565,-296.082377,1838.629195
3639.558627,-8438.347739,-1184.329507,1225.752797
3639.558957,-8438.347739,-592.164754,459.657299
3639.559287,-9992.780217,-518.144159,383.047749
3639.559617,-10140.821405,-740.205942,0.000000
3639.559947,-9696.697840,-740.205942,689.485948
3639.560277,-10362.883188,-444.123565,1225.752797
3639.560607,-11325.150913,-666.185348,1072.533697
3639.560937,-9474.636058,-1406.391290,306.438199
3639.561267,-7772.162391,-1258.350101,383.047749
3639.561597,-9104.533087,-518.144159,306.438199
3639.561927,-11177.109724,74.020594,229.828649
3639.562256,-10584.944971,-222.061783,-1455.581446
3639.562586,-8956.491898,-148.041188,-1915.238745
3639.562916,-9548.656652,-814.226536,-1532.190996
3639.563246,-11177.109724,-1332.370696,536.266849
3639.563576,-9992.780217,-1702.473667,1532.190996
3639.563906,-7698.141797,-1554.432478,1225.752797
3639.564236,-7994.224174,-740.205942,612.876398
3639.564566,-9622.677246,-444.123565,153.219100
3639.564896,-10214.842000,-518.144159,-459.657299
3639.565226,-10140.821405,-666.185348,-306.438199
3639.565556,-10510.924376,-296.082377,76.609550
3639.565886,-10955.047942,-888.247130,1072.533697
3639.566216,-9326.594869,-1480.411884,612.876398
3639.566545,-8142.265362,-962.267725,0.000000
3639.566875,-9178.553681,0.000000,-536.266849
3639.567205,-11177.109724,518.144159,-766.095498
3639.567535,-10214.842000,296.082377,-1072.533697
3639.567865,-8882.471304,74.020594,-1302.362347
3639.568195,-9992.780217,0.000000,0.000000
3639.568525,-11325.150913,-444.123565,1302.362347
3639.568855,-9474.636058,-666.185348,1378.971896
3639.569185,-8142.265362,-222.061783,766.095498
3639.569515,-8586.388927,296.082377,229.828649
3639.569845,-10510.924376,370.102971,76.609550
3639.570175,-10288.862594,370.102971,766.095498
3639.570505,-9992.780217,666.185348,919.314598
3639.570835,-10955.047942,222.061783,1532.190996
3639.571164,-10881.027347,0.000000,1838.629195
3639.571494,-9252.574275,-222.061783,1302.362347
3639.571824,-8068.244768,222.061783,995.924147
3639.572154,-9622.677246,962.267725,919.314598
3639.572484,-10955.047942,1406.391290,383.047749
3639.572814,-10214.842000,1332.370696,-612.876398
3639.573144,-9104.533087,740.205942,-1378.971896
3639.573474,-9992.780217,962.267725,-229.828649
3639.573804,-10955.047942,296.082377,1149.143247
3639.574134,-9252.574275,74.020594,1838.629195
3639.574464,-7846.182985,592.164754,1532.190996
3639.574794,-8882.471304,962.267725,459.657299
3639.575124,-10436.903782,1406.391290,0.000000
3639.575453,-9622.677246,222.061783,0.000000
3639.575783,-9474.636058,1332.370696,689.485948
3639.576113,-10955.047942,1406.391290,1225.752797
3639.576443,-11103.089130,814.226536,1378.971896
3639.576773,-8364.327145,222.061783,689.485948
3639.577103,-8142.265362,962.267725,306.438199
3639.577433,-10140.821405,1702.473667,0.000000
3639.577763,-11769.274478,1702.473667,-612.876398
3639.578093,-9844.739029,1184.329507,-1685.410096
3639.578423,-8364.327145,888.247130,-2068.457845
3639.578753,-9548.656652,962.267725,-766.095498
3639.579083,-10955.047942,518.144159,919.314598
3639.579413,-9622.677246,0.000000,919.314598
3639.579743,-7994.224174,370.102971,689.485948
3639.580072,-8956.491898,666.185348,-76.609550
3639.580402,-10362.883188,592.164754,0.000000
3639.580732,-10362.883188,296.082377,229.828649
3639.581062,-9474.636058,296.082377,1072.533697
3639.581392,-10658.965565,222.061783,1225.752797
3639.581722,-10807.006753,-444.123565,1072.533697
3639.582052,-8956.491898,-666.185348,995.924147
3639.582382,-8142.265362,0.000000,612.876398
3639.582712,-10140.821405,666.185348,153.219100
3639.583042,-10955.047942,592.164754,-1072.533697
3639.583372,-9696.697840,296.082377,-1915.238745
3639.583702,-8882.471304,0.000000,-1685.410096
3639.584032,-10362.883188,74.020594,-612.876398
3639.584361,-11325.150913,-888.247130,842.705048
3639.584691,-9474.636058,-888.247130,919.314598
3639.585021,-8586.388927,-814.226536,459.657299
3639.585351,-9178.553681,-740.205942,0.000000
3639.585681,-10288.862594,-296.082377,76.609550
3639.586011,-10066.800811,-740.205942,0.000000
3639.586341,-9992.780217,-592.164754,459.657299
3639.586671,-10658.965565,-666.185348,1532.190996
3639.587001,-10658.965565,-1258.350101,1532.190996
3639.587331,-8364.327145,-1628.453072,383.047749
3639.587661,-8068.244768,-1184.329507,766.095498
3639.587991,-10288.862594,-444.123565,153.219100
3639.588321,-11103.089130,-370.102971,-459.657299
3639.588650,-9622.677246,-740.205942,-1991.848295
3639.588980,-9178.553681,-962.267725,-1838.629195
3639.589310,-10584.944971,-962.267725,0.000000
3639.589640,-10658.965565,-1554.432478,1762.019645
3639.589970,-9030.512492,-1628.453072,1608.800546
3639.590300,-7772.162391,-1332.370696,383.047749
3639.590630,-9104.533087,-814.226536,0.000000
3639.590960,-9770.718434,-370.102971,-306.438199
3639.591290,-10214.842000,-518.144159,-153.219100
3639.591620,-9770.718434,-370.102971,459.657299
3639.591950,-10436.903782,-666.185348,689.485948
3639.592280,-9622.677246,-1110.308913,766.095498
3639.592610,-8364.327145,-1406.391290,383.047749
3639.592940,-9326.594869,-370.102971,842.705048
3639.593269,-11325.150913,592.164754,766.095498
3639.593599,-11325.150913,592.164754,-689.485948
3639.593929,-9326.594869,0.000000,-1532.190996
3639.594259,-9178.553681,0.000000,-919.314598
3639.594589,-11103.089130,-148.041188,995.924147
3639.594919,-10881.027347,-518.144159,2068.457845
3639.595249,-8660.409521,-518.144159,1915.238745
3639.595579,-7994.224174,222.061783,0.000000
3639.595909,-9770.718434,814.226536,-153.219100
3639.596239,-10658.965565,740.205942,-383.047749
3639.596569,-10140.821405,74.020594,383.047749
3639.596899,-10510.924376,962.267725,919.314598
3639.597229,-10732.986159,370.102971,1685.410096
3639.597558,-9326.594869,-518.144159,1532.190996
3639.597888,-7846.182985,-74.020594,1149.143247
3639.598218,-8882.471304,962.267725,919.314598
3639.598548,-11029.068536,1702.473667,306.438199
3639.598878,-10955.047942,1924.535449,-995.924147
3639.599208,-9474.636058,1184.329507,-1302.362347
3639.599538,-9992.780217,1258.350101,-536.266849
3639.599868,-11029.068536,666.185348,612.876398
3639.600198,-10288.862594,296.082377,1455.581446
3639.600528,-8068.244768,518.144159,842.705048
3639.600858,-8216.285956,1332.370696,536.266849
3639.601188,-9992.780217,1110.308913,229.828649
3639.601518,-10510.924376,1258.350101,0.000000
3639.601847,-10214.842000,962.267725,153.219100
3639.602177,-10362.883188,1258.350101,1149.143247
3639.602507,-10807.006753,296.082377,2451.505594
3639.602837,-9030.512492,-296.082377,1685.410096
3639.603167,-7402.059420,-370.102971,919.314598
3639.603497,-9178.553681,1184.329507,842.705048
3639.603827,-11251.130318,1480.411884,536.266849
3639.604157,-10658.965565,2072.576638,-1225.752797
3639.604487,-9326.594869,1406.391290,-2374.896044
3639.604817,-9770.718434,1184.329507,-1532.190996
3639.605146,-11177.109724,518.144159,0.000000
3639.605476,-10584.944971,74.020594,1991.848295
3639.605806,-8216.285956,148.041188,612.876398
3639.606136,-8290.306550,888.247130,-459.657299
3639.606466,-10066.800811,888.247130,-1149.143247
3639.606796,-10362.883188,592.164754,-919.314598
3639.607126,-9992.780217,370.102971,76.609550
3639.607456,-10955.047942,518.144159,1072.533697
3639.607785,-10955.047942,-370.102971,2068.457845
3639.608115,-9548.656652,-666.185348,1685.410096
3639.608445,-8290.306550,-592.164754,919.314598
3639.608775,-9548.656652,74.020594,842.705048
3639.609105,-11251.130318,740.205942,229.828649
3639.609435,-10214.842000,222.061783,-1455.581446
3639.609765,-9104.533087,74.020594,-1991.848295
3639.610095,-9918.759623,-148.041188,-689.485948
3639.610425,-11473.192101,-518.144159,1072.533697
3639.610754,-10066.800811,-814.226536,1532.190996
3639.611084,-7920.203579,-592.164754,766.095498
3639.611414,-8956.491898,-148.041188,-383.047749
3639.611744,-10288.862594,148.041188,-919.314598
3639.612074,-10066.800811,-148.041188,-766.095498
3639.612404,-9696.697840,-592.164754,-153.219100
3639.612734,-10436.903782,-666.185348,919.314598
3639.613064,-10732.986159,-1184.329507,1838.629195
3639.613393,-8808.450710,-1998.556043,1378.971896
3639.613723,-8216.285956,-1184.329507,842.705048
3639.614053,-10362.883188,-222.061783,383.047749
3639.614383,-11325.150913,-296.082377,0.000000
3639.614713,-9992.780217,-296.082377,-1455.581446
3639.615043,-9178.553681,-444.123565,-1378.971896
3639.615373,-10584.944971,-1110.308913,459.657299
3639.615703,-11473.192101,-1332.370696,1378.971896
3639.616032,-9548.656652,-1628.453072,1378.971896
3639.616362,-7846.182985,-1110.308913,383.047749
3639.616692,-9252.574275,-222.061783,0.000000
3639.617022,-10288.862594,-222.061783,-612.876398
3639.617352,-10288.862594,-296.082377,-766.095498
3639.617682,-9844.739029,-444.123565,-459.657299
3639.618012,-10510.924376,-444.123565,536.266849
3639.618342,-11177.109724,-740.205942,842.705048
3639.618672,-8660.409521,-1480.411884,459.657299
3639.619001,-7920.203579,-888.247130,229.828649
3639.619331,-10066.800811,74.020594,459.657299
3639.619661,-11991.336260,740.205942,229.828649
3639.619991,-9918.759623,0.000000,-1225.752797
3639.620321,-9104.533087,-222.061783,-1762.019645
3639.620651,-9918.759623,-518.144159,0.000000
3639.620981,-10955.047942,-592.164754,1532.190996
3639.621311,-9252.574275,-666.185348,1072.533697
3639.621640,-8068.244768,74.020594,842.705048
3639.621970,-9104.533087,592.164754,-842.705048
3639.622300,-10510.924376,740.205942,-842.705048
3639.622630,-10362.883188,222.061783,-766.095498
3639.622960,-10066.800811,592.164754,842.705048
3639.623290,-10510.924376,296.082377,1455.581446
3639.623620,-10214.842000,-296.082377,1225.752797
3639.623950,-8068.244768,-592.164754,459.657299
3639.624280,-7920.203579,74.020594,766.095498
3639.624609,-10362.883188,1258.350101,612.876398
3639.624939,-10881.027347,1554.432478,153.219100
3639.625269,-9622.677246,1258.350101,-612.876398
3639.625599,-8808.450710,1184.329507,-919.314598
3639.625929,-11103.089130,962.267725,766.095498
3639.626259,-11399.171507,666.185348,1378.971896
3639.626589,-9104.533087,444.123565,766.095498
3639.626919,-7698.141797,1036.288319,383.047749
3639.627248,-9178.553681,1332.370696,-536.266849
3639.627578,-10658.965565,1850.514855,-689.485948
3639.627908,-10214.842000,1628.453072,-536.266849
3639.628238,-10066.800811,1628.453072,383.047749
3639.628568,-11029.068536,1258.350101,1302.362347
3639.628898,-10066.800811,444.123565,1991.848295
3639.629228,-8290.306550,444.123565,1915.238745
3639.629558,-8808.450710,1480.411884,1762.019645
3639.629887,-10658.965565,2072.576638,689.485948
3639.630217,-11695.253884,1998.556043,-536.266849
3639.630547,-10140.821405,1110.308913,-1608.800546
3639.630877,-9400.615463,1036.288319,-306.438199
3639.631207,-10658.965565,444.123565,1149.143247
3639.631537,-10288.862594,0.000000,1838.629195
3639.631867,-8364.327145,0.000000,1302.362347
3639.632197,-7772.162391,444.123565,229.828649
3639.632527,-10066.800811,1258.350101,-536.266849
3639.632856,-11399.171507,592.164754,-612.876398
3639.633186,-10362.883188,148.041188,-229.828649
3639.633516,-9844.739029,74.020594,383.047749
3639.633846,-10732.986159,74.020594,1072.533697
3639.634176,-9474.636058,-962.267725,1225.752797
3639.634506,-7476.080014,-1258.350101,229.828649
3639.634836,-8364.327145,-74.020594,153.219100
3639.635166,-11399.171507,1036.288319,383.047749
3639.635495,-11473.192101,518.144159,-842.705048
3639.635825,-9696.697840,-370.102971,-1608.800546
3639.636155,-9400.615463,-1036.288319,-1532.190996
3639.636485,-10658.965565,-1332.370696,0.000000
3639.636815,-10066.800811,-1776.494261,1225.752797
3639.637145,-7994.224174,-1702.473667,612.876398
3639.637475,-7254.018232,-1110.308913,-383.047749
3639.637805,-9400.615463,-518.144159,-995.924147
3639.638134,-10584.944971,-740.205942,-1225.752797
3639.638464,-10732.986159,-888.247130,-536.266849
3639.638794,-10881.027347,-740.205942,459.657299
3639.639124,-10807.006753,-1850.514855,1225.752797
3639.639454,-9400.615463,-2368.659014,1685.410096
3639.639784,-7698.141797,-2146.597232,1072.533697
3639.640114,-8660.409521,-1036.288319,842.705048
3639.640444,-11177.109724,-74.020594,383.047749
3639.640774,-10955.047942,-444.123565,-995.924147
3639.641103,-10140.821405,-518.144159,-1072.533697
3639.641433,-9992.780217,-444.123565,-689.485948
3639.641763,-11621.233289,-888.247130,1225.752797
3639.642093,-10214.842000,-1702.473667,1225.752797
3639.642423,-8216.285956,-1332.370696,383.047749
3639.642753,-8142.265362,-444.123565,-306.438199
3639.643083,-10066.800811,-296.082377,-919.314598
3639.643413,-10732.986159,-74.020594,-612.876398
3639.643742,-9992.780217,0.000000,153.219100
3639.644072,-10436.903782,-148.041188,766.095498
3639.644402,-10881.027347,-518.144159,1608.800546
3639.644732,-9548.656652,-1110.308913,1302.362347
3639.645062,-7772.162391,-740.205942,536.266849
3639.645392,-9252.574275,0.000000,536.266849
3639.645722,-11251.130318,814.226536,76.609550
3639.646052,-10807.006753,370.102971,-459.657299
3639.646382,-9030.512492,370.102971,-995.924147
3639.646711,-9400.615463,148.041188,-536.266849
3639.647041,-10807.006753,74.020594,689.485948
3639.647371,-9992.780217,222.061783,1378.971896
3639.647701,-8142.265362,148.041188,536.266849
3639.648031,-8586.388927,1258.350101,-459.657299
3639.648361,-10658.965565,888.247130,-842.705048
3639.648691,-10584.944971,888.247130,-766.095498
3639.649021,-9400.615463,518.144159,-153.219100
3639.649350,-9474.636058,962.267725,612.876398
3639.649680,-10214.842000,518.144159,842.705048
3639.650010,-9030.512492,74.020594,1378.971896
3639.650340,-7772.162391,518.144159,1225.752797
3639.650670,-9474.636058,1406.391290,995.924147
3639.651000,-11251.130318,1480.411884,153.219100
3639.651330,-10436.903782,1406.391290,-919.314598
3639.651660,-9104.533087,1184.329507,-1149.143247
3639.651989,-9844.739029,1184.329507,76.609550
3639.652319,-10955.047942,592.164754,1532.190996
3639.652649,-9696.697840,296.082377,2145.067394
3639.652979,-8142.265362,1184.329507,1072.533697
3639.653309,-9326.594869,1850.514855,153.219100
3639.653639,-10955.047942,1776.494261,-459.657299
3639.653969,-10955.047942,1332.370696,-842.705048
3639.654299,-9770.718434,1036.288319,153.219100
3639.654629,-10214.842000,888.247130,1149.143247
3639.654958,-10732.986159,296.082377,1991.848295
3639.655288,-8734.430116,-148.041188,1378.971896
3639.655618,-7920.203579,0.000000,919.314598
3639.655948,-10066.800811,1258.350101,689.485948
3639.656278,-11917.315666,1332.370696,0.000000
3639.656608,-10807.006753,444.123565,-536.266849
3639.656938,-8660.409521,148.041188,-459.657299
3639.657268,-9992.780217,148.041188,766.095498
3639.657597,-11399.171507,-74.020594,1608.800546
3639.657927,-9622.677246,-444.123565,995.924147
3639.658257,-7624.121203,-148.041188,-153.219100
3639.658587,-8586.388927,222.061783,-995.924147
3639.658917,-10510.924376,74.020594,-612.876398
3639.659247,-10288.862594,666.185348,0.000000
3639.659577,-9548.656652,74.020594,229.828649
3639.659907,-10362.883188,0.000000,459.657299
3639.660236,-10881.027347,-666.185348,229.828649
3639.660566,-9326.594869,-1036.288319,459.657299
3639.660896,-8142.265362,-740.205942,0.000000
3639.661226,-10140.821405,740.205942,306.438199
3639.661556,-11473.192101,370.102971,0.000000
3639.661886,-9918.759623,0.000000,-1378.971896
3639.662216,-8512.368333,0.000000,-1608.800546
3639.662546,-10214.842000,-296.082377,0.000000
3639.662876,-11325.150913,-888.247130,689.485948
3639.663205,-9548.656652,-1036.288319,612.876398
3639.663535,-7624.121203,-296.082377,0.000000
3639.663865,-9104.533087,-74.020594,-612.876398
3639.664195,-10807.006753,0.000000,-306.438199
3639.664525,-10362.883188,-370.102971,-536.266849
3639.664855,-9918.759623,-74.020594,0.000000
3639.665185,-10658.965565,0.000000,919.314598
3639.665515,-10658.965565,-1110.308913,1072.533697
3639.665844,-8882.471304,-1110.308913,1072.533697
3639.666174,-8142.265362,-666.185348,842.705048
3639.666504,-10066.800811,148.041188,383.047749
3639.666834,-10881.027347,148.041188,-383.047749
3639.667164,-9770.718434,-518.144159,-1225.752797
3639.667494,-9030.512492,-370.102971,-995.924147
3639.667824,-10214.842000,-370.102971,306.438199
3639.668154,-11029.068536,-1184.329507,1991.848295
3639.668484,-9326.594869,-962.267725,1532.190996
3639.668813,-7846.182985,-666.185348,536.266849
3639.669143,-9474.636058,74.020594,-1072.533697
3639.669473,-10881.027347,-148.041188,0.000000
3639.669803,-10288.862594,-444.123565,-76.609550
3639.670133,-9770.718434,-444.123565,0.000000
3639.670463,-9992.780217,-518.144159,383.047749
3639.670793,-9400.615463,-1184.329507,459.657299
3639.671123,-7550.100608,-1332.370696,459.657299
3639.671452,-7772.162391,-444.123565,459.657299
3639.671782,-9992.780217,296.082377,306.438199
3639.672112,-11103.089130,518.144159,-842.705048
3639.672442,-9844.739029,-148.041188,-1532.190996
3639.672772,-9104.533087,0.000000,-689.485948
3639.673102,-10732.986159,0.000000,766.095498
3639.673432,-10658.965565,-148.041188,612.876398
3639.673762,-8882.471304,-444.123565,689.485948
3639.674091,-7920.203579,296.082377,-842.705048
3639.674421,-9548.656652,740.205942,-1072.533697
3639.674751,-10881.027347,814.226536,-1149.143247
3639.675081,-10436.903782,592.164754,-153.219100
3639.675411,-10066.800811,666.185348,306.438199
3639.675741,-10732.986159,592.164754,689.485948
3639.676071,-9918.759623,-222.061783,689.485948
3639.676401,-8512.368333,-148.041188,536.266849
3639.676731,-8660.409521,444.123565,612.876398
3639.677060,-10955.047942,1258.350101,919.314598
3639.677390,-11103.089130,1184.329507,383.047749
3639.677720,-9548.656652,1184.329507,459.657299
3639.678050,-9918.759623,888.247130,536.266849
3639.678380,-11399.171507,814.226536,1762.019645
3639.678710,-11029.068536,296.082377,2145.067394
3639.679040,-8734.430116,592.164754,1762.019645
3639.679370,-8142.265362,1036.288319,689.485948
3639.679699,-10140.821405,1332.370696,-306.438199
3639.680029,-10807.006753,1480.411884,-459.657299
3639.680359,-9844.739029,1036.288319,-153.219100
3639.680689,-9770.718434,1110.308913,76.609550
3639.681019,-10658.965565,518.144159,612.876398
3639.681349,-9770.718434,0.000000,1225.752797
3639.681679,-8290.306550,0.000000,1378.971896
3639.682009,-8956.491898,1036.288319,842.705048
3639.682338,-10732.986159,1184.329507,766.095498
3639.682668,-11029.068536,1036.288319,-153.219100
3639.682998,-9252.574275,740.205942,-1225.752797
3639.683328,-9918.759623,592.164754,-1302.362347
3639.683658,-11251.130318,518.144159,766.095498
3639.683988,-10510.924376,-370.102971,1302.362347
3639.684318,-7846.182985,-370.102971,459.657299
3639.684648,-7846.182985,518.144159,-229.828649
3639.684978,-9622.677246,666.185348,-1225.752797
3639.685307,-10436.903782,518.144159,-1532.190996
3639.685637,-10066.800811,592.164754,-995.924147
3639.685967,-10288.862594,592.164754,-76.609550
3639.686297,-11103.089130,222.061783,0.000000
3639.686627,-9400.615463,-666.185348,229.828649
3639.686957,-7698.141797,-518.144159,0.000000
3639.687287,-9030.512492,0.000000,153.219100
3639.687617,-10732.986159,370.102971,306.438199
3639.687946,-10658.965565,222.061783,-306.438199
3639.688276,-9030.512492,0.000000,-995.924147
3639.688606,-9696.697840,-74.020594,0.000000
3639.688936,-11103.089130,-518.144159,1378.971896
3639.689266,-9918.759623,-962.267725,919.314598
3639.689596,-7920.203579,-814.226536,383.047749
3639.689926,-8734.430116,0.000000,-76.609550
3639.690256,-10881.027347,296.082377,-306.438199
3639.690586,-10807.006753,-296.082377,-229.828649
3639.690915,-10436.903782,-592.164754,-536.266849
3639.691245,-10584.944971,-444.123565,76.609550
3639.691575,-10807.006753,-1110.308913,766.095498
3639.691905,-8882.471304,-1628.453072,1149.143247
3639.692235,-7846.182985,-1258.350101,919.314598
3639.692565,-9252.574275,-370.102971,1225.752797
3639.692895,-11547.212695,0.000000,536.266849
3639.693225,-10510.924376,-444.123565,-536.266849
3639.693554,-9178.553681,-962.267725,-1072.533697
3639.693884,-10066.800811,-1184.329507,0.000000
3639.694214,-11029.068536,-1258.350101,1608.800546
3639.694544,-9622.677246,-1850.514855,2145.067394
3639.694874,-7550.100608,-1258.350101,1149.143247
3639.695204,-8512.368333,-444.123565,-153.219100
3639.695534,-11029.068536,0.000000,-306.438199
3639.695864,-11029.068536,-370.102971,-689.485948
3639.696193,-9770.718434,-296.082377,0.000000
3639.696523,-10214.842000,-444.123565,459.657299
3639.696853,-10510.924376,-1110.308913,536.266849
3639.697183,-8882.471304,-1406.391290,459.657299
3639.697513,-7476.080014,-1110.308913,0.000000
3639.697843,-8956.491898,148.041188,383.047749
3639.698173,-10881.027347,296.082377,-229.828649
3639.698503,-10214.842000,148.041188,-919.314598
3639.698833,-9178.553681,-74.020594,-1072.533697
3639.699162,-9918.759623,148.041188,459.657299
3639.699492,-10881.027347,-148.041188,1302.362347
3639.699822,-9622.677246,-518.144159,1149.143247
3639.700152,-7920.203579,0.000000,383.047749
3639.700482,-8586.388927,444.123565,0.000000
3639.700812,-10732.986159,1184.329507,-459.657299
3639.701142,-10658.965565,962.267725,-766.095498
3639.701472,-9918.759623,888.247130,0.000000
3639.701801,-10140.821405,148.041188,459.657299
3639.702131,-10584.944971,0.000000,995.924147
3639.702461,-8882.471304,-148.041188,1225.752797
3639.702791,-7994.224174,444.123565,1608.800546
3639.703121,-9548.656652,1184.329507,1378.971896
3639.703451,-11177.109724,1628.453072,919.314598
3639.703781,-10288.862594,1406.391290,-689.485948
3639.704111,-9030.512492,1184.329507,-766.095498
3639.704440,-10214.842000,1036.288319,536.266849
3639.704770,-11251.130318,740.205942,2068.457845
3639.705100,-9548.656652,592.164754,2221.676944
3639.705430,-7920.203579,666.185348,766.095498
3639.705760,-8956.491898,1110.308913,153.219100
3639.706090,-10214.842000,740.205942,-76.609550
3639.706420,-10362.883188,962.267725,-459.657299
3639.706749,-9548.656652,1036.288319,-153.219100
3639.707079,-10510.924376,888.247130,995.924147
3639.707409,-10436.903782,296.082377,2451.505594
3639.707739,-8512.368333,0.000000,1225.752797
3639.708069,-8142.265362,592.164754,229.828649
3639.708399,-10214.842000,1332.370696,0.000000
3639.708728,-11251.130318,1480.411884,-919.314598
3639.709058,-9918.759623,666.185348,-1915.238745
3639.709388,-9474.636058,518.144159,-1302.362347
3639.709718,-10955.047942,592.164754,536.266849
3639.710048,-11251.130318,-74.020594,1225.752797
3639.710378,-9252.574275,-444.123565,1072.533697
3639.710708,-7476.080014,74.020594,0.000000
3639.711037,-9400.615463,740.205942,-536.266849
3639.711367,-10955.047942,592.164754,-919.314598
3639.711697,-10584.944971,74.020594,-229.828649
3639.712027,-10362.883188,666.185348,-536.266849
3639.712357,-10955.047942,0.000000,153.219100
3639.712687,-10140.821405,-1258.350101,383.047749
3639.713016,-8216.285956,-1258.350101,612.876398
3639.713346,-7994.224174,-666.185348,229.828649
3639.713676,-10066.800811,0.000000,459.657299
3639.714006,-11029.068536,0.000000,-153.219100
3639.714336,-9844.739029,-444.123565,-1302.362347
3639.714666,-9474.636058,-814.226536,-995.924147
3639.714995,-10807.006753,-444.123565,612.876398
3639.715325,-10807.006753,-1258.350101,1378.971896
3639.715655,-8586.388927,-1554.432478,1225.752797
3639.715985,-7550.100608,-1036.288319,536.266849
3639.716315,-9622.677246,-148.041188,459.657299
3639.716645,-11251.130318,-148.041188,-459.657299
3639.716974,-10807.006753,-370.102971,-459.657299
3639.717304,-10584.944971,-962.267725,76.609550
3639.717634,-10955.047942,-962.267725,612.876398
3639.717964,-9992.780217,-1850.514855,995.924147
3639.718294,-7624.121203,-1998.556043,995.924147
3639.718624,-8216.285956,-814.226536,766.095498
3639.718953,-10288.862594,0.000000,459.657299
3639.719283,-11177.109724,0.000000,-842.705048
3639.719613,-9844.739029,-666.185348,-1838.629195
3639.719943,-9326.594869,-518.144159,-689.485948
3639.720273,-11029.068536,-592.164754,1225.752797
3639.720603,-10362.883188,-1554.432478,1915.238745
3639.720933,-8068.244768,-1776.494261,1532.190996
3639.721262,-7920.203579,-518.144159,536.266849
3639.721592,-9622.677246,0.000000,153.219100
3639.721922,-10955.047942,0.000000,-1149.143247
3639.722252,-10510.924376,296.082377,-766.095498
3639.722582,-10362.883188,222.061783,0.000000
3639.722912,-10510.924376,-222.061783,536.266849
3639.723241,-9326.594869,-814.226536,612.876398
3639.723571,-7402.059420,-518.144159,612.876398
3639.723901,-8882.471304,592.164754,153.219100
3639.724231,-11251.130318,1036.288319,-76.609550
3639.724561,-11843.295072,1110.308913,-1225.752797
3639.724891,-9918.759623,222.061783,-1685.410096
3639.725220,-9474.636058,0.000000,-536.266849
3639.725550,-11029.068536,-296.082377,1762.019645
3639.725880,-9622.677246,-518.144159,3064.381992
3639.726210,-7994.224174,-74.020594,1302.362347
3639.726540,-8216.285956,518.144159,612.876398
3639.726870,-10584.944971,1110.308913,-229.828649
3639.727199,-11029.068536,1258.350101,153.219100
3639.727529,-10066.800811,1036.288319,0.000000
3639.727859,-9992.780217,888.247130,689.485948
3639.728189,-10584.944971,666.185348,1225.752797
3639.728519,-9474.636058,0.000000,1225.752797
3639.728849,-8364.327145,370.102971,766.095498
3639.729178,-9030.512492,814.226536,995.924147
3639.729508,-10807.006753,1702.473667,536.266849
3639.729838,-10214.842000,962.267725,0.000000
3639.730168,-8290.306550,888.247130,-1225.752797
3639.730498,-9548.656652,592.164754,229.828649
3639.730828,-11251.130318,518.144159,1762.019645
3639.731158,-9622.677246,0.000000,2221.676944
3639.731487,-7402.059420,222.061783,1455.581446
3639.731817,-7994.224174,1184.329507,306.438199
3639.732147,-10214.842000,1554.432478,-153.219100
3639.732477,-10658.965565,962.267725,-459.657299
3639.732807,-9992.780217,888.247130,-536.266849
3639.733137,-10436.903782,1332.370696,536.266849
3639.733466,-10881.027347,148.041188,1302.362347
3639.733796,-9326.594869,-370.102971,1225.752797
3639.734126,-7846.182985,74.020594,919.314598
3639.734456,-9030.512492,1184.329507,459.657299
3639.734786,-10955.047942,1184.329507,-383.047749
3639.735116,-10584.944971,1110.308913,-1302.362347
3639.735445,-9104.533087,666.185348,-1225.752797
3639.735775,-10510.924376,888.247130,383.047749
3639.736105,-11547.212695,74.020594,1149.143247
3639.736435,-9992.780217,-296.082377,1378.971896
3639.736765,-8068.244768,-222.061783,383.047749
3639.737095,-8956.491898,370.102971,0.000000
3639.737424,-10658.965565,370.102971,-766.095498
3639.737754,-10807.006753,296.082377,-536.266849
3639.738084,-9918.759623,0.000000,76.609550
3639.738414,-10362.883188,0.000000,842.705048
3639.738744,-10510.924376,-518.144159,1685.410096
3639.739074,-9178.553681,-1036.288319,995.924147
3639.739403,-7920.203579,-740.205942,459.657299
3639.739733,-9474.636058,296.082377,153.219100
3639.740063,-11325.150913,1036.288319,-919.314598
3639.740393,-10807.006753,0.000000,-1838.629195
3639.740723,-9178.553681,-444.123565,-1991.848295
3639.741053,-9844.739029,-592.164754,0.000000
3639.741383,-10362.883188,-1406.391290,1762.019645
3639.741712,-9104.533087,-1480.411884,1685.410096
3639.742042,-7476.080014,-740.205942,995.924147
3639.742372,-8660.409521,0.000000,-229.828649
3639.742702,-10807.006753,0.000000,-842.705048
3639.743032,-10658.965565,-592.164754,-766.095498
3639.743362,-10214.842000,-518.144159,229.828649
3639.743691,-10436.903782,-740.205942,842.705048
3639.744021,-10510.924376,-1110.308913,1225.752797
3639.744351,-8290.306550,-1554.432478,766.095498
3639.744681,-7994.224174,-888.247130,306.438199
3639.745011,-9918.759623,222.061783,76.609550
3639.745341,-11325.150913,296.082377,-536.266849
3639.745670,-10066.800811,-370.102971,-1149.143247
3639.746000,-8660.409521,-666.185348,-1378.971896
3639.746330,-10066.800811,-518.144159,536.266849
3639.746660,-10732.986159,-1184.329507,1838.629195
3639.746990,-9252.574275,-1258.350101,1838.629195
3639.747320,-7846.182985,-592.164754,919.314598
3639.747649,-9474.636058,518.144159,383.047749
3639.747979,-11399.171507,222.061783,0.000000
3639.748309,-11103.089130,0.000000,-153.219100
3639.748639,-10362.883188,-74.020594,229.828649
3639.748969,-10955.047942,-222.061783,1302.362347
3639.749299,-10436.903782,-592.164754,1378.971896
3639.749628,-8216.285956,-1184.329507,1149.143247
3639.749958,-7994.224174,0.000000,459.657299
3639.750288,-10288.862594,962.267725,76.609550
3639.750618,-11103.089130,888.247130,-1225.752797
3639.750948,-9770.718434,592.164754,-1762.019645
3639.751278,-9030.512492,222.061783,-1072.533697
3639.751608,-10658.965565,222.061783,1302.362347
3639.751937,-10807.006753,-444.123565,2298.286494
3639.752267,-8290.306550,-666.185348,1838.629195
3639.752597,-7476.080014,74.020594,383.047749
3639.752927,-9252.574275,1184.329507,0.000000
3639.753257,-10732.986159,814.226536,-229.828649
3639.753587,-10214.842000,1036.288319,-76.609550
3639.753916,-9770.718434,814.226536,76.609550
3639.754246,-10584.944971,1406.391290,1149.143247
3639.754576,-10140.821405,0.000000,536.266849
3639.754906,-8364.327145,0.000000,306.438199
3639.755236,-8068.244768,370.102971,0.000000
3639.755566,-10658.965565,1850.514855,383.047749
3639.755895,-11177.109724,1480.411884,-383.047749
3639.756225,-9548.656652,888.247130,-766.095498
3639.756555,-9178.553681,1036.288319,-612.876398
3639.756885,-10584.944971,518.144159,1225.752797
3639.757215,-10584.944971,222.061783,2451.505594
3639.757545,-8882.471304,222.061783,2145.067394
3639.757874,-8290.306550,1110.308913,995.924147
3639.758204,-10066.800811,1702.473667,-383.047749
3639.758534,-11103.089130,1480.411884,-766.095498
3639.758864,-10288.862594,1110.308913,-1149.143247
3639.759194,-10214.842000,1184.329507,-76.609550
3639.759524,-11029.068536,740.205942,995.924147
3639.759853,-9844.739029,74.020594,1608.800546
3639.760183,-8068.244768,0.000000,612.876398
3639.760513,-8586.388927,814.226536,459.657299
3639.760843,-10955.047942,1480.411884,306.438199
3639.761173,-11621.233289,1110.308913,-536.266849
3639.761503,-9696.697840,444.123565,-1608.800546
3639.761833,-9400.615463,0.000000,-459.657299
3639.762162,-10436.903782,-296.082377,1685.410096
3639.762492,-10214.842000,-814.226536,2374.896044
3639.762822,-8068.244768,-888.247130,1608.800546
3639.763152,-7846.182985,-74.020594,0.000000
3639.763482,-9474.636058,148.041188,-536.266849
3639.763812,-10066.800811,0.000000,-842.705048
3639.764141,-10066.800811,-74.020594,0.000000
3639.764471,-10288.862594,0.000000,306.438199
3639.764801,-10955.047942,-370.102971,612.876398
3639.765131,-9696.697840,-1110.308913,306.438199
3639.765461,-7402.059420,-888.247130,153.219100
3639.765791,-8364.327145,-74.020594,-306.438199
3639.766120,-10807.006753,518.144159,76.609550
3639.766450,-11251.130318,370.102971,-842.705048
3639.766780,-9474.636058,-592.164754,-2145.067394
3639.767110,-9844.739029,-666.185348,-919.314598
3639.767440,-11177.109724,-814.226536,689.485948
3639.767770,-10362.883188,-1332.370696,1302.362347
3639.768099,-7920.203579,-1184.329507,1072.533697
3639.768429,-8068.244768,-666.185348,459.657299
3639.768759,-10214.842000,0.000000,-459.657299
3639.769089,-11103.089130,0.000000,-536.266849
3639.769419,-10510.924376,-592.164754,-306.438199
3639.769749,-10510.924376,-444.123565,1072.533697
3639.770078,-11177.109724,-962.267725,1225.752797
3639.770408,-9548.656652,-1702.473667,1302.362347
3639.770738,-7846.182985,-1332.370696,459.657299
3639.771068,-8734.430116,-444.123565,153.219100
3639.771398,-10807.006753,0.000000,0.000000
3639.771728,-10807.006753,-74.020594,-995.924147
3639.772058,-9844.739029,-370.102971,-1455.581446
3639.772387,-9770.718434,-814.226536,-229.828649
3639.772717,-10955.047942,-1480.411884,1532.190996
3639.773047,-9474.636058,-1702.473667,2068.457845
3639.773377,-7550.100608,-1480.411884,1532.190996
3639.773707,-8364.327145,-518.144159,689.485948
3639.774037,-10807.006753,0.000000,0.000000
3639.774366,-10584.944971,0.000000,-842.705048
3639.774696,-9844.739029,0.000000,-76.609550
3639.775026,-10436.903782,0.000000,612.876398
3639.775356,-10955.047942,-444.123565,1302.362347
3639.775686,-8364.327145,-1258.350101,306.438199
3639.776016,-6883.915261,-592.164754,0.000000
3639.776345,-9178.553681,666.185348,0.000000
3639.776675,-11325.150913,888.247130,-842.705048
3639.777005,-10066.800811,296.082377,-1838.629195
3639.777335,-8808.450710,0.000000,-1915.238745
3639.777665,-10066.800811,222.061783,0.000000
3639.777995,-11399.171507,-222.061783,1685.410096
3639.778324,-9178.553681,-666.185348,1762.019645
3639.778654,-7476.080014,74.020594,919.314598
3639.778984,-8734.430116,1036.288319,76.609550
3639.779314,-11103.089130,1332.370696,-153.219100
3639.779644,-11399.171507,740.205942,306.438199
3639.779974,-9918.759623,962.267725,306.438199
3639.780304,-10658.965565,1036.288319,995.924147
3639.780633,-10955.047942,222.061783,1225.752797
3639.780963,-8512.368333,370.102971,919.314598
3639.781293,-7624.121203,592.164754,536.266849
3639.781623,-9622.677246,1776.494261,536.266849
3639.781953,-11843.295072,1850.514855,0.000000
3639.782283,-11029.068536,1184.329507,-995.924147
3639.782612,-8882.471304,370.102971,-1072.533697
3639.782942,-9992.780217,592.164754,919.314598
3639.783272,-10584.944971,-148.041188,2145.067394
3639.783602,-9030.512492,-74.020594,2528.115143
3639.783932,-7328.038826,0.000000,1302.362347
3639.784262,-8660.409521,962.267725,919.314598
3639.784591,-10807.006753,1406.391290,612.876398
3639.784921,-10658.965565,1406.391290,153.219100
3639.785251,-9844.739029,888.247130,306.438199
3639.785581,-10658.965565,666.185348,995.924147
3639.785911,-10584.944971,0.000000,919.314598
3639.786241,-8734.430116,-444.123565,459.657299
3639.786570,-7994.224174,0.000000,0.000000
3639.786900,-9992.780217,1480.411884,306.438199
3639.787230,-11621.233289,1036.288319,-459.657299
3639.787560,-9918.759623,518.144159,-1378.971896
3639.787890,-8438.347739,222.061783,-1608.800546
3639.788220,-10066.800811,592.164754,76.609550
3639.788549,-11251.130318,-296.082377,1915.238745
3639.788879,-9770.718434,-222.061783,1685.410096
3639.789209,-7772.162391,-148.041188,383.047749
3639.789539,-9104.533087,1036.288319,-153.219100
3639.789869,-10881.027347,518.144159,-612.876398
3639.790199,-10436.903782,0.000000,-229.828649
3639.790529,-9992.780217,-148.041188,153.219100
3639.790858,-10732.986159,0.000000,1302.362347
3639.791188,-10955.047942,-370.102971,1149.143247
3639.791518,-9178.553681,-666.185348,536.266849
3639.791848,-8216.285956,-148.041188,536.266849
3639.792178,-10214.842000,666.185348,229.828649
3639.792508,-10955.047942,592.164754,-995.924147
3639.792837,-9844.739029,-222.061783,-2298.286494
3639.793167,-8734.430116,-370.102971,-1991.848295
3639.793497,-10140.821405,-592.164754,153.219100
3639.793827,-11029.068536,-1110.308913,1225.752797
3639.794157,-9030.512492,-1258.350101,1225.752797
3639.794487,-7698.141797,-962.267725,766.095498
3639.794816,-9400.615463,0.000000,842.705048
3639.795146,-11029.068536,-222.061783,459.657299
3639.795476,-11103.089130,-444.123565,383.047749
3639.795806,-9770.718434,-444.123565,612.876398
3639.796136,-10584.944971,-666.185348,1072.533697
3639.796466,-10140.821405,-1036.288319,919.314598
3639.796795,-8438.347739,-1110.308913,229.828649
3639.797125,-8068.244768,-666.185348,-459.657299
3639.797455,-10362.883188,518.144159,-229.828649
3639.797785,-11251.130318,518.144159,-1072.533697
3639.798115,-9770.718434,0.000000,-1608.800546
3639.798445,-8882.471304,0.000000,-1915.238745
3639.798774,-10510.924376,-592.164754,0.000000
3639.799104,-11103.089130,-888.247130,1762.019645
3639.799434,-8734.430116,-962.267725,1302.362347
3639.799764,-7624.121203,-740.205942,153.219100
3639.800094,-8882.471304,0.000000,76.609550
3639.800424,-10584.944971,74.020594,0.000000
3639.800754,-10510.924376,148.041188,0.000000
3639.801083,-10214.842000,74.020594,0.000000
3639.801413,-10732.986159,0.000000,459.657299
3639.801743,-10288.862594,-518.144159,383.047749
3639.802073,-8216.285956,-962.267725,0.000000
3639.802403,-8586.388927,-592.164754,229.828649
3639.802733,-10362.883188,296.082377,0.000000
3639.803062,-10658.965565,666.185348,-919.314598
3639.803392,-9030.512492,74.020594,-1455.581446
3639.803722,-9030.512492,370.102971,0.000000
3639.804052,-10955.047942,-370.102971,612.876398
3639.804382,-10955.047942,-370.102971,2145.067394
3639.804712,-8364.327145,-222.061783,1302.362347
3639.805041,-7846.182985,-74.020594,229.828649
3639.805371,-9622.677246,740.205942,766.095498
3639.805701,-10807.006753,592.164754,1149.143247
3639.806031,-10288.862594,296.082377,842.705048
3639.806361,-10214.842000,814.226536,689.485948
3639.806690,-10807.006753,148.041188,1455.581446
3639.807020,-9844.739029,-370.102971,1378.971896
3639.807350,-8142.265362,0.000000,1072.533697
3639.807680,-8734.430116,888.247130,1149.143247
3639.808010,-10658.965565,1406.391290,842.705048
3639.808340,-10955.047942,1406.391290,76.609550
3639.808669,-9548.656652,814.226536,-995.924147
3639.808999,-9770.718434,444.123565,-459.657299
3639.809329,-11473.192101,148.041188,1532.190996
3639.809659,-10214.842000,-74.020594,2374.896044
3639.809989,-8142.265362,-148.041188,1608.800546
3639.810318,-7550.100608,740.205942,842.705048
3639.810648,-10066.800811,1184.329507,459.657299
3639.810978,-10955.047942,814.226536,229.828649
3639.811308,-10140.821405,814.226536,153.219100
3639.811638,-10510.924376,1036.288319,459.657299
3639.811968,-10658.965565,370.102971,919.314598
3639.812297,-9178.553681,-296.082377,1072.533697
3639.812627,-7624.121203,0.000000,383.047749
3639.812957,-8734.430116,888.247130,536.266849
3639.813287,-11029.068536,1406.391290,-153.219100
3639.813617,-10807.006753,1184.329507,-1378.971896
3639.813946,-8956.491898,888.247130,-2298.286494
3639.814276,-9696.697840,518.144159,-1072.533697
3639.814606,-11547.212695,74.020594,536.266849
3639.814936,-10362.883188,-592.164754,1302.362347
3639.815266,-7772.162391,-666.185348,536.266849
3639.815596,-8216.285956,518.144159,0.000000
3639.815925,-9918.759623,296.082377,-153.219100
3639.816255,-10362.883188,222.061783,-306.438199
3639.816585,-9918.759623,0.000000,0.000000
3639.816915,-10362.883188,296.082377,383.047749
3639.817245,-10881.027347,-74.020594,459.657299
3639.817574,-9622.677246,-1184.329507,536.266849
3639.817904,-7920.203579,-888.247130,229.828649
3639.818234,-9252.574275,296.082377,766.095498
3639.818564,-11029.068536,740.205942,0.000000
3639.818894,-10807.006753,296.082377,-1149.143247
3639.819224,-9178.553681,-222.061783,-1455.581446
3639.819553,-9770.718434,-222.061783,-459.657299
3639.819883,-11325.150913,-592.164754,842.705048
3639.820213,-9992.780217,-1480.411884,1455.581446
3639.820543,-7772.162391,-1184.329507,612.876398
3639.820873,-8660.409521,-296.082377,0.000000
3639.821202,-10436.903782,0.000000,-459.657299
3639.821532,-10881.027347,-370.102971,-306.438199
3639.821862,-10362.883188,-814.226536,-76.609550
3639.822192,-10658.965565,-814.226536,995.924147
3639.822522,-10658.965565,-1554.432478,1608.800546
3639.822852,-9030.512492,-1628.453072,1762.019645
3639.823181,-7624.121203,-1480.411884,1072.533697
3639.823511,-8808.450710,-370.102971,689.485948
3639.823841,-10807.006753,0.000000,153.219100
3639.824171,-10584.944971,0.000000,-1149.143247
3639.824501,-9770.718434,-222.061783,-1915.238745
3639.824830,-10214.842000,-592.164754,-766.095498
3639.825160,-11177.109724,-1036.288319,1072.533697
3639.825490,-9252.574275,-1480.411884,1072.533697
3639.825820,-7550.100608,-962.267725,76.609550
3639.826150,-8512.368333,-444.123565,-766.095498
3639.826480,-10140.821405,-296.082377,-229.828649
3639.826809,-10362.883188,0.000000,-306.438199
3639.827139,-10288.862594,0.000000,459.657299
3639.827469,-11103.089130,0.000000,1149.143247
3639.827799,-10658.965565,-1258.350101,1072.533697
3639.828129,-8882.471304,-888.247130,995.924147
3639.828458,-8216.285956,-370.102971,766.095498
3639.828788,-10436.903782,888.247130,1149.143247
3639.829118,-11769.274478,814.226536,306.438199
3639.829448,-10510.924376,740.205942,-1915.238745
3639.829778,-8734.430116,222.061783,-2451.505594
3639.830108,-9992.780217,222.061783,-1225.752797
3639.830437,-10658.965565,222.061783,1149.143247
3639.830767,-9252.574275,-148.041188,2068.457845
3639.831097,-7772.162391,740.205942,1225.752797
3639.831427,-8882.471304,888.247130,76.609550
3639.831757,-10807.006753,740.205942,-153.219100
3639.832086,-10807.006753,592.164754,306.438199
3639.832416,-10066.800811,444.123565,919.314598
3639.832746,-10881.027347,518.144159,2145.067394
3639.833076,-10362.883188,-296.082377,1991.848295
3639.833406,-8586.388927,-444.123565,1762.019645
3639.833736,-8142.265362,74.020594,1302.362347
3639.834065,-10214.842000,1628.453072,1302.362347
3639.834395,-11029.068536,1628.453072,229.828649
3639.834725,-9548.656652,1258.350101,-919.314598
3639.835055,-8882.471304,888.247130,-995.924147
3639.835385,-10214.842000,1184.329507,153.219100
3639.835714,-10807.006753,444.123565,1072.533697
3639.836044,-9252.574275,74.020594,842.705048
3639.836374,-8586.388927,518.144159,536.266849
3639.836704,-9400.615463,814.226536,306.438199
3639.837034,-10658.965565,1184.329507,536.266849
3639.837364,-10066.800811,888.247130,153.219100
3639.837693,-9918.759623,814.226536,1225.752797
3639.838023,-10955.047942,444.123565,1455.581446
3639.838353,-10362.883188,0.000000,1225.752797
3639.838683,-8216.285956,-222.061783,766.095498
3639.839013,-8142.265362,518.144159,919.314598
3639.839343,-10658.965565,1406.391290,383.047749
3639.839672,-11251.130318,1258.350101,-1225.752797
3639.840002,-9918.759623,814.226536,-2987.772442
3639.840332,-9252.574275,296.082377,-2451.505594
3639.840662,-10881.027347,518.144159,-76.609550
3639.840992,-10658.965565,-518.144159,1302.362347
3639.841321,-8660.409521,-370.102971,1455.581446
3639.841651,-7698.141797,-148.041188,306.438199
3639.841981,-9474.636058,518.144159,0.000000
3639.842311,-10881.027347,518.144159,-306.438199
3639.842641,-10658.965565,296.082377,0.000000
3639.842971,-10288.862594,222.061783,842.705048
3639.843300,-11103.089130,74.020594,1149.143247
3639.843630,-10066.800811,-1110.308913,919.314598
3639.843960,-8068.244768,-1332.370696,459.657299
3639.844290,-8734.430116,-296.082377,689.485948
3639.844620,-10658.965565,296.082377,689.485948
3639.844949,-10881.027347,222.061783,-612.876398
3639.845279,-9474.636058,0.000000,-2068.457845
3639.845609,-9400.615463,0.000000,-1072.533697
3639.845939,-11399.171507,-370.102971,459.657299
3639.846269,-10807.006753,-296.082377,1302.362347
3639.846599,-8216.285956,-962.267725,842.705048
3639.846928,-7846.182985,-370.102971,0.000000
3639.847258,-9844.739029,74.020594,0.000000
3639.847588,-10658.965565,0.000000,-536.266849
3639.847918,-10436.903782,-148.041188,-689.485948
3639.848248,-10807.006753,-148.041188,0.000000
3639.848577,-10955.047942,-740.205942,842.705048
3639.848907,-9252.574275,-1628.453072,1225.752797
3639.849237,-7402.059420,-1554.432478,1608.800546
3639.849567,-8586.388927,-296.082377,1225.752797
3639.849897,-10955.047942,444.123565,612.876398
3639.850227,-11399.171507,592.164754,-612.876398
3639.850556,-10214.842000,222.061783,-1685.410096
3639.850886,-10288.862594,74.020594,-1149.143247
3639.851216,-11325.150913,-444.123565,612.876398
3639.851546,-10288.862594,-1036.288319,1455.581446
3639.851876,-7698.141797,-296.082377,766.095498
3639.852205,-7624.121203,-222.061783,0.000000
3639.852535,-9770.718434,296.082377,-229.828649
3639.852865,-11103.089130,444.123565,-459.657299
3639.853195,-10732.986159,222.061783,0.000000
3639.853525,-10584.944971,0.000000,1149.143247
3639.853855,-11029.068536,-296.082377,1149.143247
3639.854184,-9178.553681,-1184.329507,1302.362347
3639.854514,-7772.162391,-666.185348,1149.143247
3639.854844,-8734.430116,0.000000,383.047749
3639.855174,-10807.006753,814.226536,383.047749
3639.855504,-10584.944971,814.226536,-1378.971896
3639.855833,-9104.533087,370.102971,-1838.629195
3639.856163,-9770.718434,740.205942,-459.657299
3639.856493,-10955.047942,-222.061783,842.705048
3639.856823,-9770.718434,-592.164754,1302.362347
3639.857153,-7476.080014,-370.102971,536.266849
3639.857483,-7698.141797,518.144159,0.000000
3639.857812,-9178.553681,666.185348,-459.657299
3639.858142,-10436.903782,1110.308913,-229.828649
3639.858472,-10288.862594,1110.308913,76.609550
3639.858802,-10881.027347,962.267725,995.924147
3639.859132,-11029.068536,74.020594,1991.848295
3639.859461,-9548.656652,-592.164754,2221.676944
3639.859791,-7846.182985,-370.102971,1455.581446
3639.860121,-9400.615463,962.267725,1608.800546
3639.860451,-10510.924376,1184.329507,995.924147
3639.860781,-10288.862594,1332.370696,-1149.143247
3639.861111,-9474.636058,1184.329507,-1685.410096
3639.861440,-10732.986159,1184.329507,-229.828649
3639.861770,-12065.356855,666.185348,1532.190996
3639.862100,-10362.883188,0.000000,1991.848295
3639.862430,-8142.265362,148.041188,1149.143247
3639.862760,-8290.306550,814.226536,0.000000
3639.863089,-10140.821405,740.205942,-459.657299
3639.863419,-10362.883188,740.205942,-612.876398
3639.863749,-9548.656652,444.123565,306.438199
3639.864079,-10288.862594,444.123565,1225.752797
3639.864409,-10807.006753,0.000000,1915.238745
3639.864739,-8956.491898,-74.020594,1455.581446
3639.865068,-7994.224174,-370.102971,612.876398
3639.865398,-9770.718434,518.144159,383.047749
3639.865728,-11251.130318,888.247130,-229.828649
3639.866058,-10214.842000,962.267725,-1608.800546
3639.866388,-8808.450710,296.082377,-2374.896044
3639.866717,-10066.800811,0.000000,-1225.752797
3639.867047,-11029.068536,-666.185348,536.266849
3639.867377,-9104.533087,-1036.288319,1072.533697
3639.867707,-7402.059420,-444.123565,0.000000
3639.868037,-8734.430116,148.041188,76.609550
3639.868367,-10436.903782,370.102971,-612.876398
3639.868696,-10732.986159,0.000000,-459.657299
3639.869026,-9992.780217,-296.082377,0.000000
3639.869356,-11029.068536,-592.164754,842.705048
3639.869686,-10732.986159,-1110.308913,1225.752797
3639.870016,-8438.347739,-1628.453072,919.314598
3639.870345,-6883.915261,-1110.308913,1225.752797
3639.870675,-9474.636058,444.123565,1072.533697
3639.871005,-11473.192101,592.164754,-306.438199
3639.871335,-10510.924376,666.185348,-1608.800546
3639.871665,-9622.677246,370.102971,-1608.800546
3639.871995,-10436.903782,-296.082377,-229.828649
3639.872324,-11177.109724,-1110.308913,1532.190996
3639.872654,-9178.553681,-1332.370696,1455.581446
3639.872984,-7328.038826,-814.226536,0.000000
3639.873314,-8808.450710,-74.020594,-383.047749
3639.873644,-10436.903782,0.000000,-459.657299
3639.873973,-10214.842000,0.000000,-459.657299
3639.874303,-9696.697840,-370.102971,383.047749
3639.874633,-10214.842000,0.000000,1532.190996
3639.874963,-10214.842000,-888.247130,1149.143247
3639.875293,-8364.327145,-1406.391290,306.438199
3639.875623,-7920.203579,-1036.288319,306.438199
3639.875952,-9400.615463,0.000000,383.047749
3639.876282,-11251.130318,592.164754,-229.828649
3639.876612,-9918.759623,222.061783,-1455.581446
3639.876942,-9178.553681,148.041188,-1685.410096
3639.877272,-10658.965565,0.000000,0.000000
3639.877601,-11325.150913,-740.205942,1149.143247
3639.877931,-9030.512492,-962.267725,1225.752797
3639.878261,-7550.100608,-444.123565,612.876398
3639.878591,-9326.594869,296.082377,229.828649
3639.878921,-10658.965565,0.000000,-459.657299
3639.879251,-10584.944971,296.082377,-383.047749
3639.879580,-10288.862594,74.020594,0.000000
3639.879910,-11103.089130,0.000000,919.314598
3639.880240,-10066.800811,-814.226536,919.314598
3639.880570,-8068.244768,-814.226536,1302.362347
3639.880900,-8142.265362,-74.020594,1378.971896
3639.881229,-10362.883188,666.185348,536.266849
3639.881559,-11621.233289,1110.308913,-919.314598
3639.881889,-9992.780217,222.061783,-2068.457845
3639.882219,-9326.594869,148.041188,-1455.581446
3639.882549,-10362.883188,-222.061783,1072.533697
3639.882879,-10807.006753,-666.185348,2451.505594
3639.883208,-7994.224174,-962.267725,2374.896044
3639.883538,-7254.018232,296.082377,536.266849
3639.883868,-9178.553681,1110.308913,0.000000
3639.884198,-11251.130318,1184.329507,-76.609550
3639.884528,-10436.903782,1036.288319,76.609550
3639.884857,-9992.780217,814.226536,459.657299
3639.885187,-10658.965565,814.226536,1608.800546
3639.885517,-9696.697840,-222.061783,1149.143247
3639.885847,-8216.285956,148.041188,919.314598
3639.886177,-8438.347739,740.205942,0.000000
3639.886507,-10732.986159,2146.597232,459.657299
3639.886836,-11325.150913,1628.453072,-76.609550
3639.887166,-9992.780217,962.267725,-459.657299
3639.887496,-9696.697840,1258.350101,-229.828649
3639.887826,-11177.109724,666.185348,1149.143247
3639.888156,-10584.944971,0.000000,1762.019645
3639.888485,-8512.368333,0.000000,1378.971896
3639.888815,-7920.203579,370.102971,306.438199
3639.889145,-9622.677246,1036.288319,0.000000
3639.889475,-10881.027347,962.267725,0.000000
3639.889805,-10362.883188,814.226536,76.609550
3639.890135,-10436.903782,962.267725,229.828649
3639.890464,-10881.027347,74.020594,1455.581446
3639.890794,-9696.697840,-444.123565,1378.971896
3639.891124,-7920.203579,0.000000,1149.143247
3639.891454,-8290.306550,370.102971,842.705048
3639.891784,-10288.862594,1184.329507,-229.828649
3639.892114,-10955.047942,1332.370696,-1378.971896
3639.892443,-9622.677246,518.144159,-2221.676944
3639.892773,-9622.677246,222.061783,-1532.190996
3639.893103,-10881.027347,-370.102971,995.924147
3639.893433,-10584.944971,-592.164754,1532.190996
3639.893763,-8290.306550,-740.205942,383.047749
3639.894092,-8068.244768,-148.041188,-995.924147
3639.894422,-9474.636058,222.061783,-1302.362347
3639.894752,-10658.965565,-148.041188,-1608.800546
3639.895082,-9918.759623,-222.061783,-842.705048
3639.895412,-10066.800811,-592.164754,536.266849
3639.895742,-10362.883188,-1036.288319,1225.752797
3639.896071,-9400.615463,-1554.432478,1072.533697
3639.896401,-7994.224174,-1554.432478,76.609550
3639.896731,-8808.450710,-888.247130,459.657299
3639.897061,-10807.006753,0.000000,306.438199
3639.897391,-11177.109724,-296.082377,-383.047749
3639.897720,-9474.636058,-666.185348,-1225.752797
3639.898050,-9622.677246,-740.205942,-919.314598
3639.898380,-11103.089130,-1184.329507,689.485948
3639.898710,-10140.821405,-1332.370696,1455.581446
3639.899040,-8216.285956,-1480.411884,1149.143247
3639.899370,-8068.244768,-370.102971,0.000000
3639.899699,-10436.903782,0.000000,-459.657299
3639.900029,-11399.171507,148.041188,-536.266849
3639.900359,-10510.924376,-148.041188,0.000000
3639.900689,-10881.027347,-370.102971,459.657299
3639.901019,-11029.068536,-814.226536,766.095498
3639.901348,-9030.512492,-1776.494261,1225.752797
3639.901678,-7550.100608,-1258.350101,1378.971896
3639.902008,-8808.450710,148.041188,1149.143247
3639.902338,-10955.047942,518.144159,229.828649
3639.902668,-10807.006753,222.061783,-766.095498
3639.902998,-9548.656652,-222.061783,-1685.410096
3639.903327,-10140.821405,148.041188,0.000000
3639.903657,-11547.212695,-592.164754,1838.629195
3639.903987,-9918.759623,-1036.288319,2068.457845
3639.904317,-7476.080014,-814.226536,689.485948
3639.904647,-7994.224174,0.000000,0.000000
3639.904977,-10732.986159,444.123565,-766.095498
3639.905306,-10807.006753,518.144159,-842.705048
3639.905636,-10214.842000,222.061783,-612.876398
3639.905966,-10436.903782,148.041188,536.266849
3639.906296,-10881.027347,-222.061783,995.924147
3639.906626,-8956.491898,-962.267725,842.705048
3639.906956,-7402.059420,-518.144159,383.047749
3639.907286,-9030.512492,444.123565,383.047749
3639.907615,-10955.047942,888.247130,76.609550
3639.907945,-10436.903782,518.144159,-1072.533697
3639.908275,-9178.553681,74.020594,-1225.752797
3639.908605,-9696.697840,148.041188,153.219100
3639.908935,-11177.109724,0.000000,1915.238745
3639.909265,-9474.636058,-444.123565,1072.533697
3639.909595,-7698.141797,0.000000,0.000000
3639.909924,-8438.347739,814.226536,-536.266849
3639.910254,-10584.944971,1332.370696,-536.266849
3639.910584,-10510.924376,1184.329507,-153.219100
3639.910914,-9696.697840,740.205942,0.000000
3639.911244,-10658.965565,814.226536,766.095498
3639.911574,-10584.944971,148.041188,766.095498
3639.911904,-9030.512492,74.020594,1072.533697
3639.912233,-7920.203579,814.226536,1455.581446
3639.912563,-9548.656652,1406.391290,1072.533697
3639.912893,-11029.068536,1702.473667,306.438199
3639.913223,-9918.759623,1554.432478,-459.657299
3639.913553,-9548.656652,1110.308913,-536.266849
3639.913883,-10955.047942,1258.350101,612.876398
3639.914212,-11621.233289,518.144159,1685.410096
3639.914542,-9622.677246,148.041188,2298.286494
3639.914872,-7550.100608,592.164754,766.095498
3639.915202,-8660.409521,1036.288319,153.219100
3639.915532,-10510.924376,1406.391290,-229.828649
3639.915862,-10362.883188,1332.370696,0.000000
3639.916192,-9918.759623,1258.350101,229.828649
3639.916521,-10658.965565,962.267725,1225.752797
3639.916851,-10807.006753,296.082377,1991.848295
3639.917181,-8882.471304,-148.041188,1991.848295
3639.917511,-8290.306550,666.185348,1072.533697
3639.917841,-9622.677246,962.267725,919.314598
3639.918171,-11103.089130,1036.288319,383.047749
3639.918501,-9844.739029,814.226536,-229.828649
3639.918830,-9326.594869,444.123565,0.000000
3639.919160,-11103.089130,444.123565,842.705048
3639.919490,-11621.233289,0.000000,1302.362347
3639.919820,-9252.574275,-296.082377,919.314598
3639.920150,-7550.100608,0.000000,-383.047749
3639.920480,-8734.430116,296.082377,-919.314598
3639.920809,-10140.821405,518.144159,-1302.362347
3639.921139,-10066.800811,148.041188,-1149.143247
3639.921469,-10066.800811,0.000000,-919.314598
3639.921799,-10955.047942,148.041188,536.266849
3639.922129,-10214.842000,-1110.308913,536.266849
3639.922459,-8216.285956,-962.267725,612.876398
3639.922789,-7920.203579,-814.226536,689.485948
3639.923118,-9770.718434,370.102971,766.095498
3639.923448,-11177.109724,222.061783,-306.438199
3639.923778,-9548.656652,-370.102971,-1302.362347
3639.924108,-9474.636058,-444.123565,-1378.971896
3639.924438,-11029.068536,-666.185348,383.047749
3639.924768,-11399.171507,-1184.329507,1455.581446
3639.925098,-8808.450710,-1480.411884,306.438199
3639.925427,-7550.100608,-1110.308913,-306.438199
3639.925757,-9030.512492,-148.041188,-612.876398
3639.926087,-10658.965565,-222.061783,-459.657299
3639.926417,-10362.883188,-518.144159,-229.828649
3639.926747,-9844.739029,-518.144159,459.657299
3639.927077,-11029.068536,-962.267725,1378.971896
3639.927407,-10288.862594,-1258.350101,1685.410096
3639.927736,-8364.327145,-1924.535449,995.924147
3639.928066,-8290.306550,-962.267725,536.266849
3639.928396,-10584.944971,-222.061783,153.219100
3639.928726,-11251.130318,-222.061783,-383.047749
3639.929056,-9326.594869,-814.226536,-1225.752797
3639.929386,-9030.512492,-740.205942,-842.705048
3639.929715,-10955.047942,-740.205942,842.705048
3639.930045,-10510.924376,-1406.391290,1685.410096
3639.930375,-8512.368333,-1184.329507,1149.143247
3639.930705,-7994.224174,-518.144159,229.828649
3639.931035,-9918.759623,296.082377,-76.609550
3639.931365,-10955.047942,0.000000,-306.438199
3639.931695,-10658.965565,0.000000,-383.047749
3639.932024,-10288.862594,0.000000,229.828649
3639.932354,-10955.047942,-592.164754,1149.143247
3639.932684,-9844.739029,-1036.288319,919.314598
3639.933014,-8068.244768,-370.102971,689.485948
3639.933344,-8808.450710,0.000000,689.485948
3639.933674,-11177.109724,888.247130,689.485948
3639.934004,-11251.130318,814.226536,0.000000
3639.934333,-9030.512492,370.102971,-1455.581446
3639.934663,-9178.553681,296.082377,-842.705048
3639.934993,-10658.965565,0.000000,842.705048
3639.935323,-10140.821405,-592.164754,1608.800546
3639.935653,-8216.285956,0.000000,1302.362347
3639.935983,-7994.224174,740.205942,383.047749
3639.936312,-10288.862594,1036.288319,0.000000
3639.936642,-10732.986159,1332.370696,-153.219100
3639.936972,-9918.759623,888.247130,-229.828649
3639.937302,-10140.821405,1480.411884,536.266849
3639.937632,-10732.986159,740.205942,919.314598
3639.937962,-9400.615463,222.061783,1378.971896
3639.938292,-7698.141797,518.144159,612.876398
3639.938621,-8660.409521,1036.288319,612.876398
3639.938951,-10955.047942,1776.494261,995.924147
3639.939281,-10288.862594,1554.432478,-612.876398
3639.939611,-8660.409521,1184.329507,-995.924147
3639.939941,-9622.677246,1184.329507,-536.266849
3639.940271,-11251.130318,666.185348,1378.971896
3639.940601,-10288.862594,296.082377,2145.067394
3639.940930,-7772.162391,592.164754,1532.190996
3639.941260,-8512.368333,1184.329507,766.095498
3639.941590,-11029.068536,1406.391290,229.828649
3639.941920,-11251.130318,1406.391290,306.438199
3639.942250,-10214.842000,888.247130,-689.485948
3639.942580,-10436.903782,1184.329507,0.000000
3639.942910,-10732.986159,444.123565,995.924147
3639.943239,-9178.553681,0.000000,1302.362347
3639.943569,-7328.038826,0.000000,153.219100
3639.943899,-9252.574275,962.267725,76.609550
3639.944229,-11695.253884,1110.308913,0.000000
3639.944559,-10881.027347,444.123565,-612.876398
3639.944889,-9030.512492,74.020594,-1532.190996
3639.945218,-9400.615463,-518.144159,153.219100
3639.945548,-11473.192101,-518.144159,2068.457845
3639.945878,-10214.842000,-962.267725,2374.896044
3639.946208,-7550.100608,-666.185348,995.924147
3639.946538,-8216.285956,0.000000,229.828649
3639.946868,-10510.924376,296.082377,0.000000
3639.947198,-10881.027347,148.041188,-536.266849
3639.947527,-9622.677246,74.020594,-919.314598
3639.947857,-10436.903782,0.000000,-306.438199
3639.948187,-11103.089130,-518.144159,0.000000
3639.948517,-9104.533087,-1184.329507,-306.438199
3639.948847,-7550.100608,-1036.288319,-383.047749
3639.949177,-9178.553681,-74.020594,383.047749
3639.949507,-11177.109724,296.082377,0.000000
3639.949836,-10584.944971,74.020594,-1072.533697
3639.950166,-9400.615463,-666.185348,-1532.190996
3639.950496,-10658.965565,-148.041188,0.000000
3639.950826,-11695.253884,-962.267725,1302.362347
3639.951156,-9992.780217,-1184.329507,1991.848295
3639.951486,-7772.162391,-1184.329507,919.314598
3639.951815,-8364.327145,0.000000,-153.219100
3639.952145,-10362.883188,-296.082377,-766.095498
3639.952475,-10658.965565,-518.144159,-1225.752797
3639.952805,-9918.759623,-592.164754,-689.485948
3639.953135,-10362.883188,-592.164754,536.266849
3639.953465,-10658.965565,-1480.411884,1302.362347
3639.953795,-8364.327145,-2220.617826,1225.752797
3639.954124,-7105.977043,-1480.411884,153.219100
3639.954454,-9400.615463,-370.102971,459.657299
3639.954784,-11547.212695,74.020594,383.047749
3639.955114,-10732.986159,-370.102971,-612.876398
3639.955444,-9474.636058,-666.185348,-1532.190996
3639.955774,-10140.821405,-666.185348,-306.438199
3639.956104,-10584.944971,-1258.350101,76.609550
3639.956433,-9030.512492,-1406.391290,1225.752797
3639.956763,-7105.977043,-1258.350101,76.609550
3639.957093,-8290.306550,0.000000,-306.438199
3639.957423,-10214.842000,222.061783,0.000000
3639.957753,-10658.965565,0.000000,-612.876398
3639.958083,-10066.800811,0.000000,-766.095498
3639.958413,-10881.027347,74.020594,229.828649
3639.958742,-11251.130318,-666.185348,842.705048
3639.959072,-8586.388927,-1258.350101,612.876398
3639.959402,-7698.141797,-814.226536,383.047749
3639.959732,-9474.636058,222.061783,689.485948
3639.960062,-10881.027347,814.226536,-306.438199
3639.960392,-9400.615463,444.123565,-2145.067394
3639.960721,-9178.553681,222.061783,-1838.629195
3639.961051,-10584.944971,148.041188,306.438199
3639.961381,-11251.130318,0.000000,1991.848295
3639.961711,-9326.594869,296.082377,2068.457845
3639.962041,-7920.203579,74.020594,536.266849
3639.962371,-9622.677246,962.267725,306.438199
3639.962701,-11029.068536,1554.432478,0.000000
3639.963030,-10658.965565,1554.432478,153.219100
3639.963360,-10066.800811,1036.288319,459.657299
3639.963690,-10807.006753,1332.370696,1455.581446
3639.964020,-10807.006753,666.185348,1532.190996
3639.964350,-8586.388927,74.020594,1225.752797
3639.964680,-8068.244768,1110.308913,229.828649
3639.965010,-10140.821405,1776.494261,919.314598
3639.965339,-11251.130318,1924.535449,229.828649
3639.965669,-9696.697840,1776.494261,-153.219100
3639.965999,-8290.306550,1184.329507,-1225.752797
3639.966329,-10658.965565,1184.329507,766.095498
3639.966659,-11325.150913,666.185348,2374.896044
3639.966989,-9474.636058,592.164754,2068.457845
3639.967318,-7846.182985,1184.329507,995.924147
3639.967648,-9252.574275,1480.411884,612.876398
3639.967978,-10807.006753,1480.411884,459.657299
3639.968308,-10584.944971,1110.308913,0.000000
3639.968638,-10140.821405,1036.288319,306.438199
3639.968968,-11029.068536,666.185348,1378.971896
3639.969298,-10436.903782,0.000000,1378.971896
3639.969627,-8364.327145,-296.082377,919.314598
3639.969957,-7994.224174,74.020594,689.485948
3639.970287,-9992.780217,1554.432478,459.657299
3639.970617,-10658.965565,1036.288319,-919.314598
3639.970947,-9474.636058,666.185348,-2298.286494
3639.971277,-8734.430116,74.020594,-2298.286494
3639.971607,-10658.965565,518.144159,-536.266849
3639.971936,-10658.965565,-222.061783,995.924147
3639.972266,-8586.388927,-592.164754,689.485948
3639.972596,-7624.121203,-296.082377,0.000000
3639.972926,-9548.656652,444.123565,-383.047749
3639.973256,-10807.006753,74.020594,-919.314598
3639.973586,-10732.986159,296.082377,-1225.752797
3639.973916,-10214.842000,0.000000,-536.266849
3639.974245,-11103.089130,0.000000,842.705048
3639.974575,-9992.780217,-1036.288319,995.924147
3639.974905,-8068.244768,-1628.453072,229.828649
3639.975235,-8142.265362,-740.205942,-229.828649
3639.975565,-10214.842000,-148.041188,0.000000
3639.975895,-10584.944971,-148.041188,-459.657299
3639.976224,-9474.636058,-592.164754,-1302.362347
3639.976554,-9252.574275,-814.226536,-766.095498
3639.976884,-10658.965565,-1036.288319,919.314598
3639.977214,-10510.924376,-1480.411884,2451.505594
3639.977544,-8660.409521,-1702.473667,1455.581446
3639.977874,-8290.306550,-1036.288319,766.095498
3639.978204,-10214.842000,-444.123565,229.828649
3639.978533,-10881.027347,-370.102971,-229.828649
3639.978863,-10066.800811,-296.082377,-919.314598
3639.979193,-10362.883188,-592.164754,-459.657299
3639.979523,-10955.047942,-1110.308913,153.219100
3639.979853,-9844.739029,-1776.494261,612.876398
3639.980183,-7550.100608,-1258.350101,689.485948
3639.980513,-8364.327145,-962.267725,689.485948
3639.980842,-10510.924376,-592.164754,383.047749
3639.981172,-10955.047942,-222.061783,-842.705048
3639.981502,-9474.636058,-814.226536,-1378.971896
3639.981832,-9474.636058,-814.226536,-459.657299
3639.982162,-10955.047942,-962.267725,1915.238745
3639.982492,-10362.883188,-1406.391290,2528.115143
3639.982822,-8364.327145,-1480.411884,1608.800546
3639.983151,-8512.368333,-148.041188,0.000000
3639.983481,-10362.883188,148.041188,-842.705048
3639.983811,-10807.006753,222.061783,-1455.581446
3639.984141,-9918.759623,370.102971,-1225.752797
3639.984471,-9696.697840,-444.123565,-612.876398
3639.984801,-10955.047942,0.000000,536.266849
3639.985130,-9548.656652,-814.226536,689.485948
3639.985460,-7994.224174,-444.123565,0.000000
3639.985790,-8808.450710,296.082377,153.219100
3639.986120,-10881.027347,592.164754,459.657299
3639.986450,-10584.944971,518.144159,-536.266849
3639.986780,-8808.450710,148.041188,-919.314598
3639.987110,-9474.636058,74.020594,0.000000
3639.987439,-10807.006753,-74.020594,1455.581446
3639.987769,-9622.677246,-666.185348,2068.457845
3639.988099,-7624.121203,-592.164754,1455.581446
3639.988429,-8068.244768,370.102971,536.266849
3639.988759,-9992.780217,814.226536,459.657299
3639.989089,-10362.883188,1110.308913,76.609550
3639.989419,-9548.656652,518.144159,76.609550
3639.989748,-10214.842000,740.205942,459.657299
3639.990078,-10510.924376,148.041188,2068.457845
3639.990408,-9474.636058,0.000000,1762.019645
3639.990738,-7624.121203,222.061783,1072.533697
3639.991068,-8808.450710,1184.329507,995.924147
3639.991398,-11029.068536,1628.453072,536.266849
3639.991727,-10807.006753,1258.350101,-383.047749
3639.992057,-9474.636058,1110.308913,-1225.752797
3639.992387,-10362.883188,962.267725,-153.219100
3639.992717,-10881.027347,296.082377,1838.629195
3639.993047,-9252.574275,148.041188,2298.286494
3639.993377,-7476.080014,370.102971,1225.752797
3639.993707,-8438.347739,1258.350101,995.924147
3639.994036,-10658.965565,1702.473667,306.438199
3639.994366,-10955.047942,1628.453072,-612.876398
3639.994696,-10955.047942,1480.411884,-612.876398
3639.995026,-11399.171507,1110.308913,612.876398
3639.995356,-11325.150913,222.061783,1225.752797
3639.995686,-8808.450710,-148.041188,153.219100
3639.996016,-7105.977043,0.000000,0.000000
3639.996345,-8956.491898,1184.329507,76.609550
3639.996675,-11473.192101,1776.494261,-459.657299
3639.997005,-10658.965565,1258.350101,-1532.190996
3639.997335,-9622.677246,740.205942,-1378.971896
3639.997665,-10510.924376,592.164754,306.438199
3639.997995,-11473.192101,-444.123565,2221.676944
3639.998325,-9474.636058,-1406.391290,2145.067394
3639.998654,-7254.018232,-962.267725,995.924147
3639.998984,-8216.285956,148.041188,536.266849
3639.999314,-10140.821405,740.205942,-383.047749
3639.999644,-10510.924376,962.267725,-919.314598
3639.999974,-10140.821405,592.164754,-612.876398
3640.000304,-11177.109724,592.164754,536.266849
3640.000633,-10658.965565,-592.164754,459.657299
3640.000963,-8438.347739,-888.247130,383.047749
3640.001293,-7254.018232,-962.267725,0.000000
3640.001623,-9400.615463,0.000000,76.609550
3640.001953,-11251.130318,592.164754,-536.266849
3640.002283,-10288.862594,0.000000,-1838.629195
3640.002613,-9474.636058,-222.061783,-1838.629195
3640.002942,-10584.944971,-296.082377,306.438199
3640.003272,-11029.068536,-888.247130,1608.800546
3640.003602,-9104.533087,-1406.391290,2221.676944
3640.003932,-7328.038826,-1110.308913,842.705048
3640.004262,-8808.450710,0.000000,612.876398
3640.004592,-10955.047942,222.061783,-995.924147
3640.004922,-10362.883188,-222.061783,-995.924147
3640.005251,-10436.903782,-74.020594,-612.876398
3640.005581,-11103.089130,-592.164754,766.095498
3640.005911,-10658.965565,-1258.350101,1149.143247
3640.006241,-8290.306550,-1332.370696,536.266849
3640.006571,-8068.244768,-1110.308913,-76.609550
3640.006901,-9918.759623,-296.082377,-306.438199
3640.007231,-11325.150913,0.000000,-842.705048
3640.007560,-10436.903782,0.000000,-1532.190996
3640.007890,-9030.512492,-740.205942,-1532.190996
3640.008220,-10214.842000,-962.267725,612.876398
3640.008550,-10436.903782,-1702.473667,2068.457845
3640.008880,-9030.512492,-1554.432478,2068.457845
3640.009210,-7698.141797,-1184.329507,1302.362347
3640.009540,-9474.636058,-370.102971,383.047749
3640.009870,-11103.089130,-518.144159,-306.438199
3640.010199,-10436.903782,-592.164754,-612.876398
3640.010529,-9844.739029,-444.123565,0.000000
3640.010859,-10732.986159,-1036.288319,1149.143247
3640.011189,-9992.780217,-1110.308913,1149.143247
3640.011519,-7698.141797,-1110.308913,76.609550
3640.011849,-8068.244768,-296.082377,-306.438199
3640.012179,-10510.924376,814.226536,-229.828649
3640.012509,-11103.089130,592.164754,-1149.143247
3640.012838,-9918.759623,148.041188,-2145.067394
3640.013168,-9326.594869,148.041188,-1455.581446
3640.013498,-10955.047942,0.000000,842.705048
3640.013828,-10658.965565,-740.205942,2145.067394
3640.014158,-8438.347739,-814.226536,1685.410096
3640.014488,-7698.141797,148.041188,1149.143247
3640.014818,-9770.718434,1110.308913,612.876398
3640.015148,-11473.192101,1332.370696,383.047749
3640.015477,-10732.986159,962.267725,459.657299
3640.015807,-10436.903782,962.267725,689.485948
3640.016137,-11621.233289,962.267725,1532.190996
3640.016467,-10214.842000,74.020594,1225.752797
3640.016797,-7846.182985,-222.061783,459.657299
3640.017127,-8068.244768,1036.288319,-229.828649
3640.017457,-10214.842000,1628.453072,-459.657299
3640.017787,-10807.006753,1924.535449,-766.095498
3640.018116,-9474.636058,1628.453072,-1302.362347
3640.018446,-9844.739029,1332.370696,-383.047749
3640.018776,-11103.089130,592.164754,689.485948
3640.019106,-10436.903782,222.061783,2451.505594
3640.019436,-8290.306550,222.061783,2298.286494
3640.019766,-7920.203579,888.247130,2374.896044
3640.020096,-9918.759623,1554.432478,689.485948
3640.020426,-10955.047942,1480.411884,0.000000
3640.020755,-10362.883188,1110.308913,-229.828649
3640.021085,-10510.924376,1110.308913,536.266849
3640.021415,-11399.171507,888.247130,1149.143247
3640.021745,-9548.656652,74.020594,919.314598
3640.022075,-7254.018232,518.144159,0.000000
3640.022405,-8216.285956,1110.308913,-612.876398
3640.022735,-11621.233289,1924.535449,-919.314598
3640.023065,-11251.130318,1406.391290,-1378.971896
3640.023394,-9548.656652,740.205942,-1608.800546
3640.023724,-9548.656652,0.000000,-153.219100
3640.024054,-10732.986159,-444.123565,1685.410096
3640.024384,-9992.780217,-666.185348,2528.115143
3640.024714,-7772.162391,-666.185348,1838.629195
3640.025044,-8068.244768,0.000000,766.095498
3640.025374,-10362.883188,814.226536,229.828649
3640.025704,-11399.171507,592.164754,-76.609550
3640.026033,-10140.821405,296.082377,-229.828649
3640.026363,-10362.883188,74.020594,76.609550
3640.026693,-11325.150913,0.000000,995.924147
3640.027023,-9030.512492,-888.247130,306.438199
3640.027353,-7328.038826,-962.267725,-766.095498
3640.027683,-8142.265362,-148.041188,-1072.533697
3640.028013,-10658.965565,666.185348,-766.095498
3640.028342,-10955.047942,592.164754,-1378.971896
3640.028672,-9622.677246,0.000000,-1685.410096
3640.029002,-9918.759623,-370.102971,-842.705048
3640.029332,-11029.068536,-962.267725,1072.533697
3640.029662,-9696.697840,-1628.453072,1532.190996
3640.029992,-7550.100608,-1258.350101,995.924147
3640.030322,-8290.306550,-370.102971,229.828649
3640.030652,-10362.883188,148.041188,0.000000
3640.030981,-11029.068536,0.000000,-306.438199
3640.031311,-10584.944971,-444.123565,-229.828649
3640.031641,-11325.150913,-370.102971,612.876398
3640.031971,-11547.212695,-962.267725,1762.019645
3640.032301,-9252.574275,-1776.494261,919.314598
3640.032631,-7105.977043,-1554.432478,306.438199
3640.032961,-8660.409521,-666.185348,153.219100
3640.033291,-11103.089130,0.000000,-306.438199
3640.033620,-10510.924376,0.000000,-1532.190996
3640.033950,-9400.615463,-370.102971,-2145.067394
3640.034280,-9918.759623,-740.205942,-919.314598
3640.034610,-11399.171507,-1110.308913,1455.581446
3640.034940,-9548.656652,-1628.453072,2221.676944
3640.035270,-7402.059420,-1480.411884,1532.190996
3640.035600,-7846.182985,-740.205942,766.095498
3640.035930,-10436.903782,-370.102971,-153.219100
3640.036259,-10584.944971,-444.123565,-306.438199
3640.036589,-10066.800811,-296.082377,0.000000
3640.036919,-10732.986159,-592.164754,1225.752797
3640.037249,-10955.047942,-740.205942,1608.800546
3640.037579,-8882.471304,-1184.329507,612.876398
3640.037909,-7402.059420,-592.164754,-383.047749
3640.038239,-9326.594869,222.061783,-153.219100
3640.038569,-11177.109724,814.226536,-1072.533697
3640.038898,-10362.883188,222.061783,-1455.581446
3640.039228,-9104.533087,0.000000,-1225.752797
3640.039558,-9770.718434,74.020594,0.000000
3640.039888,-10807.006753,-962.267725,1762.019645
3640.040218,-9252.574275,-962.267725,2068.457845
3640.040548,-7476.080014,-296.082377,1072.533697
3640.040878,-8438.347739,518.144159,612.876398
3640.041208,-10658.965565,592.164754,612.876398
3640.041537,-10658.965565,1036.288319,0.000000
3640.041867,-10066.800811,666.185348,0.000000
3640.042197,-10955.047942,444.123565,612.876398
3640.042527,-11251.130318,0.000000,1762.019645
3640.042857,-9030.512492,-370.102971,995.924147
3640.043187,-7550.100608,74.020594,536.266849
3640.043517,-9326.594869,1184.329507,306.438199
3640.043847,-11103.089130,1702.473667,153.219100
3640.044176,-9992.780217,1332.370696,-1225.752797
3640.044506,-8882.471304,666.185348,-1455.581446
3640.044836,-10436.903782,814.226536,0.000000
3640.045166,-11177.109724,296.082377,2068.457845
3640.045496,-9030.512492,296.082377,2145.067394
3640.045826,-7698.141797,740.205942,1149.143247
3640.046156,-9474.636058,1554.432478,306.438199
3640.046486,-11251.130318,1554.432478,306.438199
3640.046815,-10732.986159,1406.391290,0.000000
3640.047145,-10066.800811,962.267725,459.657299
3640.047475,-10955.047942,1110.308913,1532.190996
3640.047805,-11177.109724,592.164754,1302.362347
3640.048135,-8734.430116,518.144159,995.924147
3640.048465,-7624.121203,814.226536,-153.219100
3640.048795,-10214.842000,1776.494261,-306.438199
3640.049124,-11695.253884,1924.535449,-689.485948
3640.049454,-10436.903782,1406.391290,-1608.800546
3640.049784,-9030.512492,666.185348,-1685.410096
3640.050114,-10214.842000,518.144159,0.000000
3640.050444,-10510.924376,-296.082377,1072.533697
3640.050774,-8808.450710,-444.123565,1991.848295
3640.051104,-7550.100608,0.000000,1225.752797
3640.051434,-9252.574275,592.164754,1072.533697
3640.051763,-10436.903782,518.144159,536.266849
3640.052093,-10066.800811,370.102971,229.828649
3640.052423,-10066.800811,592.164754,76.609550
3640.052753,-11029.068536,296.082377,1149.143247
3640.053083,-10436.903782,0.000000,842.705048
3640.053413,-8216.285956,-814.226536,0.000000
3640.053743,-7846.182985,222.061783,-689.485948
3640.054073,-10362.883188,888.247130,-612.876398
3640.054402,-11251.130318,814.226536,-1149.143247
3640.054732,-9844.739029,296.082377,-1991.848295
3640.055062,-9030.512492,-222.061783,-1378.971896
3640.055392,-10658.965565,-444.123565,536.266849
3640.055722,-10955.047942,-1184.329507,1838.629195
3640.056052,-9030.512492,-1702.473667,1455.581446
3640.056382,-7698.141797,-814.226536,612.876398
3640.056712,-8734.430116,-148.041188,689.485948
3640.057041,-9992.780217,-370.102971,0.000000
3640.057371,-10066.800811,-740.205942,-229.828649
3640.057701,-10066.800811,-370.102971,0.000000
3640.058031,-11251.130318,-518.144159,1225.752797
3640.058361,-10362.883188,-1480.411884,689.485948
3640.058691,-8216.285956,-1628.453072,0.000000
3640.059021,-7994.224174,-1406.391290,-153.219100
3640.059351,-10658.965565,0.000000,0.000000
3640.059680,-11473.192101,0.000000,-1149.143247
3640.060010,-10288.862594,-222.061783,-1915.238745
3640.060340,-9400.615463,-962.267725,-1532.190996
3640.060670,-10510.924376,-888.247130,536.266849
3640.061000,-10584.944971,-1332.370696,1762.019645
3640.061330,-8734.430116,-1554.432478,995.924147
3640.061660,-8290.306550,-1110.308913,153.219100
3640.061990,-9696.697840,-592.164754,0.000000
3640.062319,-10881.027347,-444.123565,76.609550
3640.062649,-9918.759623,-888.247130,383.047749
3640.062979,-10584.944971,-814.226536,689.485948
3640.063309,-11325.150913,-814.226536,1608.800546
3640.063639,-9918.759623,-1258.350101,766.095498
3640.063969,-7698.141797,-1406.391290,0.000000
3640.064299,-8216.285956,-814.226536,-153.219100
3640.064629,-10807.006753,74.020594,0.000000
3640.064958,-10732.986159,0.000000,-995.924147
3640.065288,-9030.512492,0.000000,-1991.848295
3640.065618,-9104.533087,0.000000,-1532.190996
3640.065948,-10732.986159,-296.082377,612.876398
3640.066278,-10658.965565,-444.123565,2145.067394
3640.066608,-8586.388927,-296.082377,1225.752797
3640.066938,-8068.244768,0.000000,1225.752797
3640.067268,-9992.780217,444.123565,919.314598
3640.067597,-11029.068536,740.205942,383.047749
3640.067927,-10214.842000,666.185348,153.219100
3640.068257,-10510.924376,1110.308913,919.314598
3640.068587,-10955.047942,592.164754,1455.581446
3640.068917,-9400.615463,370.102971,1149.143247
3640.069247,-7550.100608,592.164754,689.485948
3640.069577,-8882.471304,962.267725,459.657299
3640.069906,-11695.253884,1776.494261,-153.219100
3640.070236,-11399.171507,1628.453072,-995.924147
3640.070566,-9548.656652,962.267725,-1838.629195
3640.070896,-9474.636058,1184.329507,0.000000
3640.071226,-10881.027347,296.082377,1608.800546
3640.071556,-9770.718434,74.020594,2757.943793
3640.071886,-7920.203579,222.061783,2145.067394
3640.072216,-7994.224174,1480.411884,1608.800546
3640.072545,-10214.842000,1628.453072,459.657299
3640.072875,-10658.965565,1554.432478,0.000000
3640.073205,-10066.800811,1110.308913,153.219100
3640.073535,-10362.883188,1332.370696,1149.143247
3640.073865,-10955.047942,592.164754,1302.362347
3640.074195,-8808.450710,296.082377,536.266849
3640.074525,-7179.997637,740.205942,-612.876398
3640.074855,-9178.553681,1628.453072,-689.485948
3640.075184,-11769.274478,2072.576638,-612.876398
3640.075514,-11103.089130,1480.411884,-1378.971896
3640.075844,-9178.553681,1184.329507,-2068.457845
3640.076174,-9696.697840,888.247130,-995.924147
3640.076504,-10807.006753,370.102971,612.876398
3640.076834,-9622.677246,-148.041188,1225.752797
3640.077164,-7920.203579,-74.020594,1072.533697
3640.077494,-8808.450710,666.185348,689.485948
3640.077823,-10436.903782,1036.288319,0.000000
3640.078153,-10584.944971,370.102971,-459.657299
3640.078483,-10066.800811,444.123565,76.609550
3640.078813,-10955.047942,148.041188,1302.362347
3640.079143,-11547.212695,-222.061783,1532.190996
3640.079473,-8882.471304,-518.144159,1149.143247
3640.079803,-7846.182985,-666.185348,153.219100
3640.080133,-9770.718434,592.164754,383.047749
3640.080462,-11843.295072,740.205942,-76.609550
3640.080792,-10807.006753,1110.308913,-1149.143247
3640.081122,-9326.594869,0.000000,-2145.067394
3640.081452,-10140.821405,0.000000,-842.705048
3640.081782,-11251.130318,-592.164754,612.876398
3640.082112,-9696.697840,-888.247130,2068.457845
3640.082442,-7624.121203,-1332.370696,1302.362347
3640.082772,-8364.327145,-518.144159,689.485948
3640.083101,-10584.944971,-296.082377,76.609550
3640.083431,-9918.759623,-888.247130,0.000000
3640.083761,-9474.636058,-888.247130,0.000000
3640.084091,-10288.862594,-814.226536,1149.143247
3640.084421,-10881.027347,-1110.308913,1762.019645
3640.084751,-8882.471304,-1480.411884,383.047749
3640.085081,-7772.162391,-962.267725,229.828649
3640.085411,-9770.718434,-296.082377,229.828649
3640.085740,-11547.212695,222.061783,-612.876398
3640.086070,-10436.903782,-296.082377,-1608.800546
3640.086400,-9252.574275,-592.164754,-2451.505594
3640.086730,-10362.883188,-740.205942,-842.705048
3640.087060,-11473.192101,-1258.350101,919.314598
3640.087390,-9252.574275,-1554.432478,1302.362347
3640.087720,-7328.038826,-740.205942,153.219100
3640.088050,-8586.388927,-444.123565,76.609550
3640.088379,-10436.903782,-444.123565,-383.047749
3640.088709,-10436.903782,-592.164754,-306.438199
3640.089039,-10140.821405,-74.020594,153.219100
3640.089369,-10881.027347,0.000000,1072.533697
3640.089699,-10955.047942,-888.247130,1225.752797
3640.090029,-8734.430116,-1258.350101,229.828649
3640.090359,-7920.203579,-592.164754,0.000000
3640.090688,-10066.800811,518.144159,-459.657299
3640.091018,-11399.171507,592.164754,-459.657299
3640.091348,-9992.780217,0.000000,-1455.581446
3640.091678,-8808.450710,296.082377,-2374.896044
3640.092008,-10214.842000,74.020594,-995.924147
3640.092338,-11029.068536,-444.123565,842.705048
3640.092668,-9030.512492,-592.164754,1149.143247
3640.092998,-7254.018232,-666.185348,919.314598
3640.093327,-8956.491898,296.082377,689.485948
3640.093657,-10658.965565,444.123565,229.828649
3640.093987,-10436.903782,444.123565,766.095498
3640.094317,-9844.739029,0.000000,995.924147
3640.094647,-11103.089130,666.185348,2298.286494
3640.094977,-10807.006753,-222.061783,2374.896044
3640.095307,-8808.450710,0.000000,1378.971896
3640.095637,-7328.038826,296.082377,459.657299
3640.095966,-9696.697840,1554.432478,383.047749
3640.096296,-10881.027347,1924.535449,0.000000
3640.096626,-9992.780217,1110.308913,-1762.019645
3640.096956,-9030.512492,740.205942,-1608.800546
3640.097286,-10436.903782,814.226536,76.609550
3640.097616,-10732.986159,444.123565,1455.581446
3640.097946,-8882.471304,222.061783,1762.019645
3640.098276,-8216.285956,666.185348,842.705048
3640.098605,-9400.615463,1258.350101,842.705048
3640.098935,-10584.944971,1110.308913,306.438199
3640.099265,-10288.862594,962.267725,383.047749
3640.099595,-10510.924376,962.267725,766.095498
3640.099925,-11029.068536,740.205942,1685.410096
3640.100255,-9918.759623,148.041188,1072.533697
3640.100585,-7698.141797,296.082377,1378.971896
3640.100915,-7920.203579,888.247130,229.828649
3640.101244,-10658.965565,1702.473667,612.876398
3640.101574,-11325.150913,1776.494261,-459.657299
3640.101904,-10066.800811,1850.514855,-2068.457845
3640.102234,-9696.697840,962.267725,-2528.115143
3640.102564,-11399.171507,1036.288319,-689.485948
3640.102894,-10807.006753,0.000000,1378.971896
3640.103224,-8290.306550,74.020594,1302.362347
3640.103554,-7402.059420,444.123565,383.047749
3640.103883,-9252.574275,740.205942,0.000000
3640.104213,-10362.883188,666.185348,-459.657299
3640.104543,-10140.821405,592.164754,229.828649
3640.104873,-9992.780217,592.164754,1225.752797
3640.105203,-11251.130318,444.123565,1915.238745
3640.105533,-10140.821405,-592.164754,1915.238745
3640.105862,-7846.182985,-888.247130,842.705048
3640.106192,-8142.265362,0.000000,536.266849
3640.106522,-10881.027347,888.247130,-153.219100
3640.106852,-11029.068536,1036.288319,-1378.971896
3640.107182,-9474.636058,592.164754,-2374.896044
3640.107512,-9474.636058,370.102971,-1838.629195
3640.107841,-11251.130318,0.000000,459.657299
3640.108171,-10510.924376,-518.144159,995.924147
3640.108501,-8290.306550,-1036.288319,1149.143247
3640.108831,-7994.224174,-444.123565,459.657299
3640.109161,-9844.739029,0.000000,76.609550
3640.109491,-10584.944971,-296.082377,0.000000
3640.109820,-10436.903782,-444.123565,76.609550
3640.110150,-11029.068536,-592.164754,1455.581446
3640.110480,-11473.192101,-1332.370696,1685.410096
3640.110810,-9474.636058,-2294.638420,1608.800546
3640.111140,-7476.080014,-1998.556043,995.924147
3640.111470,-8142.265362,-592.164754,689.485948
3640.111799,-10658.965565,0.000000,0.000000
3640.112129,-10362.883188,0.000000,-1225.752797
3640.112459,-9178.553681,-518.144159,-2374.896044
3640.112789,-9844.739029,-592.164754,-1762.019645
3640.113119,-11547.212695,-1258.350101,229.828649
3640.113449,-10436.903782,-1850.514855,1225.752797
3640.113778,-7772.162391,-1924.535449,995.924147
3640.114108,-8364.327145,-1258.350101,459.657299
3640.114438,-10140.821405,-518.144159,-153.219100
3640.114768,-10288.862594,-962.267725,-536.266849
3640.115098,-9622.677246,-592.164754,0.000000
3640.115427,-10732.986159,-444.123565,1149.143247
3640.115757,-11325.150913,-1184.329507,1608.800546
3640.116087,-9400.615463,-1554.432478,612.876398
3640.116417,-7476.080014,-1998.556043,689.485948
3640.116747,-8512.368333,-370.102971,383.047749
3640.117077,-11473.192101,148.041188,-76.609550
3640.117406,-11029.068536,148.041188,-1302.362347
3640.117736,-9178.553681,0.000000,-1915.238745
3640.118066,-9770.718434,-148.041188,-995.924147
3640.118396,-11251.130318,-666.185348,1072.533697
3640.118726,-9992.780217,-888.247130,2221.676944
3640.119056,-7772.162391,-370.102971,1302.362347
3640.119385,-7846.182985,296.082377,383.047749
3640.119715,-10066.800811,666.185348,0.000000
3640.120045,-10732.986159,518.144159,76.609550
3640.120375,-10362.883188,740.205942,612.876398
3640.120705,-11103.089130,518.144159,1225.752797
3640.121035,-11103.089130,296.082377,1455.581446
3640.121364,-8660.409521,-296.082377,1455.581446
3640.121694,-7328.038826,296.082377,995.924147
3640.122024,-9178.553681,1480.411884,766.095498
3640.122354,-11399.171507,2294.638420,229.828649
3640.122684,-10658.965565,1998.556043,-995.924147
3640.123014,-9178.553681,1554.432478,-1991.848295
3640.123343,-10436.903782,1406.391290,-766.095498
3640.123673,-11473.192101,1036.288319,1532.190996
3640.124003,-9770.718434,296.082377,1838.629195
3640.124333,-7624.121203,444.123565,536.266849
3640.124663,-8586.388927,1702.473667,0.000000
3640.124993,-9770.718434,1184.329507,76.609550
3640.125322,-10584.944971,1850.514855,229.828649
3640.125652,-10140.821405,1554.432478,229.828649
3640.125982,-10881.027347,1332.370696,919.314598
3640.126312,-10584.944971,962.267725,2145.067394
3640.126642,-8512.368333,-148.041188,1225.752797
3640.126972,-7105.977043,296.082377,383.047749
3640.127301,-9474.636058,1554.432478,306.438199
3640.127631,-11325.150913,1628.453072,-153.219100
3640.127961,-10288.862594,888.247130,-1762.019645
3640.128291,-8956.491898,740.205942,-2451.505594
3640.128621,-10066.800811,444.123565,-995.924147
3640.128951,-11029.068536,0.000000,842.705048
3640.129280,-9400.615463,-296.082377,1225.752797
3640.129610,-7476.080014,74.020594,153.219100
3640.129940,-8364.327145,666.185348,-842.705048
3640.130270,-10436.903782,592.164754,-1225.752797
3640.130600,-10881.027347,148.041188,-842.705048
3640.130929,-10436.903782,222.061783,-306.438199
3640.131259,-11103.089130,-370.102971,1225.752797
3640.131589,-10288.862594,-1110.308913,1608.800546
3640.131919,-7994.224174,-1998.556043,1149.143247
3640.132249,-7254.018232,-814.226536,383.047749
3640.132579,-9770.718434,296.082377,612.876398
3640.132908,-11473.192101,592.164754,229.828649
3640.133238,-10436.903782,222.061783,-1225.752797
3640.133568,-9770.718434,-148.041188,-2068.457845
3640.133898,-11103.089130,-592.164754,-306.438199
3640.134228,-11325.150913,-1110.308913,919.314598
3640.134558,-9030.512492,-1406.391290,1072.533697
3640.134887,-7254.018232,-1258.350101,0.000000
3640.135217,-8882.471304,0.000000,-1149.143247
3640.135547,-10362.883188,0.000000,-766.095498
3640.135877,-10510.924376,0.000000,-612.876398
3640.136207,-10881.027347,0.000000,383.047749
3640.136537,-12065.356855,-666.185348,2068.457845
3640.136866,-11029.068536,-1850.514855,2145.067394
3640.137196,-8438.347739,-2294.638420,1762.019645
3640.137526,-7846.182985,-1702.473667,1608.800546
3640.137856,-10288.862594,-888.247130,1378.971896
3640.138186,-11029.068536,-444.123565,153.219100
3640.138516,-9622.677246,-370.102971,-919.314598
3640.138845,-9178.553681,-370.102971,-1378.971896
3640.139175,-10732.986159,-666.185348,383.047749
3640.139505,-11029.068536,-1480.411884,1378.971896
3640.139835,-8660.409521,-1110.308913,1225.752797
3640.140165,-7254.018232,-666.185348,536.266849
3640.140495,-9474.636058,0.000000,-229.828649
3640.140824,-10214.842000,-296.082377,-842.705048
3640.141154,-9918.759623,-222.061783,-766.095498
3640.141484,-10658.965565,0.000000,766.095498
3640.141814,-11473.192101,-296.082377,2068.457845
3640.142144,-10288.862594,-740.205942,1455.581446
3640.142474,-7254.018232,-814.226536,383.047749
3640.142803,-7476.080014,-296.082377,612.876398
3640.143133,-10584.944971,814.226536,383.047749
3640.143463,-11547.212695,1110.308913,-995.924147
3640.143793,-9622.677246,888.247130,-1991.848295
3640.144123,-9474.636058,444.123565,-2145.067394
3640.144452,-11547.212695,296.082377,229.828649
3640.144782,-11325.150913,-296.082377,1302.362347
3640.145112,-7920.203579,-444.123565,1072.533697
3640.145442,-6957.935855,148.041188,0.000000
3640.145772,-9326.594869,1332.370696,-689.485948
3640.146102,-9992.780217,1184.329507,-612.876398
3640.146431,-10066.800811,1036.288319,0.000000
3640.146761,-10436.903782,1332.370696,1149.143247
3640.147091,-11547.212695,592.164754,1455.581446
3640.147421,-10066.800811,74.020594,1685.410096
3640.147751,-7846.182985,370.102971,536.266849
3640.148081,-8216.285956,962.267725,1072.533697
3640.148410,-10807.006753,2072.576638,766.095498
3640.148740,-11029.068536,1924.535449,-306.438199
3640.149070,-9622.677246,1924.535449,-1685.410096
3640.149400,-10214.842000,1554.432478,-1225.752797
3640.149730,-11843.295072,814.226536,842.705048
3640.150060,-10584.944971,296.082377,2298.286494
3640.150389,-7920.203579,296.082377,1762.019645
3640.150719,-7846.182985,1036.288319,612.876398
3640.151049,-10066.800811,1258.350101,383.047749
3640.151379,-10658.965565,814.226536,0.000000
3640.151709,-10436.903782,814.226536,229.828649
3640.152039,-11325.150913,814.226536,1915.238745
3640.152368,-11695.253884,0.000000,2757.943793
3640.152698,-9474.636058,-888.247130,2298.286494
3640.153028,-6883.915261,-666.185348,1225.752797
3640.153358,-8142.265362,592.164754,306.438199
3640.153688,-10881.027347,962.267725,-76.609550
3640.154018,-11177.109724,1110.308913,-1302.362347
3640.154347,-9474.636058,370.102971,-2145.067394
3640.154677,-10362.883188,518.144159,-1149.143247
3640.155007,-11251.130318,-888.247130,229.828649
3640.155337,-9992.780217,-1332.370696,1225.752797
3640.155667,-7476.080014,-1036.288319,153.219100
3640.155997,-7328.038826,-370.102971,0.000000
3640.156326,-9696.697840,74.020594,-766.095498
3640.156656,-10510.924376,0.000000,-995.924147
3640.156986,-9918.759623,-444.123565,-766.095498
3640.157316,-10807.006753,-74.020594,306.438199
3640.157646,-11029.068536,-1110.308913,919.314598
3640.157975,-8882.471304,-1628.453072,76.609550
3640.158305,-6809.894666,-1702.473667,-383.047749
3640.158635,-8290.306550,-222.061783,-383.047749
3640.158965,-10658.965565,740.205942,-536.266849
3640.159295,-10881.027347,296.082377,-1532.190996
3640.159625,-9696.697840,222.061783,-2068.457845
3640.159954,-10436.903782,-296.082377,-1225.752797
3640.160284,-11917.315666,-814.226536,1608.800546
3640.160614,-10066.800811,-1554.432478,1302.362347
3640.160944,-7624.121203,-1332.370696,995.924147
3640.161274,-8068.244768,-592.164754,306.438199
3640.161604,-10362.883188,0.000000,0.000000
3640.161933,-10807.006753,148.041188,0.000000
3640.162263,-11103.089130,-370.102971,459.657299
3640.162593,-11251.130318,-592.164754,1225.752797
3640.162923,-10955.047942,-1406.391290,2298.286494
3640.163253,-8364.327145,-1924.535449,2374.896044
3640.163583,-7031.956449,-1332.370696,1072.533697
3640.163912,-9178.553681,-370.102971,1149.143247
3640.164242,-11029.068536,148.041188,229.828649
3640.164572,-10214.842000,296.082377,-612.876398
3640.164902,-9178.553681,0.000000,-1762.019645
3640.165232,-10362.883188,-222.061783,-153.219100
3640.165562,-11473.192101,-814.226536,1455.581446
3640.165891,-9548.656652,-1480.411884,1991.848295
3640.166221,-7476.080014,-888.247130,689.485948
3640.166551,-7994.224174,148.041188,0.000000
3640.166881,-10140.821405,148.041188,0.000000
3640.167211,-10510.924376,444.123565,-153.219100
3640.167541,-10288.862594,592.164754,0.000000
3640.167870,-10881.027347,444.123565,612.876398
3640.168200,-10807.006753,0.000000,689.485948
3640.168530,-8290.306550,-740.205942,536.266849
3640.168860,-7179.997637,0.000000,306.438199
3640.169190,-9030.512492,1036.288319,153.219100
3640.169520,-11103.089130,1776.494261,-612.876398
3640.169849,-9918.759623,1554.432478,-1915.238745
3640.170179,-9548.656652,962.267725,-1532.190996
3640.170509,-11177.109724,1036.288319,0.000000
3640.170839,-11473.192101,370.102971,1762.019645
3640.171169,-9400.615463,296.082377,1915.238745
3640.171498,-7994.224174,814.226536,766.095498
3640.171828,-9326.594869,1480.411884,0.000000
3640.172158,-10807.006753,1480.411884,-459.657299
3640.172488,-10584.944971,1554.432478,-612.876398
3640.172818,-10288.862594,1184.329507,76.609550
3640.173148,-11251.130318,962.267725,1532.190996
3640.173477,-10436.903782,0.000000,1838.629195
3640.173807,-7920.203579,-370.102971,1302.362347
3640.174137,-7476.080014,222.061783,1149.143247
3640.174467,-10436.903782,1702.473667,1225.752797
3640.174797,-11251.130318,1184.329507,306.438199
3640.175127,-9844.739029,962.267725,-153.219100
3640.175456,-9178.553681,592.164754,-612.876398
3640.175786,-11251.130318,444.123565,689.485948
3640.176116,-10955.047942,0.000000,1608.800546
3640.176446,-8142.265362,-222.061783,1378.971896
3640.176776,-7105.977043,0.000000,0.000000
3640.177106,-8734.430116,518.144159,-229.828649
3640.177435,-10658.965565,592.164754,-689.485948
3640.177765,-10066.800811,370.102971,-689.485948
3640.178095,-9696.697840,370.102971,153.219100
3640.178425,-11029.068536,74.020594,1378.971896
3640.178755,-11177.109724,-222.061783,2145.067394
3640.179085,-8364.327145,-814.226536,842.705048
3640.179414,-7772.162391,-518.144159,459.657299
3640.179744,-10288.862594,666.185348,383.047749
3640.180074,-11473.192101,592.164754,-766.095498
3640.180404,-9548.656652,222.061783,-1915.238745
3640.180734,-9104.533087,0.000000,-2221.676944
3640.181064,-10807.006753,-370.102971,-229.828649
3640.181393,-11251.130318,-814.226536,1149.143247
3640.181723,-8956.491898,-1110.308913,536.266849
3640.182053,-7846.182985,-592.164754,-459.657299
3640.182383,-9696.697840,74.020594,-612.876398
3640.182713,-10955.047942,-296.082377,-919.314598
3640.183043,-10436.903782,0.000000,-383.047749
3640.183372,-10140.821405,-666.185348,306.438199
3640.183702,-11103.089130,-814.226536,1149.143247
3640.184032,-10288.862594,-1332.370696,1302.362347
3640.184362,-7698.141797,-1258.350101,1072.533697
3640.184692,-8142.265362,-888.247130,612.876398
3640.185021,-10436.903782,-370.102971,766.095498
3640.185351,-11399.171507,-444.123565,0.000000
3640.185681,-9918.759623,-444.123565,-1302.362347
3640.186011,-9548.656652,-1036.288319,-612.876398
3640.186341,-11251.130318,-962.267725,842.705048
3640.186671,-10658.965565,-1110.308913,1762.019645
3640.187000,-8068.244768,-1554.432478,1225.752797
3640.187330,-8068.244768,-592.164754,0.000000
3640.187660,-9844.739029,0.000000,-153.219100
3640.187990,-11029.068536,-222.061783,-306.438199
3640.188320,-10140.821405,-74.020594,-612.876398
3640.188650,-10288.862594,-444.123565,76.609550
3640.188979,-10732.986159,-888.247130,612.876398
3640.189309,-9622.677246,-1332.370696,536.266849
3640.189639,-7772.162391,-1184.329507,842.705048
3640.189969,-8068.244768,-444.123565,919.314598
3640.190299,-11177.109724,888.247130,1072.533697
3640.190629,-11251.130318,666.185348,153.219100
3640.190958,-9844.739029,296.082377,-1302.362347
3640.191288,-9918.759623,444.123565,-1455.581446
3640.191618,-11473.192101,148.041188,153.219100
3640.191948,-10732.986159,-740.205942,919.314598
3640.192278,-8068.244768,-592.164754,766.095498
3640.192608,-7402.059420,0.000000,-306.438199
3640.192937,-9696.697840,740.205942,0.000000
3640.193267,-10436.903782,814.226536,-612.876398
3640.193597,-9844.739029,444.123565,-459.657299
3640.193927,-10214.842000,740.205942,306.438199
3640.194257,-10881.027347,370.102971,1762.019645
3640.194587,-9474.636058,-370.102971,1225.752797
