#time,accel_x,accel_y,accel_z
3855.309175,-9770.718434,0.000000,229.828649
3855.309504,-9622.677246,296.082377,612.876398
3855.309834,-9622.677246,0.000000,536.266849
3855.310164,-9844.739029,148.041188,229.828649
3855.310494,-9548.656652,0.000000,229.828649
3855.310824,-9696.697840,0.000000,229.828649
3855.311154,-9474.636058,0.000000,306.438199
3855.311484,-9548.656652,0.000000,0.000000
3855.311814,-9548.656652,0.000000,0.000000
3855.312144,-9548.656652,-370.102971,536.266849
3855.312473,-9918.759623,148.041188,766.095498
3855.312803,-10214.842000,0.000000,459.657299
3855.313133,-9770.718434,0.000000,0.000000
3855.313463,-9622.677246,74.020594,-536.266849
3855.313793,-9400.615463,370.102971,0.000000
3855.314123,-9844.739029,0.000000,-383.047749
3855.314453,-9770.718434,-296.082377,-229.828649
3855.314783,-9696.697840,-370.102971,0.000000
3855.315112,-9548.656652,-666.185348,0.000000
3855.315442,-9622.677246,-666.185348,0.000000
3855.315772,-9548.656652,-814.226536,-536.266849
3855.316102,-9696.697840,-296.082377,-842.705048
3855.316432,-9770.718434,-222.061783,-1072.533697
3855.316762,-10140.821405,-74.020594,0.000000
3855.317092,-10066.800811,0.000000,-153.219100
3855.317422,-10140.821405,-444.123565,306.438199
3855.317752,-10288.862594,-592.164754,-229.828649
3855.318081,-9696.697840,-888.247130,-842.705048
3855.318411,-10066.800811,-444.123565,-1685.410096
3855.318741,-9548.656652,-888.247130,-2221.676944
3855.319071,-9400.615463,-962.267725,-1608.800546
3855.319401,-9252.574275,-962.267725,-919.314598
3855.319731,-8882.471304,-1036.288319,-383.047749
3855.320061,-9770.718434,-962.267725,0.000000
3855.320391,-9622.677246,-1332.370696,-536.266849
3855.320721,-9918.759623,-888.247130,-689.485948
3855.321050,-9918.759623,-592.164754,-536.266849
3855.321380,-10066.800811,-370.102971,-1149.143247
3855.321710,-10584.944971,-740.205942,-1302.362347
3855.322040,-10140.821405,-666.185348,-1455.581446
3855.322370,-9844.739029,-1332.370696,-1762.019645
3855.322700,-9844.739029,-1480.411884,-2528.115143
3855.323030,-10066.800811,-1554.432478,-2757.943793
3855.323360,-9696.697840,-1924.535449,-2528.115143
3855.323690,-9400.615463,-1924.535449,-2221.676944
3855.324019,-8512.368333,-2220.617826,-2221.676944
3855.324349,-8290.306550,-2294.638420,-1455.581446
3855.324679,-8882.471304,-1702.473667,-612.876398
3855.325009,-9844.739029,-1258.350101,-153.219100
3855.325339,-10732.986159,-962.267725,0.000000
3855.325669,-11399.171507,-1110.308913,0.000000
3855.325999,-11843.295072,-1480.411884,-689.485948
3855.326329,-11991.336260,-2220.617826,-2374.896044
3855.326659,-11177.109724,-2220.617826,-4443.353888
3855.326988,-9474.636058,-3182.885551,-5286.058936
3855.327318,-7698.141797,-3627.009116,-4826.401637
3855.327648,-6957.935855,-3330.926739,-2528.115143
3855.327978,-7550.100608,-2220.617826,-536.266849
3855.328308,-9030.512492,-1332.370696,-1455.581446
3855.328638,-10066.800811,-1184.329507,-3064.381992
3855.328968,-10881.027347,-1850.514855,-4749.792088
3855.329298,-11769.274478,-2886.803174,-4749.792088
3855.329628,-11547.212695,-4293.194464,-3600.648841
3855.329957,-10066.800811,-5255.462188,-1608.800546
3855.330287,-7994.224174,-5773.606348,-995.924147
3855.330617,-7105.977043,-5033.400406,-1838.629195
3855.330947,-7476.080014,-4293.194464,-2068.457845
3855.331277,-8808.450710,-2960.823768,-2451.505594
3855.331607,-9992.780217,-1924.535449,-1455.581446
3855.331937,-11251.130318,-1258.350101,-1302.362347
3855.332267,-11547.212695,-1776.494261,-2604.724693
3855.332597,-11103.089130,-2886.803174,-3753.867940
3855.332926,-10288.862594,-4145.153275,-5286.058936
3855.333256,-9326.594869,-4959.379811,-4903.011187
3855.333586,-9104.533087,-5403.503377,-2987.772442
3855.333916,-8734.430116,-4515.256246,-995.924147
3855.334246,-7846.182985,-4367.215058,612.876398
3855.334576,-7846.182985,-3034.844362,1378.971896
3855.334906,-10214.842000,-1998.556043,612.876398
3855.335236,-12435.459826,-1554.432478,-1225.752797
3855.335565,-12805.562797,-1776.494261,-2834.553343
3855.335895,-11029.068536,-2960.823768,-3217.601092
3855.336225,-9770.718434,-3775.050304,-2451.505594
3855.336555,-8660.409521,-4219.173869,-1991.848295
3855.336885,-9104.533087,-4737.318029,-536.266849
3855.337215,-8364.327145,-4441.235652,-459.657299
3855.337545,-9400.615463,-2738.761985,-1225.752797
3855.337875,-9104.533087,-1998.556043,-1991.848295
3855.338205,-9622.677246,-1702.473667,383.047749
3855.338534,-11917.315666,-888.247130,1915.238745
3855.338864,-11991.336260,-1480.411884,76.609550
3855.339194,-10214.842000,-2146.597232,-2451.505594
3855.339524,-9400.615463,-2886.803174,-2451.505594
3855.339854,-9844.739029,-2516.700203,-2221.676944
3855.340184,-10140.821405,-2072.576638,-1302.362347
3855.340514,-9696.697840,-1998.556043,-1838.629195
3855.340844,-9030.512492,-1184.329507,-2757.943793
3855.341174,-9548.656652,-1480.411884,-2145.067394
3855.341503,-9770.718434,-1332.370696,-536.266849
3855.341833,-10140.821405,-1332.370696,-229.828649
3855.342163,-9030.512492,-962.267725,-1685.410096
3855.342493,-7994.224174,-1406.391290,-3600.648841
3855.342823,-9770.718434,-1332.370696,-3370.820191
3855.343153,-10140.821405,-1406.391290,-1378.971896
3855.343483,-10288.862594,-1110.308913,306.438199
3855.343813,-10510.924376,-666.185348,0.000000
3855.344143,-10140.821405,-1184.329507,-2987.772442
3855.344472,-10658.965565,-1110.308913,-4826.401637
3855.344802,-9696.697840,-1702.473667,-3753.867940
3855.345132,-9252.574275,-1628.453072,-2374.896044
3855.345462,-9992.780217,-1036.288319,-1302.362347
3855.345792,-8512.368333,-1332.370696,-2528.115143
3855.346122,-7105.977043,-1332.370696,-3753.867940
3855.346452,-7476.080014,-1184.329507,-3370.820191
3855.346782,-9622.677246,-962.267725,-1532.190996
3855.347112,-11843.295072,-370.102971,306.438199
3855.347441,-11103.089130,0.000000,-153.219100
3855.347771,-9844.739029,-814.226536,-1225.752797
3855.348101,-10066.800811,-1332.370696,-2451.505594
3855.348431,-10881.027347,-1332.370696,-2987.772442
3855.348761,-11843.295072,-1850.514855,-3294.210641
3855.349091,-9696.697840,-1406.391290,-3983.696590
3855.349421,-7698.141797,-1776.494261,-2911.162892
3855.349751,-7624.121203,-1850.514855,-689.485948
3855.350081,-9696.697840,-1184.329507,-306.438199
3855.350410,-11029.068536,-666.185348,-1838.629195
3855.350740,-9844.739029,-962.267725,-2221.676944
3855.351070,-9992.780217,-1480.411884,-1532.190996
3855.351400,-10288.862594,-1702.473667,76.609550
3855.351730,-11325.150913,-2220.617826,383.047749
3855.352060,-11769.274478,-2220.617826,0.000000
3855.352390,-10362.883188,-3404.947333,-1378.971896
3855.352720,-9474.636058,-2442.679609,-1991.848295
3855.353050,-9696.697840,-2442.679609,-766.095498
3855.353379,-9844.739029,-2368.659014,-689.485948
3855.353709,-8586.388927,-1924.535449,-1685.410096
3855.354039,-8586.388927,-2220.617826,-3064.381992
3855.354369,-9474.636058,-1924.535449,-3677.258390
3855.354699,-11325.150913,-2516.700203,-3064.381992
3855.355029,-10732.986159,-2442.679609,-1838.629195
3855.355359,-9104.533087,-3330.926739,-995.924147
3855.355689,-9326.594869,-3108.864956,-1915.238745
3855.356019,-9918.759623,-3997.112087,-1762.019645
3855.356348,-9992.780217,-3701.029710,-1762.019645
3855.356678,-9992.780217,-3849.070898,-1762.019645
3855.357008,-10288.862594,-3404.947333,-2221.676944
3855.357338,-10584.944971,-3256.906145,-1915.238745
3855.357668,-9696.697840,-3404.947333,-2451.505594
3855.357998,-9696.697840,-2812.782580,-2911.162892
3855.358328,-9030.512492,-3256.906145,-5132.839837
3855.358658,-7920.203579,-3478.967927,-5439.278036
3855.358987,-8808.450710,-3478.967927,-4060.306139
3855.359317,-9844.739029,-3034.844362,-1685.410096
3855.359647,-11177.109724,-3034.844362,-1532.190996
3855.359977,-9696.697840,-3627.009116,-1532.190996
3855.360307,-9030.512492,-3701.029710,-3064.381992
3855.360637,-9474.636058,-3256.906145,-1915.238745
3855.360967,-10807.006753,-2812.782580,76.609550
3855.361297,-11695.253884,-2664.741391,306.438199
3855.361627,-8734.430116,-2368.659014,-2221.676944
3855.361956,-7698.141797,-2146.597232,-4060.306139
3855.362286,-10732.986159,-1998.556043,-3907.087040
3855.362616,-11769.274478,-1998.556043,-3370.820191
3855.362946,-10288.862594,-2146.597232,-1915.238745
3855.363276,-8808.450710,-2664.741391,-1532.190996
3855.363606,-8956.491898,-2812.782580,-2221.676944
3855.363936,-9178.553681,-2812.782580,-842.705048
3855.364265,-9918.759623,-2442.679609,459.657299
3855.364595,-10362.883188,-1628.453072,689.485948
3855.364925,-10066.800811,-1554.432478,229.828649
3855.365255,-9474.636058,-1776.494261,-689.485948
3855.365584,-9696.697840,-1480.411884,-689.485948
3855.365914,-10288.862594,-1110.308913,-459.657299
3855.366244,-10732.986159,-962.267725,0.000000
3855.366574,-10658.965565,-1998.556043,-2145.067394
3855.366903,-8512.368333,-1850.514855,-3217.601092
3855.367233,-9104.533087,-1110.308913,-2374.896044
3855.367563,-10732.986159,-1184.329507,-1762.019645
3855.367893,-10807.006753,-1554.432478,-2374.896044
3855.368222,-9548.656652,-1480.411884,-2528.115143
3855.368552,-8808.450710,-1998.556043,-2451.505594
3855.368882,-9178.553681,-1480.411884,-1915.238745
3855.369212,-9030.512492,-1850.514855,-919.314598
3855.369541,-8586.388927,-1998.556043,-1302.362347
3855.369871,-8660.409521,-1850.514855,0.000000
3855.370201,-9770.718434,-888.247130,-229.828649
3855.370531,-10955.047942,-370.102971,-1838.629195
3855.370860,-10807.006753,-888.247130,-2451.505594
3855.371190,-10066.800811,-666.185348,-3217.601092
3855.371520,-10066.800811,-444.123565,-2528.115143
3855.371850,-10214.842000,-666.185348,-2528.115143
3855.372179,-9918.759623,-592.164754,-3294.210641
3855.372509,-9104.533087,-962.267725,-3064.381992
3855.372839,-9252.574275,-740.205942,-3217.601092
3855.373169,-8882.471304,-296.082377,-2604.724693
3855.373498,-9844.739029,-1110.308913,-1532.190996
3855.373828,-9992.780217,-370.102971,-1072.533697
3855.374158,-10510.924376,0.000000,-995.924147
3855.374488,-10658.965565,-518.144159,-1762.019645
3855.374817,-10140.821405,-962.267725,-2451.505594
3855.375147,-10807.006753,-2368.659014,-1838.629195
3855.375477,-10214.842000,-2072.576638,-612.876398
3855.375807,-9992.780217,-1924.535449,-459.657299
3855.376136,-9104.533087,-2442.679609,-1838.629195
3855.376466,-7698.141797,-1480.411884,-2604.724693
3855.376796,-8734.430116,-1184.329507,-1991.848295
3855.377126,-10362.883188,-1406.391290,-1915.238745
3855.377455,-10807.006753,-1036.288319,-1455.581446
3855.377785,-10362.883188,-2220.617826,-536.266849
3855.378115,-9474.636058,-2294.638420,-766.095498
3855.378445,-9918.759623,-2442.679609,-1532.190996
3855.378774,-9770.718434,-2664.741391,-2221.676944
3855.379104,-9326.594869,-1480.411884,-2221.676944
3855.379434,-9104.533087,-2516.700203,-459.657299
3855.379764,-8734.430116,-2146.597232,689.485948
3855.380093,-9400.615463,-1332.370696,2068.457845
3855.380423,-10362.883188,-1554.432478,-766.095498
3855.380753,-9844.739029,-1406.391290,-1685.410096
3855.381083,-9104.533087,-1776.494261,-3217.601092
3855.381412,-9770.718434,-1258.350101,-3753.867940
3855.381742,-10807.006753,-1924.535449,-2374.896044
3855.382072,-10362.883188,-2294.638420,-1072.533697
3855.382402,-7920.203579,-2812.782580,-1685.410096
3855.382731,-7846.182985,-2368.659014,-1532.190996
3855.383061,-10510.924376,-2368.659014,-2068.457845
3855.383391,-10807.006753,-1702.473667,-1991.848295
3855.383721,-10881.027347,-1628.453072,-995.924147
3855.384050,-10658.965565,-1480.411884,0.000000
3855.384380,-9622.677246,-1702.473667,0.000000
3855.384710,-9474.636058,-2368.659014,-1302.362347
3855.385040,-8290.306550,-1850.514855,-306.438199
3855.385369,-9844.739029,-1776.494261,153.219100
3855.385699,-10288.862594,-1850.514855,0.000000
3855.386029,-10140.821405,-2146.597232,842.705048
3855.386359,-10955.047942,-1036.288319,1455.581446
3855.386688,-10288.862594,-666.185348,919.314598
3855.387018,-10732.986159,-814.226536,-842.705048
3855.387348,-10288.862594,-222.061783,-1225.752797
3855.387678,-9474.636058,-814.226536,306.438199
3855.388007,-9178.553681,-444.123565,1378.971896
3855.388337,-9770.718434,-888.247130,919.314598
3855.388667,-10436.903782,-296.082377,766.095498
3855.388997,-8882.471304,-444.123565,-919.314598
3855.389326,-9252.574275,-370.102971,-1762.019645
3855.389656,-9474.636058,296.082377,-1072.533697
3855.389986,-10658.965565,222.061783,0.000000
3855.390316,-11103.089130,148.041188,995.924147
3855.390645,-9622.677246,-666.185348,1455.581446
3855.390975,-8956.491898,-518.144159,229.828649
3855.391305,-10214.842000,-666.185348,383.047749
3855.391635,-9992.780217,-962.267725,306.438199
3855.391964,-7476.080014,-888.247130,306.438199
3855.392294,-7254.018232,-1184.329507,0.000000
3855.392624,-7994.224174,0.000000,1532.190996
3855.392954,-10066.800811,592.164754,1915.238745
3855.393283,-9696.697840,1480.411884,1455.581446
3855.393613,-10288.862594,888.247130,153.219100
3855.393943,-10510.924376,1110.308913,229.828649
3855.394273,-10732.986159,222.061783,995.924147
3855.394602,-10658.965565,1110.308913,2528.115143
3855.394932,-9252.574275,666.185348,2451.505594
3855.395262,-8956.491898,1258.350101,1225.752797
3855.395592,-8660.409521,1998.556043,229.828649
3855.395921,-10881.027347,3108.864956,536.266849
3855.396251,-12139.377449,3997.112087,-383.047749
3855.396581,-12435.459826,3404.947333,-1072.533697
3855.396911,-11029.068536,3552.988522,-1072.533697
3855.397240,-10510.924376,2368.659014,0.000000
3855.397570,-9844.739029,2294.638420,-842.705048
3855.397900,-9474.636058,444.123565,536.266849
3855.398230,-9326.594869,888.247130,76.609550
3855.398559,-9400.615463,-592.164754,1225.752797
3855.398889,-9178.553681,1258.350101,1915.238745
3855.399219,-8734.430116,222.061783,2757.943793
3855.399549,-9844.739029,740.205942,1685.410096
3855.399878,-9326.594869,666.185348,842.705048
3855.400208,-8364.327145,444.123565,0.000000
3855.400538,-8956.491898,1110.308913,995.924147
3855.400868,-9844.739029,592.164754,689.485948
3855.401197,-9844.739029,1702.473667,689.485948
3855.401527,-9844.739029,222.061783,0.000000
3855.401857,-9844.739029,1184.329507,-1455.581446
3855.402187,-10066.800811,296.082377,-1378.971896
3855.402516,-10584.944971,962.267725,-1072.533697
3855.402846,-8808.450710,518.144159,-1072.533697
3855.403176,-7550.100608,2146.597232,-536.266849
3855.403506,-8586.388927,1702.473667,-459.657299
3855.403835,-10955.047942,1924.535449,766.095498
3855.404165,-11177.109724,2294.638420,383.047749
3855.404495,-11325.150913,1258.350101,-536.266849
3855.404825,-11917.315666,370.102971,-919.314598
3855.405154,-11177.109724,-962.267725,459.657299
3855.405484,-10436.903782,-74.020594,995.924147
3855.405814,-9326.594869,-1110.308913,76.609550
3855.406144,-9622.677246,-370.102971,-1072.533697
3855.406473,-9104.533087,-666.185348,-612.876398
3855.406803,-9474.636058,-666.185348,76.609550
3855.407133,-9474.636058,370.102971,1225.752797
3855.407463,-9696.697840,74.020594,1302.362347
3855.407792,-9104.533087,-370.102971,383.047749
3855.408122,-9622.677246,-518.144159,459.657299
3855.408452,-11399.171507,-592.164754,766.095498
3855.408782,-11251.130318,-1184.329507,995.924147
3855.409111,-10066.800811,-962.267725,1149.143247
3855.409441,-8882.471304,-1406.391290,1149.143247
3855.409771,-8438.347739,-1628.453072,536.266849
3855.410101,-7994.224174,-1480.411884,153.219100
3855.410430,-8882.471304,-222.061783,766.095498
3855.410760,-9622.677246,740.205942,153.219100
3855.411090,-10066.800811,0.000000,-919.314598
3855.411420,-9770.718434,-222.061783,-1225.752797
3855.411749,-9770.718434,-518.144159,0.000000
3855.412079,-10214.842000,-888.247130,153.219100
3855.412409,-9844.739029,-1258.350101,-689.485948
3855.412739,-10362.883188,-1554.432478,-1149.143247
3855.413068,-9252.574275,-1850.514855,153.219100
3855.413398,-9104.533087,-1480.411884,842.705048
3855.413728,-9844.739029,-1036.288319,1225.752797
3855.414058,-9918.759623,-2220.617826,1532.190996
3855.414387,-9104.533087,-1184.329507,1302.362347
3855.414717,-9030.512492,-1332.370696,842.705048
3855.415047,-10140.821405,0.000000,459.657299
3855.415377,-10510.924376,-518.144159,229.828649
3855.415706,-10658.965565,-1258.350101,0.000000
3855.416036,-9844.739029,-74.020594,689.485948
3855.416366,-10362.883188,0.000000,1685.410096
3855.416696,-10955.047942,-1184.329507,1072.533697
3855.417025,-9326.594869,-1406.391290,1685.410096
3855.417355,-9252.574275,296.082377,2221.676944
3855.417685,-9918.759623,592.164754,1685.410096
3855.418015,-10881.027347,1480.411884,1149.143247
3855.418344,-11103.089130,1110.308913,-383.047749
3855.418674,-9992.780217,1406.391290,-2068.457845
3855.419004,-10362.883188,1332.370696,-2068.457845
3855.419334,-11473.192101,740.205942,-1149.143247
3855.419663,-9474.636058,296.082377,-1378.971896
3855.419993,-8956.491898,74.020594,-1608.800546
3855.420323,-7994.224174,0.000000,-2528.115143
3855.420653,-9178.553681,518.144159,-1608.800546
3855.420982,-9474.636058,962.267725,-1378.971896
3855.421312,-9770.718434,0.000000,766.095498
3855.421642,-9548.656652,518.144159,1762.019645
3855.421972,-9696.697840,148.041188,1455.581446
3855.422301,-9178.553681,740.205942,1072.533697
3855.422631,-8512.368333,444.123565,612.876398
3855.422961,-9622.677246,1110.308913,459.657299
3855.423291,-10066.800811,296.082377,536.266849
3855.423620,-10436.903782,444.123565,-229.828649
3855.423950,-9104.533087,592.164754,306.438199
3855.424280,-9104.533087,296.082377,612.876398
3855.424610,-8956.491898,1184.329507,76.609550
3855.424939,-9770.718434,592.164754,229.828649
3855.425269,-9770.718434,1554.432478,153.219100
3855.425599,-9400.615463,1480.411884,383.047749
3855.425929,-9770.718434,1258.350101,842.705048
3855.426258,-10658.965565,1776.494261,995.924147
3855.426588,-11177.109724,1924.535449,1072.533697
3855.426918,-10732.986159,1850.514855,-229.828649
3855.427248,-10436.903782,1554.432478,-1149.143247
3855.427577,-11029.068536,962.267725,-1072.533697
3855.427907,-10362.883188,592.164754,-612.876398
3855.428237,-9326.594869,1110.308913,0.000000
3855.428567,-9104.533087,74.020594,689.485948
3855.428896,-9400.615463,222.061783,1072.533697
3855.429226,-9696.697840,148.041188,1149.143247
3855.429556,-10214.842000,222.061783,766.095498
3855.429886,-9770.718434,74.020594,842.705048
3855.430215,-9030.512492,-296.082377,1455.581446
3855.430545,-8586.388927,-370.102971,1455.581446
3855.430875,-9178.553681,0.000000,1072.533697
3855.431205,-10288.862594,-222.061783,689.485948
3855.431534,-9326.594869,-814.226536,383.047749
3855.431864,-9400.615463,-296.082377,842.705048
3855.432194,-10288.862594,222.061783,842.705048
3855.432524,-10658.965565,0.000000,919.314598
3855.432853,-9622.677246,370.102971,-153.219100
3855.433183,-9178.553681,518.144159,76.609550
3855.433513,-10436.903782,592.164754,-689.485948
3855.433843,-10658.965565,0.000000,-1378.971896
3855.434172,-9770.718434,-296.082377,-919.314598
3855.434502,-9252.574275,-592.164754,-306.438199
3855.434832,-9770.718434,-370.102971,306.438199
3855.435162,-11695.253884,-370.102971,842.705048
3855.435491,-11769.274478,-666.185348,0.000000
3855.435821,-9178.553681,-1258.350101,-1225.752797
3855.436151,-8364.327145,-1184.329507,153.219100
3855.436481,-9326.594869,-1036.288319,1915.238745
3855.436810,-10732.986159,-518.144159,2757.943793
3855.437140,-9770.718434,-1036.288319,1991.848295
3855.437470,-9400.615463,-1184.329507,0.000000
3855.437800,-10436.903782,-962.267725,-459.657299
3855.438129,-11399.171507,-888.247130,-383.047749
3855.438459,-9918.759623,-1110.308913,153.219100
3855.438789,-7920.203579,-962.267725,1685.410096
3855.439119,-7698.141797,-666.185348,1225.752797
3855.439448,-10214.842000,148.041188,-229.828649
3855.439778,-11029.068536,370.102971,-612.876398
3855.440108,-9770.718434,0.000000,-383.047749
3855.440438,-9992.780217,962.267725,0.000000
3855.440767,-10214.842000,370.102971,766.095498
3855.441097,-11103.089130,444.123565,766.095498
3855.441427,-9844.739029,0.000000,-383.047749
3855.441757,-10214.842000,-518.144159,-2068.457845
3855.442086,-9252.574275,-296.082377,-3064.381992
3855.442416,-9622.677246,-888.247130,-2298.286494
3855.442746,-8364.327145,0.000000,-306.438199
3855.443076,-8142.265362,-666.185348,1685.410096
3855.443405,-9252.574275,370.102971,689.485948
3855.443735,-9474.636058,-962.267725,-766.095498
3855.444065,-10732.986159,-148.041188,-1608.800546
3855.444395,-9474.636058,-296.082377,-612.876398
3855.444724,-9992.780217,0.000000,1225.752797
3855.445054,-9844.739029,-296.082377,1608.800546
3855.445384,-9030.512492,-1406.391290,536.266849
3855.445714,-8438.347739,-888.247130,536.266849
3855.446043,-8808.450710,0.000000,153.219100
3855.446373,-9770.718434,370.102971,0.000000
3855.446703,-10140.821405,74.020594,459.657299
3855.447033,-9400.615463,222.061783,919.314598
3855.447362,-9770.718434,1332.370696,2221.676944
3855.447692,-10362.883188,1036.288319,842.705048
3855.448022,-10140.821405,814.226536,-1149.143247
3855.448352,-10066.800811,888.247130,-1838.629195
3855.448681,-10881.027347,1776.494261,-842.705048
3855.449011,-11695.253884,444.123565,-842.705048
3855.449341,-10510.924376,148.041188,-919.314598
3855.449671,-9696.697840,0.000000,0.000000
3855.450000,-9844.739029,148.041188,383.047749
3855.450330,-9622.677246,74.020594,0.000000
3855.450660,-10066.800811,74.020594,459.657299
3855.450990,-9104.533087,0.000000,1149.143247
3855.451319,-8882.471304,-222.061783,995.924147
3855.451649,-8290.306550,592.164754,919.314598
3855.451979,-9400.615463,-296.082377,1532.190996
3855.452309,-10214.842000,148.041188,1302.362347
3855.452638,-9992.780217,-444.123565,1225.752797
3855.452968,-9770.718434,0.000000,153.219100
3855.453298,-9326.594869,-518.144159,-306.438199
3855.453628,-9474.636058,-444.123565,1302.362347
3855.453957,-9622.677246,296.082377,2221.676944
3855.454287,-9992.780217,666.185348,612.876398
3855.454617,-8290.306550,592.164754,-689.485948
3855.454947,-9400.615463,296.082377,-383.047749
3855.455276,-10362.883188,1406.391290,766.095498
3855.455606,-11621.233289,1184.329507,1072.533697
3855.455936,-10362.883188,2072.576638,-306.438199
3855.456266,-10584.944971,518.144159,-1838.629195
3855.456595,-9844.739029,814.226536,-2145.067394
3855.456925,-10140.821405,74.020594,-689.485948
3855.457255,-10658.965565,296.082377,153.219100
3855.457585,-9696.697840,222.061783,1302.362347
3855.457914,-9696.697840,222.061783,1838.629195
3855.458244,-9474.636058,148.041188,1608.800546
3855.458574,-9622.677246,370.102971,76.609550
3855.458904,-9400.615463,0.000000,-383.047749
3855.459233,-9030.512492,-370.102971,383.047749
3855.459563,-9252.574275,148.041188,1915.238745
3855.459893,-9844.739029,74.020594,2068.457845
3855.460223,-11621.233289,444.123565,1149.143247
3855.460552,-9992.780217,-666.185348,0.000000
3855.460882,-9104.533087,0.000000,229.828649
3855.461212,-9400.615463,-222.061783,1149.143247
3855.461542,-10066.800811,0.000000,1762.019645
3855.461871,-9326.594869,0.000000,995.924147
3855.462201,-8734.430116,592.164754,76.609550
3855.462531,-8438.347739,1406.391290,-842.705048
3855.462861,-10510.924376,666.185348,-1225.752797
3855.463191,-11695.253884,962.267725,-995.924147
3855.463520,-10436.903782,518.144159,-459.657299
3855.463850,-9326.594869,518.144159,-1532.190996
3855.464180,-9326.594869,0.000000,-1915.238745
3855.464510,-10955.047942,370.102971,-1378.971896
3855.464839,-10362.883188,-740.205942,-1072.533697
3855.465169,-9400.615463,-814.226536,-612.876398
3855.465499,-8512.368333,-296.082377,0.000000
3855.465829,-9400.615463,-592.164754,766.095498
3855.466158,-9770.718434,74.020594,1991.848295
3855.466488,-9844.739029,-666.185348,1225.752797
3855.466818,-9696.697840,-1184.329507,383.047749
3855.467148,-9178.553681,-296.082377,0.000000
3855.467477,-9548.656652,-1406.391290,995.924147
3855.467807,-10140.821405,-1184.329507,1915.238745
3855.468137,-9622.677246,-1184.329507,995.924147
3855.468467,-9178.553681,-814.226536,689.485948
3855.468797,-8734.430116,-666.185348,306.438199
3855.469126,-10140.821405,222.061783,229.828649
3855.469456,-11399.171507,296.082377,689.485948
3855.469786,-10658.965565,962.267725,-842.705048
3855.470116,-9326.594869,296.082377,-1838.629195
3855.470445,-10214.842000,444.123565,-1455.581446
3855.470775,-10732.986159,740.205942,-459.657299
3855.471105,-10807.006753,-148.041188,0.000000
3855.471435,-9918.759623,222.061783,-919.314598
3855.471764,-9770.718434,-592.164754,-995.924147
3855.472094,-10288.862594,-740.205942,0.000000
3855.472424,-9844.739029,-1554.432478,995.924147
3855.472754,-9474.636058,-1184.329507,1685.410096
3855.473084,-9622.677246,-1258.350101,1762.019645
3855.473413,-8660.409521,-1184.329507,2145.067394
3855.473743,-8438.347739,-1480.411884,1608.800546
3855.474073,-8290.306550,-814.226536,919.314598
3855.474403,-9696.697840,-370.102971,1608.800546
3855.474732,-10955.047942,0.000000,1532.190996
3855.475062,-9400.615463,148.041188,689.485948
3855.475392,-9696.697840,222.061783,842.705048
3855.475722,-10066.800811,-74.020594,229.828649
3855.476051,-11325.150913,296.082377,-766.095498
3855.476381,-9992.780217,370.102971,-1608.800546
3855.476711,-9474.636058,814.226536,-766.095498
3855.477041,-9400.615463,1480.411884,0.000000
3855.477370,-9992.780217,592.164754,-229.828649
3855.477700,-9622.677246,1406.391290,-1225.752797
3855.478030,-9474.636058,888.247130,-1225.752797
3855.478360,-10214.842000,962.267725,-1149.143247
3855.478690,-10214.842000,518.144159,383.047749
3855.479019,-10510.924376,592.164754,1149.143247
3855.479349,-9992.780217,74.020594,459.657299
3855.479679,-9992.780217,148.041188,-153.219100
3855.480009,-9844.739029,296.082377,-689.485948
3855.480338,-10140.821405,0.000000,-536.266849
3855.480668,-8438.347739,444.123565,0.000000
3855.480998,-9030.512492,0.000000,1378.971896
3855.481328,-9474.636058,222.061783,1838.629195
3855.481657,-8660.409521,-370.102971,1532.190996
3855.481987,-9400.615463,222.061783,459.657299
3855.482317,-8660.409521,666.185348,-306.438199
3855.482647,-9622.677246,0.000000,153.219100
3855.482976,-9548.656652,962.267725,1072.533697
3855.483306,-9770.718434,518.144159,1378.971896
3855.483636,-10214.842000,1184.329507,1455.581446
3855.483966,-10955.047942,0.000000,153.219100
3855.484296,-10584.944971,666.185348,-459.657299
3855.484625,-9844.739029,0.000000,0.000000
3855.484955,-9178.553681,1036.288319,0.000000
3855.485285,-9030.512492,74.020594,0.000000
3855.485615,-10288.862594,1332.370696,229.828649
3855.485944,-8808.450710,370.102971,-1302.362347
3855.486274,-8660.409521,592.164754,-1838.629195
3855.486604,-9992.780217,1332.370696,-612.876398
3855.486934,-12065.356855,444.123565,0.000000
3855.487263,-11769.274478,370.102971,-612.876398
3855.487593,-8956.491898,-444.123565,-766.095498
3855.487923,-8956.491898,-666.185348,-76.609550
3855.488253,-8956.491898,-1110.308913,1149.143247
3855.488582,-10140.821405,-296.082377,766.095498
3855.488912,-8734.430116,-1258.350101,842.705048
3855.489242,-8438.347739,-814.226536,1838.629195
3855.489572,-9400.615463,-1184.329507,2834.553343
3855.489902,-10584.944971,-148.041188,1915.238745
3855.490231,-10955.047942,1332.370696,1378.971896
3855.490561,-10584.944971,-666.185348,-1072.533697
3855.490891,-9252.574275,-666.185348,-1378.971896
3855.491221,-9474.636058,-370.102971,-153.219100
3855.491550,-11325.150913,0.000000,766.095498
3855.491880,-9992.780217,-592.164754,1225.752797
3855.492210,-8068.244768,-888.247130,995.924147
3855.492540,-8068.244768,-444.123565,0.000000
3855.492869,-10362.883188,0.000000,0.000000
3855.493199,-11621.233289,518.144159,0.000000
3855.493529,-11103.089130,222.061783,-306.438199
3855.493859,-9992.780217,666.185348,-459.657299
3855.494188,-10214.842000,0.000000,-306.438199
3855.494518,-11029.068536,-370.102971,0.000000
3855.494848,-10288.862594,-592.164754,-153.219100
3855.495178,-8068.244768,-814.226536,-306.438199
3855.495508,-7920.203579,-370.102971,0.000000
3855.495837,-9992.780217,-370.102971,1225.752797
3855.496167,-9548.656652,0.000000,2145.067394
3855.496497,-9844.739029,0.000000,536.266849
3855.496827,-9696.697840,0.000000,-229.828649
3855.497156,-9992.780217,-370.102971,0.000000
3855.497486,-10436.903782,0.000000,1455.581446
3855.497816,-9252.574275,-296.082377,1915.238745
3855.498146,-8882.471304,-148.041188,766.095498
3855.498475,-7994.224174,0.000000,76.609550
3855.498805,-10288.862594,518.144159,153.219100
3855.499135,-10732.986159,592.164754,689.485948
3855.499465,-10066.800811,518.144159,0.000000
3855.499795,-8882.471304,1110.308913,-919.314598
3855.500124,-9326.594869,148.041188,-612.876398
3855.500454,-10140.821405,740.205942,153.219100
3855.500784,-9622.677246,74.020594,153.219100
3855.501114,-9030.512492,666.185348,-383.047749
3855.501443,-10214.842000,1036.288319,-459.657299
3855.501773,-10955.047942,666.185348,-459.657299
3855.502103,-10658.965565,518.144159,919.314598
3855.502433,-10140.821405,740.205942,1915.238745
3855.502762,-9104.533087,888.247130,1991.848295
3855.503092,-9326.594869,148.041188,1149.143247
3855.503422,-9326.594869,74.020594,612.876398
3855.503752,-10066.800811,0.000000,1302.362347
3855.504081,-10214.842000,1036.288319,689.485948
3855.504411,-9844.739029,296.082377,0.000000
3855.504741,-9104.533087,962.267725,229.828649
3855.505071,-10066.800811,1332.370696,536.266849
3855.505401,-10732.986159,1036.288319,76.609550
3855.505730,-10214.842000,740.205942,-1072.533697
3855.506060,-10066.800811,962.267725,-1915.238745
3855.506390,-9548.656652,518.144159,-689.485948
3855.506720,-10362.883188,222.061783,536.266849
3855.507049,-9178.553681,222.061783,1378.971896
3855.507379,-9844.739029,-74.020594,383.047749
3855.507709,-9474.636058,444.123565,-612.876398
3855.508039,-10436.903782,-148.041188,-536.266849
3855.508368,-9326.594869,1110.308913,0.000000
3855.508698,-9622.677246,0.000000,306.438199
3855.509028,-10732.986159,518.144159,153.219100
3855.509358,-11325.150913,-592.164754,229.828649
3855.509687,-11103.089130,-666.185348,-1532.190996
3855.510017,-8216.285956,-1554.432478,-1991.848295
3855.510347,-8068.244768,-1554.432478,-919.314598
3855.510677,-7624.121203,-1036.288319,689.485948
3855.511007,-8290.306550,-1110.308913,1685.410096
3855.511336,-9178.553681,0.000000,2374.896044
3855.511666,-9992.780217,-222.061783,1378.971896
3855.511996,-10584.944971,148.041188,153.219100
3855.512326,-10214.842000,-740.205942,-766.095498
3855.512655,-10436.903782,0.000000,-229.828649
3855.512985,-10584.944971,-888.247130,383.047749
3855.513315,-10140.821405,-740.205942,995.924147
3855.513645,-9252.574275,-666.185348,0.000000
3855.513974,-9252.574275,-444.123565,-689.485948
3855.514304,-8660.409521,-296.082377,-1149.143247
3855.514634,-9326.594869,148.041188,-995.924147
3855.514964,-9770.718434,962.267725,0.000000
3855.515293,-11251.130318,-148.041188,153.219100
3855.515623,-10510.924376,148.041188,0.000000
3855.515953,-10066.800811,74.020594,689.485948
3855.516283,-10658.965565,296.082377,383.047749
3855.516613,-10658.965565,-222.061783,459.657299
3855.516942,-11547.212695,0.000000,0.000000
3855.517272,-9844.739029,-592.164754,306.438199
3855.517602,-9844.739029,-740.205942,1302.362347
3855.517932,-9104.533087,-148.041188,1455.581446
3855.518261,-8882.471304,-814.226536,1608.800546
3855.518591,-8660.409521,296.082377,612.876398
3855.518921,-8216.285956,0.000000,76.609550
3855.519251,-9326.594869,666.185348,0.000000
3855.519580,-10584.944971,518.144159,459.657299
3855.519910,-11103.089130,740.205942,1149.143247
3855.520240,-9992.780217,74.020594,536.266849
3855.520570,-10214.842000,-148.041188,0.000000
3855.520899,-9696.697840,-370.102971,383.047749
3855.521229,-10140.821405,-518.144159,76.609550
3855.521559,-8882.471304,-740.205942,689.485948
3855.521889,-8882.471304,370.102971,842.705048
3855.522219,-9548.656652,296.082377,612.876398
3855.522548,-8660.409521,518.144159,-306.438199
3855.522878,-8882.471304,1110.308913,-612.876398
3855.523208,-10140.821405,1554.432478,-153.219100
3855.523538,-11769.274478,1184.329507,-76.609550
3855.523867,-10214.842000,814.226536,229.828649
3855.524197,-9696.697840,370.102971,-536.266849
3855.524527,-9918.759623,444.123565,-459.657299
3855.524857,-10362.883188,148.041188,229.828649
3855.525186,-10066.800811,-370.102971,306.438199
3855.525516,-8882.471304,-370.102971,1149.143247
3855.525846,-9326.594869,666.185348,1302.362347
3855.526176,-9474.636058,814.226536,612.876398
3855.526506,-9548.656652,1036.288319,0.000000
3855.526835,-9548.656652,2072.576638,612.876398
3855.527165,-11103.089130,1332.370696,536.266849
3855.527495,-12287.418637,1184.329507,0.000000
3855.527825,-11399.171507,592.164754,-229.828649
3855.528154,-9770.718434,0.000000,-306.438199
3855.528484,-9622.677246,-148.041188,-306.438199
3855.528814,-10658.965565,148.041188,612.876398
3855.529144,-9474.636058,-518.144159,459.657299
3855.529473,-8142.265362,0.000000,383.047749
3855.529803,-8586.388927,148.041188,612.876398
3855.530133,-10955.047942,296.082377,536.266849
3855.530463,-11621.233289,814.226536,612.876398
3855.530792,-10288.862594,-296.082377,383.047749
3855.531122,-8290.306550,-814.226536,0.000000
3855.531452,-8956.491898,-1184.329507,0.000000
3855.531782,-9992.780217,-370.102971,0.000000
3855.532112,-10288.862594,-888.247130,-383.047749
3855.532441,-9326.594869,-740.205942,-1685.410096
3855.532771,-8956.491898,-962.267725,-536.266849
3855.533101,-9178.553681,-1258.350101,0.000000
3855.533431,-8586.388927,-1258.350101,153.219100
3855.533760,-7476.080014,-1184.329507,1149.143247
3855.534090,-7772.162391,0.000000,1072.533697
3855.534420,-9548.656652,0.000000,-612.876398
3855.534750,-10362.883188,444.123565,-1378.971896
3855.535079,-10214.842000,-518.144159,-612.876398
3855.535409,-10807.006753,666.185348,766.095498
3855.535739,-10881.027347,-888.247130,995.924147
3855.536069,-12139.377449,-814.226536,842.705048
3855.536398,-11103.089130,-444.123565,306.438199
3855.536728,-9474.636058,-888.247130,-383.047749
3855.537058,-8290.306550,-222.061783,-1225.752797
3855.537388,-9252.574275,-148.041188,-1225.752797
3855.537718,-9992.780217,814.226536,-612.876398
3855.538047,-9622.677246,592.164754,-76.609550
3855.538377,-9622.677246,666.185348,153.219100
3855.538707,-11177.109724,0.000000,612.876398
3855.539037,-11621.233289,-370.102971,995.924147
3855.539366,-11251.130318,-666.185348,1072.533697
3855.539696,-9622.677246,-518.144159,766.095498
3855.540026,-9474.636058,-1554.432478,842.705048
3855.540356,-9326.594869,-1332.370696,1455.581446
3855.540685,-8660.409521,-814.226536,2834.553343
3855.541015,-8808.450710,-592.164754,2451.505594
3855.541345,-9178.553681,370.102971,306.438199
3855.541675,-9622.677246,74.020594,-919.314598
3855.542004,-8882.471304,518.144159,-1532.190996
3855.542334,-9622.677246,444.123565,153.219100
3855.542664,-10510.924376,1036.288319,919.314598
3855.542994,-10510.924376,-222.061783,842.705048
3855.543324,-9992.780217,296.082377,76.609550
3855.543653,-9104.533087,-518.144159,-995.924147
3855.543983,-10214.842000,518.144159,-995.924147
3855.544313,-9622.677246,814.226536,-459.657299
3855.544643,-9918.759623,888.247130,-536.266849
3855.544972,-8882.471304,962.267725,-536.266849
3855.545302,-8808.450710,814.226536,-766.095498
3855.545632,-9548.656652,1258.350101,-689.485948
3855.545962,-10066.800811,296.082377,-995.924147
3855.546291,-9918.759623,962.267725,-689.485948
3855.546621,-9104.533087,296.082377,689.485948
3855.546951,-9622.677246,518.144159,1302.362347
3855.547281,-9844.739029,814.226536,1072.533697
3855.547610,-10658.965565,814.226536,0.000000
3855.547940,-10362.883188,444.123565,76.609550
3855.548270,-10214.842000,370.102971,536.266849
3855.548600,-10214.842000,1036.288319,1378.971896
3855.548930,-9400.615463,962.267725,229.828649
3855.549259,-8808.450710,1110.308913,-383.047749
3855.549589,-9474.636058,1036.288319,-153.219100
3855.549919,-10066.800811,1628.453072,-229.828649
3855.550249,-10955.047942,1184.329507,536.266849
3855.550578,-9696.697840,1332.370696,536.266849
3855.550908,-10066.800811,1036.288319,1072.533697
3855.551238,-12139.377449,1554.432478,76.609550
3855.551568,-12287.418637,296.082377,-306.438199
3855.551897,-11473.192101,-296.082377,-995.924147
3855.552227,-8808.450710,-296.082377,-1225.752797
3855.552557,-9178.553681,-740.205942,153.219100
3855.552887,-9548.656652,-740.205942,1532.190996
3855.553217,-7624.121203,-1480.411884,1685.410096
3855.553546,-7994.224174,-148.041188,1378.971896
3855.553876,-10214.842000,-296.082377,612.876398
3855.554206,-11991.336260,-370.102971,0.000000
3855.554536,-9474.636058,-1628.453072,-229.828649
3855.554865,-8142.265362,-1998.556043,1149.143247
3855.555195,-8734.430116,-1850.514855,2604.724693
3855.555525,-9918.759623,-2072.576638,1915.238745
3855.555855,-9104.533087,-1628.453072,229.828649
3855.556184,-8364.327145,-1258.350101,-995.924147
3855.556514,-8882.471304,-666.185348,-919.314598
3855.556844,-10362.883188,-444.123565,689.485948
3855.557174,-10140.821405,-444.123565,536.266849
3855.557503,-9030.512492,0.000000,-766.095498
3855.557833,-9622.677246,-518.144159,-1608.800546
3855.558163,-10807.006753,-296.082377,-1608.800546
3855.558493,-11177.109724,-666.185348,-1608.800546
3855.558823,-10140.821405,-592.164754,-689.485948
3855.559152,-9992.780217,-74.020594,-1072.533697
3855.559482,-10288.862594,-1036.288319,-153.219100
3855.559812,-9474.636058,-962.267725,-689.485948
3855.560142,-8660.409521,-1036.288319,306.438199
3855.560471,-9252.574275,-518.144159,536.266849
3855.560801,-9474.636058,-444.123565,1762.019645
3855.561131,-9474.636058,-592.164754,2834.553343
3855.561461,-10140.821405,-296.082377,3064.381992
3855.561790,-11547.212695,148.041188,2451.505594
3855.562120,-12731.542202,74.020594,306.438199
3855.562450,-10658.965565,-222.061783,-1072.533697
3855.562780,-8956.491898,-444.123565,-689.485948
3855.563109,-8586.388927,0.000000,1762.019645
3855.563439,-10584.944971,-74.020594,2451.505594
3855.563769,-9548.656652,370.102971,383.047749
3855.564099,-7624.121203,74.020594,-153.219100
3855.564429,-9474.636058,1110.308913,919.314598
3855.564758,-11399.171507,148.041188,306.438199
3855.565088,-10881.027347,1184.329507,-459.657299
3855.565418,-8882.471304,148.041188,689.485948
3855.565748,-10066.800811,518.144159,766.095498
3855.566077,-11177.109724,592.164754,842.705048
3855.566407,-11325.150913,444.123565,1149.143247
3855.566737,-9178.553681,740.205942,-383.047749
3855.567067,-7920.203579,222.061783,-766.095498
3855.567396,-9474.636058,1258.350101,-842.705048
3855.567726,-9770.718434,518.144159,459.657299
3855.568056,-8956.491898,962.267725,-536.266849
3855.568386,-7105.977043,740.205942,-1762.019645
3855.568715,-8364.327145,1036.288319,-1302.362347
3855.569045,-9696.697840,1110.308913,-536.266849
3855.569375,-10214.842000,740.205942,-153.219100
3855.569705,-10214.842000,666.185348,0.000000
3855.570035,-10658.965565,370.102971,0.000000
3855.570364,-9474.636058,1184.329507,-612.876398
3855.570694,-8364.327145,74.020594,-459.657299
3855.571024,-9622.677246,1998.556043,1149.143247
3855.571354,-10658.965565,1554.432478,1608.800546
3855.571684,-11251.130318,1554.432478,76.609550
3855.572013,-9918.759623,1258.350101,-1685.410096
3855.572343,-11103.089130,740.205942,-1378.971896
3855.572673,-10436.903782,1258.350101,842.705048
3855.573003,-10214.842000,518.144159,842.705048
3855.573333,-9252.574275,74.020594,-306.438199
3855.573662,-8586.388927,222.061783,-153.219100
3855.573992,-10214.842000,962.267725,1455.581446
3855.574322,-10955.047942,222.061783,1302.362347
3855.574652,-10955.047942,1258.350101,1149.143247
3855.574982,-11029.068536,296.082377,1302.362347
3855.575311,-11251.130318,-370.102971,1915.238745
3855.575641,-9918.759623,-962.267725,2451.505594
3855.575971,-9030.512492,-1332.370696,1991.848295
3855.576301,-7698.141797,-1184.329507,689.485948
3855.576630,-8512.368333,-888.247130,1455.581446
3855.576960,-9326.594869,-518.144159,2298.286494
3855.577290,-9400.615463,-444.123565,1991.848295
3855.577620,-10140.821405,-444.123565,536.266849
3855.577950,-11103.089130,-592.164754,1149.143247
3855.578279,-9104.533087,-148.041188,153.219100
3855.578609,-8956.491898,-666.185348,-459.657299
3855.578939,-10807.006753,0.000000,-995.924147
3855.579269,-10584.944971,-1036.288319,153.219100
3855.579599,-9474.636058,-1406.391290,-229.828649
3855.579928,-7476.080014,-814.226536,-919.314598
3855.580258,-9030.512492,-1184.329507,0.000000
3855.580588,-9844.739029,0.000000,766.095498
3855.580918,-9770.718434,-592.164754,-612.876398
3855.581248,-9622.677246,222.061783,-1302.362347
3855.581577,-10362.883188,296.082377,-383.047749
3855.581907,-12953.603985,740.205942,1608.800546
3855.582237,-12361.439231,-518.144159,1302.362347
3855.582567,-10658.965565,0.000000,-1838.629195
3855.582897,-8734.430116,-1184.329507,-3064.381992
3855.583226,-8882.471304,-1406.391290,-2068.457845
3855.583556,-9400.615463,-296.082377,842.705048
3855.583886,-9178.553681,-666.185348,1991.848295
3855.584216,-8216.285956,-592.164754,1302.362347
3855.584546,-8290.306550,-148.041188,766.095498
3855.584875,-9622.677246,0.000000,459.657299
3855.585205,-11399.171507,0.000000,459.657299
3855.585535,-11769.274478,370.102971,0.000000
3855.585865,-10584.944971,-74.020594,229.828649
3855.586194,-10955.047942,0.000000,612.876398
3855.586524,-10362.883188,-666.185348,459.657299
3855.586854,-10066.800811,-148.041188,0.000000
3855.587184,-9030.512492,-222.061783,-766.095498
3855.587514,-7624.121203,-370.102971,-1532.190996
3855.587843,-8660.409521,0.000000,-383.047749
3855.588173,-9104.533087,0.000000,229.828649
3855.588503,-10140.821405,814.226536,1455.581446
3855.588833,-10584.944971,222.061783,306.438199
3855.589163,-10066.800811,0.000000,-1072.533697
3855.589492,-9252.574275,74.020594,-919.314598
3855.589822,-10288.862594,-444.123565,229.828649
3855.590152,-10140.821405,-370.102971,306.438199
3855.590482,-9474.636058,-444.123565,1149.143247
3855.590812,-8808.450710,-444.123565,1072.533697
3855.591141,-8734.430116,-296.082377,1225.752797
3855.591471,-9030.512492,0.000000,1455.581446
3855.591801,-8956.491898,592.164754,383.047749
3855.592131,-9622.677246,1332.370696,-459.657299
3855.592461,-9104.533087,1554.432478,-766.095498
3855.592790,-10436.903782,666.185348,-766.095498
3855.593120,-11251.130318,1184.329507,0.000000
3855.593450,-11621.233289,444.123565,0.000000
3855.593780,-10436.903782,592.164754,-1762.019645
3855.594109,-9696.697840,222.061783,-1225.752797
3855.594439,-8956.491898,592.164754,153.219100
3855.594769,-8660.409521,444.123565,689.485948
3855.595099,-9474.636058,1036.288319,1149.143247
3855.595429,-9474.636058,1480.411884,842.705048
3855.595758,-10436.903782,962.267725,0.000000
3855.596088,-10510.924376,1184.329507,0.000000
3855.596418,-11325.150913,296.082377,766.095498
3855.596748,-10807.006753,0.000000,1225.752797
3855.597078,-10584.944971,-296.082377,1072.533697
3855.597407,-8586.388927,222.061783,1685.410096
3855.597737,-8512.368333,296.082377,1608.800546
3855.598067,-9104.533087,1036.288319,1608.800546
3855.598397,-10066.800811,0.000000,1838.629195
3855.598727,-10214.842000,814.226536,1455.581446
3855.599056,-8808.450710,444.123565,1608.800546
3855.599386,-9844.739029,444.123565,1685.410096
3855.599716,-10362.883188,1480.411884,1302.362347
3855.600046,-10955.047942,1036.288319,76.609550
3855.600376,-10140.821405,740.205942,-229.828649
3855.600705,-10955.047942,1184.329507,76.609550
3855.601035,-10955.047942,1258.350101,459.657299
3855.601365,-10066.800811,0.000000,229.828649
3855.601695,-9178.553681,148.041188,459.657299
3855.602024,-9178.553681,0.000000,689.485948
3855.602354,-9548.656652,296.082377,-383.047749
3855.602684,-9178.553681,-370.102971,-995.924147
3855.603014,-9178.553681,222.061783,-536.266849
3855.603344,-9918.759623,0.000000,-229.828649
3855.603673,-10436.903782,148.041188,842.705048
3855.604003,-9770.718434,0.000000,842.705048
3855.604333,-9622.677246,-666.185348,0.000000
3855.604663,-9326.594869,-370.102971,0.000000
3855.604993,-9992.780217,-888.247130,536.266849
3855.605322,-9844.739029,-518.144159,1072.533697
3855.605652,-8882.471304,-1110.308913,1072.533697
3855.605982,-9918.759623,74.020594,306.438199
3855.606312,-9918.759623,-518.144159,-459.657299
3855.606642,-8660.409521,-814.226536,-995.924147
3855.606971,-7624.121203,-444.123565,-1072.533697
3855.607301,-9030.512492,-592.164754,-383.047749
3855.607631,-9918.759623,0.000000,842.705048
3855.607961,-10362.883188,-370.102971,766.095498
3855.608291,-10362.883188,370.102971,-383.047749
3855.608620,-10288.862594,-962.267725,-1072.533697
3855.608950,-10658.965565,-296.082377,0.000000
3855.609280,-9622.677246,-1036.288319,306.438199
3855.609610,-9844.739029,-740.205942,76.609550
3855.609939,-9178.553681,0.000000,153.219100
3855.610269,-10140.821405,0.000000,-919.314598
3855.610599,-9918.759623,740.205942,-2451.505594
3855.610929,-10362.883188,0.000000,-2834.553343
3855.611259,-11695.253884,148.041188,-919.314598
3855.611588,-10214.842000,-1258.350101,306.438199
3855.611918,-8956.491898,-814.226536,536.266849
3855.612248,-9104.533087,-1184.329507,459.657299
3855.612578,-9770.718434,-1480.411884,229.828649
3855.612908,-9104.533087,-1036.288319,612.876398
3855.613237,-8882.471304,-740.205942,612.876398
3855.613567,-8808.450710,-370.102971,1685.410096
3855.613897,-10214.842000,0.000000,1915.238745
3855.614227,-10658.965565,74.020594,612.876398
3855.614557,-9770.718434,-370.102971,-689.485948
3855.614886,-9474.636058,444.123565,-919.314598
3855.615216,-10955.047942,-222.061783,-842.705048
3855.615546,-10955.047942,222.061783,-689.485948
3855.615876,-9474.636058,-296.082377,-383.047749
3855.616206,-9548.656652,592.164754,-766.095498
3855.616535,-9918.759623,-74.020594,-766.095498
3855.616865,-10732.986159,0.000000,-1378.971896
3855.617195,-9696.697840,0.000000,-842.705048
3855.617525,-9770.718434,-444.123565,-766.095498
3855.617855,-9400.615463,-370.102971,1225.752797
3855.618184,-9622.677246,-1258.350101,2298.286494
3855.618514,-9696.697840,-370.102971,1915.238745
3855.618844,-7846.182985,-1406.391290,842.705048
3855.619174,-8068.244768,-296.082377,0.000000
3855.619503,-9548.656652,-1184.329507,1149.143247
3855.619833,-10955.047942,-370.102971,2145.067394
3855.620163,-9326.594869,-370.102971,3140.991542
3855.620493,-9252.574275,0.000000,1991.848295
3855.620823,-8808.450710,592.164754,1072.533697
3855.621152,-9400.615463,222.061783,536.266849
3855.621482,-9622.677246,814.226536,0.000000
3855.621812,-9622.677246,1110.308913,842.705048
3855.622142,-10510.924376,1406.391290,536.266849
3855.622472,-10288.862594,1776.494261,-306.438199
3855.622801,-10732.986159,1406.391290,-919.314598
3855.623131,-9844.739029,962.267725,-689.485948
3855.623461,-10362.883188,1480.411884,76.609550
3855.623791,-10362.883188,1480.411884,-76.609550
3855.624121,-10362.883188,666.185348,0.000000
3855.624450,-9252.574275,1480.411884,153.219100
3855.624780,-9770.718434,592.164754,306.438199
3855.625110,-10732.986159,1036.288319,0.000000
3855.625440,-10140.821405,1036.288319,153.219100
3855.625770,-10214.842000,1036.288319,229.828649
3855.626099,-9400.615463,814.226536,306.438199
3855.626429,-10066.800811,444.123565,153.219100
3855.626759,-9548.656652,0.000000,-459.657299
3855.627089,-9474.636058,-296.082377,-842.705048
3855.627418,-8808.450710,148.041188,0.000000
3855.627748,-9326.594869,0.000000,1378.971896
3855.628078,-9400.615463,444.123565,1072.533697
3855.628408,-9104.533087,148.041188,612.876398
3855.628738,-9104.533087,592.164754,-383.047749
3855.629067,-10436.903782,518.144159,-383.047749
3855.629397,-10436.903782,444.123565,0.000000
3855.629727,-11029.068536,1036.288319,1072.533697
3855.630057,-10881.027347,1184.329507,689.485948
3855.630387,-10140.821405,444.123565,-1225.752797
3855.630716,-9474.636058,0.000000,-2681.334243
3855.631046,-9030.512492,0.000000,-1378.971896
3855.631376,-10066.800811,0.000000,-919.314598
3855.631706,-9548.656652,74.020594,-612.876398
3855.632036,-9178.553681,-666.185348,0.000000
3855.632365,-9178.553681,-148.041188,229.828649
3855.632695,-8956.491898,-740.205942,-459.657299
3855.633025,-9844.739029,-814.226536,-919.314598
3855.633355,-9548.656652,-888.247130,229.828649
3855.633685,-9252.574275,-888.247130,1455.581446
3855.634014,-9400.615463,-814.226536,2834.553343
3855.634344,-11103.089130,-888.247130,2987.772442
3855.634674,-10214.842000,-888.247130,1608.800546
3855.635004,-9474.636058,-814.226536,0.000000
3855.635333,-8882.471304,-740.205942,-1378.971896
3855.635663,-8512.368333,-740.205942,306.438199
3855.635993,-9474.636058,1184.329507,2298.286494
3855.636323,-10214.842000,814.226536,1838.629195
3855.636653,-10066.800811,962.267725,-1149.143247
3855.636982,-10214.842000,666.185348,-2221.676944
3855.637312,-11917.315666,370.102971,-383.047749
3855.637642,-12435.459826,74.020594,1685.410096
3855.637972,-11103.089130,0.000000,2145.067394
3855.638302,-9252.574275,-666.185348,689.485948
3855.638631,-8216.285956,-592.164754,-459.657299
3855.638961,-10214.842000,-296.082377,-1072.533697
3855.639291,-11251.130318,-592.164754,-306.438199
3855.639621,-9548.656652,-740.205942,1762.019645
3855.639951,-8660.409521,-148.041188,2298.286494
3855.640280,-9030.512492,-222.061783,1608.800546
3855.640610,-9030.512492,-518.144159,459.657299
3855.640940,-9474.636058,-666.185348,-536.266849
3855.641270,-9770.718434,-1036.288319,-995.924147
3855.641600,-10066.800811,-518.144159,689.485948
3855.641929,-9918.759623,0.000000,2068.457845
3855.642259,-9992.780217,-518.144159,1302.362347
3855.642589,-8586.388927,-592.164754,0.000000
3855.642919,-8438.347739,-296.082377,-2068.457845
3855.643249,-9474.636058,518.144159,-2068.457845
3855.643578,-9770.718434,1184.329507,0.000000
3855.643908,-10658.965565,1332.370696,995.924147
3855.644238,-9622.677246,1480.411884,-842.705048
3855.644568,-10510.924376,1110.308913,-1915.238745
3855.644897,-10288.862594,592.164754,-2298.286494
3855.645227,-10658.965565,148.041188,-689.485948
3855.645557,-10288.862594,370.102971,766.095498
3855.645887,-10066.800811,1036.288319,1378.971896
3855.646217,-9918.759623,518.144159,0.000000
3855.646546,-10732.986159,296.082377,-1072.533697
3855.646876,-10066.800811,370.102971,-1532.190996
3855.647206,-9844.739029,0.000000,-842.705048
3855.647536,-9696.697840,-370.102971,766.095498
3855.647866,-9104.533087,-296.082377,1915.238745
3855.648195,-8216.285956,-592.164754,1302.362347
3855.648525,-8290.306550,-592.164754,0.000000
3855.648855,-9770.718434,-370.102971,0.000000
3855.649185,-10510.924376,0.000000,306.438199
3855.649515,-10584.944971,74.020594,1532.190996
3855.649844,-10140.821405,0.000000,2298.286494
3855.650174,-9696.697840,-592.164754,1608.800546
3855.650504,-9400.615463,-592.164754,842.705048
3855.650834,-9474.636058,-74.020594,-612.876398
3855.651164,-9918.759623,888.247130,-1378.971896
3855.651493,-9548.656652,0.000000,-1225.752797
3855.651823,-9770.718434,444.123565,-459.657299
3855.652153,-9696.697840,370.102971,-306.438199
3855.652483,-10955.047942,0.000000,-766.095498
3855.652812,-9252.574275,0.000000,-1149.143247
3855.653142,-9400.615463,-740.205942,-689.485948
3855.653472,-9030.512492,0.000000,612.876398
3855.653802,-9474.636058,-666.185348,1991.848295
3855.654132,-10955.047942,0.000000,1838.629195
3855.654461,-10510.924376,-666.185348,383.047749
3855.654791,-9696.697840,0.000000,383.047749
3855.655121,-9400.615463,-444.123565,153.219100
3855.655451,-9844.739029,-814.226536,76.609550
3855.655781,-8734.430116,-444.123565,3064.381992
3855.656110,-8290.306550,814.226536,2221.676944
3855.656440,-9474.636058,814.226536,459.657299
3855.656770,-10584.944971,444.123565,-766.095498
3855.657100,-10732.986159,0.000000,-153.219100
3855.657430,-9992.780217,444.123565,2221.676944
3855.657759,-9918.759623,518.144159,2834.553343
3855.658089,-9918.759623,666.185348,2374.896044
3855.658419,-10362.883188,1332.370696,0.000000
3855.658749,-9918.759623,888.247130,-842.705048
3855.659079,-9770.718434,592.164754,76.609550
3855.659408,-10362.883188,1258.350101,1608.800546
3855.659738,-11103.089130,592.164754,2068.457845
3855.660068,-10658.965565,1480.411884,1608.800546
3855.660398,-9326.594869,370.102971,-1072.533697
3855.660727,-9622.677246,666.185348,-1991.848295
3855.661057,-9844.739029,814.226536,-842.705048
3855.661387,-10658.965565,0.000000,612.876398
3855.661717,-9104.533087,296.082377,1762.019645
3855.662047,-8882.471304,444.123565,2528.115143
3855.662376,-10140.821405,518.144159,1302.362347
3855.662706,-10436.903782,-296.082377,153.219100
3855.663036,-9918.759623,222.061783,0.000000
3855.663366,-8142.265362,370.102971,76.609550
3855.663696,-8586.388927,740.205942,919.314598
3855.664025,-9696.697840,814.226536,536.266849
3855.664355,-9918.759623,296.082377,229.828649
3855.664685,-10436.903782,962.267725,536.266849
3855.665015,-9992.780217,74.020594,-383.047749
3855.665345,-9918.759623,888.247130,-1608.800546
3855.665674,-9622.677246,370.102971,-995.924147
3855.666004,-8216.285956,1110.308913,689.485948
3855.666334,-8586.388927,666.185348,-153.219100
3855.666664,-11399.171507,1406.391290,-995.924147
3855.666993,-11843.295072,814.226536,-1225.752797
3855.667323,-10658.965565,1036.288319,-1685.410096
3855.667653,-8660.409521,-74.020594,-2298.286494
3855.667982,-9474.636058,-222.061783,-1532.190996
3855.668312,-10658.965565,370.102971,0.000000
3855.668642,-10732.986159,0.000000,-306.438199
3855.668971,-8512.368333,-296.082377,-3447.429741
3855.669301,-7846.182985,-1554.432478,-2145.067394
3855.669630,-9252.574275,-814.226536,459.657299
3855.669960,-10362.883188,-666.185348,2221.676944
3855.670290,-10140.821405,-814.226536,1991.848295
3855.670619,-8660.409521,-1184.329507,153.219100
3855.670949,-8068.244768,-2072.576638,76.609550
3855.671279,-9548.656652,-1036.288319,919.314598
3855.671608,-10436.903782,-1036.288319,1149.143247
3855.671938,-9252.574275,-888.247130,1455.581446
3855.672268,-8438.347739,-962.267725,1072.533697
3855.672597,-9252.574275,0.000000,689.485948
3855.672927,-11399.171507,-222.061783,-536.266849
3855.673256,-11695.253884,0.000000,-995.924147
3855.673586,-9696.697840,-444.123565,-766.095498
3855.673916,-9400.615463,-74.020594,229.828649
3855.674245,-10362.883188,-74.020594,459.657299
3855.674575,-9844.739029,0.000000,-766.095498
3855.674905,-8956.491898,-740.205942,-919.314598
3855.675234,-8956.491898,0.000000,-459.657299
3855.675564,-10584.944971,0.000000,459.657299
3855.675894,-11251.130318,0.000000,1991.848295
3855.676223,-10140.821405,0.000000,612.876398
3855.676553,-8956.491898,-814.226536,-153.219100
3855.676882,-9400.615463,-1036.288319,-459.657299
3855.677212,-8956.491898,-1184.329507,689.485948
3855.677542,-9252.574275,-814.226536,2068.457845
3855.677871,-8956.491898,-148.041188,2221.676944
3855.678201,-8216.285956,0.000000,1685.410096
3855.678531,-9992.780217,740.205942,1455.581446
3855.678860,-12139.377449,1332.370696,1149.143247
3855.679190,-12287.418637,518.144159,1302.362347
3855.679519,-9992.780217,370.102971,689.485948
3855.679849,-9548.656652,518.144159,919.314598
3855.680179,-10584.944971,888.247130,612.876398
3855.680508,-10436.903782,666.185348,536.266849
3855.680838,-9400.615463,148.041188,0.000000
3855.681168,-8586.388927,888.247130,-919.314598
3855.681497,-8586.388927,740.205942,-919.314598
3855.681827,-10510.924376,592.164754,1532.190996
3855.682157,-10362.883188,370.102971,2757.943793
3855.682486,-9918.759623,296.082377,2145.067394
3855.682816,-9918.759623,370.102971,0.000000
3855.683145,-10955.047942,-74.020594,-842.705048
3855.683475,-10732.986159,0.000000,-229.828649
3855.683805,-9030.512492,0.000000,536.266849
3855.684134,-9104.533087,222.061783,995.924147
3855.684464,-9326.594869,222.061783,919.314598
3855.684794,-8734.430116,0.000000,-383.047749
3855.685123,-8068.244768,0.000000,-612.876398
3855.685453,-8586.388927,74.020594,-1149.143247
3855.685783,-9992.780217,666.185348,-459.657299
3855.686112,-10732.986159,148.041188,0.000000
3855.686442,-10510.924376,0.000000,612.876398
3855.686771,-9696.697840,74.020594,76.609550
3855.687101,-9252.574275,222.061783,-842.705048
3855.687431,-10362.883188,0.000000,-1302.362347
3855.687760,-9992.780217,740.205942,0.000000
3855.688090,-9622.677246,74.020594,306.438199
3855.688420,-9474.636058,0.000000,0.000000
3855.688749,-10066.800811,592.164754,-689.485948
3855.689079,-10436.903782,0.000000,-2068.457845
3855.689409,-9474.636058,518.144159,-2221.676944
3855.689738,-9622.677246,0.000000,-1302.362347
3855.690068,-11473.192101,444.123565,-1072.533697
3855.690397,-9696.697840,-666.185348,-919.314598
3855.690727,-9474.636058,0.000000,0.000000
3855.691057,-9474.636058,0.000000,229.828649
3855.691386,-10288.862594,74.020594,536.266849
3855.691716,-10658.965565,-370.102971,1149.143247
3855.692046,-9918.759623,-592.164754,1915.238745
3855.692375,-9400.615463,-296.082377,2604.724693
3855.692705,-10214.842000,-666.185348,2451.505594
3855.693034,-9622.677246,-370.102971,1915.238745
3855.693364,-10066.800811,-888.247130,306.438199
3855.693694,-8882.471304,-222.061783,-612.876398
3855.694023,-9844.739029,-74.020594,-229.828649
3855.694353,-11251.130318,518.144159,766.095498
3855.694683,-11251.130318,370.102971,383.047749
3855.695012,-9770.718434,222.061783,-459.657299
3855.695342,-9474.636058,-222.061783,-459.657299
3855.695672,-10362.883188,-666.185348,-459.657299
3855.696001,-9770.718434,-666.185348,1302.362347
3855.696331,-8290.306550,-814.226536,2298.286494
3855.696660,-8956.491898,-888.247130,1378.971896
3855.696990,-8734.430116,-1184.329507,76.609550
3855.697320,-9252.574275,-1258.350101,76.609550
3855.697649,-9844.739029,-148.041188,1225.752797
3855.697979,-9844.739029,-296.082377,2068.457845
3855.698309,-9326.594869,-296.082377,1378.971896
3855.698638,-9474.636058,-74.020594,1915.238745
3855.698968,-9400.615463,296.082377,459.657299
3855.699298,-9696.697840,444.123565,-1149.143247
3855.699627,-10362.883188,0.000000,-1608.800546
3855.699957,-9622.677246,0.000000,0.000000
3855.700286,-9030.512492,666.185348,1225.752797
3855.700616,-9252.574275,1184.329507,612.876398
3855.700946,-9844.739029,518.144159,-383.047749
3855.701275,-9918.759623,592.164754,-1378.971896
3855.701605,-9992.780217,1332.370696,-1455.581446
3855.701935,-9918.759623,1110.308913,689.485948
3855.702264,-11251.130318,1702.473667,1991.848295
3855.702594,-11325.150913,1110.308913,1225.752797
3855.702924,-10510.924376,666.185348,0.000000
3855.703253,-10436.903782,1480.411884,-1915.238745
3855.703583,-10510.924376,518.144159,-2298.286494
3855.703912,-9770.718434,370.102971,-1072.533697
3855.704242,-8438.347739,814.226536,1608.800546
3855.704572,-9326.594869,592.164754,1915.238745
3855.704901,-10436.903782,962.267725,995.924147
3855.705231,-11325.150913,740.205942,459.657299
3855.705561,-10807.006753,296.082377,-306.438199
3855.705890,-9474.636058,-1110.308913,-1072.533697
3855.706220,-8142.265362,-1110.308913,766.095498
3855.706549,-9178.553681,-740.205942,1991.848295
3855.706879,-9696.697840,-666.185348,1455.581446
3855.707209,-8882.471304,-962.267725,1149.143247
3855.707538,-8512.368333,-370.102971,-612.876398
3855.707868,-9474.636058,-296.082377,-1072.533697
3855.708198,-9030.512492,0.000000,153.219100
3855.708527,-8808.450710,444.123565,1302.362347
3855.708857,-8808.450710,0.000000,919.314598
3855.709187,-9104.533087,296.082377,-612.876398
3855.709516,-11621.233289,592.164754,-919.314598
3855.709846,-11621.233289,0.000000,-1149.143247
3855.710175,-10140.821405,148.041188,-1608.800546
3855.710505,-8956.491898,0.000000,-1685.410096
3855.710835,-9400.615463,74.020594,-1991.848295
3855.711164,-8956.491898,-74.020594,-1455.581446
3855.711494,-9030.512492,-222.061783,-1072.533697
3855.711824,-9918.759623,296.082377,-1302.362347
3855.712153,-10807.006753,0.000000,-766.095498
3855.712483,-10214.842000,-592.164754,-536.266849
3855.712813,-9030.512492,-592.164754,0.000000
3855.713142,-10140.821405,-888.247130,766.095498
3855.713472,-9992.780217,-1406.391290,1302.362347
3855.713801,-9992.780217,-962.267725,612.876398
3855.714131,-8808.450710,-592.164754,229.828649
3855.714461,-9844.739029,-370.102971,1378.971896
3855.714790,-10807.006753,-148.041188,1302.362347
3855.715120,-10510.924376,-222.061783,919.314598
3855.715450,-9030.512492,444.123565,842.705048
3855.715779,-9622.677246,0.000000,229.828649
3855.716109,-10658.965565,0.000000,383.047749
3855.716439,-11177.109724,518.144159,0.000000
3855.716768,-10584.944971,444.123565,-766.095498
3855.717098,-9474.636058,148.041188,-919.314598
3855.717427,-10288.862594,0.000000,766.095498
3855.717757,-9918.759623,-518.144159,2221.676944
3855.718087,-9622.677246,-592.164754,2145.067394
3855.718416,-8660.409521,-370.102971,919.314598
3855.718746,-8512.368333,-518.144159,536.266849
3855.719076,-9918.759623,0.000000,1225.752797
3855.719405,-10510.924376,-592.164754,1455.581446
3855.719735,-10362.883188,-370.102971,1378.971896
3855.720064,-9474.636058,-296.082377,1072.533697
3855.720394,-9030.512492,-740.205942,612.876398
3855.720724,-9030.512492,-444.123565,536.266849
3855.721053,-9030.512492,-74.020594,1532.190996
3855.721383,-8882.471304,666.185348,1072.533697
3855.721713,-9622.677246,222.061783,536.266849
3855.722042,-9548.656652,888.247130,229.828649
3855.722372,-10214.842000,1036.288319,919.314598
3855.722702,-10214.842000,2072.576638,0.000000
3855.723031,-9548.656652,814.226536,-153.219100
3855.723361,-10066.800811,1332.370696,-383.047749
3855.723690,-10362.883188,1332.370696,-306.438199
3855.724020,-11029.068536,1628.453072,0.000000
3855.724350,-10584.944971,1776.494261,-612.876398
3855.724679,-9844.739029,962.267725,-459.657299
3855.725009,-9474.636058,1184.329507,-383.047749
3855.725339,-10214.842000,1036.288319,0.000000
3855.725668,-10066.800811,1332.370696,306.438199
3855.725998,-9844.739029,370.102971,76.609550
3855.726328,-10066.800811,1036.288319,-153.219100
3855.726657,-11103.089130,296.082377,-153.219100
3855.726987,-10436.903782,1554.432478,229.828649
3855.727316,-9326.594869,0.000000,-229.828649
3855.727646,-8956.491898,148.041188,306.438199
3855.727976,-9696.697840,814.226536,536.266849
3855.728305,-11029.068536,296.082377,0.000000
3855.728635,-10510.924376,444.123565,383.047749
3855.728965,-9474.636058,0.000000,612.876398
3855.729294,-8512.368333,0.000000,1532.190996
3855.729624,-9030.512492,-74.020594,1532.190996
3855.729953,-8808.450710,-296.082377,383.047749
3855.730283,-8734.430116,74.020594,0.000000
3855.730613,-9400.615463,888.247130,229.828649
3855.730942,-10807.006753,814.226536,383.047749
3855.731272,-11177.109724,370.102971,-229.828649
3855.731602,-9918.759623,592.164754,-383.047749
3855.731931,-9548.656652,296.082377,-383.047749
3855.732261,-9918.759623,0.000000,-612.876398
3855.732591,-9400.615463,-296.082377,-612.876398
3855.732920,-8956.491898,-296.082377,229.828649
3855.733250,-8512.368333,-370.102971,842.705048
3855.733579,-9400.615463,-296.082377,766.095498
3855.733909,-9326.594869,-444.123565,229.828649
3855.734239,-9844.739029,-740.205942,-689.485948
3855.734568,-9030.512492,-1258.350101,-919.314598
3855.734898,-9252.574275,74.020594,1072.533697
3855.735228,-10807.006753,0.000000,1225.752797
3855.735557,-10732.986159,-666.185348,689.485948
3855.735887,-9474.636058,0.000000,0.000000
3855.736217,-8734.430116,-1110.308913,-1072.533697
3855.736546,-10436.903782,-296.082377,-536.266849
3855.736876,-10881.027347,74.020594,1685.410096
3855.737205,-9918.759623,-518.144159,1991.848295
3855.737535,-9104.533087,0.000000,1378.971896
3855.737865,-10140.821405,444.123565,995.924147
3855.738194,-11103.089130,222.061783,689.485948
3855.738524,-11695.253884,444.123565,-1072.533697
3855.738854,-10732.986159,-148.041188,-536.266849
3855.739183,-9474.636058,-888.247130,766.095498
3855.739513,-9252.574275,222.061783,153.219100
3855.739843,-9770.718434,-962.267725,-459.657299
3855.740172,-11177.109724,-962.267725,-766.095498
3855.740502,-9030.512492,-1406.391290,0.000000
3855.740831,-8438.347739,-1480.411884,1378.971896
3855.741161,-8660.409521,-148.041188,1838.629195
3855.741491,-9696.697840,-370.102971,1838.629195
3855.741820,-9992.780217,-814.226536,1302.362347
3855.742150,-9326.594869,-814.226536,153.219100
3855.742480,-10362.883188,-296.082377,-536.266849
3855.742809,-11325.150913,-592.164754,-229.828649
3855.743139,-10288.862594,-296.082377,459.657299
3855.743468,-7624.121203,-888.247130,459.657299
3855.743798,-8216.285956,-222.061783,153.219100
3855.744128,-9104.533087,444.123565,0.000000
3855.744457,-9770.718434,296.082377,-1378.971896
3855.744787,-8734.430116,888.247130,-1685.410096
3855.745117,-9104.533087,666.185348,-766.095498
3855.745446,-11621.233289,1258.350101,383.047749
3855.745776,-12139.377449,518.144159,1225.752797
3855.746106,-10807.006753,444.123565,919.314598
3855.746435,-9326.594869,74.020594,-842.705048
3855.746765,-9548.656652,0.000000,-1225.752797
3855.747094,-9474.636058,-296.082377,-612.876398
3855.747424,-9326.594869,0.000000,1302.362347
3855.747754,-8882.471304,0.000000,919.314598
3855.748083,-9696.697840,0.000000,0.000000
3855.748413,-9844.739029,74.020594,-995.924147
3855.748743,-8882.471304,-370.102971,-536.266849
3855.749072,-9474.636058,740.205942,76.609550
3855.749402,-10214.842000,1036.288319,459.657299
3855.749732,-11029.068536,370.102971,0.000000
3855.750061,-10658.965565,888.247130,0.000000
3855.750391,-10214.842000,296.082377,459.657299
3855.750720,-10066.800811,370.102971,995.924147
3855.751050,-9844.739029,296.082377,1991.848295
3855.751380,-9474.636058,444.123565,919.314598
3855.751709,-8586.388927,222.061783,459.657299
3855.752039,-8734.430116,370.102971,0.000000
3855.752369,-10214.842000,740.205942,842.705048
3855.752698,-10732.986159,1036.288319,383.047749
3855.753028,-10066.800811,592.164754,383.047749
3855.753358,-10732.986159,888.247130,689.485948
3855.753687,-10732.986159,592.164754,153.219100
3855.754017,-9474.636058,-370.102971,-383.047749
3855.754346,-8438.347739,296.082377,766.095498
3855.754676,-11103.089130,592.164754,229.828649
3855.755006,-10584.944971,0.000000,0.000000
3855.755335,-8290.306550,-740.205942,-229.828649
3855.755665,-8438.347739,370.102971,-536.266849
3855.755995,-9770.718434,74.020594,536.266849
3855.756324,-10732.986159,518.144159,919.314598
3855.756654,-9770.718434,148.041188,306.438199
3855.756983,-8660.409521,296.082377,-383.047749
3855.757313,-9104.533087,0.000000,0.000000
3855.757643,-10658.965565,-74.020594,229.828649
3855.757972,-11103.089130,0.000000,1302.362347
3855.758302,-9992.780217,-518.144159,612.876398
3855.758632,-8586.388927,-370.102971,459.657299
3855.758961,-8660.409521,-1258.350101,229.828649
3855.759291,-9178.553681,0.000000,383.047749
3855.759621,-8956.491898,0.000000,1149.143247
3855.759950,-11103.089130,814.226536,842.705048
3855.760280,-10066.800811,888.247130,459.657299
3855.760609,-9696.697840,370.102971,-229.828649
3855.760939,-9918.759623,518.144159,-1225.752797
3855.761269,-10807.006753,444.123565,-306.438199
3855.761598,-11251.130318,74.020594,536.266849
3855.761928,-10066.800811,-74.020594,0.000000
3855.762258,-7846.182985,-222.061783,0.000000
3855.762587,-8808.450710,222.061783,-306.438199
3855.762917,-10362.883188,74.020594,0.000000
3855.763247,-10510.924376,-370.102971,459.657299
3855.763576,-9548.656652,-370.102971,459.657299
3855.763906,-9844.739029,-444.123565,995.924147
3855.764235,-10362.883188,-666.185348,1608.800546
3855.764565,-9104.533087,-1036.288319,2145.067394
3855.764895,-8956.491898,-222.061783,1302.362347
3855.765224,-9918.759623,74.020594,995.924147
3855.765554,-10066.800811,0.000000,689.485948
3855.765884,-10214.842000,-518.144159,-383.047749
3855.766213,-9770.718434,222.061783,-919.314598
3855.766543,-9252.574275,296.082377,229.828649
3855.766872,-10140.821405,-296.082377,1072.533697
3855.767202,-9326.594869,-296.082377,0.000000
3855.767532,-8512.368333,-1110.308913,-919.314598
3855.767861,-9548.656652,0.000000,-766.095498
3855.768191,-11029.068536,-518.144159,76.609550
3855.768521,-12213.398043,0.000000,842.705048
3855.768850,-9844.739029,-148.041188,1455.581446
3855.769180,-9548.656652,-666.185348,-536.266849
3855.769509,-8512.368333,-444.123565,-1608.800546
3855.769839,-9252.574275,-888.247130,-1608.800546
3855.770169,-9770.718434,-222.061783,-306.438199
3855.770498,-9548.656652,-444.123565,306.438199
3855.770828,-10881.027347,592.164754,0.000000
3855.771158,-10140.821405,-148.041188,-536.266849
3855.771487,-10288.862594,-740.205942,-919.314598
3855.771817,-8956.491898,-592.164754,-536.266849
3855.772146,-7772.162391,-1332.370696,383.047749
3855.772476,-9030.512492,-962.267725,1072.533697
3855.772806,-8586.388927,-740.205942,919.314598
3855.773135,-8808.450710,-222.061783,612.876398
3855.773465,-9918.759623,148.041188,689.485948
3855.773795,-10362.883188,518.144159,76.609550
3855.774124,-10066.800811,444.123565,76.609550
3855.774454,-10584.944971,1110.308913,-153.219100
3855.774783,-10066.800811,888.247130,-459.657299
3855.775113,-10066.800811,74.020594,306.438199
3855.775443,-9622.677246,1036.288319,842.705048
3855.775772,-10658.965565,962.267725,229.828649
3855.776102,-10510.924376,962.267725,-766.095498
3855.776432,-9770.718434,518.144159,-536.266849
3855.776761,-9474.636058,592.164754,0.000000
3855.777091,-9770.718434,1110.308913,1455.581446
3855.777420,-11399.171507,1258.350101,2068.457845
3855.777750,-11029.068536,1258.350101,1455.581446
3855.778080,-9326.594869,370.102971,0.000000
3855.778409,-8586.388927,1110.308913,-766.095498
3855.778739,-10955.047942,1036.288319,536.266849
3855.779069,-12139.377449,888.247130,1532.190996
3855.779398,-10658.965565,148.041188,1532.190996
3855.779728,-8438.347739,0.000000,1225.752797
3855.780057,-7550.100608,-370.102971,1378.971896
3855.780387,-8808.450710,444.123565,1225.752797
3855.780717,-8586.388927,-148.041188,1455.581446
3855.781046,-9400.615463,444.123565,1838.629195
3855.781376,-9326.594869,1110.308913,2374.896044
3855.781706,-11399.171507,1332.370696,2068.457845
3855.782035,-11547.212695,1184.329507,766.095498
3855.782365,-10510.924376,1406.391290,-766.095498
3855.782694,-9622.677246,222.061783,-1302.362347
3855.783024,-10362.883188,518.144159,-919.314598
3855.783354,-10214.842000,814.226536,-1455.581446
3855.783683,-8364.327145,-444.123565,-1532.190996
3855.784013,-7846.182985,0.000000,-995.924147
3855.784343,-8882.471304,740.205942,-76.609550
3855.784672,-11177.109724,518.144159,306.438199
3855.785002,-10658.965565,0.000000,-842.705048
3855.785331,-9178.553681,-296.082377,-306.438199
3855.785661,-9770.718434,-296.082377,153.219100
3855.785991,-11843.295072,-592.164754,383.047749
3855.786320,-10288.862594,-740.205942,1838.629195
3855.786650,-8438.347739,-1184.329507,1072.533697
3855.786980,-6957.935855,-814.226536,306.438199
3855.787309,-7920.203579,-222.061783,306.438199
3855.787639,-10807.006753,296.082377,766.095498
3855.787968,-11029.068536,296.082377,689.485948
3855.788298,-9622.677246,444.123565,0.000000
3855.788628,-9474.636058,592.164754,-1225.752797
3855.788957,-10955.047942,592.164754,-1149.143247
3855.789287,-11029.068536,0.000000,-1302.362347
3855.789617,-10510.924376,148.041188,-842.705048
3855.789946,-9178.553681,-222.061783,-842.705048
3855.790276,-10288.862594,296.082377,-459.657299
3855.790605,-9770.718434,148.041188,0.000000
3855.790935,-9178.553681,-222.061783,0.000000
3855.791265,-9474.636058,0.000000,383.047749
3855.791594,-9844.739029,-296.082377,766.095498
3855.791924,-11473.192101,-518.144159,995.924147
3855.792254,-10881.027347,-444.123565,1608.800546
3855.792583,-9696.697840,-962.267725,1072.533697
3855.792913,-8068.244768,-1258.350101,76.609550
3855.793242,-8734.430116,-1332.370696,-383.047749
3855.793572,-10362.883188,-666.185348,689.485948
3855.793902,-10436.903782,-518.144159,1532.190996
3855.794231,-9178.553681,-1036.288319,459.657299
3855.794561,-8438.347739,-1258.350101,153.219100
3855.794891,-9400.615463,-666.185348,0.000000
3855.795220,-9104.533087,-962.267725,459.657299
3855.795550,-8882.471304,-370.102971,306.438199
3855.795879,-8290.306550,-370.102971,689.485948
3855.796209,-9696.697840,0.000000,1455.581446
3855.796539,-10584.944971,444.123565,1455.581446
3855.796868,-11621.233289,0.000000,536.266849
3855.797198,-11029.068536,814.226536,-536.266849
3855.797528,-11103.089130,0.000000,-995.924147
3855.797857,-10658.965565,-74.020594,-1991.848295
3855.798187,-9696.697840,-444.123565,-1072.533697
3855.798516,-9178.553681,0.000000,689.485948
3855.798846,-8956.491898,-74.020594,919.314598
3855.799176,-9178.553681,1184.329507,-459.657299
3855.799505,-8808.450710,296.082377,-1991.848295
3855.799835,-10436.903782,-296.082377,-1838.629195
3855.800165,-10658.965565,-370.102971,612.876398
3855.800494,-11547.212695,-1036.288319,2451.505594
3855.800824,-10510.924376,-740.205942,1685.410096
3855.801153,-8660.409521,-1480.411884,612.876398
3855.801483,-7698.141797,-1110.308913,536.266849
3855.801813,-8660.409521,0.000000,1149.143247
3855.802142,-10214.842000,740.205942,1225.752797
3855.802472,-10066.800811,0.000000,919.314598
3855.802802,-9030.512492,814.226536,229.828649
3855.803131,-8290.306550,666.185348,0.000000
3855.803461,-10807.006753,592.164754,-383.047749
3855.803790,-11843.295072,592.164754,-1838.629195
3855.804120,-10658.965565,-74.020594,-1225.752797
3855.804450,-8290.306550,592.164754,-459.657299
3855.804779,-8142.265362,1110.308913,1378.971896
3855.805109,-10955.047942,1480.411884,1072.533697
3855.805439,-11103.089130,1110.308913,153.219100
3855.805768,-10288.862594,1184.329507,0.000000
3855.806098,-9474.636058,592.164754,0.000000
3855.806427,-10510.924376,296.082377,689.485948
3855.806757,-10658.965565,74.020594,1532.190996
3855.807087,-8956.491898,0.000000,1532.190996
3855.807416,-7920.203579,0.000000,383.047749
3855.807746,-9104.533087,740.205942,-229.828649
3855.808076,-10214.842000,740.205942,-1378.971896
3855.808405,-9696.697840,592.164754,-919.314598
3855.808735,-9474.636058,1110.308913,1149.143247
3855.809064,-10881.027347,1406.391290,1991.848295
3855.809394,-11251.130318,74.020594,1378.971896
3855.809724,-8956.491898,0.000000,383.047749
3855.810053,-7772.162391,-1110.308913,-76.609550
3855.810383,-8808.450710,518.144159,536.266849
3855.810713,-9770.718434,814.226536,1915.238745
3855.811042,-10807.006753,1406.391290,1532.190996
3855.811372,-10066.800811,1628.453072,689.485948
3855.811701,-10214.842000,1110.308913,-689.485948
3855.812031,-11399.171507,592.164754,-612.876398
3855.812361,-11843.295072,1036.288319,0.000000
3855.812690,-9474.636058,814.226536,153.219100
3855.813020,-9474.636058,666.185348,0.000000
3855.813350,-9770.718434,1036.288319,-1378.971896
3855.813679,-9326.594869,-74.020594,-2145.067394
3855.814009,-9326.594869,296.082377,-1302.362347
3855.814338,-8882.471304,0.000000,76.609550
3855.814668,-9770.718434,-444.123565,1532.190996
3855.814998,-9696.697840,0.000000,1838.629195
3855.815327,-10510.924376,-888.247130,1225.752797
3855.815657,-9030.512492,-666.185348,766.095498
3855.815987,-10140.821405,-814.226536,76.609550
3855.816316,-10658.965565,-296.082377,536.266849
3855.816646,-9548.656652,-1406.391290,1149.143247
3855.816975,-8660.409521,-666.185348,306.438199
3855.817305,-8586.388927,-592.164754,306.438199
3855.817635,-10066.800811,-444.123565,-919.314598
3855.817964,-9178.553681,-592.164754,-1532.190996
3855.818294,-7772.162391,-370.102971,-1149.143247
3855.818624,-9252.574275,0.000000,-383.047749
3855.818953,-11177.109724,-592.164754,919.314598
3855.819283,-10807.006753,0.000000,1149.143247
3855.819612,-9918.759623,-444.123565,229.828649
3855.819942,-9844.739029,74.020594,-229.828649
3855.820272,-11399.171507,-148.041188,0.000000
3855.820601,-11473.192101,-74.020594,-306.438199
3855.820931,-10066.800811,-740.205942,0.000000
3855.821261,-8808.450710,-296.082377,-459.657299
3855.821590,-9770.718434,-444.123565,-229.828649
3855.821920,-10066.800811,-444.123565,-612.876398
3855.822249,-9178.553681,-1406.391290,-1149.143247
3855.822579,-8734.430116,-1850.514855,-229.828649
3855.822909,-8808.450710,-1406.391290,919.314598
3855.823238,-9696.697840,-1406.391290,1225.752797
3855.823568,-9770.718434,-888.247130,1608.800546
3855.823898,-8808.450710,-962.267725,1608.800546
3855.824227,-9918.759623,-370.102971,1455.581446
3855.824557,-11251.130318,-592.164754,459.657299
3855.824886,-10955.047942,0.000000,919.314598
3855.825216,-8882.471304,-296.082377,1225.752797
3855.825546,-8586.388927,370.102971,459.657299
3855.825875,-9326.594869,518.144159,-995.924147
3855.826205,-9992.780217,1332.370696,-2374.896044
3855.826535,-10140.821405,1110.308913,-2374.896044
3855.826864,-9252.574275,962.267725,-1302.362347
3855.827194,-9474.636058,814.226536,-459.657299
3855.827523,-10732.986159,518.144159,766.095498
3855.827853,-10140.821405,74.020594,459.657299
3855.828183,-9548.656652,0.000000,689.485948
3855.828512,-9326.594869,0.000000,153.219100
3855.828842,-9696.697840,0.000000,536.266849
3855.829172,-10140.821405,296.082377,1838.629195
3855.829501,-8216.285956,0.000000,2911.162892
3855.829831,-8438.347739,0.000000,2757.943793
3855.830160,-8956.491898,222.061783,1685.410096
3855.830490,-10436.903782,222.061783,0.000000
3855.830820,-10214.842000,1258.350101,612.876398
3855.831149,-8808.450710,296.082377,995.924147
3855.831479,-9178.553681,1332.370696,1072.533697
3855.831809,-9622.677246,1332.370696,1838.629195
3855.832138,-10584.944971,1850.514855,2068.457845
3855.832468,-9844.739029,1332.370696,995.924147
3855.832797,-10066.800811,1924.535449,459.657299
3855.833127,-9770.718434,1998.556043,-1072.533697
3855.833457,-10584.944971,1480.411884,766.095498
3855.833786,-9252.574275,2146.597232,2068.457845
3855.834116,-9918.759623,1332.370696,3294.210641
3855.834446,-10510.924376,2812.782580,2528.115143
3855.834775,-10955.047942,2368.659014,1225.752797
3855.835105,-10881.027347,2368.659014,0.000000
3855.835434,-9548.656652,1924.535449,-612.876398
3855.835764,-10436.903782,1850.514855,689.485948
3855.836094,-9918.759623,1184.329507,2374.896044
3855.836423,-8660.409521,222.061783,3064.381992
3855.836753,-7846.182985,2368.659014,3753.867940
3855.837083,-9178.553681,1406.391290,1838.629195
3855.837412,-8882.471304,2960.823768,1225.752797
3855.837742,-8216.285956,1702.473667,2298.286494
3855.838071,-10288.862594,2738.761985,4749.792088
3855.838401,-11103.089130,3108.864956,5592.497135
3855.838731,-12139.377449,3552.988522,4443.353888
3855.839060,-10214.842000,2886.803174,2451.505594
3855.839390,-9548.656652,3108.864956,1225.752797
3855.839720,-10584.944971,3552.988522,2221.676944
3855.840049,-10807.006753,2146.597232,3217.601092
3855.840379,-9474.636058,2886.803174,2757.943793
3855.840708,-7624.121203,2664.741391,2757.943793
3855.841038,-9104.533087,2590.720797,1225.752797
3855.841368,-9622.677246,2960.823768,-383.047749
3855.841697,-8882.471304,2886.803174,-919.314598
3855.842027,-8364.327145,2960.823768,1915.238745
3855.842357,-9474.636058,3182.885551,5056.230287
3855.842686,-11769.274478,2294.638420,5975.544884
3855.843016,-10362.883188,1702.473667,4443.353888
3855.843345,-9622.677246,1332.370696,2298.286494
3855.843675,-9474.636058,888.247130,1455.581446
3855.844005,-10658.965565,1628.453072,1378.971896
3855.844334,-9844.739029,1184.329507,2298.286494
3855.844664,-7698.141797,2442.679609,3064.381992
3855.844994,-7698.141797,3182.885551,2374.896044
3855.845323,-9844.739029,3627.009116,1762.019645
3855.845653,-11251.130318,4145.153275,153.219100
3855.845982,-11177.109724,3552.988522,-459.657299
3855.846312,-11103.089130,2368.659014,1991.848295
3855.846642,-11473.192101,1850.514855,3524.039291
3855.846971,-10510.924376,1332.370696,3830.477490
3855.847301,-9844.739029,1184.329507,3294.210641
3855.847630,-8586.388927,222.061783,1149.143247
3855.847960,-7772.162391,296.082377,995.924147
3855.848290,-8142.265362,2368.659014,1762.019645
3855.848619,-8808.450710,1628.453072,2911.162892
3855.848949,-10214.842000,2812.782580,4443.353888
3855.849279,-10807.006753,3404.947333,3677.258390
3855.849608,-10362.883188,1554.432478,1915.238745
3855.849938,-10066.800811,666.185348,1072.533697
3855.850267,-9770.718434,1998.556043,1991.848295
3855.850597,-9326.594869,962.267725,3830.477490
3855.850927,-9178.553681,2368.659014,2451.505594
3855.851256,-9104.533087,2812.782580,76.609550
3855.851586,-8956.491898,2368.659014,536.266849
3855.851916,-11621.233289,3627.009116,2221.676944
3855.852245,-11621.233289,2294.638420,2987.772442
3855.852575,-9696.697840,1776.494261,3524.039291
3855.852904,-9918.759623,2442.679609,3217.601092
3855.853234,-9770.718434,1184.329507,2528.115143
3855.853564,-9992.780217,962.267725,2451.505594
3855.853893,-10658.965565,1850.514855,1302.362347
3855.854223,-10066.800811,814.226536,1915.238745
3855.854553,-9400.615463,1184.329507,2451.505594
3855.854882,-9474.636058,1702.473667,2604.724693
3855.855212,-9474.636058,1628.453072,3294.210641
3855.855541,-9992.780217,2220.617826,3140.991542
3855.855871,-8586.388927,1406.391290,2451.505594
3855.856201,-8956.491898,1776.494261,2451.505594
3855.856530,-10732.986159,2664.741391,2681.334243
3855.856860,-9770.718434,1628.453072,2911.162892
3855.857190,-9992.780217,1702.473667,4366.744339
3855.857519,-11399.171507,2220.617826,3294.210641
3855.857849,-11769.274478,1776.494261,1685.410096
3855.858178,-9844.739029,1776.494261,612.876398
3855.858508,-8142.265362,1332.370696,76.609550
3855.858838,-7402.059420,2220.617826,1915.238745
3855.859167,-8068.244768,2294.638420,2068.457845
3855.859497,-9548.656652,1850.514855,1915.238745
3855.859827,-8956.491898,2220.617826,2145.067394
3855.860156,-9030.512492,1554.432478,2451.505594
3855.860486,-9696.697840,888.247130,2374.896044
3855.860815,-10510.924376,1554.432478,3600.648841
3855.861145,-9844.739029,1036.288319,4136.915689
3855.861475,-9030.512492,2368.659014,3983.696590
3855.861804,-9030.512492,3256.906145,1915.238745
3855.862134,-11473.192101,3256.906145,1685.410096
3855.862464,-11399.171507,4293.194464,1838.629195
3855.862793,-11399.171507,5033.400406,2068.457845
3855.863123,-11029.068536,3923.091493,1302.362347
3855.863452,-10214.842000,3330.926739,1455.581446
3855.863782,-9770.718434,2146.597232,1532.190996
3855.864112,-9548.656652,1628.453072,1685.410096
3855.864441,-8586.388927,1628.453072,2221.676944
3855.864771,-8808.450710,1406.391290,3140.991542
3855.865101,-8586.388927,1776.494261,3600.648841
3855.865430,-9474.636058,2960.823768,4213.525239
3855.865760,-10584.944971,2960.823768,3907.087040
3855.866089,-10436.903782,2812.782580,3524.039291
3855.866419,-11177.109724,3256.906145,3064.381992
3855.866749,-11473.192101,2664.741391,2374.896044
3855.867078,-11029.068536,2368.659014,1455.581446
3855.867408,-9252.574275,2294.638420,1302.362347
3855.867738,-8882.471304,2072.576638,1149.143247
3855.868067,-8512.368333,3034.844362,1149.143247
3855.868397,-8808.450710,2146.597232,612.876398
3855.868727,-8956.491898,2368.659014,383.047749
3855.869057,-8290.306550,2146.597232,536.266849
3855.869386,-9400.615463,2516.700203,2068.457845
3855.869716,-9326.594869,2072.576638,3447.429741
3855.870046,-10436.903782,1406.391290,3447.429741
3855.870376,-9548.656652,1924.535449,3064.381992
3855.870706,-9252.574275,444.123565,2221.676944
3855.871035,-9548.656652,1406.391290,1838.629195
3855.871365,-9030.512492,1184.329507,2681.334243
3855.871695,-10066.800811,2368.659014,3447.429741
3855.872025,-10807.006753,3256.906145,2604.724693
3855.872354,-9252.574275,2442.679609,229.828649
3855.872684,-9104.533087,2220.617826,76.609550
3855.873014,-10214.842000,2220.617826,306.438199
3855.873344,-10807.006753,2368.659014,2374.896044
3855.873674,-10658.965565,2294.638420,3370.820191
3855.874003,-9326.594869,2294.638420,1915.238745
3855.874333,-9030.512492,1036.288319,2451.505594
3855.874663,-11103.089130,1850.514855,2681.334243
3855.874993,-10288.862594,1776.494261,3370.820191
3855.875322,-9770.718434,1776.494261,5362.668486
3855.875652,-9918.759623,3775.050304,5286.058936
3855.875982,-10658.965565,2516.700203,3907.087040
3855.876312,-11399.171507,2072.576638,2451.505594
3855.876642,-10881.027347,2072.576638,689.485948
3855.876971,-10510.924376,1036.288319,919.314598
3855.877301,-8660.409521,1184.329507,2451.505594
3855.877631,-9178.553681,2146.597232,3217.601092
3855.877961,-8586.388927,1406.391290,3064.381992
3855.878291,-8142.265362,1850.514855,1532.190996
3855.878620,-8586.388927,1924.535449,0.000000
3855.878950,-9548.656652,1258.350101,1378.971896
3855.879280,-9770.718434,2146.597232,2911.162892
3855.879610,-9030.512492,1702.473667,4519.963438
3855.879939,-8586.388927,1702.473667,6281.983084
3855.880269,-9770.718434,2664.741391,4136.915689
3855.880599,-10807.006753,2294.638420,1762.019645
3855.880929,-11399.171507,2442.679609,0.000000
3855.881259,-10955.047942,2516.700203,229.828649
3855.881588,-9178.553681,1998.556043,1685.410096
3855.881918,-8882.471304,2368.659014,2681.334243
3855.882248,-9252.574275,1702.473667,1532.190996
3855.882578,-8586.388927,1480.411884,1225.752797
3855.882907,-8216.285956,2294.638420,76.609550
3855.883237,-9104.533087,2368.659014,229.828649
3855.883567,-10288.862594,2812.782580,2374.896044
3855.883897,-10807.006753,3108.864956,3447.429741
3855.884227,-11251.130318,2442.679609,3753.867940
3855.884556,-10658.965565,2812.782580,2145.067394
3855.884886,-11177.109724,1702.473667,1608.800546
3855.885216,-11103.089130,1776.494261,2145.067394
3855.885546,-9400.615463,2294.638420,2757.943793
3855.885875,-8734.430116,2072.576638,2911.162892
3855.886205,-8290.306550,2664.741391,2528.115143
3855.886535,-8808.450710,2812.782580,2221.676944
3855.886865,-10214.842000,3108.864956,1838.629195
3855.887195,-10807.006753,3552.988522,1378.971896
3855.887524,-11325.150913,2812.782580,229.828649
3855.887854,-11029.068536,1998.556043,0.000000
3855.888184,-10362.883188,1406.391290,766.095498
3855.888514,-9326.594869,0.000000,1455.581446
3855.888843,-7624.121203,148.041188,2451.505594
3855.889173,-6291.750507,740.205942,3677.258390
3855.889503,-7846.182985,1036.288319,3753.867940
3855.889833,-8364.327145,2072.576638,2604.724693
3855.890163,-9252.574275,2664.741391,2374.896044
3855.890492,-10807.006753,2664.741391,1838.629195
3855.890822,-11769.274478,2738.761985,2757.943793
3855.891152,-11917.315666,2294.638420,2834.553343
3855.891482,-10881.027347,1850.514855,2451.505594
3855.891811,-9770.718434,1702.473667,1149.143247
3855.892141,-9474.636058,1110.308913,536.266849
3855.892471,-8808.450710,1184.329507,1762.019645
3855.892801,-8734.430116,2516.700203,2987.772442
3855.893131,-8438.347739,1998.556043,3830.477490
3855.893460,-9030.512492,2590.720797,3370.820191
3855.893790,-10362.883188,2442.679609,1762.019645
3855.894120,-10436.903782,2368.659014,536.266849
3855.894450,-11399.171507,1702.473667,2068.457845
3855.894779,-11029.068536,1332.370696,3064.381992
3855.895109,-10140.821405,1628.453072,3677.258390
3855.895439,-9696.697840,2442.679609,3370.820191
3855.895769,-9178.553681,1850.514855,1762.019645
3855.896099,-9252.574275,2220.617826,1455.581446
3855.896428,-9548.656652,2812.782580,2298.286494
3855.896758,-10214.842000,2516.700203,2604.724693
3855.897088,-10436.903782,2368.659014,2834.553343
3855.897418,-10362.883188,2368.659014,2604.724693
3855.897747,-10436.903782,2072.576638,1455.581446
3855.898077,-10066.800811,1406.391290,383.047749
3855.898407,-9844.739029,962.267725,229.828649
3855.898737,-9548.656652,962.267725,1072.533697
3855.899067,-9548.656652,1036.288319,2681.334243
3855.899396,-9770.718434,962.267725,3140.991542
3855.899726,-9474.636058,1480.411884,2911.162892
3855.900056,-9474.636058,1036.288319,1685.410096
3855.900386,-9252.574275,296.082377,1532.190996
3855.900715,-9104.533087,74.020594,1378.971896
3855.901045,-9178.553681,444.123565,1608.800546
3855.901375,-8956.491898,296.082377,1455.581446
3855.901705,-9326.594869,666.185348,1225.752797
3855.902035,-9474.636058,814.226536,766.095498
3855.902364,-10066.800811,1110.308913,995.924147
3855.902694,-9770.718434,1110.308913,1149.143247
3855.903024,-9548.656652,888.247130,1225.752797
3855.903354,-9400.615463,1184.329507,1762.019645
3855.903683,-8956.491898,740.205942,1532.190996
3855.904013,-9918.759623,666.185348,1608.800546
3855.904343,-10066.800811,592.164754,1149.143247
3855.904673,-9030.512492,222.061783,842.705048
3855.905003,-8586.388927,296.082377,1991.848295
3855.905332,-8956.491898,888.247130,2987.772442
3855.905662,-9696.697840,1480.411884,3753.867940
3855.905992,-9918.759623,1924.535449,3370.820191
3855.906322,-10362.883188,2220.617826,2451.505594
3855.906651,-11325.150913,2812.782580,1838.629195
3855.906981,-11695.253884,2516.700203,1532.190996
3855.907311,-11103.089130,2442.679609,1838.629195
3855.907641,-10436.903782,2072.576638,2298.286494
3855.907971,-9622.677246,1850.514855,2374.896044
3855.908300,-9030.512492,1480.411884,3217.601092
3855.908630,-8586.388927,2072.576638,3524.039291
3855.908960,-8586.388927,2738.761985,4749.792088
3855.909290,-9474.636058,3330.926739,4443.353888
3855.909619,-10658.965565,3701.029710,4060.306139
3855.909949,-11325.150913,3701.029710,3600.648841
3855.910279,-11473.192101,3330.926739,3753.867940
3855.910609,-11029.068536,3108.864956,3753.867940
3855.910939,-10214.842000,2738.761985,4596.572988
3855.911268,-9030.512492,2664.741391,3907.087040
3855.911598,-8142.265362,2738.761985,2834.553343
3855.911928,-7994.224174,3034.844362,2068.457845
3855.912258,-7846.182985,3478.967927,2834.553343
3855.912587,-8882.471304,3849.070898,4136.915689
3855.912917,-9030.512492,4737.318029,4826.401637
3855.913247,-9844.739029,4811.338623,4366.744339
3855.913577,-10510.924376,5181.441594,3830.477490
3855.913907,-11325.150913,5477.523971,2834.553343
3855.914236,-11547.212695,4811.338623,2987.772442
3855.914566,-10881.027347,4515.256246,2298.286494
3855.914896,-9770.718434,4219.173869,2451.505594
3855.915226,-8734.430116,4071.132681,2681.334243
3855.915555,-8660.409521,3997.112087,3064.381992
3855.915885,-8956.491898,4293.194464,2834.553343
3855.916215,-8882.471304,4219.173869,1991.848295
3855.916545,-8290.306550,4071.132681,1685.410096
3855.916875,-9030.512492,4811.338623,2451.505594
3855.917204,-10362.883188,4885.359217,3524.039291
3855.917534,-11547.212695,5477.523971,2681.334243
3855.917864,-11399.171507,4811.338623,766.095498
3855.918194,-10214.842000,5181.441594,-766.095498
3855.918523,-10807.006753,3923.091493,612.876398
3855.918853,-11177.109724,3923.091493,2145.067394
3855.919183,-10140.821405,3552.988522,2911.162892
3855.919513,-8734.430116,3478.967927,1838.629195
3855.919843,-7550.100608,2664.741391,383.047749
3855.920172,-8290.306550,2886.803174,76.609550
3855.920502,-9030.512492,2812.782580,995.924147
3855.920832,-9104.533087,2664.741391,1838.629195
3855.921162,-9178.553681,3034.844362,1838.629195
3855.921491,-10436.903782,3330.926739,2451.505594
3855.921821,-11325.150913,2368.659014,2145.067394
3855.922151,-11399.171507,1924.535449,689.485948
3855.922481,-9770.718434,1628.453072,995.924147
3855.922811,-10732.986159,518.144159,1991.848295
3855.923140,-9474.636058,888.247130,3140.991542
3855.923470,-8660.409521,1036.288319,3830.477490
3855.923800,-7698.141797,1258.350101,1838.629195
3855.924130,-8142.265362,1702.473667,306.438199
3855.924459,-9474.636058,2294.638420,-919.314598
3855.924789,-9992.780217,1776.494261,689.485948
3855.925119,-11621.233289,1776.494261,2298.286494
3855.925449,-11251.130318,444.123565,1991.848295
3855.925779,-9844.739029,74.020594,1532.190996
3855.926108,-10510.924376,-666.185348,1685.410096
3855.926438,-10732.986159,-1110.308913,2374.896044
3855.926768,-9844.739029,-740.205942,4060.306139
3855.927098,-8956.491898,-962.267725,3677.258390
3855.927427,-8068.244768,-444.123565,1991.848295
3855.927757,-8586.388927,-222.061783,1532.190996
3855.928087,-9770.718434,148.041188,1455.581446
3855.928417,-10955.047942,-666.185348,1225.752797
3855.928747,-10584.944971,-666.185348,689.485948
3855.929076,-9474.636058,-740.205942,536.266849
3855.929406,-9844.739029,-1924.535449,2221.676944
3855.929736,-10140.821405,-1110.308913,3217.601092
3855.930066,-9252.574275,-1924.535449,3600.648841
3855.930395,-9030.512492,-962.267725,3064.381992
3855.930725,-8438.347739,-962.267725,3447.429741
3855.931055,-9474.636058,518.144159,4979.620737
3855.931385,-10362.883188,444.123565,5209.449386
3855.931715,-11769.274478,1628.453072,3677.258390
3855.932044,-10955.047942,1110.308913,1608.800546
3855.932374,-10362.883188,962.267725,306.438199
3855.932704,-9918.759623,592.164754,1991.848295
3855.933034,-9252.574275,370.102971,3677.258390
3855.933363,-9178.553681,1110.308913,3217.601092
3855.933693,-9104.533087,962.267725,2604.724693
3855.934023,-8364.327145,1110.308913,2298.286494
3855.934353,-9178.553681,1776.494261,3217.601092
3855.934683,-9548.656652,2294.638420,3677.258390
3855.935012,-9992.780217,2442.679609,4903.011187
3855.935342,-10140.821405,2960.823768,4596.572988
3855.935672,-9548.656652,2812.782580,4136.915689
3855.936002,-10807.006753,3552.988522,3983.696590
3855.936331,-11251.130318,4367.215058,3370.820191
3855.936661,-10436.903782,4367.215058,2834.553343
3855.936991,-10140.821405,4589.276840,1915.238745
3855.937321,-9474.636058,4663.297435,1762.019645
3855.937651,-11177.109724,4293.194464,3140.991542
3855.937980,-10658.965565,4589.276840,2681.334243
3855.938310,-8438.347739,3997.112087,1532.190996
3855.938640,-7772.162391,4737.318029,2145.067394
3855.938970,-8660.409521,5107.421000,2834.553343
3855.939299,-9770.718434,5033.400406,2681.334243
3855.939629,-10140.821405,5551.544565,2451.505594
3855.939959,-10658.965565,4959.379811,1608.800546
3855.940289,-12287.418637,4811.338623,1991.848295
3855.940619,-11843.295072,4663.297435,1532.190996
3855.940948,-10881.027347,4367.215058,2068.457845
3855.941278,-8586.388927,3108.864956,689.485948
3855.941608,-7994.224174,3404.947333,-306.438199
3855.941938,-8364.327145,3256.906145,229.828649
3855.942267,-8438.347739,3256.906145,995.924147
3855.942597,-7698.141797,3627.009116,1608.800546
3855.942927,-7994.224174,3627.009116,1838.629195
3855.943257,-9252.574275,3923.091493,1378.971896
3855.943587,-9326.594869,3330.926739,612.876398
3855.943916,-8734.430116,3108.864956,1149.143247
3855.944246,-9474.636058,3330.926739,1915.238745
3855.944576,-10881.027347,3849.070898,3370.820191
3855.944906,-10658.965565,3627.009116,4060.306139
3855.945235,-11843.295072,3997.112087,2451.505594
3855.945565,-11547.212695,3552.988522,1149.143247
3855.945895,-9844.739029,3404.947333,0.000000
3855.946225,-9030.512492,3478.967927,-229.828649
3855.946555,-8438.347739,3182.885551,612.876398
3855.946884,-8142.265362,3552.988522,3217.601092
3855.947214,-10214.842000,3552.988522,3600.648841
3855.947544,-11177.109724,2960.823768,1608.800546
3855.947874,-10288.862594,2590.720797,1302.362347
3855.948203,-11029.068536,2072.576638,2834.553343
3855.948533,-11769.274478,2146.597232,4290.134789
3855.948863,-10732.986159,740.205942,5362.668486
3855.949193,-9992.780217,740.205942,5209.449386
3855.949523,-9696.697840,740.205942,3600.648841
3855.949852,-10510.924376,518.144159,2068.457845
3855.950182,-10658.965565,0.000000,766.095498
3855.950512,-9992.780217,0.000000,842.705048
3855.950842,-9178.553681,-666.185348,2145.067394
3855.951171,-8808.450710,-296.082377,2068.457845
3855.951501,-7994.224174,-1184.329507,2068.457845
3855.951831,-8956.491898,-1332.370696,1149.143247
3855.952161,-8956.491898,-666.185348,1685.410096
3855.952491,-9844.739029,-1998.556043,3983.696590
3855.952820,-10658.965565,-666.185348,5132.839837
3855.953150,-9548.656652,-1184.329507,5898.935335
3855.953480,-9548.656652,-1406.391290,5439.278036
3855.953810,-10436.903782,-1332.370696,3983.696590
3855.954139,-10066.800811,-370.102971,3140.991542
3855.954469,-8808.450710,-296.082377,2681.334243
3855.954799,-7846.182985,296.082377,2451.505594
3855.955129,-7772.162391,518.144159,3217.601092
3855.955459,-9400.615463,1628.453072,3370.820191
3855.955788,-10140.821405,1406.391290,2145.067394
3855.956118,-11325.150913,370.102971,2528.115143
3855.956448,-11399.171507,740.205942,3370.820191
3855.956778,-10807.006753,666.185348,4596.572988
3855.957107,-10066.800811,148.041188,4903.011187
3855.957437,-10510.924376,1702.473667,2374.896044
3855.957767,-10658.965565,1702.473667,0.000000
3855.958097,-9326.594869,1702.473667,-1302.362347
3855.958427,-9474.636058,2146.597232,-1915.238745
3855.958756,-10807.006753,1628.453072,76.609550
3855.959086,-10658.965565,1702.473667,1225.752797
3855.959416,-9696.697840,1406.391290,766.095498
3855.959746,-8660.409521,740.205942,-2068.457845
3855.960075,-7920.203579,740.205942,-3907.087040
3855.960405,-9622.677246,1110.308913,-2834.553343
3855.960735,-9326.594869,1258.350101,766.095498
3855.961065,-8882.471304,1924.535449,2757.943793
3855.961395,-9918.759623,1924.535449,3983.696590
3855.961724,-10881.027347,1924.535449,2757.943793
3855.962054,-9992.780217,1332.370696,919.314598
3855.962384,-8290.306550,1110.308913,-306.438199
3855.962714,-6809.894666,1776.494261,153.219100
3855.963043,-8586.388927,2368.659014,1455.581446
3855.963373,-7254.018232,2146.597232,2987.772442
3855.963703,-7624.121203,2960.823768,3370.820191
3855.964033,-10732.986159,4589.276840,1685.410096
3855.964363,-12435.459826,4515.256246,689.485948
3855.964692,-12805.562797,5033.400406,229.828649
3855.965022,-10510.924376,5403.503377,-383.047749
3855.965352,-10955.047942,5329.482782,-1225.752797
3855.965682,-12361.439231,4071.132681,-2374.896044
3855.966012,-12287.418637,3108.864956,-2528.115143
3855.966341,-9770.718434,1924.535449,-2528.115143
3855.966671,-8586.388927,1480.411884,-383.047749
3855.967001,-8586.388927,814.226536,2298.286494
3855.967331,-8956.491898,814.226536,3600.648841
3855.967660,-8808.450710,1258.350101,766.095498
3855.967990,-8586.388927,1036.288319,-2145.067394
3855.968320,-9770.718434,888.247130,-2298.286494
3855.968650,-10214.842000,222.061783,-1225.752797
3855.968980,-9474.636058,-74.020594,2374.896044
3855.969309,-9400.615463,-1110.308913,5286.058936
3855.969639,-8734.430116,-1702.473667,4596.572988
3855.969969,-8734.430116,-1554.432478,2145.067394
3855.970298,-8512.368333,-962.267725,153.219100
3855.970628,-8068.244768,-370.102971,-612.876398
3855.970958,-7846.182985,222.061783,919.314598
3855.971287,-9474.636058,666.185348,2451.505594
3855.971617,-11251.130318,1776.494261,2834.553343
3855.971947,-11177.109724,2294.638420,306.438199
3855.972276,-11695.253884,1776.494261,-3447.429741
3855.972606,-13101.645173,2664.741391,-3907.087040
3855.972936,-13915.871710,1776.494261,-2528.115143
3855.973265,-12213.398043,518.144159,-1378.971896
3855.973595,-9696.697840,-888.247130,76.609550
3855.973925,-8586.388927,-2146.597232,1072.533697
3855.974254,-8734.430116,-2516.700203,1838.629195
3855.974584,-8660.409521,-2368.659014,0.000000
3855.974914,-8364.327145,-1628.453072,-919.314598
3855.975243,-7994.224174,-2738.761985,536.266849
3855.975573,-8956.491898,-2886.803174,1685.410096
3855.975903,-8808.450710,-3108.864956,3064.381992
3855.976232,-9548.656652,-3108.864956,4443.353888
3855.976562,-9770.718434,-3182.885551,4519.963438
3855.976891,-11399.171507,-2812.782580,3140.991542
3855.977221,-10362.883188,-1776.494261,1762.019645
3855.977551,-8956.491898,-2294.638420,383.047749
3855.977880,-8956.491898,-1184.329507,0.000000
3855.978210,-9474.636058,74.020594,0.000000
3855.978540,-10362.883188,444.123565,-766.095498
3855.978869,-9326.594869,0.000000,-2298.286494
3855.979199,-9474.636058,814.226536,-2451.505594
3855.979529,-11399.171507,1036.288319,-689.485948
3855.979858,-12213.398043,1332.370696,-383.047749
3855.980188,-12583.501014,222.061783,-1532.190996
3855.980518,-11473.192101,-296.082377,-2221.676944
3855.980847,-10658.965565,-666.185348,-1302.362347
3855.981177,-11177.109724,-888.247130,-229.828649
3855.981507,-10510.924376,-1998.556043,-612.876398
3855.981836,-8216.285956,-2960.823768,-1072.533697
3855.982166,-4589.276840,-3404.947333,-536.266849
3855.982496,-5107.421000,-3552.988522,383.047749
3855.982825,-7476.080014,-1628.453072,1302.362347
3855.983155,-9178.553681,-1776.494261,1378.971896
3855.983484,-9918.759623,-666.185348,1532.190996
3855.983814,-9178.553681,-296.082377,1149.143247
3855.984144,-9696.697840,0.000000,1532.190996
3855.984473,-11325.150913,-222.061783,1455.581446
3855.984803,-11843.295072,74.020594,1455.581446
3855.985133,-9622.677246,-444.123565,1608.800546
3855.985462,-9252.574275,1184.329507,766.095498
3855.985792,-9622.677246,1110.308913,0.000000
3855.986122,-10214.842000,1332.370696,0.000000
3855.986451,-9104.533087,2812.782580,-1225.752797
3855.986781,-9622.677246,3701.029710,-1532.190996
3855.987111,-11917.315666,4293.194464,-2911.162892
3855.987440,-13027.624579,3330.926739,-3677.258390
3855.987770,-12065.356855,2812.782580,-2681.334243
3855.988100,-11621.233289,1036.288319,-1915.238745
3855.988429,-10658.965565,-148.041188,-766.095498
3855.988759,-9918.759623,-1036.288319,1378.971896
3855.989089,-8438.347739,-1702.473667,1991.848295
3855.989418,-7550.100608,-666.185348,1149.143247
3855.989748,-7328.038826,-1184.329507,-383.047749
3855.990077,-7254.018232,-962.267725,0.000000
3855.990407,-7624.121203,-1332.370696,2528.115143
3855.990737,-8142.265362,-444.123565,4136.915689
3855.991066,-9104.533087,-444.123565,3217.601092
3855.991396,-10288.862594,0.000000,1532.190996
3855.991726,-9770.718434,-814.226536,0.000000
3855.992055,-9548.656652,0.000000,612.876398
3855.992385,-9844.739029,592.164754,383.047749
3855.992715,-9696.697840,666.185348,1149.143247
3855.993044,-9326.594869,1850.514855,1991.848295
3855.993374,-9474.636058,1628.453072,2604.724693
3855.993704,-10288.862594,1554.432478,1302.362347
3855.994033,-10140.821405,3256.906145,-76.609550
3855.994363,-11843.295072,4737.318029,-2604.724693
3855.994693,-13397.727550,4589.276840,-4596.572988
3855.995022,-13027.624579,3478.967927,-3983.696590
3855.995352,-12065.356855,1702.473667,-2451.505594
3855.995682,-11103.089130,888.247130,-1532.190996
3855.996011,-10436.903782,0.000000,-153.219100
3855.996341,-9104.533087,-370.102971,0.000000
3855.996670,-8438.347739,-1258.350101,76.609550
3855.997000,-8142.265362,-666.185348,1149.143247
3855.997330,-9030.512492,-962.267725,995.924147
3855.997659,-8512.368333,-1258.350101,612.876398
3855.997989,-6883.915261,-1776.494261,1532.190996
3855.998319,-7772.162391,-2368.659014,3217.601092
3855.998648,-9400.615463,-1924.535449,4213.525239
3855.998978,-9992.780217,-1406.391290,3600.648841
3855.999308,-9844.739029,-962.267725,2528.115143
3855.999637,-9326.594869,-1184.329507,766.095498
3855.999967,-8364.327145,-740.205942,612.876398
3856.000297,-9030.512492,222.061783,1225.752797
3856.000626,-10658.965565,296.082377,842.705048
3856.000956,-10732.986159,1110.308913,-383.047749
3856.001286,-9474.636058,592.164754,-2298.286494
3856.001615,-10214.842000,1850.514855,-2911.162892
3856.001945,-11325.150913,1258.350101,-3524.039291
3856.002275,-11769.274478,1110.308913,-3677.258390
3856.002604,-11991.336260,222.061783,-2604.724693
3856.002934,-11843.295072,-148.041188,0.000000
3856.003263,-10584.944971,-814.226536,1378.971896
3856.003593,-9104.533087,-2368.659014,76.609550
3856.003923,-7698.141797,-2738.761985,-306.438199
3856.004252,-8734.430116,-2812.782580,229.828649
3856.004582,-7994.224174,-3256.906145,-306.438199
3856.004912,-8142.265362,-2960.823768,995.924147
3856.005241,-7698.141797,-2442.679609,1225.752797
3856.005571,-7994.224174,-2368.659014,2068.457845
3856.005901,-9030.512492,-1776.494261,1838.629195
3856.006230,-9770.718434,-1110.308913,1455.581446
3856.006560,-10140.821405,-1110.308913,842.705048
3856.006890,-10140.821405,-370.102971,1072.533697
3856.007219,-9474.636058,-370.102971,1685.410096
3856.007549,-9400.615463,74.020594,3217.601092
3856.007879,-11251.130318,1332.370696,2451.505594
3856.008208,-12805.562797,1776.494261,-383.047749
3856.008538,-12139.377449,1332.370696,-3294.210641
3856.008868,-10140.821405,2368.659014,-4903.011187
3856.009197,-10658.965565,2220.617826,-3217.601092
3856.009527,-11473.192101,1998.556043,-1532.190996
3856.009856,-10214.842000,666.185348,-766.095498
3856.010186,-8734.430116,296.082377,-842.705048
3856.010516,-9474.636058,0.000000,-1915.238745
3856.010845,-11473.192101,-1036.288319,-1532.190996
3856.011175,-10658.965565,-1554.432478,766.095498
3856.011505,-7920.203579,-1776.494261,2451.505594
3856.011834,-7105.977043,-1850.514855,2451.505594
3856.012164,-7994.224174,-1628.453072,1225.752797
3856.012494,-8660.409521,-1406.391290,1149.143247
3856.012823,-8142.265362,-888.247130,2451.505594
3856.013153,-8586.388927,-74.020594,3907.087040
3856.013483,-10881.027347,1184.329507,4749.792088
3856.013812,-10955.047942,296.082377,1915.238745
3856.014142,-7920.203579,0.000000,153.219100
3856.014472,-7254.018232,0.000000,689.485948
3856.014801,-10362.883188,1332.370696,1838.629195
3856.015131,-11251.130318,1702.473667,2911.162892
3856.015461,-9992.780217,2220.617826,1838.629195
3856.015790,-7920.203579,3923.091493,0.000000
3856.016120,-11695.253884,4885.359217,-1762.019645
3856.016449,-15988.448347,4885.359217,-3907.087040
3856.016779,-13693.809927,4367.215058,-5056.230287
3856.017109,-9474.636058,2368.659014,-3447.429741
3856.017438,-8290.306550,1036.288319,-536.266849
3856.017768,-8438.347739,-740.205942,2145.067394
3856.018098,-9400.615463,-370.102971,2068.457845
3856.018427,-9326.594869,0.000000,-612.876398
3856.018757,-9474.636058,296.082377,-2681.334243
3856.019087,-8660.409521,-962.267725,-2221.676944
3856.019416,-7254.018232,-2072.576638,689.485948
3856.019746,-6883.915261,-1924.535449,4366.744339
3856.020076,-7698.141797,-1850.514855,6894.859482
3856.020405,-9178.553681,-1110.308913,5209.449386
3856.020735,-9622.677246,-666.185348,1608.800546
3856.021065,-9770.718434,148.041188,-1685.410096
3856.021394,-10510.924376,1110.308913,-1608.800546
3856.021724,-9844.739029,1924.535449,-689.485948
3856.022054,-9770.718434,1406.391290,0.000000
3856.022383,-9844.739029,370.102971,536.266849
3856.022713,-10955.047942,1998.556043,1378.971896
3856.023042,-11251.130318,2812.782580,-842.705048
3856.023372,-10955.047942,2590.720797,-4519.963438
3856.023702,-11547.212695,2886.803174,-5132.839837
3856.024031,-12139.377449,2368.659014,-2911.162892
3856.024361,-12731.542202,1776.494261,-459.657299
3856.024691,-10732.986159,0.000000,919.314598
3856.025020,-10140.821405,-814.226536,306.438199
3856.025350,-11325.150913,-592.164754,0.000000
3856.025680,-10066.800811,-962.267725,-1455.581446
3856.026009,-8512.368333,-2220.617826,-1685.410096
3856.026339,-7476.080014,-2812.782580,-459.657299
3856.026669,-6217.729913,-3256.906145,2604.724693
3856.026998,-7402.059420,-2442.679609,5132.839837
3856.027328,-7698.141797,-2590.720797,4519.963438
3856.027658,-8438.347739,-2442.679609,2451.505594
3856.027987,-8808.450710,-1998.556043,919.314598
3856.028317,-10288.862594,-1406.391290,1685.410096
3856.028647,-11917.315666,-888.247130,3370.820191
3856.028976,-10362.883188,-740.205942,4366.744339
3856.029306,-9030.512492,-518.144159,2604.724693
3856.029635,-9400.615463,0.000000,-612.876398
3856.029965,-9770.718434,296.082377,-4136.915689
3856.030295,-10140.821405,444.123565,-3983.696590
3856.030624,-10436.903782,1702.473667,-1225.752797
3856.030954,-10955.047942,2664.741391,1072.533697
3856.031284,-11843.295072,2368.659014,-536.266849
3856.031613,-11769.274478,1480.411884,-4213.525239
3856.031943,-11177.109724,-296.082377,-4290.134789
3856.032273,-11325.150913,-666.185348,-2298.286494
3856.032602,-11621.233289,-1554.432478,612.876398
3856.032932,-10288.862594,-1480.411884,2221.676944
3856.033262,-7994.224174,-2960.823768,153.219100
3856.033591,-5551.544565,-3552.988522,-1225.752797
3856.033921,-6957.935855,-2368.659014,383.047749
3856.034251,-10288.862594,-1406.391290,1532.190996
3856.034580,-9696.697840,-1110.308913,2374.896044
3856.034910,-8290.306550,-1184.329507,3830.477490
3856.035239,-8586.388927,0.000000,3294.210641
3856.035569,-10584.944971,-592.164754,1991.848295
3856.035899,-11621.233289,74.020594,306.438199
3856.036228,-9622.677246,-444.123565,-229.828649
3856.036558,-7920.203579,-74.020594,1072.533697
3856.036888,-10214.842000,1110.308913,2221.676944
3856.037217,-11103.089130,1258.350101,2145.067394
3856.037547,-10214.842000,2220.617826,-229.828649
3856.037877,-10214.842000,3108.864956,-3447.429741
3856.038206,-11325.150913,3997.112087,-3447.429741
3856.038536,-13101.645173,3701.029710,-2451.505594
3856.038866,-12435.459826,3108.864956,-1685.410096
3856.039195,-10436.903782,74.020594,-995.924147
3856.039525,-8808.450710,-666.185348,-842.705048
3856.039855,-9770.718434,-222.061783,306.438199
3856.040184,-10214.842000,-962.267725,153.219100
3856.040514,-8808.450710,-2294.638420,-306.438199
3856.040844,-7179.997637,-1776.494261,0.000000
3856.041173,-6587.832884,-1332.370696,536.266849
3856.041503,-8734.430116,-1776.494261,2374.896044
3856.041832,-8956.491898,-1628.453072,3524.039291
3856.042162,-8364.327145,-814.226536,3983.696590
3856.042492,-8734.430116,0.000000,1915.238745
3856.042821,-9844.739029,-370.102971,689.485948
3856.043151,-10732.986159,222.061783,1225.752797
3856.043481,-9474.636058,74.020594,919.314598
3856.043810,-9178.553681,888.247130,766.095498
3856.044140,-10066.800811,1258.350101,1762.019645
3856.044470,-11251.130318,2072.576638,1302.362347
3856.044799,-11473.192101,2368.659014,995.924147
3856.045129,-12287.418637,4737.318029,-842.705048
3856.045459,-13249.686362,4441.235652,-4213.525239
3856.045788,-11917.315666,3182.885551,-7660.954980
3856.046118,-10214.842000,2146.597232,-6588.421283
3856.046448,-9548.656652,296.082377,-2451.505594
3856.046777,-9844.739029,-74.020594,689.485948
3856.047107,-10140.821405,-740.205942,1072.533697
3856.047437,-8586.388927,-1628.453072,-76.609550
3856.047766,-7624.121203,-1480.411884,-459.657299
3856.048096,-8438.347739,-2146.597232,229.828649
3856.048425,-7179.997637,-2812.782580,2145.067394
3856.048755,-8438.347739,-2368.659014,4366.744339
3856.049085,-7994.224174,-3108.864956,5669.106685
3856.049414,-8364.327145,-1628.453072,5669.106685
3856.049744,-9992.780217,-814.226536,3830.477490
3856.050074,-9918.759623,-814.226536,-229.828649
3856.050403,-9474.636058,-148.041188,-2834.553343
3856.050733,-8512.368333,-370.102971,-1532.190996
3856.051063,-8660.409521,444.123565,1455.581446
3856.051392,-10362.883188,962.267725,3140.991542
3856.051722,-10510.924376,1776.494261,1072.533697
3856.052052,-9918.759623,2146.597232,-1991.848295
3856.052381,-11473.192101,3552.988522,-3370.820191
3856.052711,-13841.851115,3849.070898,-3753.867940
3856.053041,-13323.706956,3256.906145,-2681.334243
3856.053370,-11769.274478,2072.576638,-1838.629195
3856.053700,-9548.656652,-74.020594,229.828649
3856.054030,-10436.903782,-888.247130,1149.143247
3856.054359,-10436.903782,-666.185348,1225.752797
3856.054689,-10066.800811,-1924.535449,0.000000
3856.055018,-7846.182985,-2664.741391,-2757.943793
3856.055348,-4885.359217,-3108.864956,-1532.190996
3856.055678,-6661.853478,-3330.926739,2681.334243
3856.056007,-8364.327145,-2368.659014,5209.449386
3856.056337,-9104.533087,-1776.494261,5669.106685
3856.056667,-9696.697840,-1554.432478,3140.991542
3856.056996,-9474.636058,-592.164754,766.095498
3856.057326,-10658.965565,-222.061783,919.314598
3856.057656,-11029.068536,-518.144159,2221.676944
3856.057985,-10214.842000,148.041188,2068.457845
3856.058315,-8882.471304,0.000000,1762.019645
3856.058645,-9548.656652,1776.494261,1225.752797
3856.058974,-11547.212695,1110.308913,-536.266849
3856.059304,-11103.089130,2072.576638,-2911.162892
3856.059634,-8808.450710,2590.720797,-4213.525239
3856.059963,-10732.986159,4885.359217,-3600.648841
3856.060293,-13545.768739,4219.173869,-2374.896044
3856.060623,-13323.706956,1998.556043,-1915.238745
3856.060952,-9844.739029,0.000000,-1915.238745
3856.061282,-8216.285956,-1258.350101,-689.485948
3856.061611,-11103.089130,-1184.329507,306.438199
3856.061941,-10658.965565,-1998.556043,1608.800546
3856.062271,-7772.162391,-2886.803174,689.485948
3856.062600,-5551.544565,-3849.070898,153.219100
3856.062930,-5773.606348,-2368.659014,1608.800546
3856.063260,-9030.512492,-2072.576638,2757.943793
3856.063589,-8068.244768,-2072.576638,2834.553343
3856.063919,-6735.874072,-1924.535449,2987.772442
3856.064249,-9474.636058,-444.123565,1838.629195
3856.064578,-11621.233289,148.041188,1302.362347
3856.064908,-10140.821405,-444.123565,-459.657299
3856.065238,-9252.574275,-370.102971,0.000000
3856.065567,-7698.141797,518.144159,459.657299
3856.065897,-10362.883188,1036.288319,1072.533697
3856.066227,-12287.418637,2146.597232,689.485948
3856.066556,-11251.130318,2812.782580,1838.629195
3856.066886,-13619.789333,4959.379811,689.485948
3856.067216,-13175.665768,4515.256246,-2911.162892
3856.067545,-13249.686362,3627.009116,-6128.763984
3856.067875,-9770.718434,2294.638420,-5056.230287
3856.068204,-9030.512492,0.000000,-1532.190996
3856.068534,-10362.883188,-148.041188,1149.143247
3856.068864,-9548.656652,-740.205942,2068.457845
3856.069193,-9548.656652,-888.247130,229.828649
3856.069523,-9104.533087,-2442.679609,-1762.019645
3856.069853,-7846.182985,-2590.720797,-1149.143247
3856.070183,-6587.832884,-3478.967927,1838.629195
3856.070512,-7920.203579,-2960.823768,5132.839837
3856.070842,-7550.100608,-2664.741391,6971.469032
3856.071172,-8586.388927,-592.164754,6665.030833
3856.071502,-9030.512492,-814.226536,2298.286494
3856.071831,-10584.944971,0.000000,-1838.629195
3856.072161,-11621.233289,74.020594,-1225.752797
3856.072491,-10881.027347,518.144159,2298.286494
3856.072820,-9696.697840,1184.329507,4060.306139
3856.073150,-8290.306550,2072.576638,1608.800546
3856.073480,-10214.842000,2442.679609,-2145.067394
3856.073810,-12139.377449,4071.132681,-3907.087040
3856.074139,-11991.336260,4219.173869,-4519.963438
3856.074469,-13175.665768,3849.070898,-4673.182538
3856.074799,-11473.192101,2664.741391,-2451.505594
3856.075128,-9770.718434,222.061783,76.609550
3856.075458,-7920.203579,-592.164754,1762.019645
3856.075788,-9104.533087,-1702.473667,1455.581446
3856.076118,-12139.377449,-1702.473667,76.609550
3856.076447,-11251.130318,-1776.494261,0.000000
3856.076777,-7031.956449,-3404.947333,0.000000
3856.077107,-4737.318029,-3034.844362,1838.629195
3856.077436,-7476.080014,-1850.514855,3677.258390
3856.077766,-11029.068536,-2590.720797,3524.039291
3856.078096,-9474.636058,-1480.411884,1455.581446
3856.078426,-7254.018232,-1554.432478,-612.876398
3856.078755,-8142.265362,-296.082377,306.438199
3856.079085,-9992.780217,370.102971,2068.457845
3856.079415,-9992.780217,74.020594,1532.190996
3856.079744,-8660.409521,148.041188,612.876398
3856.080074,-9474.636058,1258.350101,-766.095498
3856.080404,-12361.439231,1998.556043,-1072.533697
3856.080734,-12361.439231,2664.741391,612.876398
3856.081063,-11621.233289,4293.194464,76.609550
3856.081393,-12657.521608,3256.906145,-2221.676944
3856.081723,-12509.480420,2812.782580,-4673.182538
3856.082052,-10658.965565,814.226536,-4903.011187
3856.082382,-9104.533087,222.061783,-2757.943793
3856.082712,-8882.471304,-1628.453072,1685.410096
3856.083042,-10584.944971,-666.185348,3983.696590
3856.083371,-9918.759623,-1258.350101,2528.115143
3856.083701,-9992.780217,-2516.700203,-2298.286494
3856.084031,-7920.203579,-3256.906145,-2834.553343
3856.084361,-5921.647536,-3923.091493,1149.143247
3856.084690,-7328.038826,-2886.803174,4903.011187
3856.085020,-7402.059420,-2072.576638,6435.202183
3856.085350,-8290.306550,-1110.308913,5132.839837
3856.085679,-9400.615463,-666.185348,1302.362347
3856.086009,-8734.430116,-296.082377,-1915.238745
3856.086339,-10732.986159,-74.020594,-1532.190996
3856.086669,-10658.965565,592.164754,2528.115143
3856.086998,-9548.656652,666.185348,4979.620737
3856.087328,-8882.471304,1924.535449,3677.258390
3856.087658,-10881.027347,2072.576638,-536.266849
3856.087987,-14211.954086,4737.318029,-2911.162892
3856.088317,-12805.562797,3997.112087,-4443.353888
3856.088647,-11473.192101,4441.235652,-4519.963438
3856.088977,-10732.986159,4145.153275,-2145.067394
3856.089306,-11103.089130,2368.659014,-1225.752797
3856.089636,-10140.821405,814.226536,-1608.800546
3856.089966,-8290.306550,-1184.329507,-2451.505594
3856.090295,-9918.759623,-740.205942,-153.219100
3856.090625,-11695.253884,-740.205942,1608.800546
3856.090955,-10955.047942,-2146.597232,1838.629195
3856.091285,-7031.956449,-3775.050304,0.000000
3856.091614,-4441.235652,-3849.070898,842.705048
3856.091944,-7698.141797,-3182.885551,2528.115143
3856.092274,-9030.512492,-2812.782580,4596.572988
3856.092603,-8290.306550,-2146.597232,5132.839837
3856.092933,-7772.162391,-1036.288319,2987.772442
3856.093263,-8882.471304,592.164754,459.657299
3856.093593,-11325.150913,444.123565,-689.485948
3856.093922,-11547.212695,666.185348,-612.876398
3856.094252,-8512.368333,962.267725,-229.828649
3856.094582,-8142.265362,888.247130,76.609550
3856.094911,-11103.089130,1998.556043,1225.752797
3856.095241,-12435.459826,2738.761985,1532.190996
3856.095571,-13249.686362,3849.070898,-1608.800546
3856.095901,-12657.521608,4145.153275,-4979.620737
3856.096230,-12287.418637,4441.235652,-5745.716235
3856.096560,-10436.903782,2294.638420,-3907.087040
3856.096890,-8808.450710,222.061783,-919.314598
3856.097219,-8660.409521,-814.226536,1762.019645
3856.097549,-10214.842000,-888.247130,1455.581446
3856.097879,-11103.089130,-1036.288319,-1532.190996
3856.098209,-9844.739029,-2220.617826,-3907.087040
3856.098538,-7402.059420,-2886.803174,-1838.629195
3856.098868,-6957.935855,-3256.906145,3370.820191
3856.099198,-7624.121203,-3182.885551,6128.763984
3856.099528,-7624.121203,-2220.617826,4596.572988
3856.099857,-9030.512492,-1850.514855,2451.505594
3856.100187,-9918.759623,-1850.514855,306.438199
3856.100517,-9918.759623,-1332.370696,0.000000
3856.100846,-9474.636058,-1110.308913,842.705048
3856.101176,-9104.533087,0.000000,2451.505594
3856.101506,-7772.162391,74.020594,2145.067394
3856.101836,-7994.224174,666.185348,153.219100
3856.102165,-9918.759623,1480.411884,-2451.505594
3856.102495,-11325.150913,3627.009116,-2068.457845
3856.102825,-14582.057057,4737.318029,-1378.971896
3856.103154,-14582.057057,5107.421000,-2221.676944
3856.103484,-11843.295072,3478.967927,-3753.867940
3856.103814,-10214.842000,1110.308913,-3140.991542
3856.104144,-9696.697840,-444.123565,-2221.676944
3856.104473,-9252.574275,-1480.411884,536.266849
3856.104803,-9326.594869,-1480.411884,1838.629195
3856.105133,-9400.615463,-1702.473667,1685.410096
3856.105462,-9622.677246,-2442.679609,1072.533697
3856.105792,-9400.615463,-2812.782580,0.000000
3856.106122,-7698.141797,-4071.132681,1302.362347
3856.106452,-6957.935855,-2738.761985,3983.696590
3856.106781,-7476.080014,-2442.679609,5362.668486
3856.107111,-10066.800811,-1184.329507,4366.744339
3856.107441,-10658.965565,-1036.288319,2528.115143
3856.107770,-10436.903782,74.020594,0.000000
3856.108100,-10066.800811,0.000000,-766.095498
3856.108430,-10362.883188,444.123565,-76.609550
3856.108760,-8660.409521,0.000000,766.095498
3856.109089,-7550.100608,740.205942,1378.971896
3856.109419,-9104.533087,1036.288319,1225.752797
3856.109749,-11325.150913,2960.823768,-459.657299
3856.110078,-13545.768739,4441.235652,-1762.019645
3856.110408,-13101.645173,4885.359217,-2834.553343
3856.110738,-12213.398043,4663.297435,-3524.039291
3856.111068,-11325.150913,3256.906145,-2068.457845
3856.111397,-11325.150913,740.205942,-1225.752797
3856.111727,-11325.150913,-740.205942,-229.828649
3856.112057,-8882.471304,-1110.308913,383.047749
3856.112386,-8734.430116,-1776.494261,-76.609550
3856.112716,-8734.430116,-1702.473667,-2221.676944
3856.113046,-6291.750507,-3256.906145,-2604.724693
3856.113376,-4663.297435,-2886.803174,536.266849
3856.113705,-6513.812290,-1850.514855,3907.087040
3856.114035,-8216.285956,-1332.370696,4290.134789
3856.114365,-9622.677246,-1110.308913,3140.991542
3856.114695,-10214.842000,-814.226536,1378.971896
3856.115024,-10510.924376,74.020594,1149.143247
3856.115354,-11325.150913,-370.102971,76.609550
3856.115684,-11029.068536,-814.226536,0.000000
3856.116013,-7550.100608,0.000000,0.000000
3856.116343,-6661.853478,888.247130,1685.410096
3856.116673,-10955.047942,1184.329507,2757.943793
3856.117003,-11325.150913,2738.761985,536.266849
3856.117332,-10658.965565,4515.256246,-2298.286494
3856.117662,-12065.356855,4811.338623,-5056.230287
3856.117992,-13767.830521,4589.276840,-3370.820191
3856.118321,-13175.665768,2960.823768,-3830.477490
3856.118651,-11103.089130,1258.350101,-2528.115143
3856.118981,-9622.677246,-1258.350101,-153.219100
3856.119311,-9178.553681,-1332.370696,766.095498
3856.119640,-10362.883188,-814.226536,1072.533697
3856.119970,-11695.253884,-1628.453072,-1072.533697
