#time,accel_x,accel_y,accel_z
3646.090784,-11991.336260,-444.123565,-1838.629195
3646.091114,-12213.398043,-1332.370696,-1072.533697
3646.091444,-11103.089130,-2072.576638,-1072.533697
3646.091774,-9548.656652,-1850.514855,-306.438199
3646.092104,-9104.533087,-2146.597232,-1991.848295
3646.092434,-9400.615463,-814.226536,-2451.505594
3646.092764,-9252.574275,-1406.391290,-3294.210641
3646.093094,-8882.471304,-74.020594,-2221.676944
3646.093424,-8660.409521,-222.061783,-1302.362347
3646.093754,-9770.718434,0.000000,0.000000
3646.094084,-10732.986159,-1332.370696,-1072.533697
3646.094414,-9696.697840,592.164754,-1455.581446
3646.094744,-8586.388927,296.082377,-2068.457845
3646.095074,-11103.089130,222.061783,-153.219100
3646.095404,-10140.821405,0.000000,-383.047749
3646.095734,-8734.430116,-666.185348,-1455.581446
3646.096064,-9030.512492,-444.123565,-1991.848295
3646.096394,-10362.883188,-222.061783,-842.705048
3646.096724,-9844.739029,444.123565,-612.876398
3646.097054,-9252.574275,370.102971,153.219100
3646.097384,-8808.450710,1184.329507,76.609550
3646.097714,-9992.780217,1406.391290,-306.438199
3646.098044,-10362.883188,1406.391290,-1302.362347
3646.098374,-10436.903782,1184.329507,-1302.362347
3646.098704,-10955.047942,1036.288319,-2451.505594
3646.099034,-11621.233289,296.082377,-2834.553343
3646.099364,-11103.089130,-148.041188,-4136.915689
3646.099694,-10288.862594,-1184.329507,-3753.867940
3646.100024,-8586.388927,-1406.391290,-3600.648841
3646.100354,-7254.018232,-1998.556043,-2451.505594
3646.100685,-6883.915261,-888.247130,-612.876398
3646.101015,-8142.265362,-666.185348,0.000000
3646.101345,-9844.739029,74.020594,1225.752797
3646.101675,-11029.068536,296.082377,1608.800546
3646.102005,-11621.233289,-222.061783,-459.657299
3646.102335,-11917.315666,-666.185348,-1915.238745
3646.102665,-12287.418637,-1480.411884,-2681.334243
3646.102995,-11991.336260,-2146.597232,-2451.505594
3646.103325,-10584.944971,-3108.864956,-2911.162892
3646.103655,-8068.244768,-3478.967927,-3677.258390
3646.103985,-8142.265362,-2738.761985,-4290.134789
3646.104315,-8660.409521,-2960.823768,-4213.525239
3646.104645,-8660.409521,-2812.782580,-4136.915689
3646.104975,-7846.182985,-3330.926739,-4060.306139
3646.105305,-9030.512492,-3478.967927,-2451.505594
3646.105635,-9770.718434,-3478.967927,-612.876398
3646.105965,-10510.924376,-3627.009116,-459.657299
3646.106295,-10658.965565,-4367.215058,-1762.019645
3646.106625,-11473.192101,-4367.215058,-2834.553343
3646.106955,-10584.944971,-4811.338623,-2451.505594
3646.107285,-10881.027347,-4811.338623,-1072.533697
3646.107615,-11103.089130,-4367.215058,-842.705048
3646.107945,-10584.944971,-4219.173869,-2604.724693
3646.108275,-8660.409521,-4293.194464,-5592.497135
3646.108605,-7476.080014,-4663.297435,-7660.954980
3646.108935,-7624.121203,-4737.318029,-6665.030833
3646.109265,-8438.347739,-4367.215058,-3677.258390
3646.109595,-9030.512492,-4441.235652,0.000000
3646.109925,-9474.636058,-4145.153275,1455.581446
3646.110255,-9474.636058,-4737.318029,1608.800546
3646.110585,-11695.253884,-4441.235652,612.876398
3646.110915,-13397.727550,-4589.276840,306.438199
3646.111245,-13101.645173,-4293.194464,-76.609550
3646.111575,-11621.233289,-4737.318029,-919.314598
3646.111905,-9400.615463,-4515.256246,-995.924147
3646.112235,-7698.141797,-4811.338623,-1149.143247
3646.112565,-7994.224174,-3923.091493,-1685.410096
3646.112895,-7254.018232,-3701.029710,-3064.381992
3646.113225,-7031.956449,-2960.823768,-3217.601092
3646.113555,-7920.203579,-1776.494261,-1225.752797
3646.113885,-10658.965565,-1332.370696,1072.533697
3646.114215,-12509.480420,-1332.370696,995.924147
3646.114545,-12139.377449,-2516.700203,0.000000
3646.114875,-11843.295072,-2886.803174,-689.485948
3646.115205,-11251.130318,-3330.926739,1608.800546
3646.115535,-9696.697840,-3404.947333,3447.429741
3646.115865,-7994.224174,-2072.576638,3294.210641
3646.116195,-7698.141797,-370.102971,1532.190996
3646.116525,-8438.347739,1036.288319,-766.095498
3646.116855,-9178.553681,1184.329507,-2068.457845
3646.117185,-10288.862594,1628.453072,-612.876398
3646.117515,-10732.986159,1332.370696,995.924147
3646.117845,-10288.862594,814.226536,1991.848295
3646.118175,-9548.656652,0.000000,1685.410096
3646.118505,-9474.636058,296.082377,919.314598
3646.118835,-11473.192101,814.226536,1149.143247
3646.119165,-11325.150913,1480.411884,0.000000
3646.119495,-10362.883188,2220.617826,0.000000
3646.119824,-7920.203579,1998.556043,1608.800546
3646.120154,-9252.574275,2368.659014,3447.429741
3646.120484,-10362.883188,2516.700203,3294.210641
3646.120814,-9844.739029,2812.782580,689.485948
3646.121144,-8734.430116,2960.823768,-1915.238745
3646.121474,-9178.553681,3404.947333,-2374.896044
3646.121804,-10881.027347,2960.823768,-1685.410096
3646.122134,-10510.924376,2516.700203,-842.705048
3646.122464,-9844.739029,2072.576638,-1302.362347
3646.122794,-9400.615463,2220.617826,-689.485948
3646.123124,-9474.636058,2220.617826,919.314598
3646.123454,-9326.594869,2812.782580,2451.505594
3646.123784,-9696.697840,2812.782580,1685.410096
3646.124114,-9474.636058,3404.947333,-153.219100
3646.124444,-9622.677246,3330.926739,-995.924147
3646.124774,-9178.553681,3034.844362,-612.876398
3646.125104,-9548.656652,2590.720797,0.000000
3646.125434,-9992.780217,2812.782580,229.828649
3646.125764,-9622.677246,2886.803174,0.000000
3646.126094,-9548.656652,2516.700203,-1685.410096
3646.126424,-10066.800811,2960.823768,-2528.115143
3646.126754,-10807.006753,2368.659014,-919.314598
3646.127084,-11177.109724,2442.679609,229.828649
3646.127414,-9326.594869,1776.494261,689.485948
3646.127744,-8068.244768,740.205942,1685.410096
3646.128074,-8882.471304,1554.432478,2451.505594
3646.128404,-9770.718434,1924.535449,2987.772442
3646.128734,-10362.883188,2220.617826,995.924147
3646.129064,-10436.903782,2442.679609,-919.314598
3646.129394,-10658.965565,2072.576638,-919.314598
3646.129724,-11251.130318,1702.473667,842.705048
3646.130054,-11029.068536,888.247130,1455.581446
3646.130384,-9844.739029,-148.041188,766.095498
3646.130714,-8808.450710,-148.041188,383.047749
3646.131044,-8882.471304,-222.061783,153.219100
3646.131374,-9474.636058,-296.082377,0.000000
3646.131704,-10066.800811,-296.082377,0.000000
3646.132034,-9992.780217,-296.082377,229.828649
3646.132364,-9622.677246,-296.082377,1225.752797
3646.132694,-9474.636058,-1036.288319,1149.143247
3646.133024,-9104.533087,-1332.370696,1685.410096
3646.133354,-9696.697840,-1258.350101,1378.971896
3646.133684,-11103.089130,-888.247130,229.828649
3646.134014,-10658.965565,-1628.453072,-766.095498
3646.134344,-9992.780217,-1998.556043,-1149.143247
3646.134674,-9548.656652,-2442.679609,76.609550
3646.135004,-9622.677246,-2664.741391,612.876398
3646.135333,-9030.512492,-2960.823768,536.266849
3646.135663,-8142.265362,-2516.700203,0.000000
3646.135993,-8068.244768,-2146.597232,-306.438199
3646.136323,-9844.739029,-1702.473667,-383.047749
3646.136653,-10881.027347,-1924.535449,-76.609550
3646.136983,-10955.047942,-2294.638420,0.000000
3646.137313,-10214.842000,-2812.782580,536.266849
3646.137643,-10140.821405,-3627.009116,1455.581446
3646.137973,-9548.656652,-3404.947333,1532.190996
3646.138303,-9030.512492,-3034.844362,842.705048
3646.138633,-9474.636058,-1998.556043,-459.657299
3646.138963,-9918.759623,-2146.597232,-383.047749
3646.139293,-10066.800811,-1258.350101,-612.876398
3646.139623,-9252.574275,-1776.494261,-612.876398
3646.139953,-9252.574275,-2072.576638,229.828649
3646.140283,-9770.718434,-1998.556043,766.095498
3646.140613,-9548.656652,-2146.597232,76.609550
3646.140943,-9548.656652,-1406.391290,-612.876398
3646.141273,-10066.800811,-1184.329507,-1455.581446
3646.141603,-10807.006753,-1036.288319,0.000000
3646.141933,-10436.903782,-1332.370696,383.047749
3646.142263,-9918.759623,-1332.370696,689.485948
3646.142593,-8956.491898,-962.267725,766.095498
3646.142923,-8734.430116,-666.185348,766.095498
3646.143253,-9474.636058,-296.082377,842.705048
3646.143583,-9696.697840,666.185348,-306.438199
3646.143913,-9548.656652,740.205942,-612.876398
3646.144243,-9770.718434,740.205942,-842.705048
3646.144573,-10436.903782,592.164754,-383.047749
3646.144903,-10140.821405,0.000000,459.657299
3646.145233,-9548.656652,0.000000,842.705048
3646.145563,-9104.533087,370.102971,612.876398
3646.145893,-8956.491898,666.185348,-153.219100
3646.146223,-9474.636058,1036.288319,-229.828649
3646.146553,-9770.718434,1702.473667,0.000000
3646.146883,-9770.718434,1776.494261,383.047749
3646.147213,-8956.491898,1480.411884,0.000000
3646.147543,-9030.512492,1480.411884,0.000000
3646.147873,-9104.533087,1554.432478,0.000000
3646.148203,-9770.718434,1850.514855,0.000000
3646.148533,-9918.759623,2442.679609,-995.924147
3646.148863,-9770.718434,2516.700203,-919.314598
3646.149193,-9770.718434,2146.597232,-1302.362347
3646.149523,-10140.821405,1776.494261,229.828649
3646.149853,-10140.821405,1554.432478,1532.190996
3646.150183,-8808.450710,1332.370696,1378.971896
3646.150513,-8586.388927,1628.453072,383.047749
3646.150842,-9252.574275,2294.638420,-459.657299
3646.151172,-10140.821405,2368.659014,229.828649
3646.151502,-10510.924376,2516.700203,919.314598
3646.151832,-10584.944971,2664.741391,1072.533697
3646.152162,-9770.718434,1554.432478,536.266849
3646.152492,-9474.636058,1480.411884,842.705048
3646.152822,-10214.842000,1998.556043,1455.581446
3646.153152,-10881.027347,1998.556043,1608.800546
3646.153482,-10288.862594,2368.659014,-919.314598
3646.153812,-9326.594869,2072.576638,-919.314598
3646.154142,-9252.574275,1628.453072,536.266849
3646.154472,-10362.883188,1702.473667,1915.238745
3646.154802,-10288.862594,1036.288319,2834.553343
3646.155132,-9474.636058,814.226536,2374.896044
3646.155462,-9400.615463,444.123565,766.095498
3646.155792,-10288.862594,888.247130,229.828649
3646.156122,-11547.212695,666.185348,612.876398
3646.156452,-10510.924376,148.041188,1225.752797
3646.156782,-9400.615463,-148.041188,1149.143247
3646.157112,-9030.512492,-518.144159,919.314598
3646.157442,-9178.553681,-1036.288319,1991.848295
3646.157772,-9622.677246,-592.164754,1685.410096
3646.158102,-9844.739029,0.000000,536.266849
3646.158432,-9844.739029,148.041188,-689.485948
3646.158762,-10066.800811,-148.041188,-689.485948
3646.159092,-10066.800811,-296.082377,0.000000
3646.159422,-9992.780217,-962.267725,766.095498
3646.159752,-9844.739029,-1406.391290,459.657299
3646.160082,-9252.574275,-1628.453072,306.438199
3646.160412,-9326.594869,-1406.391290,0.000000
3646.160742,-10362.883188,-1110.308913,0.000000
3646.161072,-10955.047942,-1110.308913,229.828649
3646.161402,-10288.862594,-1258.350101,0.000000
3646.161732,-9696.697840,-1554.432478,229.828649
3646.162062,-9474.636058,-1924.535449,0.000000
3646.162392,-9474.636058,-1850.514855,842.705048
3646.162722,-9474.636058,-1702.473667,689.485948
3646.163052,-9696.697840,-1628.453072,-459.657299
3646.163382,-9992.780217,-1184.329507,-1915.238745
3646.163712,-10362.883188,-1332.370696,-1378.971896
3646.164042,-10362.883188,-1480.411884,-306.438199
3646.164372,-10214.842000,-1702.473667,459.657299
3646.164702,-9622.677246,-1998.556043,612.876398
3646.165032,-9252.574275,-1776.494261,229.828649
3646.165362,-9622.677246,-1332.370696,0.000000
3646.165692,-10510.924376,-1036.288319,-766.095498
3646.166022,-10288.862594,-1258.350101,-76.609550
3646.166351,-10066.800811,-1184.329507,0.000000
3646.166681,-9770.718434,-1110.308913,229.828649
3646.167011,-9252.574275,-1702.473667,153.219100
3646.167341,-9474.636058,-1332.370696,1149.143247
3646.167671,-9474.636058,-1332.370696,0.000000
3646.168001,-10140.821405,-666.185348,-1225.752797
3646.168331,-9992.780217,-592.164754,-1378.971896
3646.168661,-9548.656652,-592.164754,-995.924147
3646.168991,-9178.553681,-1184.329507,0.000000
3646.169321,-9030.512492,-1258.350101,536.266849
3646.169651,-8660.409521,-1110.308913,689.485948
3646.169981,-8660.409521,-814.226536,306.438199
3646.170311,-9252.574275,0.000000,-383.047749
3646.170641,-10510.924376,666.185348,-995.924147
3646.170971,-10955.047942,740.205942,-766.095498
3646.171301,-10955.047942,444.123565,-229.828649
3646.171631,-10510.924376,296.082377,229.828649
3646.171961,-9696.697840,-222.061783,536.266849
3646.172291,-9030.512492,74.020594,842.705048
3646.172621,-9474.636058,444.123565,0.000000
3646.172951,-9400.615463,888.247130,153.219100
3646.173281,-9770.718434,1110.308913,-766.095498
3646.173611,-9844.739029,1332.370696,0.000000
3646.173941,-10140.821405,740.205942,1149.143247
3646.174271,-10066.800811,740.205942,2221.676944
3646.174601,-9548.656652,518.144159,2221.676944
3646.174931,-9548.656652,888.247130,1302.362347
3646.175261,-9992.780217,1406.391290,229.828649
3646.175591,-10584.944971,1554.432478,0.000000
3646.175921,-10584.944971,1554.432478,689.485948
3646.176251,-10288.862594,1628.453072,612.876398
3646.176581,-9400.615463,814.226536,383.047749
3646.176911,-9104.533087,740.205942,1072.533697
3646.177241,-8882.471304,888.247130,1532.190996
3646.177571,-9252.574275,1184.329507,612.876398
3646.177901,-9696.697840,1850.514855,0.000000
3646.178231,-9992.780217,1554.432478,-229.828649
3646.178561,-10362.883188,1924.535449,536.266849
3646.178891,-10510.924376,1554.432478,1378.971896
3646.179221,-10214.842000,1110.308913,2068.457845
3646.179551,-9918.759623,962.267725,1991.848295
3646.179881,-9622.677246,1184.329507,1072.533697
3646.180211,-10214.842000,1554.432478,-306.438199
3646.180541,-10288.862594,1332.370696,229.828649
3646.180871,-10658.965565,1480.411884,766.095498
3646.181201,-9992.780217,888.247130,612.876398
3646.181531,-9548.656652,1036.288319,536.266849
3646.181860,-9030.512492,444.123565,995.924147
3646.182190,-9326.594869,592.164754,995.924147
3646.182520,-9844.739029,592.164754,153.219100
3646.182850,-10214.842000,592.164754,-842.705048
3646.183180,-10436.903782,592.164754,-995.924147
3646.183510,-10214.842000,74.020594,-153.219100
3646.183840,-9844.739029,-222.061783,919.314598
3646.184170,-9474.636058,-444.123565,1378.971896
3646.184500,-8882.471304,0.000000,995.924147
3646.184830,-8734.430116,0.000000,-153.219100
3646.185160,-10066.800811,518.144159,-689.485948
3646.185490,-11251.130318,740.205942,-383.047749
3646.185820,-10955.047942,592.164754,153.219100
3646.186150,-9696.697840,0.000000,-919.314598
3646.186480,-9400.615463,-740.205942,-919.314598
3646.186810,-9030.512492,-1110.308913,153.219100
3646.187140,-9548.656652,-666.185348,1225.752797
3646.187470,-9992.780217,-296.082377,-229.828649
3646.187800,-10362.883188,0.000000,-1455.581446
3646.188130,-10288.862594,-296.082377,-1225.752797
3646.188460,-10066.800811,-666.185348,153.219100
3646.188790,-9474.636058,-1036.288319,995.924147
3646.189120,-9178.553681,-1332.370696,1991.848295
3646.189450,-8660.409521,-1258.350101,842.705048
3646.189780,-9104.533087,-740.205942,-306.438199
3646.190110,-9918.759623,296.082377,-612.876398
3646.190440,-11103.089130,0.000000,-919.314598
3646.190770,-10881.027347,-444.123565,-459.657299
3646.191100,-10140.821405,-888.247130,0.000000
3646.191430,-9918.759623,-1258.350101,1378.971896
3646.191760,-9400.615463,-1554.432478,995.924147
3646.192090,-9400.615463,-962.267725,536.266849
3646.192420,-9474.636058,-592.164754,-459.657299
3646.192750,-9622.677246,-296.082377,-1225.752797
3646.193080,-10066.800811,-296.082377,-612.876398
3646.193410,-9992.780217,-740.205942,766.095498
3646.193740,-9770.718434,-1332.370696,1762.019645
3646.194070,-9326.594869,-1702.473667,1455.581446
3646.194400,-9030.512492,-1332.370696,766.095498
3646.194730,-9474.636058,-814.226536,0.000000
3646.195060,-10214.842000,-592.164754,-383.047749
3646.195390,-10362.883188,-444.123565,-153.219100
3646.195720,-10066.800811,-592.164754,0.000000
3646.196050,-9178.553681,-518.144159,-306.438199
3646.196380,-9030.512492,-1036.288319,229.828649
3646.196710,-9252.574275,-740.205942,76.609550
3646.197040,-9326.594869,-592.164754,-306.438199
3646.197369,-9400.615463,-148.041188,-689.485948
3646.197699,-9844.739029,74.020594,-919.314598
3646.198029,-9844.739029,0.000000,0.000000
3646.198359,-9918.759623,-444.123565,612.876398
3646.198689,-8956.491898,-1110.308913,1838.629195
3646.199019,-9104.533087,-962.267725,1915.238745
3646.199349,-9548.656652,0.000000,1455.581446
3646.199679,-9770.718434,518.144159,459.657299
3646.200009,-10658.965565,814.226536,306.438199
3646.200339,-10658.965565,962.267725,-229.828649
3646.200669,-10066.800811,814.226536,0.000000
3646.200999,-9548.656652,370.102971,0.000000
3646.201329,-9252.574275,222.061783,1072.533697
3646.201659,-9474.636058,666.185348,689.485948
3646.201989,-9918.759623,1110.308913,76.609550
3646.202319,-10436.903782,1332.370696,-689.485948
3646.202649,-10584.944971,1332.370696,-842.705048
3646.202979,-10288.862594,1110.308913,0.000000
3646.203309,-10214.842000,740.205942,1378.971896
3646.203639,-9992.780217,518.144159,2221.676944
3646.203969,-9104.533087,592.164754,2298.286494
3646.204299,-9104.533087,962.267725,2068.457845
3646.204629,-9474.636058,1406.391290,383.047749
3646.204959,-10362.883188,1776.494261,383.047749
3646.205289,-10955.047942,1628.453072,612.876398
3646.205619,-10362.883188,1036.288319,1225.752797
3646.205949,-9844.739029,740.205942,919.314598
3646.206279,-9548.656652,518.144159,766.095498
3646.206609,-9326.594869,740.205942,153.219100
3646.206939,-9770.718434,1110.308913,-842.705048
3646.207269,-9918.759623,1036.288319,-1455.581446
3646.207599,-9622.677246,1406.391290,-842.705048
3646.207929,-9474.636058,1184.329507,383.047749
3646.208259,-9696.697840,592.164754,1608.800546
3646.208589,-9326.594869,148.041188,2221.676944
3646.208919,-9326.594869,592.164754,1685.410096
3646.209249,-9622.677246,666.185348,0.000000
3646.209579,-10584.944971,1184.329507,-612.876398
3646.209909,-10955.047942,1258.350101,-153.219100
3646.210239,-10807.006753,1036.288319,153.219100
3646.210569,-10140.821405,296.082377,153.219100
3646.210899,-9622.677246,148.041188,0.000000
3646.211229,-9252.574275,148.041188,0.000000
3646.211559,-9252.574275,74.020594,-76.609550
3646.211889,-9770.718434,740.205942,-1225.752797
3646.212219,-9992.780217,814.226536,-1685.410096
3646.212549,-9770.718434,888.247130,-1225.752797
3646.212879,-9474.636058,148.041188,-766.095498
3646.213208,-9844.739029,-296.082377,383.047749
3646.213538,-9696.697840,-444.123565,1455.581446
3646.213868,-9474.636058,-666.185348,842.705048
3646.214198,-9918.759623,-666.185348,612.876398
3646.214528,-10584.944971,-296.082377,-383.047749
3646.214858,-10436.903782,-296.082377,229.828649
3646.215188,-10214.842000,-444.123565,689.485948
3646.215518,-9548.656652,-1406.391290,612.876398
3646.215847,-9474.636058,-814.226536,-76.609550
3646.216177,-9104.533087,-1184.329507,306.438199
3646.216507,-9252.574275,-1110.308913,-153.219100
3646.216837,-9474.636058,-592.164754,-995.924147
3646.217167,-9844.739029,-592.164754,-1532.190996
3646.217496,-9474.636058,-1036.288319,-1149.143247
3646.217826,-9548.656652,-1554.432478,536.266849
3646.218156,-9400.615463,-1850.514855,1532.190996
3646.218486,-9252.574275,-1998.556043,1915.238745
3646.218815,-9474.636058,-1480.411884,919.314598
3646.219145,-9918.759623,-1036.288319,459.657299
3646.219475,-10881.027347,-740.205942,383.047749
3646.219805,-10658.965565,-592.164754,-306.438199
3646.220134,-10214.842000,-1110.308913,383.047749
3646.220464,-9326.594869,-1480.411884,0.000000
3646.220794,-9178.553681,-1776.494261,689.485948
3646.221124,-9104.533087,-1406.391290,536.266849
3646.221454,-9474.636058,-444.123565,-612.876398
3646.221783,-9918.759623,0.000000,-1685.410096
3646.222113,-10288.862594,-444.123565,-1685.410096
3646.222443,-9844.739029,-740.205942,-229.828649
3646.222773,-9622.677246,-1036.288319,1072.533697
3646.223102,-9326.594869,-1110.308913,1991.848295
3646.223432,-8882.471304,-962.267725,1455.581446
3646.223762,-9030.512492,-74.020594,689.485948
3646.224092,-9252.574275,444.123565,0.000000
3646.224421,-10807.006753,1110.308913,0.000000
3646.224751,-11547.212695,1036.288319,459.657299
3646.225081,-11029.068536,370.102971,766.095498
3646.225411,-9622.677246,74.020594,689.485948
3646.225741,-9030.512492,-148.041188,459.657299
3646.226070,-8956.491898,-296.082377,689.485948
3646.226400,-9548.656652,666.185348,-383.047749
3646.226730,-9548.656652,888.247130,-1149.143247
3646.227060,-9474.636058,1258.350101,-1378.971896
3646.227389,-9696.697840,888.247130,0.000000
3646.227719,-9918.759623,740.205942,1608.800546
3646.228049,-9548.656652,148.041188,2145.067394
3646.228379,-8808.450710,518.144159,1915.238745
3646.228709,-9178.553681,1184.329507,1149.143247
3646.229038,-10362.883188,1480.411884,306.438199
3646.229368,-10436.903782,1258.350101,229.828649
3646.229698,-10140.821405,962.267725,536.266849
3646.230028,-10510.924376,1110.308913,842.705048
3646.230357,-9400.615463,814.226536,689.485948
3646.230687,-8956.491898,740.205942,919.314598
3646.231017,-9474.636058,1110.308913,0.000000
3646.231347,-9622.677246,1554.432478,-1455.581446
3646.231676,-10066.800811,1702.473667,-1915.238745
3646.232006,-9622.677246,1554.432478,-1225.752797
3646.232336,-9770.718434,962.267725,153.219100
3646.232666,-9400.615463,666.185348,1685.410096
3646.232996,-9696.697840,74.020594,2068.457845
3646.233325,-9474.636058,0.000000,1455.581446
3646.233655,-9844.739029,962.267725,766.095498
3646.233985,-10658.965565,1110.308913,153.219100
3646.234315,-11325.150913,1036.288319,612.876398
3646.234644,-10510.924376,592.164754,536.266849
3646.234974,-9770.718434,592.164754,76.609550
3646.235304,-9030.512492,0.000000,0.000000
3646.235634,-9252.574275,296.082377,-306.438199
3646.235963,-9474.636058,444.123565,-689.485948
3646.236293,-10066.800811,740.205942,-1762.019645
3646.236623,-10510.924376,666.185348,-2221.676944
3646.236953,-10214.842000,0.000000,-1302.362347
3646.237283,-9622.677246,-222.061783,153.219100
3646.237612,-9252.574275,-962.267725,1072.533697
3646.237942,-9400.615463,-1110.308913,1685.410096
3646.238272,-9474.636058,-740.205942,1378.971896
3646.238602,-9622.677246,-444.123565,536.266849
3646.238931,-10436.903782,0.000000,229.828649
3646.239261,-10881.027347,148.041188,383.047749
3646.239591,-10807.006753,0.000000,0.000000
3646.239921,-10140.821405,-592.164754,0.000000
3646.240250,-9548.656652,-1332.370696,383.047749
3646.240580,-9252.574275,-1110.308913,306.438199
3646.240910,-9622.677246,-740.205942,-459.657299
3646.241240,-10140.821405,-370.102971,-1991.848295
3646.241570,-10214.842000,-370.102971,-2221.676944
3646.241899,-9548.656652,-666.185348,-995.924147
3646.242229,-9474.636058,-1258.350101,306.438199
3646.242559,-9474.636058,-1628.453072,1762.019645
3646.242889,-9326.594869,-1702.473667,1608.800546
3646.243218,-9252.574275,-1406.391290,1532.190996
3646.243548,-9770.718434,-888.247130,76.609550
3646.243878,-10362.883188,-518.144159,306.438199
3646.244208,-10732.986159,-592.164754,995.924147
3646.244537,-9992.780217,-740.205942,995.924147
3646.244867,-9326.594869,-1036.288319,612.876398
3646.245197,-9252.574275,-1406.391290,536.266849
3646.245527,-9622.677246,-740.205942,306.438199
3646.245857,-10214.842000,-370.102971,-1072.533697
3646.246186,-10140.821405,0.000000,-2068.457845
3646.246516,-9622.677246,-296.082377,-2374.896044
3646.246846,-9326.594869,-1036.288319,-1149.143247
3646.247176,-8956.491898,-962.267725,459.657299
3646.247505,-9178.553681,-1036.288319,1991.848295
3646.247835,-9326.594869,-592.164754,1608.800546
3646.248165,-9696.697840,0.000000,536.266849
3646.248495,-10658.965565,518.144159,536.266849
3646.248824,-11399.171507,592.164754,689.485948
3646.249154,-11251.130318,740.205942,1149.143247
3646.249484,-10584.944971,370.102971,459.657299
3646.249814,-9474.636058,0.000000,76.609550
3646.250144,-8734.430116,0.000000,306.438199
3646.250473,-9474.636058,444.123565,153.219100
3646.250803,-9918.759623,1036.288319,-153.219100
3646.251133,-10510.924376,1258.350101,-1225.752797
3646.251463,-10066.800811,814.226536,-689.485948
3646.251792,-9696.697840,592.164754,306.438199
3646.252122,-9696.697840,296.082377,1455.581446
3646.252452,-9548.656652,-296.082377,1991.848295
3646.252782,-9178.553681,296.082377,1915.238745
3646.253112,-9178.553681,740.205942,536.266849
3646.253441,-9696.697840,1258.350101,0.000000
3646.253771,-10436.903782,1406.391290,153.219100
3646.254101,-10732.986159,1406.391290,1455.581446
3646.254431,-9918.759623,888.247130,1149.143247
3646.254760,-9474.636058,592.164754,612.876398
3646.255090,-9474.636058,518.144159,612.876398
3646.255420,-9622.677246,888.247130,0.000000
3646.255750,-9844.739029,1406.391290,-995.924147
3646.256079,-10066.800811,1332.370696,-2145.067394
3646.256409,-9696.697840,1036.288319,-1455.581446
3646.256739,-9548.656652,296.082377,-612.876398
3646.257069,-9548.656652,296.082377,842.705048
3646.257399,-9326.594869,-296.082377,1455.581446
3646.257728,-8808.450710,0.000000,1302.362347
3646.258058,-9030.512492,814.226536,383.047749
3646.258388,-9992.780217,888.247130,766.095498
3646.258718,-10881.027347,1406.391290,689.485948
3646.259047,-10955.047942,1184.329507,612.876398
3646.259377,-10288.862594,740.205942,0.000000
3646.259707,-10066.800811,296.082377,0.000000
3646.260037,-9696.697840,296.082377,76.609550
3646.260366,-9918.759623,518.144159,0.000000
3646.260696,-10214.842000,1258.350101,-1685.410096
3646.261026,-9548.656652,444.123565,-2451.505594
3646.261356,-9326.594869,370.102971,-1685.410096
3646.261686,-9474.636058,148.041188,-383.047749
3646.262015,-9696.697840,0.000000,1149.143247
3646.262345,-9548.656652,0.000000,1838.629195
3646.262675,-9696.697840,148.041188,995.924147
3646.263005,-10288.862594,148.041188,383.047749
3646.263334,-10732.986159,222.061783,76.609550
3646.263664,-10955.047942,148.041188,995.924147
3646.263994,-10288.862594,-74.020594,1455.581446
3646.264324,-9104.533087,-592.164754,842.705048
3646.264653,-8882.471304,-888.247130,383.047749
3646.264983,-9326.594869,-814.226536,536.266849
3646.265313,-9844.739029,-370.102971,-536.266849
3646.265643,-9918.759623,0.000000,-1608.800546
3646.265973,-9992.780217,-148.041188,-2145.067394
3646.266302,-9474.636058,-518.144159,-919.314598
3646.266632,-9400.615463,-962.267725,0.000000
3646.266962,-9474.636058,-1332.370696,995.924147
3646.267292,-9326.594869,-1332.370696,1072.533697
3646.267621,-9252.574275,-1184.329507,919.314598
3646.267951,-10140.821405,-666.185348,-229.828649
3646.268281,-10510.924376,-666.185348,536.266849
3646.268611,-10362.883188,-814.226536,689.485948
3646.268940,-9770.718434,-888.247130,919.314598
3646.269270,-9252.574275,-1110.308913,459.657299
3646.269600,-8734.430116,-1110.308913,383.047749
3646.269930,-9104.533087,-962.267725,153.219100
3646.270260,-9844.739029,-444.123565,-612.876398
3646.270589,-10066.800811,-148.041188,-1915.238745
3646.270919,-10288.862594,-444.123565,-2068.457845
3646.271249,-10288.862594,-592.164754,-1455.581446
3646.271579,-9696.697840,-888.247130,0.000000
3646.271908,-9548.656652,-1628.453072,1455.581446
3646.272238,-8216.285956,-888.247130,1838.629195
3646.272568,-8882.471304,-592.164754,1072.533697
3646.272898,-9844.739029,74.020594,766.095498
3646.273227,-10658.965565,518.144159,459.657299
3646.273557,-11103.089130,444.123565,766.095498
3646.273887,-10510.924376,74.020594,842.705048
3646.274217,-9918.759623,0.000000,919.314598
3646.274547,-9400.615463,-296.082377,766.095498
3646.274876,-9770.718434,74.020594,306.438199
3646.275206,-10140.821405,518.144159,-766.095498
3646.275536,-10140.821405,444.123565,-1762.019645
3646.275866,-10066.800811,296.082377,-1149.143247
3646.276195,-9474.636058,0.000000,383.047749
3646.276525,-9104.533087,-148.041188,2068.457845
3646.276855,-9326.594869,-370.102971,2528.115143
3646.277185,-9104.533087,0.000000,1915.238745
3646.277514,-9178.553681,444.123565,689.485948
3646.277844,-10214.842000,1110.308913,536.266849
3646.278174,-10807.006753,1184.329507,459.657299
3646.278504,-10881.027347,1036.288319,1532.190996
3646.278834,-9844.739029,814.226536,919.314598
3646.279163,-9548.656652,444.123565,612.876398
3646.279493,-9548.656652,444.123565,766.095498
3646.279823,-9918.759623,962.267725,153.219100
3646.280153,-9992.780217,1554.432478,-842.705048
3646.280482,-9548.656652,1406.391290,-1685.410096
3646.280812,-9104.533087,888.247130,-1685.410096
3646.281142,-9548.656652,962.267725,-612.876398
3646.281472,-9474.636058,444.123565,459.657299
3646.281802,-8882.471304,0.000000,1149.143247
3646.282131,-8364.327145,222.061783,1762.019645
3646.282461,-9474.636058,1036.288319,306.438199
3646.282791,-10584.944971,962.267725,0.000000
3646.283121,-10510.924376,1184.329507,766.095498
3646.283450,-10510.924376,666.185348,766.095498
3646.283780,-9918.759623,592.164754,383.047749
3646.284110,-9030.512492,0.000000,0.000000
3646.284440,-8808.450710,370.102971,536.266849
3646.284769,-9178.553681,518.144159,0.000000
3646.285099,-9548.656652,1406.391290,-459.657299
3646.285429,-10584.944971,1406.391290,-1838.629195
3646.285759,-10288.862594,1036.288319,-1762.019645
3646.286089,-9844.739029,296.082377,-153.219100
3646.286418,-10214.842000,-296.082377,766.095498
3646.286748,-9622.677246,-592.164754,689.485948
3646.287078,-9030.512492,-296.082377,76.609550
3646.287408,-9104.533087,0.000000,-153.219100
3646.287737,-9992.780217,74.020594,153.219100
3646.288067,-10732.986159,0.000000,919.314598
3646.288397,-10288.862594,-148.041188,1455.581446
3646.288727,-9622.677246,-296.082377,766.095498
3646.289056,-9474.636058,-814.226536,766.095498
3646.289386,-9992.780217,-666.185348,536.266849
3646.289716,-10436.903782,-74.020594,0.000000
3646.290046,-10140.821405,-74.020594,-1302.362347
3646.290376,-9770.718434,-518.144159,-2298.286494
3646.290705,-9992.780217,-592.164754,-1302.362347
3646.291035,-9992.780217,-888.247130,229.828649
3646.291365,-10066.800811,-1406.391290,1532.190996
3646.291695,-9474.636058,-1628.453072,1378.971896
3646.292024,-8660.409521,-1628.453072,459.657299
3646.292354,-8956.491898,-962.267725,0.000000
3646.292684,-10140.821405,-888.247130,766.095498
3646.293014,-10510.924376,-666.185348,1455.581446
3646.293343,-10658.965565,-666.185348,1149.143247
3646.293673,-9622.677246,-962.267725,689.485948
3646.294003,-9622.677246,-1110.308913,842.705048
3646.294333,-9992.780217,-814.226536,153.219100
3646.294663,-10436.903782,-444.123565,-306.438199
3646.294992,-10288.862594,-370.102971,-1532.190996
3646.295322,-9992.780217,0.000000,-2068.457845
3646.295652,-9474.636058,-666.185348,-536.266849
3646.295982,-9548.656652,-1184.329507,689.485948
3646.296311,-9548.656652,-1554.432478,2145.067394
3646.296641,-9178.553681,-962.267725,1762.019645
3646.296971,-9252.574275,-518.144159,1072.533697
3646.297301,-9844.739029,148.041188,842.705048
3646.297630,-10510.924376,0.000000,1225.752797
3646.297960,-10807.006753,222.061783,1532.190996
3646.298290,-10584.944971,0.000000,1608.800546
3646.298620,-9918.759623,-148.041188,766.095498
3646.298950,-9474.636058,-370.102971,1072.533697
3646.299279,-9474.636058,0.000000,1072.533697
3646.299609,-9844.739029,592.164754,0.000000
3646.299939,-9844.739029,1110.308913,-1532.190996
3646.300269,-9844.739029,888.247130,-1685.410096
3646.300598,-10362.883188,1036.288319,0.000000
3646.300928,-10066.800811,518.144159,995.924147
3646.301258,-9770.718434,0.000000,1455.581446
3646.301588,-8956.491898,0.000000,1378.971896
3646.301917,-9030.512492,222.061783,1378.971896
3646.302247,-10066.800811,518.144159,229.828649
3646.302577,-10584.944971,518.144159,766.095498
3646.302907,-9918.759623,740.205942,1302.362347
3646.303237,-9252.574275,592.164754,1455.581446
3646.303566,-9326.594869,74.020594,1225.752797
3646.303896,-9474.636058,888.247130,1302.362347
3646.304226,-9918.759623,814.226536,0.000000
3646.304556,-10214.842000,1480.411884,-1991.848295
3646.304885,-10436.903782,1184.329507,-2451.505594
3646.305215,-10066.800811,1258.350101,-2451.505594
3646.305545,-9696.697840,740.205942,-536.266849
3646.305875,-9696.697840,370.102971,306.438199
3646.306204,-8956.491898,222.061783,1149.143247
3646.306534,-8660.409521,370.102971,153.219100
3646.306864,-9844.739029,888.247130,0.000000
3646.307194,-10732.986159,1036.288319,612.876398
3646.307524,-10732.986159,1184.329507,995.924147
3646.307853,-10214.842000,518.144159,1302.362347
3646.308183,-9474.636058,444.123565,229.828649
3646.308513,-9326.594869,0.000000,689.485948
3646.308843,-9622.677246,296.082377,1302.362347
3646.309172,-10362.883188,1110.308913,1072.533697
3646.309502,-10807.006753,1110.308913,-383.047749
3646.309832,-10288.862594,888.247130,-2068.457845
3646.310162,-10066.800811,962.267725,-1762.019645
3646.310492,-10066.800811,592.164754,76.609550
3646.310821,-9770.718434,74.020594,766.095498
3646.311151,-9400.615463,148.041188,1149.143247
3646.311481,-9030.512492,148.041188,383.047749
3646.311811,-9178.553681,518.144159,-153.219100
3646.312140,-10658.965565,518.144159,-459.657299
3646.312470,-10881.027347,148.041188,536.266849
3646.312800,-10510.924376,-370.102971,919.314598
3646.313130,-9622.677246,-740.205942,1302.362347
3646.313459,-9474.636058,-1036.288319,2068.457845
3646.313789,-9252.574275,-1036.288319,2145.067394
3646.314119,-9622.677246,-518.144159,919.314598
3646.314448,-10066.800811,-444.123565,-612.876398
3646.314778,-9844.739029,0.000000,-1532.190996
3646.315108,-9474.636058,-222.061783,-1608.800546
3646.315437,-9326.594869,-592.164754,0.000000
3646.315767,-9326.594869,-814.226536,995.924147
3646.316097,-8734.430116,-592.164754,1225.752797
3646.316426,-8956.491898,-740.205942,-306.438199
3646.316756,-10066.800811,-296.082377,-1072.533697
3646.317086,-11029.068536,-148.041188,-536.266849
3646.317415,-11251.130318,-296.082377,612.876398
3646.317745,-10140.821405,-740.205942,1225.752797
3646.318075,-9474.636058,-1258.350101,1532.190996
3646.318404,-8808.450710,-1184.329507,1838.629195
3646.318734,-9104.533087,-888.247130,1302.362347
3646.319064,-9918.759623,222.061783,229.828649
3646.319393,-10436.903782,296.082377,-1302.362347
3646.319723,-10584.944971,444.123565,-2068.457845
3646.320053,-10214.842000,0.000000,-689.485948
3646.320382,-9696.697840,-592.164754,0.000000
3646.320712,-9400.615463,-1332.370696,919.314598
3646.321042,-8660.409521,-814.226536,383.047749
3646.321371,-8734.430116,-740.205942,-153.219100
3646.321701,-9992.780217,296.082377,536.266849
3646.322031,-10881.027347,592.164754,1302.362347
3646.322360,-10881.027347,444.123565,1685.410096
3646.322690,-9770.718434,222.061783,1302.362347
3646.323020,-9474.636058,-222.061783,1225.752797
3646.323349,-9696.697840,0.000000,1915.238745
3646.323679,-10066.800811,74.020594,1072.533697
3646.324009,-10066.800811,592.164754,0.000000
3646.324338,-9992.780217,740.205942,-1302.362347
3646.324668,-9770.718434,888.247130,-766.095498
3646.324998,-10066.800811,222.061783,536.266849
3646.325327,-10140.821405,0.000000,1072.533697
3646.325657,-9400.615463,-222.061783,1455.581446
3646.325987,-8956.491898,-74.020594,842.705048
3646.326316,-9178.553681,592.164754,0.000000
3646.326646,-10066.800811,888.247130,383.047749
3646.326976,-10807.006753,1184.329507,919.314598
3646.327305,-10584.944971,666.185348,1149.143247
3646.327635,-9992.780217,814.226536,1302.362347
3646.327965,-9474.636058,74.020594,995.924147
3646.328294,-9474.636058,296.082377,1532.190996
3646.328624,-9844.739029,444.123565,919.314598
3646.328954,-9918.759623,1480.411884,-2298.286494
3646.329283,-9400.615463,1184.329507,-2757.943793
3646.329613,-9696.697840,1258.350101,-2068.457845
3646.329943,-9844.739029,592.164754,-766.095498
3646.330272,-9992.780217,888.247130,995.924147
3646.330602,-9252.574275,0.000000,995.924147
3646.330932,-8512.368333,222.061783,229.828649
3646.331261,-9178.553681,444.123565,-689.485948
3646.331591,-10362.883188,592.164754,-612.876398
3646.331921,-10658.965565,444.123565,0.000000
3646.332250,-10362.883188,222.061783,612.876398
3646.332580,-9474.636058,222.061783,1149.143247
3646.332910,-9252.574275,-296.082377,1532.190996
3646.333239,-9030.512492,592.164754,1378.971896
3646.333569,-9992.780217,518.144159,153.219100
3646.333899,-10510.924376,1110.308913,-1608.800546
3646.334228,-10584.944971,1258.350101,-2145.067394
3646.334558,-9992.780217,1406.391290,-1685.410096
3646.334888,-10214.842000,148.041188,-153.219100
3646.335217,-9844.739029,-444.123565,459.657299
3646.335547,-9178.553681,-370.102971,766.095498
3646.335877,-8882.471304,-370.102971,0.000000
3646.336206,-9326.594869,296.082377,-459.657299
3646.336536,-10732.986159,444.123565,0.000000
3646.336866,-11473.192101,370.102971,1455.581446
3646.337195,-10510.924376,0.000000,1608.800546
3646.337525,-9548.656652,-666.185348,1532.190996
3646.337855,-9178.553681,-962.267725,1685.410096
3646.338184,-9326.594869,-666.185348,919.314598
3646.338514,-9992.780217,0.000000,-76.609550
3646.338844,-9696.697840,0.000000,-919.314598
3646.339173,-10510.924376,370.102971,-1302.362347
3646.339503,-10140.821405,-296.082377,-689.485948
3646.339833,-9992.780217,-592.164754,153.219100
3646.340162,-9844.739029,-1184.329507,459.657299
3646.340492,-8882.471304,-1554.432478,383.047749
3646.340822,-8734.430116,-1110.308913,-383.047749
3646.341151,-9326.594869,-592.164754,-689.485948
3646.341481,-9696.697840,-666.185348,-229.828649
3646.341811,-10214.842000,-518.144159,306.438199
3646.342140,-9844.739029,-740.205942,306.438199
3646.342470,-9696.697840,-1258.350101,459.657299
3646.342800,-9178.553681,-1480.411884,842.705048
3646.343129,-9326.594869,-444.123565,919.314598
3646.343459,-9696.697840,-740.205942,-536.266849
3646.343789,-9770.718434,-74.020594,-1838.629195
3646.344118,-9622.677246,0.000000,-1455.581446
3646.344448,-9770.718434,-370.102971,-536.266849
3646.344778,-10066.800811,-518.144159,536.266849
3646.345107,-9992.780217,-740.205942,1072.533697
3646.345437,-9104.533087,-666.185348,459.657299
3646.345767,-9252.574275,0.000000,-612.876398
3646.346096,-10436.903782,370.102971,-306.438199
3646.346426,-10732.986159,148.041188,306.438199
3646.346756,-10658.965565,296.082377,995.924147
3646.347085,-9696.697840,-518.144159,1072.533697
3646.347415,-9326.594869,-518.144159,1762.019645
3646.347745,-9400.615463,-518.144159,2221.676944
3646.348074,-10214.842000,-222.061783,2298.286494
3646.348404,-10658.965565,592.164754,536.266849
3646.348734,-10140.821405,814.226536,-383.047749
3646.349063,-9622.677246,296.082377,-1072.533697
3646.349393,-9918.759623,370.102971,383.047749
3646.349723,-9696.697840,-74.020594,1685.410096
3646.350052,-9104.533087,-222.061783,1838.629195
3646.350382,-8956.491898,222.061783,536.266849
3646.350712,-9400.615463,666.185348,-306.438199
3646.351041,-10140.821405,518.144159,-383.047749
3646.351371,-10807.006753,888.247130,689.485948
3646.351701,-10214.842000,518.144159,1302.362347
3646.352030,-8882.471304,370.102971,689.485948
3646.352360,-8290.306550,0.000000,1685.410096
3646.352690,-9030.512492,148.041188,2145.067394
3646.353019,-10436.903782,666.185348,766.095498
3646.353349,-10584.944971,1406.391290,-1149.143247
3646.353679,-10436.903782,1110.308913,-1685.410096
3646.354008,-9474.636058,814.226536,-1225.752797
3646.354338,-9474.636058,592.164754,383.047749
3646.354668,-9326.594869,592.164754,689.485948
3646.354997,-8660.409521,370.102971,612.876398
3646.355327,-9178.553681,888.247130,-612.876398
3646.355657,-10214.842000,1406.391290,-1685.410096
3646.355986,-11399.171507,1332.370696,-1072.533697
3646.356316,-11251.130318,1036.288319,-383.047749
3646.356646,-9696.697840,518.144159,536.266849
3646.356975,-8586.388927,0.000000,459.657299
3646.357305,-8660.409521,0.000000,995.924147
3646.357635,-9918.759623,666.185348,919.314598
3646.357964,-10732.986159,666.185348,612.876398
3646.358294,-10732.986159,1036.288319,-612.876398
3646.358624,-10955.047942,1110.308913,-1072.533697
3646.358953,-10584.944971,370.102971,-1149.143247
3646.359283,-9992.780217,0.000000,76.609550
3646.359613,-9326.594869,-518.144159,306.438199
3646.359942,-8438.347739,-592.164754,76.609550
3646.360272,-8438.347739,0.000000,0.000000
3646.360602,-9548.656652,888.247130,76.609550
3646.360931,-10881.027347,814.226536,0.000000
3646.361261,-10881.027347,666.185348,76.609550
3646.361591,-10510.924376,0.000000,459.657299
3646.361920,-9622.677246,-888.247130,842.705048
3646.362250,-9622.677246,-1258.350101,1762.019645
3646.362580,-9474.636058,-592.164754,2221.676944
3646.362909,-9548.656652,-296.082377,459.657299
3646.363239,-9252.574275,370.102971,-842.705048
3646.363569,-9622.677246,222.061783,-1685.410096
3646.363898,-10362.883188,148.041188,-229.828649
3646.364228,-10436.903782,0.000000,919.314598
3646.364558,-9992.780217,-814.226536,1225.752797
3646.364887,-8882.471304,-740.205942,383.047749
3646.365217,-9030.512492,-370.102971,-536.266849
3646.365547,-9696.697840,-148.041188,-1149.143247
3646.365876,-10584.944971,0.000000,-1225.752797
3646.366206,-10066.800811,0.000000,153.219100
3646.366536,-10066.800811,-296.082377,842.705048
3646.366865,-9548.656652,-888.247130,1378.971896
3646.367195,-9548.656652,-962.267725,1915.238745
3646.367525,-9326.594869,-444.123565,1149.143247
3646.367854,-9548.656652,0.000000,-383.047749
3646.368184,-9992.780217,148.041188,-1302.362347
3646.368514,-10214.842000,74.020594,-689.485948
3646.368843,-10510.924376,0.000000,153.219100
3646.369173,-10362.883188,-740.205942,536.266849
3646.369503,-9474.636058,-1184.329507,612.876398
3646.369832,-8364.327145,-1036.288319,-229.828649
3646.370162,-8586.388927,-370.102971,-536.266849
3646.370492,-9474.636058,296.082377,-306.438199
3646.370821,-10807.006753,592.164754,76.609550
3646.371151,-10436.903782,296.082377,536.266849
3646.371481,-9548.656652,0.000000,689.485948
3646.371810,-8956.491898,-592.164754,1149.143247
3646.372140,-9474.636058,-370.102971,2068.457845
3646.372470,-9992.780217,-370.102971,1532.190996
3646.372799,-9844.739029,444.123565,306.438199
3646.373129,-10066.800811,370.102971,-1302.362347
3646.373459,-10140.821405,444.123565,-612.876398
3646.373788,-10362.883188,148.041188,842.705048
3646.374118,-9844.739029,148.041188,1455.581446
3646.374448,-9178.553681,-74.020594,1149.143247
3646.374777,-8660.409521,0.000000,153.219100
3646.375107,-9548.656652,222.061783,-766.095498
3646.375437,-10066.800811,296.082377,0.000000
3646.375766,-10658.965565,1036.288319,766.095498
3646.376096,-9696.697840,1184.329507,1532.190996
3646.376426,-9474.636058,370.102971,1149.143247
3646.376755,-9474.636058,0.000000,1149.143247
3646.377085,-10288.862594,74.020594,1685.410096
3646.377415,-10066.800811,666.185348,383.047749
3646.377744,-10584.944971,962.267725,0.000000
3646.378074,-9844.739029,962.267725,-612.876398
3646.378404,-9474.636058,518.144159,-229.828649
3646.378733,-9474.636058,370.102971,689.485948
3646.379063,-9400.615463,148.041188,766.095498
3646.379393,-9326.594869,518.144159,536.266849
3646.379722,-8956.491898,592.164754,-306.438199
3646.380052,-9770.718434,1258.350101,-995.924147
3646.380382,-10288.862594,1332.370696,-919.314598
3646.380711,-10658.965565,1258.350101,76.609550
3646.381041,-9992.780217,444.123565,-76.609550
3646.381371,-9178.553681,0.000000,76.609550
3646.381700,-8734.430116,-148.041188,919.314598
3646.382030,-9548.656652,296.082377,1455.581446
3646.382360,-9992.780217,1110.308913,306.438199
3646.382689,-10288.862594,1332.370696,-919.314598
3646.383019,-10066.800811,1554.432478,-2451.505594
3646.383349,-10140.821405,1110.308913,-1149.143247
3646.383678,-10510.924376,1110.308913,229.828649
3646.384008,-10214.842000,222.061783,1072.533697
3646.384338,-9030.512492,74.020594,383.047749
3646.384667,-8882.471304,222.061783,-306.438199
3646.384997,-10362.883188,740.205942,-689.485948
3646.385327,-11029.068536,444.123565,-919.314598
3646.385656,-10807.006753,222.061783,-229.828649
3646.385986,-9474.636058,-222.061783,0.000000
3646.386316,-9400.615463,-666.185348,1302.362347
3646.386645,-9474.636058,-444.123565,1915.238745
3646.386975,-9548.656652,-444.123565,1685.410096
3646.387305,-9844.739029,222.061783,-383.047749
3646.387634,-9992.780217,148.041188,-1302.362347
3646.387964,-10436.903782,0.000000,-1302.362347
3646.388294,-10807.006753,-444.123565,153.219100
3646.388623,-10066.800811,-962.267725,536.266849
3646.388953,-9326.594869,-1554.432478,995.924147
3646.389283,-8438.347739,-1406.391290,76.609550
3646.389612,-8882.471304,-962.267725,-383.047749
3646.389942,-9326.594869,-444.123565,-689.485948
3646.390272,-9918.759623,-518.144159,76.609550
3646.390601,-10066.800811,0.000000,383.047749
3646.390931,-9770.718434,-962.267725,536.266849
3646.391261,-9992.780217,-1480.411884,919.314598
3646.391590,-9622.677246,-1628.453072,1225.752797
3646.391920,-9548.656652,-1702.473667,612.876398
3646.392250,-9400.615463,-1110.308913,-383.047749
3646.392579,-9400.615463,-666.185348,-1072.533697
3646.392909,-9696.697840,-444.123565,-536.266849
3646.393239,-9770.718434,-592.164754,766.095498
3646.393568,-9918.759623,-518.144159,842.705048
3646.393898,-9844.739029,-888.247130,766.095498
3646.394228,-9548.656652,-518.144159,0.000000
3646.394557,-9844.739029,-296.082377,-459.657299
3646.394887,-10214.842000,-518.144159,-383.047749
3646.395217,-10436.903782,74.020594,-153.219100
3646.395546,-10140.821405,-222.061783,153.219100
3646.395876,-9548.656652,0.000000,306.438199
3646.396206,-9696.697840,-444.123565,842.705048
3646.396535,-9622.677246,-370.102971,2145.067394
3646.396865,-10362.883188,74.020594,1532.190996
3646.397195,-10510.924376,370.102971,229.828649
3646.397524,-10066.800811,296.082377,76.609550
3646.397854,-10066.800811,740.205942,229.828649
3646.398184,-9622.677246,148.041188,995.924147
3646.398513,-9770.718434,296.082377,1149.143247
3646.398843,-9696.697840,222.061783,1225.752797
3646.399173,-9178.553681,0.000000,612.876398
3646.399502,-9992.780217,444.123565,-306.438199
3646.399832,-10436.903782,444.123565,-306.438199
3646.400162,-10066.800811,518.144159,536.266849
3646.400491,-9104.533087,222.061783,383.047749
3646.400821,-8660.409521,0.000000,536.266849
3646.401151,-8734.430116,74.020594,995.924147
3646.401480,-9400.615463,592.164754,1762.019645
3646.401810,-9844.739029,814.226536,1149.143247
3646.402140,-10510.924376,1628.453072,-76.609550
3646.402469,-10214.842000,1184.329507,-1072.533697
3646.402799,-10066.800811,1036.288319,-995.924147
3646.403129,-9918.759623,814.226536,0.000000
3646.403458,-9770.718434,296.082377,612.876398
3646.403788,-9104.533087,592.164754,383.047749
3646.404118,-8882.471304,444.123565,-383.047749
3646.404447,-9474.636058,1258.350101,-1072.533697
3646.404777,-10066.800811,1110.308913,-995.924147
3646.405107,-9918.759623,1406.391290,-306.438199
3646.405436,-9696.697840,1332.370696,0.000000
3646.405766,-9104.533087,592.164754,-383.047749
3646.406096,-9770.718434,518.144159,766.095498
3646.406425,-9770.718434,370.102971,1072.533697
3646.406755,-10436.903782,888.247130,153.219100
3646.407085,-10214.842000,592.164754,-1149.143247
3646.407414,-9770.718434,592.164754,-1149.143247
3646.407744,-9400.615463,592.164754,-383.047749
3646.408074,-9844.739029,370.102971,1072.533697
3646.408403,-9622.677246,0.000000,1378.971896
3646.408733,-9474.636058,74.020594,612.876398
3646.409063,-9474.636058,0.000000,153.219100
3646.409392,-10214.842000,592.164754,-995.924147
3646.409722,-10955.047942,370.102971,-919.314598
3646.410052,-10510.924376,0.000000,-766.095498
3646.410381,-9252.574275,-296.082377,-229.828649
3646.410711,-9030.512492,-814.226536,459.657299
3646.411041,-9622.677246,-666.185348,1455.581446
3646.411370,-9918.759623,-666.185348,1838.629195
3646.411700,-10288.862594,0.000000,536.266849
3646.412030,-10140.821405,0.000000,-766.095498
3646.412359,-10436.903782,-518.144159,-383.047749
3646.412689,-10140.821405,-740.205942,689.485948
3646.413019,-9696.697840,-1480.411884,1838.629195
3646.413348,-9252.574275,-888.247130,1915.238745
3646.413678,-9030.512492,-1184.329507,919.314598
3646.414008,-9178.553681,-814.226536,-229.828649
3646.414337,-10362.883188,-444.123565,-536.266849
3646.414667,-10436.903782,0.000000,76.609550
3646.414997,-10288.862594,-592.164754,0.000000
3646.415326,-9696.697840,-1110.308913,76.609550
3646.415656,-9178.553681,-1480.411884,612.876398
3646.415986,-9326.594869,-1554.432478,1225.752797
3646.416315,-9474.636058,-962.267725,612.876398
3646.416645,-9548.656652,-888.247130,-76.609550
3646.416975,-9770.718434,-370.102971,-766.095498
3646.417305,-10066.800811,-666.185348,0.000000
3646.417634,-10066.800811,-518.144159,995.924147
3646.417964,-9770.718434,-962.267725,1685.410096
3646.418294,-9030.512492,-962.267725,1455.581446
3646.418623,-8956.491898,-814.226536,995.924147
3646.418953,-9770.718434,74.020594,0.000000
3646.419283,-10658.965565,222.061783,0.000000
3646.419612,-10955.047942,296.082377,-306.438199
3646.419942,-9844.739029,74.020594,0.000000
3646.420272,-9104.533087,148.041188,229.828649
3646.420602,-9178.553681,-370.102971,1149.143247
3646.420931,-9400.615463,0.000000,1302.362347
3646.421261,-9548.656652,592.164754,995.924147
3646.421591,-10362.883188,962.267725,-612.876398
3646.421920,-10436.903782,888.247130,-1149.143247
3646.422250,-10658.965565,888.247130,306.438199
3646.422580,-11103.089130,740.205942,1072.533697
3646.422910,-9918.759623,74.020594,1225.752797
3646.423239,-8364.327145,0.000000,1149.143247
3646.423569,-7920.203579,444.123565,383.047749
3646.423899,-9474.636058,1332.370696,-383.047749
3646.424228,-10658.965565,1480.411884,-612.876398
3646.424558,-10436.903782,962.267725,-766.095498
3646.424888,-9844.739029,962.267725,-76.609550
3646.425218,-9548.656652,296.082377,153.219100
3646.425547,-9104.533087,0.000000,995.924147
3646.425877,-9104.533087,222.061783,612.876398
3646.426207,-9400.615463,666.185348,306.438199
3646.426536,-9548.656652,1036.288319,-766.095498
3646.426866,-10288.862594,1036.288319,-842.705048
3646.427196,-10214.842000,1110.308913,153.219100
3646.427525,-10288.862594,1110.308913,995.924147
3646.427855,-9696.697840,148.041188,1225.752797
3646.428185,-8956.491898,0.000000,1072.533697
3646.428515,-9178.553681,444.123565,229.828649
3646.428844,-10066.800811,1258.350101,-919.314598
3646.429174,-10066.800811,1110.308913,-1225.752797
3646.429504,-10066.800811,814.226536,-689.485948
3646.429833,-9696.697840,666.185348,0.000000
3646.430163,-9622.677246,0.000000,-76.609550
3646.430493,-9474.636058,0.000000,459.657299
3646.430823,-9622.677246,0.000000,689.485948
3646.431152,-9622.677246,148.041188,0.000000
3646.431482,-10140.821405,740.205942,-995.924147
3646.431812,-10288.862594,740.205942,-995.924147
3646.432141,-10214.842000,444.123565,-306.438199
3646.432471,-9918.759623,0.000000,919.314598
3646.432801,-9844.739029,-370.102971,1532.190996
3646.433130,-9326.594869,-740.205942,1225.752797
3646.433460,-9474.636058,370.102971,-536.266849
3646.433790,-9918.759623,74.020594,-1378.971896
3646.434120,-10288.862594,148.041188,-919.314598
3646.434449,-10288.862594,0.000000,0.000000
3646.434779,-9918.759623,0.000000,536.266849
3646.435109,-9474.636058,-814.226536,306.438199
3646.435438,-9252.574275,-740.205942,1455.581446
3646.435768,-9696.697840,-962.267725,919.314598
3646.436098,-10362.883188,0.000000,229.828649
3646.436428,-10214.842000,0.000000,-612.876398
3646.436757,-10140.821405,-444.123565,-383.047749
3646.437087,-9918.759623,-666.185348,766.095498
3646.437417,-9844.739029,-1110.308913,2068.457845
3646.437746,-9548.656652,-1480.411884,2145.067394
3646.438076,-9030.512492,-1110.308913,1378.971896
3646.438406,-9326.594869,-370.102971,0.000000
3646.438736,-10066.800811,-296.082377,-1072.533697
3646.439065,-10288.862594,-444.123565,-153.219100
3646.439395,-10362.883188,-444.123565,766.095498
3646.439725,-9548.656652,-740.205942,536.266849
3646.440054,-9326.594869,-1184.329507,383.047749
3646.440384,-9326.594869,-1110.308913,1225.752797
3646.440714,-9770.718434,-592.164754,612.876398
3646.441043,-10140.821405,0.000000,-383.047749
3646.441373,-10362.883188,222.061783,-1149.143247
3646.441703,-9918.759623,0.000000,-919.314598
3646.442033,-9474.636058,-592.164754,842.705048
3646.442362,-9622.677246,-814.226536,1838.629195
3646.442692,-9252.574275,-888.247130,1685.410096
3646.443022,-8956.491898,-666.185348,612.876398
3646.443351,-9252.574275,0.000000,-383.047749
3646.443681,-10362.883188,296.082377,-612.876398
3646.444011,-10658.965565,370.102971,229.828649
3646.444341,-10140.821405,296.082377,689.485948
3646.444670,-9326.594869,0.000000,229.828649
3646.445000,-9400.615463,-296.082377,995.924147
3646.445330,-9622.677246,0.000000,1532.190996
3646.445659,-9844.739029,444.123565,766.095498
3646.445989,-9844.739029,1036.288319,-919.314598
3646.446319,-9992.780217,888.247130,-1532.190996
3646.446649,-10288.862594,814.226536,0.000000
3646.446978,-10214.842000,74.020594,1149.143247
3646.447308,-9770.718434,0.000000,1762.019645
3646.447638,-9326.594869,0.000000,1455.581446
3646.447967,-8660.409521,222.061783,306.438199
3646.448297,-9548.656652,740.205942,0.000000
3646.448627,-10510.924376,666.185348,153.219100
3646.448956,-10955.047942,962.267725,1225.752797
3646.449286,-10140.821405,740.205942,459.657299
3646.449616,-9326.594869,444.123565,306.438199
3646.449946,-8956.491898,74.020594,766.095498
3646.450275,-9400.615463,740.205942,995.924147
3646.450605,-9844.739029,888.247130,0.000000
3646.450935,-10214.842000,1332.370696,-1532.190996
3646.451264,-10066.800811,1258.350101,-1762.019645
3646.451594,-10362.883188,888.247130,-306.438199
3646.451924,-9992.780217,0.000000,1225.752797
3646.452254,-9696.697840,-518.144159,1838.629195
3646.452583,-8956.491898,-296.082377,689.485948
3646.452913,-8956.491898,0.000000,229.828649
3646.453243,-9696.697840,296.082377,0.000000
3646.453572,-10732.986159,1036.288319,-76.609550
3646.453902,-10584.944971,666.185348,-153.219100
3646.454232,-9770.718434,0.000000,0.000000
3646.454561,-9178.553681,-740.205942,459.657299
3646.454891,-9252.574275,0.000000,1072.533697
3646.455221,-9178.553681,0.000000,536.266849
3646.455551,-9696.697840,444.123565,-766.095498
3646.455880,-9918.759623,222.061783,-1762.019645
3646.456210,-9696.697840,222.061783,-1225.752797
3646.456540,-9844.739029,148.041188,229.828649
3646.456869,-9770.718434,0.000000,1532.190996
3646.457199,-9696.697840,-296.082377,1838.629195
3646.457529,-9474.636058,0.000000,1378.971896
3646.457859,-9548.656652,74.020594,-229.828649
3646.458188,-10510.924376,740.205942,-842.705048
3646.458518,-11103.089130,518.144159,-689.485948
3646.458848,-10214.842000,222.061783,536.266849
3646.459177,-9178.553681,0.000000,0.000000
3646.459507,-8956.491898,-740.205942,689.485948
3646.459837,-9474.636058,-370.102971,842.705048
3646.460167,-10066.800811,0.000000,459.657299
3646.460496,-10436.903782,296.082377,-459.657299
3646.460826,-10436.903782,370.102971,-1225.752797
3646.461156,-10510.924376,0.000000,-383.047749
3646.461485,-9918.759623,-592.164754,383.047749
3646.461815,-9696.697840,-1110.308913,1302.362347
3646.462145,-9104.533087,-1480.411884,1608.800546
3646.462474,-8956.491898,-740.205942,1149.143247
3646.462804,-9622.677246,-74.020594,-229.828649
3646.463134,-10066.800811,296.082377,-612.876398
3646.463464,-10732.986159,74.020594,153.219100
3646.463793,-10436.903782,0.000000,383.047749
3646.464123,-9474.636058,-592.164754,459.657299
3646.464453,-9030.512492,-1036.288319,1455.581446
3646.464782,-8808.450710,-1258.350101,995.924147
3646.465112,-9474.636058,-518.144159,76.609550
3646.465442,-9696.697840,148.041188,-1149.143247
3646.465772,-10214.842000,444.123565,-1608.800546
3646.466101,-10066.800811,148.041188,-689.485948
3646.466431,-9770.718434,-222.061783,1149.143247
3646.466761,-9770.718434,-370.102971,1685.410096
3646.467090,-9326.594869,-592.164754,1838.629195
3646.467420,-9030.512492,-74.020594,536.266849
3646.467750,-9548.656652,222.061783,-689.485948
3646.468080,-10584.944971,296.082377,-689.485948
3646.468409,-10807.006753,296.082377,-229.828649
3646.468739,-10288.862594,0.000000,1532.190996
3646.469069,-9548.656652,0.000000,995.924147
3646.469398,-9474.636058,-370.102971,1302.362347
3646.469728,-9696.697840,222.061783,1225.752797
3646.470058,-9844.739029,592.164754,536.266849
3646.470387,-9918.759623,666.185348,-612.876398
3646.470717,-10288.862594,814.226536,-612.876398
3646.471047,-10140.821405,666.185348,153.219100
3646.471377,-10214.842000,0.000000,995.924147
3646.471706,-9252.574275,-444.123565,1455.581446
3646.472036,-8882.471304,-148.041188,1149.143247
3646.472366,-9104.533087,370.102971,229.828649
3646.472695,-9918.759623,1036.288319,0.000000
3646.473025,-10510.924376,814.226536,153.219100
3646.473355,-10584.944971,888.247130,766.095498
3646.473685,-10140.821405,888.247130,536.266849
3646.474014,-9770.718434,592.164754,536.266849
3646.474344,-9696.697840,0.000000,612.876398
3646.474674,-9918.759623,296.082377,842.705048
3646.475003,-9696.697840,592.164754,-76.609550
3646.475333,-9770.718434,962.267725,-1378.971896
3646.475663,-9696.697840,1110.308913,-1608.800546
3646.475992,-9548.656652,370.102971,76.609550
3646.476322,-10066.800811,296.082377,1072.533697
3646.476652,-9770.718434,0.000000,1455.581446
3646.476982,-9252.574275,0.000000,995.924147
3646.477311,-9474.636058,222.061783,612.876398
3646.477641,-9918.759623,370.102971,-459.657299
3646.477971,-10436.903782,74.020594,-459.657299
3646.478300,-9770.718434,296.082377,-229.828649
3646.478630,-9326.594869,370.102971,689.485948
3646.478960,-8882.471304,0.000000,459.657299
3646.479290,-9104.533087,0.000000,766.095498
3646.479619,-9622.677246,0.000000,383.047749
3646.479949,-10140.821405,962.267725,-536.266849
3646.480279,-10807.006753,962.267725,-2145.067394
3646.480608,-10140.821405,518.144159,-1915.238745
3646.480938,-9474.636058,0.000000,-459.657299
3646.481268,-9696.697840,-222.061783,919.314598
3646.481598,-9696.697840,-148.041188,1762.019645
3646.481927,-9400.615463,-222.061783,1072.533697
3646.482257,-9400.615463,0.000000,-306.438199
3646.482587,-10288.862594,370.102971,-919.314598
3646.482916,-10732.986159,518.144159,459.657299
3646.483246,-10732.986159,148.041188,689.485948
3646.483576,-9622.677246,-444.123565,1225.752797
3646.483905,-9326.594869,-814.226536,919.314598
3646.484235,-9252.574275,-814.226536,612.876398
3646.484565,-10066.800811,-518.144159,0.000000
3646.484895,-10288.862594,74.020594,-995.924147
3646.485224,-9844.739029,0.000000,-1608.800546
3646.485554,-9770.718434,-148.041188,-766.095498
3646.485884,-9844.739029,-740.205942,153.219100
3646.486213,-9622.677246,-1036.288319,919.314598
3646.486543,-9252.574275,-1776.494261,1455.581446
3646.486873,-9400.615463,-814.226536,536.266849
3646.487203,-9844.739029,-962.267725,76.609550
3646.487532,-9548.656652,-814.226536,76.609550
3646.487862,-10066.800811,-962.267725,1225.752797
3646.488192,-10362.883188,-888.247130,1302.362347
3646.488521,-9770.718434,-962.267725,1455.581446
3646.488851,-9252.574275,-1406.391290,383.047749
3646.489181,-9178.553681,-888.247130,306.438199
3646.489511,-9548.656652,-444.123565,0.000000
3646.489840,-10362.883188,74.020594,-1149.143247
3646.490170,-10214.842000,0.000000,-1762.019645
3646.490500,-9844.739029,-74.020594,-1225.752797
3646.490829,-9622.677246,-296.082377,76.609550
3646.491159,-9770.718434,-1110.308913,995.924147
3646.491489,-9474.636058,-814.226536,1532.190996
3646.491818,-9104.533087,-666.185348,842.705048
3646.492148,-9844.739029,222.061783,306.438199
3646.492478,-10658.965565,296.082377,689.485948
3646.492808,-11325.150913,666.185348,1225.752797
3646.493137,-10807.006753,444.123565,995.924147
3646.493467,-10140.821405,0.000000,1302.362347
3646.493797,-9252.574275,-518.144159,995.924147
3646.494126,-9474.636058,74.020594,1149.143247
3646.494456,-9326.594869,518.144159,306.438199
3646.494786,-9918.759623,962.267725,-1225.752797
3646.495116,-10140.821405,962.267725,-1532.190996
3646.495445,-9918.759623,740.205942,-459.657299
3646.495775,-9474.636058,518.144159,1378.971896
3646.496105,-9622.677246,370.102971,1532.190996
3646.496434,-9326.594869,222.061783,1532.190996
3646.496764,-8734.430116,444.123565,153.219100
3646.497094,-9770.718434,1332.370696,459.657299
3646.497423,-10584.944971,1184.329507,995.924147
3646.497753,-10732.986159,1332.370696,1532.190996
3646.498083,-9770.718434,962.267725,1225.752797
3646.498413,-9030.512492,592.164754,536.266849
3646.498742,-9252.574275,740.205942,1072.533697
3646.499072,-9696.697840,962.267725,1149.143247
3646.499402,-9992.780217,1406.391290,-76.609550
3646.499731,-9918.759623,1628.453072,-1685.410096
3646.500061,-10436.903782,1406.391290,-1455.581446
3646.500391,-9918.759623,888.247130,-459.657299
3646.500721,-10140.821405,592.164754,842.705048
3646.501050,-9548.656652,74.020594,1685.410096
3646.501380,-8956.491898,592.164754,1762.019645
3646.501710,-9474.636058,888.247130,612.876398
3646.502039,-10214.842000,1110.308913,76.609550
3646.502369,-10881.027347,1036.288319,919.314598
3646.502699,-10658.965565,592.164754,842.705048
3646.503029,-9992.780217,666.185348,536.266849
3646.503358,-9400.615463,296.082377,229.828649
3646.503688,-9548.656652,0.000000,612.876398
3646.504018,-9548.656652,0.000000,229.828649
3646.504347,-9696.697840,444.123565,-1838.629195
3646.504677,-9770.718434,518.144159,-2298.286494
3646.505007,-10140.821405,888.247130,-1608.800546
3646.505336,-10066.800811,148.041188,-383.047749
3646.505666,-10066.800811,-444.123565,766.095498
3646.505996,-9474.636058,-888.247130,842.705048
3646.506326,-9474.636058,-888.247130,919.314598
3646.506655,-9474.636058,-666.185348,153.219100
3646.506985,-9844.739029,-592.164754,-76.609550
3646.507315,-10140.821405,-370.102971,306.438199
3646.507644,-10214.842000,-444.123565,919.314598
3646.507974,-9622.677246,-740.205942,229.828649
3646.508304,-9326.594869,-1258.350101,766.095498
3646.508634,-9474.636058,-962.267725,842.705048
3646.508963,-9844.739029,-1036.288319,306.438199
3646.509293,-10066.800811,-444.123565,-919.314598
3646.509623,-9918.759623,-518.144159,-1532.190996
3646.509952,-9844.739029,-666.185348,-1685.410096
3646.510282,-9844.739029,-962.267725,-536.266849
3646.510612,-9770.718434,-1628.453072,766.095498
3646.510942,-9178.553681,-1554.432478,1302.362347
3646.511271,-9030.512492,-1554.432478,689.485948
3646.511601,-9770.718434,-666.185348,153.219100
3646.511931,-10658.965565,-592.164754,0.000000
3646.512260,-10807.006753,-888.247130,842.705048
3646.512590,-10436.903782,-1258.350101,1378.971896
3646.512920,-9696.697840,-1258.350101,842.705048
3646.513249,-9400.615463,-1554.432478,995.924147
3646.513579,-9474.636058,-888.247130,153.219100
3646.513909,-9770.718434,-444.123565,-459.657299
3646.514239,-9992.780217,148.041188,-1455.581446
3646.514568,-10066.800811,222.061783,-1532.190996
3646.514898,-9992.780217,0.000000,-766.095498
3646.515228,-9918.759623,-444.123565,306.438199
3646.515558,-9622.677246,-444.123565,842.705048
3646.515888,-9252.574275,-1110.308913,766.095498
3646.516218,-8808.450710,-814.226536,536.266849
3646.516547,-9178.553681,-222.061783,612.876398
3646.516877,-9696.697840,74.020594,995.924147
3646.517207,-9992.780217,592.164754,1225.752797
3646.517537,-10066.800811,592.164754,919.314598
3646.517867,-10214.842000,518.144159,842.705048
3646.518197,-10214.842000,296.082377,1455.581446
3646.518527,-9696.697840,222.061783,1072.533697
3646.518857,-9622.677246,444.123565,306.438199
3646.519187,-9474.636058,888.247130,-995.924147
3646.519517,-8956.491898,888.247130,-1225.752797
3646.519847,-9104.533087,1110.308913,-536.266849
3646.520176,-9696.697840,888.247130,536.266849
3646.520506,-9696.697840,444.123565,1302.362347
3646.520836,-8882.471304,592.164754,1225.752797
3646.521166,-8734.430116,1036.288319,536.266849
3646.521496,-10066.800811,1702.473667,229.828649
3646.521826,-10955.047942,1332.370696,536.266849
3646.522156,-10955.047942,1480.411884,995.924147
3646.522486,-9992.780217,1110.308913,842.705048
3646.522816,-9326.594869,518.144159,689.485948
3646.523146,-9474.636058,962.267725,1608.800546
3646.523475,-10288.862594,962.267725,2068.457845
3646.523805,-10658.965565,1406.391290,306.438199
3646.524135,-10584.944971,1702.473667,-1302.362347
3646.524465,-9992.780217,1628.453072,-1685.410096
3646.524795,-9696.697840,1184.329507,-766.095498
3646.525125,-9770.718434,444.123565,842.705048
3646.525455,-8882.471304,592.164754,1455.581446
3646.525785,-8586.388927,370.102971,536.266849
3646.526115,-9104.533087,962.267725,0.000000
3646.526445,-10584.944971,1036.288319,536.266849
3646.526774,-11177.109724,888.247130,766.095498
3646.527104,-11103.089130,814.226536,689.485948
3646.527434,-9622.677246,74.020594,459.657299
3646.527764,-8882.471304,-740.205942,842.705048
3646.528094,-8956.491898,-148.041188,995.924147
3646.528424,-9326.594869,-148.041188,766.095498
3646.528754,-9400.615463,592.164754,-689.485948
3646.529084,-9474.636058,518.144159,-2528.115143
3646.529414,-9918.759623,592.164754,-2298.286494
3646.529744,-9770.718434,0.000000,-306.438199
3646.530073,-10140.821405,-444.123565,229.828649
3646.530403,-9474.636058,-888.247130,1072.533697
3646.530733,-8586.388927,-962.267725,612.876398
3646.531063,-9252.574275,-666.185348,0.000000
3646.531393,-10362.883188,-296.082377,0.000000
3646.531723,-10807.006753,-222.061783,383.047749
3646.532053,-10510.924376,-666.185348,689.485948
3646.532383,-10066.800811,-444.123565,766.095498
3646.532713,-9622.677246,-962.267725,995.924147
3646.533043,-9474.636058,-888.247130,995.924147
3646.533373,-9844.739029,-370.102971,0.000000
3646.533702,-9918.759623,0.000000,-1072.533697
3646.534032,-10214.842000,0.000000,-2298.286494
3646.534362,-10436.903782,-296.082377,-1378.971896
3646.534692,-10140.821405,-888.247130,-76.609550
3646.535022,-9992.780217,-1406.391290,229.828649
3646.535352,-9030.512492,-1406.391290,383.047749
3646.535682,-8882.471304,-1554.432478,612.876398
3646.536012,-9030.512492,-1110.308913,0.000000
3646.536342,-10214.842000,-592.164754,153.219100
3646.536672,-10362.883188,-518.144159,459.657299
3646.537001,-9992.780217,-962.267725,919.314598
3646.537331,-9844.739029,-1036.288319,689.485948
3646.537661,-9918.759623,-1258.350101,1838.629195
3646.537991,-9844.739029,-1184.329507,1532.190996
3646.538321,-10214.842000,-888.247130,383.047749
3646.538651,-10066.800811,-370.102971,-1072.533697
3646.538981,-9696.697840,-518.144159,-2145.067394
3646.539311,-9178.553681,-740.205942,-1302.362347
3646.539641,-9104.533087,-666.185348,383.047749
3646.539971,-9252.574275,-1110.308913,919.314598
3646.540300,-9400.615463,-666.185348,1302.362347
3646.540630,-8956.491898,-518.144159,995.924147
3646.540960,-9474.636058,74.020594,536.266849
3646.541290,-10584.944971,0.000000,766.095498
3646.541620,-10881.027347,0.000000,995.924147
3646.541950,-10362.883188,-148.041188,1455.581446
3646.542280,-9770.718434,-222.061783,1225.752797
3646.542610,-9400.615463,-222.061783,1532.190996
3646.542940,-9992.780217,0.000000,1072.533697
3646.543270,-9992.780217,740.205942,0.000000
3646.543599,-9548.656652,962.267725,-1302.362347
3646.543929,-9252.574275,1184.329507,-1532.190996
3646.544259,-9474.636058,888.247130,-306.438199
3646.544589,-10214.842000,740.205942,1149.143247
3646.544919,-9992.780217,592.164754,1532.190996
3646.545249,-8956.491898,518.144159,1302.362347
3646.545579,-9474.636058,814.226536,459.657299
3646.545909,-10140.821405,1036.288319,76.609550
3646.546239,-10066.800811,1036.288319,536.266849
3646.546569,-10140.821405,1258.350101,919.314598
3646.546898,-9474.636058,1110.308913,1378.971896
3646.547228,-9252.574275,740.205942,1532.190996
3646.547558,-9770.718434,1036.288319,2145.067394
3646.547888,-9992.780217,1332.370696,1532.190996
3646.548218,-10066.800811,1554.432478,229.828649
3646.548548,-10214.842000,1554.432478,-1608.800546
3646.548878,-9992.780217,1406.391290,-2068.457845
3646.549208,-9844.739029,1110.308913,-689.485948
3646.549538,-9622.677246,962.267725,229.828649
3646.549868,-9474.636058,740.205942,766.095498
3646.550198,-8734.430116,740.205942,153.219100
3646.550527,-8808.450710,1036.288319,-612.876398
3646.550857,-9696.697840,1332.370696,0.000000
3646.551187,-10510.924376,1036.288319,766.095498
3646.551517,-10214.842000,814.226536,1455.581446
3646.551847,-9622.677246,592.164754,1455.581446
3646.552177,-9178.553681,148.041188,766.095498
3646.552507,-9252.574275,370.102971,919.314598
3646.552837,-10066.800811,592.164754,842.705048
3646.553167,-10510.924376,1036.288319,-612.876398
3646.553497,-10214.842000,740.205942,-1991.848295
3646.553826,-9770.718434,814.226536,-2451.505594
3646.554156,-9622.677246,518.144159,-919.314598
3646.554486,-9696.697840,148.041188,229.828649
3646.554816,-9400.615463,-222.061783,536.266849
3646.555146,-8734.430116,74.020594,-459.657299
3646.555476,-9030.512492,0.000000,-689.485948
3646.555806,-10214.842000,0.000000,0.000000
3646.556136,-10732.986159,0.000000,689.485948
3646.556466,-10140.821405,-296.082377,766.095498
3646.556796,-9474.636058,-962.267725,459.657299
3646.557125,-9326.594869,-1480.411884,995.924147
3646.557455,-9992.780217,-1110.308913,1915.238745
3646.557785,-10066.800811,-814.226536,1302.362347
3646.558115,-10066.800811,0.000000,-536.266849
3646.558445,-9918.759623,-666.185348,-1838.629195
3646.558775,-9696.697840,-592.164754,-1302.362347
3646.559105,-9992.780217,-962.267725,-536.266849
3646.559435,-9622.677246,-1628.453072,-536.266849
3646.559765,-8586.388927,-1702.473667,306.438199
3646.560095,-8512.368333,-1480.411884,0.000000
3646.560424,-9326.594869,-1184.329507,-612.876398
3646.560754,-10362.883188,-1036.288319,76.609550
3646.561084,-10955.047942,-1036.288319,689.485948
3646.561414,-9992.780217,-1554.432478,995.924147
3646.561744,-9992.780217,-2072.576638,1378.971896
3646.562074,-10584.944971,-2368.659014,2528.115143
3646.562404,-10510.924376,-2072.576638,2528.115143
3646.562734,-9252.574275,-1628.453072,1302.362347
3646.563064,-8586.388927,-814.226536,-536.266849
3646.563394,-9548.656652,-814.226536,-1455.581446
3646.563724,-9918.759623,-222.061783,-1915.238745
3646.564053,-10362.883188,-814.226536,0.000000
3646.564383,-10362.883188,-962.267725,689.485948
3646.564713,-9252.574275,-1258.350101,-153.219100
3646.565043,-8734.430116,-1036.288319,-536.266849
3646.565373,-9104.533087,-888.247130,-995.924147
3646.565703,-9474.636058,-222.061783,-76.609550
3646.566033,-9918.759623,0.000000,766.095498
3646.566363,-10066.800811,0.000000,1225.752797
3646.566693,-9696.697840,296.082377,1685.410096
3646.567023,-9918.759623,0.000000,2145.067394
3646.567352,-10584.944971,370.102971,1378.971896
3646.567682,-10658.965565,740.205942,0.000000
3646.568012,-9326.594869,814.226536,-2145.067394
3646.568342,-8956.491898,370.102971,-1302.362347
3646.568672,-9474.636058,740.205942,0.000000
3646.569002,-9918.759623,888.247130,842.705048
3646.569332,-9400.615463,518.144159,919.314598
3646.569662,-8512.368333,740.205942,0.000000
3646.569992,-8956.491898,1184.329507,-306.438199
3646.570322,-10362.883188,1628.453072,0.000000
3646.570651,-10658.965565,1628.453072,919.314598
3646.570981,-10214.842000,1702.473667,766.095498
3646.571311,-9622.677246,1406.391290,995.924147
3646.571641,-9918.759623,1332.370696,1455.581446
3646.571971,-10362.883188,1258.350101,1762.019645
3646.572301,-10288.862594,1924.535449,689.485948
3646.572631,-10510.924376,2072.576638,-383.047749
3646.572961,-10288.862594,2072.576638,-1915.238745
3646.573291,-10140.821405,1998.556043,-1302.362347
3646.573621,-10214.842000,1998.556043,-383.047749
3646.573950,-9474.636058,1110.308913,306.438199
3646.574280,-8956.491898,888.247130,612.876398
3646.574610,-8438.347739,814.226536,153.219100
3646.574940,-8956.491898,1332.370696,-459.657299
3646.575270,-9918.759623,1258.350101,-229.828649
3646.575600,-10584.944971,1480.411884,842.705048
3646.575930,-10584.944971,888.247130,1225.752797
3646.576260,-9622.677246,444.123565,1378.971896
3646.576590,-9178.553681,0.000000,1532.190996
3646.576920,-9400.615463,370.102971,1762.019645
3646.577249,-9400.615463,370.102971,766.095498
3646.577579,-9474.636058,962.267725,-919.314598
3646.577909,-9326.594869,1480.411884,-1838.629195
3646.578239,-9696.697840,1036.288319,-1685.410096
3646.578569,-9474.636058,444.123565,-842.705048
3646.578899,-9770.718434,0.000000,-306.438199
3646.579229,-9326.594869,-370.102971,0.000000
3646.579559,-8660.409521,-518.144159,0.000000
3646.579889,-9474.636058,0.000000,-842.705048
3646.580219,-10288.862594,0.000000,-612.876398
3646.580549,-10807.006753,0.000000,0.000000
3646.580878,-10288.862594,-592.164754,1149.143247
3646.581208,-9844.739029,-814.226536,1532.190996
3646.581538,-9548.656652,-888.247130,2681.334243
3646.581868,-9770.718434,-888.247130,2374.896044
3646.582198,-10214.842000,0.000000,459.657299
3646.582528,-10732.986159,0.000000,-1608.800546
3646.582858,-10584.944971,-148.041188,-2604.724693
3646.583188,-10140.821405,-518.144159,-1532.190996
3646.583518,-10140.821405,-592.164754,-306.438199
3646.583848,-9918.759623,-1480.411884,689.485948
3646.584177,-8956.491898,-1850.514855,383.047749
3646.584507,-9030.512492,-1258.350101,-536.266849
3646.584837,-9770.718434,-888.247130,-766.095498
3646.585167,-10658.965565,-814.226536,76.609550
3646.585497,-10881.027347,-1036.288319,1608.800546
3646.585827,-10066.800811,-1702.473667,1762.019645
3646.586157,-9696.697840,-1998.556043,2221.676944
3646.586487,-9400.615463,-2072.576638,1762.019645
3646.586817,-9548.656652,-2072.576638,1762.019645
3646.587147,-9474.636058,-1258.350101,153.219100
3646.587476,-9474.636058,-1036.288319,-766.095498
3646.587806,-9400.615463,-370.102971,-1225.752797
3646.588136,-9696.697840,-814.226536,-536.266849
3646.588466,-10140.821405,-1110.308913,229.828649
3646.588796,-9400.615463,-1258.350101,612.876398
3646.589126,-8290.306550,-1258.350101,0.000000
3646.589456,-8438.347739,-592.164754,-536.266849
3646.589786,-9474.636058,-222.061783,-766.095498
3646.590116,-10584.944971,0.000000,0.000000
3646.590446,-10732.986159,148.041188,919.314598
3646.590775,-10214.842000,0.000000,612.876398
3646.591105,-9844.739029,-592.164754,1072.533697
3646.591435,-9474.636058,-518.144159,1685.410096
3646.591765,-9474.636058,-518.144159,1455.581446
3646.592095,-8956.491898,370.102971,153.219100
3646.592425,-9770.718434,888.247130,-995.924147
3646.592755,-9918.759623,814.226536,-1532.190996
3646.593085,-9770.718434,814.226536,0.000000
3646.593415,-9992.780217,740.205942,1378.971896
3646.593745,-9474.636058,148.041188,1378.971896
3646.594075,-8882.471304,148.041188,76.609550
3646.594404,-9178.553681,888.247130,-612.876398
3646.594734,-10288.862594,1110.308913,-459.657299
3646.595064,-11177.109724,1184.329507,306.438199
3646.595394,-10510.924376,740.205942,459.657299
3646.595724,-9326.594869,814.226536,919.314598
3646.596054,-9178.553681,296.082377,1608.800546
3646.596384,-9104.533087,888.247130,1532.190996
3646.596714,-9548.656652,1184.329507,1225.752797
3646.597044,-9992.780217,1998.556043,-766.095498
3646.597374,-10140.821405,2072.576638,-1608.800546
3646.597703,-10140.821405,2072.576638,-919.314598
3646.598033,-10362.883188,1332.370696,76.609550
3646.598363,-10140.821405,740.205942,919.314598
3646.598693,-9548.656652,148.041188,612.876398
3646.599023,-8882.471304,518.144159,229.828649
3646.599353,-9474.636058,1258.350101,-612.876398
3646.599683,-10214.842000,1110.308913,-536.266849
3646.600013,-10510.924376,1332.370696,153.219100
3646.600343,-10140.821405,1332.370696,995.924147
3646.600673,-9252.574275,888.247130,842.705048
3646.601002,-9178.553681,518.144159,1225.752797
3646.601332,-9400.615463,814.226536,1302.362347
3646.601662,-9622.677246,888.247130,0.000000
3646.601992,-9844.739029,1332.370696,-1149.143247
3646.602322,-10214.842000,1184.329507,-1608.800546
3646.602652,-10362.883188,1184.329507,-842.705048
3646.602982,-10288.862594,518.144159,153.219100
3646.603312,-9770.718434,444.123565,612.876398
3646.603642,-9030.512492,0.000000,229.828649
3646.603972,-8586.388927,148.041188,153.219100
3646.604301,-9474.636058,592.164754,-383.047749
3646.604631,-10362.883188,592.164754,0.000000
3646.604961,-10214.842000,592.164754,612.876398
3646.605291,-10140.821405,0.000000,689.485948
3646.605621,-9770.718434,-222.061783,536.266849
3646.605951,-9474.636058,-962.267725,1149.143247
3646.606281,-9474.636058,-666.185348,1762.019645
3646.606611,-9992.780217,0.000000,612.876398
3646.606941,-10140.821405,-74.020594,-766.095498
3646.607271,-9918.759623,-148.041188,-1532.190996
3646.607600,-9622.677246,-296.082377,-459.657299
3646.607930,-9770.718434,-888.247130,612.876398
3646.608260,-9770.718434,-1332.370696,995.924147
3646.608590,-9030.512492,-1480.411884,1225.752797
3646.608920,-8660.409521,-1036.288319,229.828649
3646.609250,-9400.615463,-444.123565,-459.657299
3646.609580,-10436.903782,-814.226536,-383.047749
3646.609910,-10436.903782,-518.144159,0.000000
3646.610240,-9918.759623,-1184.329507,919.314598
3646.610570,-9326.594869,-1628.453072,689.485948
3646.610900,-9474.636058,-2220.617826,1762.019645
3646.611229,-9622.677246,-1628.453072,1455.581446
3646.611559,-9696.697840,-1406.391290,229.828649
3646.611889,-9770.718434,-888.247130,-1302.362347
3646.612219,-9696.697840,-592.164754,-1378.971896
3646.612549,-9326.594869,-1258.350101,-76.609550
3646.612879,-9918.759623,-962.267725,1149.143247
3646.613209,-10214.842000,-1332.370696,1225.752797
3646.613539,-9992.780217,-1184.329507,689.485948
3646.613869,-9696.697840,-1036.288319,-612.876398
3646.614199,-10140.821405,-740.205942,-919.314598
3646.614528,-10807.006753,-666.185348,-306.438199
3646.614858,-10658.965565,-814.226536,383.047749
3646.615188,-9400.615463,-740.205942,306.438199
3646.615518,-8734.430116,-740.205942,306.438199
3646.615848,-9030.512492,-444.123565,1149.143247
3646.616178,-10288.862594,518.144159,1225.752797
3646.616508,-10955.047942,1036.288319,153.219100
3646.616838,-11177.109724,888.247130,-612.876398
3646.617168,-10658.965565,444.123565,-842.705048
3646.617497,-10140.821405,518.144159,536.266849
3646.617827,-10288.862594,-74.020594,766.095498
3646.618157,-9104.533087,-370.102971,766.095498
3646.618487,-8438.347739,0.000000,612.876398
3646.618817,-8660.409521,370.102971,153.219100
3646.619147,-9696.697840,1184.329507,766.095498
3646.619477,-10955.047942,1110.308913,1225.752797
3646.619806,-10658.965565,1110.308913,1225.752797
3646.620136,-9770.718434,666.185348,1225.752797
3646.620466,-9326.594869,74.020594,1072.533697
3646.620796,-9326.594869,296.082377,1838.629195
3646.621126,-9696.697840,592.164754,842.705048
3646.621456,-9696.697840,1628.453072,-536.266849
3646.621786,-9400.615463,1850.514855,-2068.457845
3646.622116,-9844.739029,1554.432478,-1149.143247
3646.622445,-10214.842000,1628.453072,306.438199
3646.622775,-10140.821405,1258.350101,1302.362347
3646.623105,-8882.471304,814.226536,306.438199
3646.623435,-8216.285956,814.226536,-536.266849
3646.623765,-9474.636058,1332.370696,-995.924147
3646.624095,-10288.862594,1258.350101,-536.266849
3646.624425,-10584.944971,1628.453072,-459.657299
3646.624754,-9844.739029,1258.350101,459.657299
3646.625084,-9770.718434,888.247130,229.828649
3646.625414,-9770.718434,666.185348,1378.971896
3646.625744,-9844.739029,814.226536,1455.581446
3646.626074,-9474.636058,888.247130,766.095498
3646.626404,-9696.697840,1110.308913,-766.095498
3646.626734,-9918.759623,1406.391290,-995.924147
3646.627063,-10214.842000,1110.308913,-229.828649
3646.627393,-10436.903782,592.164754,306.438199
3646.627723,-9548.656652,370.102971,612.876398
3646.628053,-9252.574275,296.082377,306.438199
3646.628383,-8956.491898,444.123565,-229.828649
3646.628713,-10214.842000,1036.288319,-766.095498
3646.629043,-11251.130318,1110.308913,-919.314598
3646.629372,-10658.965565,740.205942,-459.657299
3646.629702,-9770.718434,148.041188,-153.219100
3646.630032,-9400.615463,-296.082377,76.609550
3646.630362,-9474.636058,-444.123565,919.314598
3646.630692,-9326.594869,-592.164754,1608.800546
3646.631022,-9548.656652,-370.102971,689.485948
3646.631352,-10066.800811,0.000000,-995.924147
3646.631681,-10140.821405,444.123565,-1532.190996
3646.632011,-9844.739029,-370.102971,0.000000
3646.632341,-9992.780217,-592.164754,1225.752797
3646.632671,-9844.739029,-1406.391290,1378.971896
3646.633001,-9252.574275,-1480.411884,612.876398
3646.633331,-9104.533087,-1110.308913,0.000000
3646.633661,-9548.656652,-962.267725,-766.095498
3646.633990,-10510.924376,-592.164754,-383.047749
3646.634320,-10066.800811,-592.164754,229.828649
3646.634650,-9326.594869,-592.164754,842.705048
3646.634980,-9104.533087,-1184.329507,995.924147
3646.635310,-9548.656652,-1184.329507,1149.143247
3646.635640,-10066.800811,-1258.350101,689.485948
3646.635970,-10140.821405,-666.185348,-766.095498
3646.636300,-10288.862594,-518.144159,-766.095498
3646.636629,-10140.821405,-740.205942,-459.657299
3646.636959,-10066.800811,-1184.329507,0.000000
3646.637289,-9992.780217,-1110.308913,612.876398
3646.637619,-9178.553681,-1184.329507,919.314598
3646.637949,-8956.491898,-1184.329507,536.266849
3646.638279,-9030.512492,-444.123565,76.609550
3646.638609,-9696.697840,0.000000,-383.047749
3646.638938,-10140.821405,296.082377,0.000000
3646.639268,-10881.027347,222.061783,229.828649
3646.639598,-10214.842000,-370.102971,459.657299
3646.639928,-9844.739029,-1036.288319,766.095498
3646.640258,-9178.553681,-518.144159,1532.190996
3646.640588,-9844.739029,-592.164754,1838.629195
3646.640918,-10288.862594,0.000000,689.485948
3646.641247,-9622.677246,0.000000,0.000000
3646.641577,-9326.594869,592.164754,-612.876398
3646.641907,-9400.615463,592.164754,536.266849
3646.642237,-9918.759623,0.000000,1608.800546
3646.642567,-9474.636058,0.000000,1455.581446
3646.642897,-8882.471304,0.000000,612.876398
3646.643227,-9548.656652,518.144159,229.828649
3646.643556,-10658.965565,444.123565,0.000000
3646.643886,-10881.027347,444.123565,383.047749
3646.644216,-9770.718434,296.082377,842.705048
3646.644546,-8734.430116,296.082377,612.876398
3646.644876,-9474.636058,0.000000,1149.143247
3646.645206,-9844.739029,740.205942,1762.019645
3646.645536,-9918.759623,888.247130,1149.143247
3646.645865,-9770.718434,1184.329507,-153.219100
3646.646195,-10288.862594,962.267725,-1455.581446
3646.646525,-10214.842000,962.267725,-842.705048
3646.646855,-9770.718434,518.144159,0.000000
3646.647185,-9770.718434,148.041188,766.095498
3646.647515,-8956.491898,0.000000,766.095498
3646.647845,-8734.430116,0.000000,0.000000
3646.648174,-9548.656652,1036.288319,-919.314598
3646.648504,-10214.842000,888.247130,-689.485948
3646.648834,-10584.944971,1258.350101,-612.876398
3646.649164,-9992.780217,888.247130,-766.095498
3646.649494,-9622.677246,370.102971,-459.657299
3646.649824,-9178.553681,296.082377,612.876398
3646.650154,-9252.574275,222.061783,612.876398
3646.650484,-9548.656652,518.144159,306.438199
3646.650813,-9474.636058,740.205942,-766.095498
3646.651143,-10288.862594,740.205942,-995.924147
3646.651473,-10436.903782,666.185348,-229.828649
3646.651803,-10214.842000,222.061783,995.924147
3646.652133,-9992.780217,0.000000,1149.143247
3646.652463,-9178.553681,74.020594,919.314598
3646.652793,-9104.533087,0.000000,766.095498
3646.653122,-9474.636058,296.082377,76.609550
3646.653452,-10510.924376,740.205942,0.000000
3646.653782,-10436.903782,1110.308913,0.000000
3646.654112,-10066.800811,444.123565,-76.609550
3646.654442,-9622.677246,0.000000,306.438199
3646.654772,-9696.697840,0.000000,842.705048
3646.655102,-9622.677246,-370.102971,919.314598
3646.655431,-9696.697840,0.000000,0.000000
3646.655761,-9622.677246,296.082377,-1378.971896
3646.656091,-9918.759623,296.082377,-919.314598
3646.656421,-9992.780217,518.144159,229.828649
3646.656751,-9992.780217,0.000000,919.314598
3646.657081,-9696.697840,-740.205942,1762.019645
3646.657411,-9400.615463,-296.082377,1378.971896
3646.657740,-9400.615463,0.000000,306.438199
3646.658070,-9992.780217,0.000000,-612.876398
3646.658400,-10436.903782,74.020594,-995.924147
3646.658730,-10288.862594,74.020594,-383.047749
3646.659060,-9918.759623,-222.061783,-536.266849
3646.659390,-9474.636058,-666.185348,229.828649
3646.659720,-9326.594869,-1036.288319,842.705048
3646.660049,-9844.739029,-814.226536,612.876398
3646.660379,-9844.739029,-444.123565,229.828649
3646.660709,-9622.677246,-370.102971,-842.705048
3646.661039,-9844.739029,-296.082377,-689.485948
3646.661369,-9622.677246,-518.144159,229.828649
3646.661699,-9696.697840,-888.247130,1225.752797
3646.662029,-9400.615463,-1036.288319,1532.190996
3646.662358,-9178.553681,-1184.329507,1378.971896
3646.662688,-9400.615463,-592.164754,459.657299
3646.663018,-10066.800811,-518.144159,-536.266849
3646.663348,-10584.944971,-148.041188,-76.609550
3646.663678,-9992.780217,-296.082377,306.438199
3646.664008,-9622.677246,-296.082377,76.609550
3646.664338,-9548.656652,-592.164754,383.047749
3646.664668,-9770.718434,-740.205942,1225.752797
3646.664997,-9770.718434,-740.205942,995.924147
3646.665327,-9770.718434,0.000000,229.828649
3646.665657,-9696.697840,-296.082377,-612.876398
3646.665987,-10066.800811,0.000000,229.828649
3646.666317,-10066.800811,0.000000,919.314598
3646.666647,-9992.780217,-370.102971,1762.019645
3646.666977,-9252.574275,-666.185348,2298.286494
3646.667306,-9400.615463,0.000000,1225.752797
3646.667636,-9770.718434,296.082377,766.095498
3646.667966,-10807.006753,592.164754,306.438199
3646.668296,-11251.130318,518.144159,0.000000
3646.668626,-10140.821405,0.000000,612.876398
3646.668956,-9548.656652,0.000000,0.000000
3646.669286,-9400.615463,-518.144159,459.657299
3646.669615,-9474.636058,-148.041188,1072.533697
3646.669945,-9474.636058,74.020594,919.314598
3646.670275,-9696.697840,666.185348,-612.876398
3646.670605,-9918.759623,962.267725,-1302.362347
3646.670935,-10510.924376,962.267725,-536.266849
3646.671265,-10066.800811,518.144159,383.047749
3646.671595,-9548.656652,-74.020594,1302.362347
3646.671924,-8882.471304,-444.123565,919.314598
3646.672254,-8660.409521,-296.082377,612.876398
3646.672584,-9104.533087,296.082377,-612.876398
3646.672914,-9474.636058,592.164754,-689.485948
3646.673244,-9992.780217,1332.370696,-842.705048
3646.673574,-10214.842000,1036.288319,-995.924147
3646.673904,-10140.821405,1110.308913,-995.924147
3646.674233,-9400.615463,518.144159,306.438199
3646.674563,-9326.594869,592.164754,459.657299
3646.674893,-9474.636058,740.205942,-612.876398
3646.675223,-9696.697840,1036.288319,-1608.800546
3646.675553,-10140.821405,1258.350101,-1532.190996
3646.675883,-10066.800811,814.226536,-766.095498
3646.676213,-9918.759623,518.144159,612.876398
3646.676542,-9622.677246,148.041188,1225.752797
3646.676872,-9326.594869,148.041188,1532.190996
3646.677202,-9030.512492,666.185348,536.266849
3646.677532,-9770.718434,1184.329507,0.000000
3646.677862,-10955.047942,1036.288319,-383.047749
3646.678192,-11103.089130,888.247130,306.438199
3646.678522,-10881.027347,444.123565,995.924147
3646.678851,-9622.677246,0.000000,689.485948
3646.679181,-9400.615463,-444.123565,612.876398
3646.679511,-9474.636058,-148.041188,842.705048
3646.679841,-9326.594869,296.082377,0.000000
3646.680171,-9474.636058,370.102971,-1149.143247
3646.680501,-9992.780217,444.123565,-1302.362347
3646.680831,-9770.718434,370.102971,383.047749
3646.681161,-9696.697840,0.000000,1838.629195
3646.681490,-9548.656652,-962.267725,2528.115143
3646.681820,-9548.656652,-1036.288319,2451.505594
3646.682150,-9622.677246,-888.247130,1225.752797
3646.682480,-10214.842000,-444.123565,229.828649
3646.682810,-10436.903782,-370.102971,0.000000
3646.683140,-9844.739029,-148.041188,842.705048
3646.683470,-9326.594869,-370.102971,306.438199
3646.683799,-8956.491898,-1036.288319,383.047749
3646.684129,-8956.491898,-740.205942,-306.438199
3646.684459,-9326.594869,-740.205942,-76.609550
3646.684789,-10140.821405,-222.061783,-1072.533697
3646.685119,-10066.800811,-74.020594,-1685.410096
3646.685449,-9696.697840,-296.082377,-1149.143247
3646.685779,-9474.636058,-666.185348,-229.828649
3646.686108,-9770.718434,-740.205942,1685.410096
3646.686438,-9770.718434,-1110.308913,2298.286494
3646.686768,-9474.636058,-666.185348,1685.410096
3646.687098,-9844.739029,222.061783,995.924147
3646.687428,-10807.006753,296.082377,536.266849
3646.687758,-10955.047942,592.164754,153.219100
3646.688088,-10362.883188,296.082377,-76.609550
3646.688417,-9548.656652,-296.082377,-306.438199
3646.688747,-9548.656652,-518.144159,0.000000
3646.689077,-9770.718434,-518.144159,459.657299
3646.689407,-9770.718434,-222.061783,383.047749
3646.689737,-9918.759623,296.082377,-766.095498
3646.690067,-10066.800811,222.061783,-1532.190996
3646.690397,-9992.780217,74.020594,-689.485948
3646.690726,-9622.677246,-518.144159,842.705048
3646.691056,-9326.594869,-518.144159,2451.505594
3646.691386,-9030.512492,-814.226536,2911.162892
3646.691716,-8956.491898,-444.123565,2451.505594
3646.692046,-9548.656652,0.000000,842.705048
3646.692376,-10584.944971,370.102971,229.828649
3646.692706,-11103.089130,296.082377,153.219100
3646.693035,-10658.965565,296.082377,383.047749
3646.693365,-9400.615463,0.000000,153.219100
3646.693695,-8956.491898,0.000000,919.314598
3646.694025,-9178.553681,0.000000,1532.190996
3646.694355,-9178.553681,296.082377,-306.438199
3646.694685,-9474.636058,814.226536,-1991.848295
3646.695015,-9696.697840,888.247130,-2298.286494
3646.695345,-9992.780217,444.123565,-842.705048
3646.695674,-9992.780217,222.061783,306.438199
3646.696004,-9548.656652,-444.123565,842.705048
3646.696334,-8956.491898,-666.185348,1378.971896
3646.696664,-9104.533087,-444.123565,689.485948
3646.696994,-9474.636058,74.020594,229.828649
3646.697324,-10510.924376,370.102971,-306.438199
3646.697654,-10436.903782,592.164754,-153.219100
3646.697983,-10362.883188,370.102971,229.828649
3646.698313,-10066.800811,0.000000,842.705048
3646.698643,-9252.574275,-592.164754,229.828649
3646.698973,-9030.512492,-296.082377,0.000000
3646.699303,-9178.553681,222.061783,-1225.752797
3646.699633,-9844.739029,222.061783,-2374.896044
3646.699963,-9696.697840,592.164754,-1915.238745
3646.700292,-9770.718434,370.102971,-1072.533697
3646.700622,-9770.718434,296.082377,306.438199
3646.700952,-9770.718434,0.000000,1455.581446
3646.701282,-9918.759623,-222.061783,1532.190996
3646.701612,-9326.594869,0.000000,612.876398
3646.701942,-9992.780217,666.185348,0.000000
3646.702272,-10881.027347,444.123565,0.000000
3646.702601,-10881.027347,296.082377,842.705048
3646.702931,-10362.883188,74.020594,536.266849
3646.703261,-9548.656652,-148.041188,995.924147
3646.703591,-9252.574275,-370.102971,1608.800546
3646.703921,-9548.656652,-222.061783,766.095498
3646.704251,-10140.821405,370.102971,-383.047749
3646.704581,-10066.800811,518.144159,-1455.581446
3646.704910,-10066.800811,518.144159,-919.314598
3646.705240,-9474.636058,-148.041188,-76.609550
3646.705570,-9474.636058,-740.205942,842.705048
3646.705900,-9400.615463,-1036.288319,1991.848295
3646.706230,-8660.409521,-814.226536,1378.971896
3646.706560,-9326.594869,0.000000,383.047749
3646.706890,-9918.759623,222.061783,153.219100
3646.707219,-10955.047942,296.082377,229.828649
3646.707549,-10955.047942,222.061783,689.485948
3646.707879,-10362.883188,0.000000,1378.971896
3646.708209,-9474.636058,-888.247130,919.314598
3646.708539,-9104.533087,-74.020594,612.876398
3646.708869,-9474.636058,148.041188,153.219100
3646.709199,-9918.759623,666.185348,-1225.752797
3646.709529,-9992.780217,666.185348,-1685.410096
3646.709858,-9844.739029,592.164754,-1532.190996
3646.710188,-9770.718434,222.061783,0.000000
3646.710518,-9252.574275,-222.061783,1072.533697
3646.710848,-8808.450710,-518.144159,1685.410096
3646.711178,-8512.368333,-296.082377,1455.581446
3646.711508,-9030.512492,370.102971,383.047749
3646.711838,-10140.821405,1110.308913,0.000000
3646.712167,-10881.027347,1184.329507,229.828649
3646.712497,-11029.068536,814.226536,1455.581446
3646.712827,-10584.944971,518.144159,689.485948
3646.713157,-9696.697840,0.000000,306.438199
3646.713487,-9030.512492,0.000000,306.438199
3646.713817,-9252.574275,222.061783,0.000000
3646.714147,-9326.594869,962.267725,-919.314598
3646.714476,-9770.718434,740.205942,-842.705048
3646.714806,-9844.739029,666.185348,-612.876398
3646.715136,-10066.800811,592.164754,842.705048
3646.715466,-9992.780217,-370.102971,1608.800546
3646.715796,-9474.636058,-296.082377,2068.457845
3646.716126,-8808.450710,-666.185348,1378.971896
3646.716456,-9474.636058,-444.123565,689.485948
3646.716785,-10066.800811,-370.102971,766.095498
3646.717115,-10658.965565,148.041188,1532.190996
3646.717445,-10140.821405,0.000000,1685.410096
3646.717775,-9548.656652,-444.123565,995.924147
3646.718105,-9400.615463,-444.123565,1685.410096
3646.718435,-9474.636058,-296.082377,842.705048
3646.718765,-9918.759623,0.000000,0.000000
3646.719094,-10066.800811,296.082377,-1532.190996
3646.719424,-9918.759623,0.000000,-1608.800546
3646.719754,-9770.718434,-444.123565,-842.705048
3646.720084,-9622.677246,-518.144159,229.828649
3646.720414,-9326.594869,-962.267725,1378.971896
3646.720744,-9178.553681,-888.247130,1608.800546
3646.721074,-9252.574275,-222.061783,689.485948
3646.721404,-9770.718434,0.000000,383.047749
3646.721734,-10955.047942,74.020594,383.047749
3646.722063,-10955.047942,74.020594,229.828649
3646.722393,-10066.800811,0.000000,459.657299
3646.722723,-9548.656652,-444.123565,153.219100
3646.723053,-9400.615463,-814.226536,383.047749
3646.723383,-9622.677246,-296.082377,-383.047749
3646.723713,-9844.739029,222.061783,-1608.800546
3646.724043,-9992.780217,444.123565,-2987.772442
3646.724373,-9918.759623,444.123565,-2757.943793
3646.724703,-9326.594869,0.000000,-1149.143247
3646.725033,-9178.553681,-518.144159,612.876398
3646.725362,-8956.491898,-370.102971,1685.410096
3646.725692,-9326.594869,-592.164754,1378.971896
3646.726022,-9400.615463,-296.082377,306.438199
3646.726352,-10214.842000,222.061783,76.609550
3646.726682,-10732.986159,444.123565,459.657299
3646.727012,-10732.986159,370.102971,689.485948
3646.727342,-10214.842000,74.020594,919.314598
3646.727672,-9400.615463,-222.061783,689.485948
3646.728002,-9252.574275,-444.123565,612.876398
3646.728331,-9622.677246,0.000000,153.219100
3646.728661,-10214.842000,444.123565,-1225.752797
3646.728991,-9992.780217,518.144159,-1915.238745
3646.729321,-9548.656652,370.102971,-1455.581446
3646.729651,-9252.574275,0.000000,0.000000
3646.729981,-9474.636058,-444.123565,919.314598
3646.730311,-9030.512492,-518.144159,1455.581446
3646.730641,-8734.430116,-370.102971,1378.971896
3646.730971,-9474.636058,222.061783,383.047749
3646.731300,-10436.903782,444.123565,153.219100
3646.731630,-10881.027347,518.144159,229.828649
3646.731960,-10214.842000,148.041188,459.657299
3646.732290,-9770.718434,222.061783,612.876398
3646.732620,-9548.656652,-370.102971,612.876398
3646.732950,-9326.594869,-222.061783,536.266849
3646.733280,-9030.512492,74.020594,0.000000
3646.733610,-9474.636058,518.144159,-1302.362347
3646.733940,-9548.656652,666.185348,-2221.676944
3646.734269,-10066.800811,888.247130,-2068.457845
3646.734599,-9770.718434,222.061783,-459.657299
3646.734929,-9474.636058,-222.061783,612.876398
3646.735259,-9178.553681,0.000000,1762.019645
3646.735589,-8808.450710,-888.247130,1455.581446
3646.735919,-9400.615463,0.000000,689.485948
3646.736249,-10362.883188,370.102971,612.876398
3646.736579,-11177.109724,444.123565,919.314598
3646.736909,-11325.150913,296.082377,1225.752797
3646.737238,-10436.903782,0.000000,1225.752797
3646.737568,-9844.739029,-370.102971,1455.581446
3646.737898,-9252.574275,-74.020594,1532.190996
3646.738228,-9622.677246,370.102971,383.047749
3646.738558,-10066.800811,740.205942,-1149.143247
3646.738888,-10140.821405,740.205942,-1762.019645
3646.739218,-10214.842000,518.144159,-1302.362347
3646.739548,-9696.697840,148.041188,459.657299
3646.739878,-10066.800811,-518.144159,1532.190996
3646.740208,-9400.615463,-592.164754,1915.238745
3646.740537,-9030.512492,-592.164754,1532.190996
3646.740867,-9548.656652,0.000000,536.266849
3646.741197,-10436.903782,0.000000,1225.752797
3646.741527,-10955.047942,296.082377,1991.848295
3646.741857,-10658.965565,148.041188,1915.238745
3646.742187,-9918.759623,-444.123565,1149.143247
3646.742517,-9548.656652,-444.123565,842.705048
3646.742847,-9622.677246,-296.082377,766.095498
3646.743177,-9992.780217,222.061783,-383.047749
3646.743506,-10066.800811,74.020594,-1762.019645
3646.743836,-9548.656652,74.020594,-2298.286494
3646.744166,-9252.574275,0.000000,-1532.190996
3646.744496,-9622.677246,-222.061783,-229.828649
3646.744826,-9474.636058,-592.164754,842.705048
3646.745156,-8956.491898,-592.164754,1685.410096
3646.745486,-8882.471304,0.000000,1149.143247
3646.745816,-9918.759623,0.000000,689.485948
3646.746146,-10732.986159,148.041188,919.314598
3646.746475,-10807.006753,740.205942,995.924147
3646.746805,-10658.965565,148.041188,459.657299
3646.747135,-9992.780217,-222.061783,-153.219100
3646.747465,-9696.697840,0.000000,153.219100
3646.747795,-9548.656652,222.061783,-153.219100
3646.748125,-9844.739029,592.164754,-1378.971896
3646.748455,-9770.718434,814.226536,-2757.943793
3646.748785,-9696.697840,962.267725,-3140.991542
3646.749115,-9252.574275,222.061783,-1685.410096
3646.749444,-9252.574275,74.020594,459.657299
3646.749774,-9400.615463,-444.123565,1685.410096
3646.750104,-9474.636058,-370.102971,1685.410096
3646.750434,-9326.594869,0.000000,1302.362347
3646.750764,-10807.006753,666.185348,995.924147
3646.751094,-11251.130318,518.144159,1378.971896
3646.751424,-10955.047942,592.164754,1378.971896
3646.751754,-10288.862594,370.102971,1378.971896
3646.752084,-9622.677246,0.000000,689.485948
3646.752413,-9622.677246,370.102971,383.047749
3646.752743,-9400.615463,296.082377,-306.438199
3646.753073,-9548.656652,814.226536,-1838.629195
3646.753403,-9918.759623,1184.329507,-2528.115143
3646.753733,-9474.636058,888.247130,-2298.286494
3646.754063,-9844.739029,592.164754,-536.266849
3646.754393,-9326.594869,-370.102971,612.876398
3646.754723,-9252.574275,-1036.288319,1532.190996
3646.755053,-9548.656652,-592.164754,1838.629195
3646.755383,-9770.718434,-296.082377,842.705048
3646.755712,-9770.718434,-370.102971,766.095498
3646.756042,-10288.862594,-222.061783,1762.019645
3646.756372,-10140.821405,0.000000,2221.676944
3646.756702,-9844.739029,0.000000,1762.019645
3646.757032,-9474.636058,-148.041188,1149.143247
3646.757362,-9474.636058,74.020594,1149.143247
3646.757692,-10140.821405,370.102971,-383.047749
3646.758022,-10362.883188,814.226536,-1608.800546
3646.758352,-10436.903782,666.185348,-2834.553343
3646.758681,-9992.780217,444.123565,-2528.115143
3646.759011,-9474.636058,0.000000,-1302.362347
3646.759341,-9400.615463,-222.061783,229.828649
3646.759671,-8808.450710,-962.267725,1072.533697
3646.760001,-8290.306550,-444.123565,1532.190996
3646.760331,-9030.512492,0.000000,1149.143247
3646.760661,-10214.842000,222.061783,1455.581446
3646.760991,-11251.130318,592.164754,1378.971896
3646.761321,-11251.130318,148.041188,1991.848295
3646.761650,-10362.883188,0.000000,1225.752797
3646.761980,-9918.759623,-444.123565,1149.143247
3646.762310,-9178.553681,-296.082377,766.095498
3646.762640,-9548.656652,148.041188,0.000000
3646.762970,-9548.656652,592.164754,-1225.752797
3646.763300,-9622.677246,814.226536,-2145.067394
3646.763630,-9844.739029,1110.308913,-1455.581446
3646.763960,-9918.759623,296.082377,-383.047749
3646.764290,-9770.718434,-370.102971,1149.143247
3646.764619,-8882.471304,-666.185348,1762.019645
3646.764949,-9326.594869,-74.020594,1838.629195
3646.765279,-9548.656652,0.000000,766.095498
3646.765609,-10658.965565,444.123565,1455.581446
3646.765939,-10881.027347,148.041188,1915.238745
3646.766269,-10955.047942,148.041188,2221.676944
3646.766599,-10288.862594,-74.020594,1991.848295
3646.766929,-9918.759623,-592.164754,1915.238745
3646.767259,-9548.656652,-444.123565,1225.752797
3646.767588,-9696.697840,296.082377,229.828649
3646.767918,-9770.718434,518.144159,-1608.800546
3646.768248,-9844.739029,962.267725,-1838.629195
3646.768578,-9400.615463,222.061783,-1838.629195
3646.768908,-10066.800811,148.041188,-842.705048
3646.769238,-9622.677246,-444.123565,229.828649
3646.769568,-9474.636058,-444.123565,689.485948
3646.769898,-9030.512492,-222.061783,306.438199
3646.770228,-9252.574275,0.000000,229.828649
3646.770558,-10362.883188,222.061783,459.657299
3646.770887,-10658.965565,0.000000,1378.971896
3646.771217,-10066.800811,0.000000,1072.533697
3646.771547,-9696.697840,-296.082377,919.314598
3646.771877,-9696.697840,-222.061783,1149.143247
3646.772207,-10214.842000,148.041188,766.095498
3646.772537,-9844.739029,222.061783,-766.095498
3646.772867,-9548.656652,370.102971,-2451.505594
3646.773197,-9178.553681,592.164754,-3064.381992
3646.773527,-9104.533087,370.102971,-2221.676944
3646.773856,-9548.656652,222.061783,-689.485948
3646.774186,-9770.718434,-370.102971,459.657299
3646.774516,-9326.594869,-444.123565,229.828649
3646.774846,-9326.594869,-370.102971,0.000000
3646.775176,-9918.759623,-370.102971,0.000000
3646.775506,-10584.944971,0.000000,1608.800546
3646.775836,-10510.924376,0.000000,2145.067394
3646.776166,-9696.697840,-518.144159,2145.067394
3646.776496,-9400.615463,-740.205942,1608.800546
3646.776825,-9918.759623,-222.061783,1532.190996
3646.777155,-10510.924376,222.061783,919.314598
3646.777485,-10436.903782,222.061783,-766.095498
3646.777815,-9548.656652,0.000000,-2298.286494
3646.778145,-9252.574275,0.000000,-2757.943793
3646.778475,-9030.512492,-592.164754,-1532.190996
3646.778805,-8808.450710,-962.267725,-459.657299
3646.779135,-9104.533087,-666.185348,1072.533697
3646.779465,-8808.450710,-666.185348,612.876398
3646.779794,-9400.615463,-370.102971,306.438199
3646.780124,-9696.697840,0.000000,306.438199
3646.780454,-10658.965565,148.041188,995.924147
3646.780784,-10807.006753,-74.020594,1532.190996
3646.781114,-10214.842000,-518.144159,1225.752797
3646.781444,-9622.677246,-592.164754,995.924147
3646.781774,-9400.615463,-222.061783,1072.533697
3646.782104,-9844.739029,0.000000,612.876398
3646.782434,-10140.821405,1036.288319,-1378.971896
3646.782764,-9474.636058,962.267725,-2911.162892
3646.783093,-9030.512492,814.226536,-2528.115143
3646.783423,-9474.636058,592.164754,-919.314598
3646.783753,-10288.862594,370.102971,612.876398
3646.784083,-9474.636058,0.000000,1378.971896
3646.784413,-9104.533087,-74.020594,842.705048
3646.784743,-9696.697840,370.102971,612.876398
3646.785073,-10658.965565,518.144159,612.876398
3646.785403,-11103.089130,518.144159,1608.800546
3646.785733,-10658.965565,814.226536,2068.457845
3646.786062,-10066.800811,740.205942,2298.286494
3646.786392,-9770.718434,370.102971,2068.457845
3646.786722,-9992.780217,74.020594,2374.896044
3646.787052,-9992.780217,666.185348,612.876398
3646.787382,-9770.718434,888.247130,-766.095498
3646.787712,-9326.594869,888.247130,-1685.410096
3646.788042,-9178.553681,666.185348,-306.438199
3646.788372,-9770.718434,888.247130,536.266849
3646.788702,-9622.677246,74.020594,1455.581446
3646.789031,-9326.594869,74.020594,1532.190996
3646.789361,-8882.471304,296.082377,1149.143247
3646.789691,-10066.800811,888.247130,536.266849
3646.790021,-10436.903782,518.144159,1072.533697
3646.790351,-10436.903782,518.144159,1991.848295
3646.790681,-9918.759623,222.061783,1762.019645
3646.791011,-9696.697840,0.000000,1685.410096
3646.791341,-9622.677246,148.041188,1915.238745
3646.791671,-9770.718434,148.041188,1072.533697
3646.792000,-10214.842000,888.247130,-383.047749
3646.792330,-10584.944971,1406.391290,-1915.238745
3646.792660,-10066.800811,888.247130,-2757.943793
3646.792990,-9326.594869,444.123565,-2221.676944
3646.793320,-9474.636058,0.000000,-1302.362347
3646.793650,-9400.615463,74.020594,0.000000
3646.793980,-8660.409521,-370.102971,0.000000
3646.794310,-8734.430116,-296.082377,-459.657299
3646.794640,-9622.677246,0.000000,-76.609550
3646.794969,-10658.965565,296.082377,76.609550
3646.795299,-10658.965565,222.061783,1072.533697
3646.795629,-9844.739029,0.000000,1225.752797
3646.795959,-9622.677246,-296.082377,1225.752797
3646.796289,-9918.759623,-296.082377,1532.190996
3646.796619,-10288.862594,-370.102971,842.705048
3646.796949,-10288.862594,296.082377,-689.485948
3646.797279,-10140.821405,444.123565,-2528.115143
3646.797609,-9622.677246,148.041188,-2834.553343
3646.797939,-9474.636058,-222.061783,-1532.190996
3646.798268,-9474.636058,-370.102971,-766.095498
3646.798598,-9030.512492,-1110.308913,536.266849
3646.798928,-8808.450710,-1036.288319,612.876398
3646.799258,-9252.574275,-222.061783,459.657299
3646.799588,-10436.903782,-74.020594,383.047749
3646.799918,-10881.027347,-148.041188,919.314598
3646.800248,-10658.965565,-444.123565,1685.410096
3646.800578,-10288.862594,-592.164754,1915.238745
3646.800908,-9622.677246,-1406.391290,2068.457845
3646.801237,-9844.739029,-1184.329507,2068.457845
3646.801567,-10066.800811,-740.205942,842.705048
3646.801897,-9696.697840,-370.102971,-995.924147
3646.802227,-9326.594869,-370.102971,-1915.238745
3646.802557,-9178.553681,74.020594,-2145.067394
3646.802887,-9474.636058,-296.082377,-689.485948
3646.803217,-9474.636058,-666.185348,536.266849
3646.803547,-9030.512492,-1406.391290,1685.410096
3646.803877,-8882.471304,-592.164754,153.219100
3646.804206,-9844.739029,-370.102971,-612.876398
3646.804536,-10807.006753,-148.041188,-383.047749
3646.804866,-11177.109724,-296.082377,919.314598
3646.805196,-10140.821405,-740.205942,1225.752797
3646.805526,-9326.594869,-740.205942,1302.362347
3646.805856,-8512.368333,-888.247130,1608.800546
3646.806186,-8734.430116,-444.123565,1302.362347
3646.806516,-9548.656652,666.185348,536.266849
3646.806846,-10140.821405,1110.308913,-1762.019645
3646.807175,-10510.924376,1184.329507,-2145.067394
3646.807505,-10436.903782,740.205942,-1838.629195
3646.807835,-10362.883188,296.082377,1225.752797
3646.808165,-10658.965565,-296.082377,995.924147
3646.808495,-9696.697840,-222.061783,766.095498
3646.808825,-8364.327145,-518.144159,0.000000
3646.809155,-9030.512492,0.000000,76.609550
3646.809485,-9992.780217,222.061783,1378.971896
3646.809815,-10732.986159,740.205942,2451.505594
3646.810144,-10362.883188,444.123565,2298.286494
3646.810474,-9548.656652,370.102971,1915.238745
3646.810804,-9918.759623,0.000000,1455.581446
3646.811134,-9992.780217,222.061783,1149.143247
3646.811464,-9918.759623,222.061783,612.876398
3646.811794,-9548.656652,592.164754,-612.876398
3646.812124,-9400.615463,444.123565,-1225.752797
3646.812454,-9474.636058,592.164754,-1072.533697
3646.812784,-9770.718434,296.082377,0.000000
3646.813114,-9326.594869,0.000000,383.047749
3646.813443,-8808.450710,518.144159,766.095498
3646.813773,-8290.306550,222.061783,536.266849
3646.814103,-9252.574275,888.247130,153.219100
3646.814433,-10658.965565,1332.370696,536.266849
3646.814763,-11251.130318,1036.288319,689.485948
3646.815093,-10436.903782,592.164754,536.266849
3646.815423,-9844.739029,148.041188,229.828649
3646.815753,-9326.594869,222.061783,1302.362347
3646.816083,-9474.636058,444.123565,1302.362347
3646.816412,-9548.656652,444.123565,0.000000
3646.816742,-10140.821405,740.205942,-1915.238745
3646.817072,-10510.924376,962.267725,-2681.334243
3646.817402,-10362.883188,296.082377,-1225.752797
3646.817732,-10140.821405,0.000000,-153.219100
3646.818062,-9030.512492,-518.144159,1072.533697
3646.818392,-8438.347739,-592.164754,76.609550
3646.818722,-9030.512492,-222.061783,-612.876398
3646.819052,-10658.965565,148.041188,-995.924147
3646.819381,-10881.027347,444.123565,0.000000
3646.819711,-10288.862594,0.000000,1072.533697
3646.820041,-9696.697840,-296.082377,1532.190996
3646.820371,-9252.574275,-814.226536,1991.848295
3646.820701,-8660.409521,-740.205942,2068.457845
3646.821031,-9548.656652,-814.226536,459.657299
3646.821361,-9770.718434,0.000000,-1302.362347
3646.821691,-10066.800811,444.123565,-2298.286494
3646.822020,-9992.780217,222.061783,-1378.971896
3646.822350,-9622.677246,-148.041188,-536.266849
3646.822680,-9548.656652,-666.185348,919.314598
3646.823010,-9252.574275,-740.205942,1072.533697
3646.823340,-9178.553681,-888.247130,689.485948
3646.823670,-9770.718434,-592.164754,76.609550
3646.824000,-10658.965565,-592.164754,153.219100
3646.824330,-10436.903782,-370.102971,1072.533697
3646.824659,-9770.718434,-592.164754,1072.533697
3646.824989,-9104.533087,-592.164754,1225.752797
3646.825319,-9178.553681,-740.205942,1225.752797
3646.825649,-9474.636058,-740.205942,1302.362347
3646.825979,-10066.800811,0.000000,153.219100
3646.826309,-10066.800811,888.247130,-995.924147
3646.826639,-10066.800811,518.144159,-2221.676944
3646.826968,-9844.739029,74.020594,-1915.238745
3646.827298,-10214.842000,-222.061783,-689.485948
3646.827628,-9696.697840,-1036.288319,76.609550
3646.827958,-9400.615463,-888.247130,689.485948
3646.828288,-8660.409521,-888.247130,536.266849
3646.828618,-9178.553681,0.000000,-229.828649
3646.828948,-10214.842000,0.000000,0.000000
3646.829278,-10807.006753,222.061783,459.657299
3646.829607,-10584.944971,0.000000,1762.019645
3646.829937,-9992.780217,-518.144159,1838.629195
3646.830267,-9400.615463,-888.247130,1915.238745
3646.830597,-9474.636058,-370.102971,1225.752797
3646.830927,-9992.780217,0.000000,919.314598
3646.831257,-10436.903782,740.205942,-995.924147
3646.831587,-10288.862594,962.267725,-2068.457845
3646.831917,-9548.656652,888.247130,-1685.410096
3646.832246,-10066.800811,666.185348,-76.609550
3646.832576,-9918.759623,148.041188,1378.971896
3646.832906,-9326.594869,148.041188,1302.362347
3646.833236,-8808.450710,222.061783,229.828649
3646.833566,-8882.471304,518.144159,-842.705048
3646.833896,-10066.800811,740.205942,383.047749
3646.834226,-10658.965565,666.185348,1762.019645
3646.834556,-10436.903782,444.123565,2757.943793
3646.834885,-9474.636058,222.061783,2451.505594
3646.835215,-9622.677246,0.000000,2374.896044
3646.835545,-9918.759623,666.185348,1838.629195
3646.835875,-10658.965565,962.267725,459.657299
3646.836205,-10658.965565,1406.391290,-1532.190996
3646.836535,-9918.759623,1036.288319,-1455.581446
3646.836865,-9474.636058,740.205942,-612.876398
3646.837195,-9400.615463,444.123565,459.657299
3646.837524,-9030.512492,444.123565,919.314598
3646.837854,-8808.450710,592.164754,689.485948
3646.838184,-9030.512492,1036.288319,-842.705048
3646.838514,-10140.821405,1406.391290,-689.485948
3646.838844,-11029.068536,1110.308913,76.609550
3646.839174,-11029.068536,518.144159,1532.190996
3646.839504,-10140.821405,296.082377,1225.752797
3646.839834,-9104.533087,-370.102971,612.876398
3646.840163,-8882.471304,-222.061783,689.485948
3646.840493,-9548.656652,518.144159,229.828649
3646.840823,-10066.800811,1036.288319,-536.266849
3646.841153,-10140.821405,888.247130,-1685.410096
3646.841483,-9918.759623,1184.329507,-1838.629195
3646.841813,-9622.677246,740.205942,-1685.410096
3646.842143,-10362.883188,0.000000,0.000000
3646.842473,-9992.780217,-444.123565,0.000000
3646.842802,-9030.512492,-740.205942,-536.266849
3646.843132,-8956.491898,-518.144159,-1072.533697
3646.843462,-9770.718434,74.020594,-459.657299
3646.843792,-10584.944971,74.020594,919.314598
3646.844122,-10140.821405,0.000000,1378.971896
3646.844452,-9474.636058,-370.102971,995.924147
3646.844782,-9326.594869,-666.185348,1149.143247
3646.845112,-9770.718434,-888.247130,2451.505594
3646.845441,-10436.903782,-370.102971,1608.800546
3646.845771,-10214.842000,0.000000,0.000000
3646.846101,-9992.780217,0.000000,-2221.676944
3646.846431,-9992.780217,-296.082377,-1762.019645
3646.846761,-10066.800811,-444.123565,-459.657299
3646.847091,-9770.718434,-888.247130,689.485948
3646.847421,-8734.430116,-1110.308913,842.705048
3646.847751,-8586.388927,-666.185348,229.828649
3646.848080,-9474.636058,-444.123565,-383.047749
3646.848410,-10732.986159,-74.020594,0.000000
3646.848740,-10881.027347,-222.061783,536.266849
3646.849070,-10288.862594,-444.123565,1225.752797
3646.849400,-9622.677246,-814.226536,1455.581446
3646.849730,-9844.739029,-1480.411884,2451.505594
3646.850060,-9992.780217,-1110.308913,2145.067394
3646.850390,-9770.718434,-444.123565,612.876398
3646.850719,-9918.759623,0.000000,-1225.752797
3646.851049,-9844.739029,0.000000,-1915.238745
3646.851379,-9918.759623,-296.082377,-842.705048
3646.851709,-9844.739029,-444.123565,-383.047749
3646.852039,-9400.615463,-1184.329507,536.266849
3646.852369,-8660.409521,-1332.370696,153.219100
3646.852699,-8512.368333,-1036.288319,-536.266849
3646.853029,-9400.615463,-222.061783,-689.485948
3646.853358,-10214.842000,74.020594,0.000000
3646.853688,-10140.821405,222.061783,689.485948
3646.854018,-10140.821405,0.000000,919.314598
3646.854348,-9622.677246,0.000000,1149.143247
3646.854678,-9770.718434,-370.102971,1915.238745
3646.855008,-9474.636058,-222.061783,1762.019645
3646.855338,-9770.718434,148.041188,0.000000
3646.855668,-9252.574275,666.185348,-1532.190996
3646.855997,-9844.739029,888.247130,-1762.019645
3646.856327,-10362.883188,888.247130,-842.705048
3646.856657,-10288.862594,592.164754,153.219100
3646.856987,-9770.718434,444.123565,612.876398
3646.857317,-8808.450710,296.082377,766.095498
3646.857647,-9030.512492,888.247130,0.000000
3646.857977,-9992.780217,666.185348,-76.609550
3646.858307,-10807.006753,1258.350101,153.219100
3646.858636,-10955.047942,1110.308913,1149.143247
3646.858966,-10658.965565,962.267725,1608.800546
3646.859296,-9622.677246,814.226536,1378.971896
3646.859626,-9474.636058,74.020594,1838.629195
3646.859956,-9400.615463,518.144159,2068.457845
3646.860286,-9622.677246,1258.350101,383.047749
3646.860616,-10066.800811,1406.391290,-842.705048
3646.860946,-9844.739029,1406.391290,-842.705048
3646.861275,-10066.800811,1406.391290,0.000000
3646.861605,-10288.862594,814.226536,1072.533697
3646.861935,-9770.718434,518.144159,1225.752797
3646.862265,-8660.409521,0.000000,766.095498
3646.862595,-8660.409521,518.144159,0.000000
3646.862925,-9696.697840,592.164754,-766.095498
3646.863255,-10436.903782,962.267725,-306.438199
3646.863585,-10288.862594,444.123565,459.657299
3646.863914,-9622.677246,296.082377,842.705048
3646.864244,-9400.615463,0.000000,995.924147
3646.864574,-9474.636058,0.000000,1072.533697
3646.864904,-9844.739029,74.020594,0.000000
3646.865234,-9770.718434,592.164754,-842.705048
3646.865564,-9696.697840,370.102971,-1608.800546
3646.865894,-9474.636058,518.144159,-1762.019645
3646.866224,-9918.759623,444.123565,-536.266849
3646.866553,-9770.718434,0.000000,459.657299
3646.866883,-9548.656652,-222.061783,383.047749
3646.867213,-9252.574275,0.000000,153.219100
3646.867543,-9696.697840,148.041188,-536.266849
3646.867873,-10140.821405,444.123565,-1378.971896
3646.868203,-10436.903782,370.102971,-689.485948
3646.868533,-10140.821405,74.020594,0.000000
3646.868863,-9178.553681,-370.102971,76.609550
3646.869192,-9400.615463,-666.185348,1378.971896
3646.869522,-9474.636058,-518.144159,1225.752797
3646.869852,-10362.883188,0.000000,1225.752797
3646.870182,-10807.006753,222.061783,-306.438199
3646.870512,-10436.903782,-296.082377,-689.485948
3646.870842,-10288.862594,-148.041188,-383.047749
3646.871172,-9696.697840,-888.247130,76.609550
3646.871502,-9696.697840,-1184.329507,1225.752797
3646.871831,-9104.533087,-1406.391290,1378.971896
3646.872161,-9474.636058,-740.205942,459.657299
3646.872491,-9252.574275,-518.144159,-229.828649
3646.872821,-10140.821405,-444.123565,0.000000
3646.873151,-10807.006753,-444.123565,536.266849
3646.873481,-10066.800811,-740.205942,1608.800546
3646.873811,-9474.636058,-1258.350101,919.314598
3646.874141,-9548.656652,-1628.453072,1378.971896
3646.874470,-9474.636058,-1628.453072,1225.752797
3646.874800,-9252.574275,-1110.308913,689.485948
3646.875130,-9474.636058,-444.123565,-689.485948
3646.875460,-9992.780217,-148.041188,-1149.143247
3646.875790,-9992.780217,-296.082377,-383.047749
3646.876120,-10214.842000,-296.082377,229.828649
3646.876450,-9992.780217,-814.226536,383.047749
3646.876780,-9474.636058,-1184.329507,306.438199
3646.877109,-8808.450710,-1036.288319,0.000000
3646.877439,-9474.636058,-222.061783,-995.924147
3646.877769,-10807.006753,370.102971,-383.047749
3646.878099,-10288.862594,-148.041188,0.000000
3646.878429,-10214.842000,-74.020594,76.609550
3646.878759,-9622.677246,-296.082377,229.828649
3646.879089,-9474.636058,0.000000,1455.581446
3646.879419,-9918.759623,222.061783,1072.533697
3646.879748,-9918.759623,518.144159,0.000000
3646.880078,-9770.718434,592.164754,-1455.581446
3646.880408,-9918.759623,740.205942,-1455.581446
3646.880738,-10362.883188,518.144159,-689.485948
3646.881068,-10140.821405,370.102971,229.828649
3646.881398,-9474.636058,0.000000,1225.752797
3646.881728,-8956.491898,0.000000,1072.533697
3646.882058,-9030.512492,518.144159,-76.609550
3646.882387,-9622.677246,1036.288319,-306.438199
3646.882717,-10658.965565,1332.370696,0.000000
3646.883047,-10658.965565,1036.288319,689.485948
3646.883377,-9770.718434,740.205942,383.047749
3646.883707,-9474.636058,0.000000,995.924147
3646.884037,-9548.656652,0.000000,2298.286494
3646.884367,-9622.677246,74.020594,2374.896044
3646.884697,-9474.636058,740.205942,842.705048
3646.885026,-9474.636058,1036.288319,-229.828649
3646.885356,-9474.636058,1110.308913,-459.657299
3646.885686,-9844.739029,962.267725,383.047749
3646.886016,-10362.883188,740.205942,1685.410096
3646.886346,-9548.656652,296.082377,1378.971896
3646.886676,-9326.594869,296.082377,612.876398
3646.887006,-9104.533087,370.102971,-383.047749
3646.887336,-9770.718434,1036.288319,-536.266849
3646.887665,-10214.842000,814.226536,-229.828649
3646.887995,-10066.800811,1110.308913,459.657299
3646.888325,-9548.656652,518.144159,383.047749
3646.888655,-9548.656652,370.102971,612.876398
3646.888985,-9918.759623,0.000000,1685.410096
3646.889315,-10214.842000,592.164754,1072.533697
3646.889645,-10140.821405,888.247130,-459.657299
3646.889975,-9992.780217,962.267725,-1455.581446
3646.890304,-9770.718434,666.185348,-1149.143247
3646.890634,-9992.780217,518.144159,0.000000
3646.890964,-10436.903782,0.000000,536.266849
3646.891294,-9622.677246,222.061783,612.876398
3646.891624,-9178.553681,74.020594,383.047749
3646.891954,-9474.636058,74.020594,0.000000
3646.892284,-10510.924376,592.164754,-383.047749
3646.892614,-10510.924376,444.123565,-229.828649
3646.892943,-10362.883188,296.082377,0.000000
3646.893273,-9548.656652,0.000000,459.657299
3646.893603,-9474.636058,-666.185348,383.047749
3646.893933,-9622.677246,-518.144159,1225.752797
3646.894263,-9770.718434,-444.123565,1149.143247
3646.894593,-9474.636058,0.000000,-459.657299
3646.894923,-9622.677246,0.000000,-842.705048
3646.895253,-9918.759623,-222.061783,153.219100
3646.895582,-10066.800811,-296.082377,919.314598
3646.895912,-9844.739029,-888.247130,1532.190996
3646.896242,-9622.677246,-814.226536,1378.971896
3646.896572,-9252.574275,-518.144159,612.876398
3646.896902,-9770.718434,-222.061783,-76.609550
3646.897232,-10510.924376,0.000000,-842.705048
3646.897562,-11029.068536,0.000000,0.000000
3646.897892,-10140.821405,-370.102971,-76.609550
3646.898221,-9400.615463,-1110.308913,153.219100
3646.898551,-9178.553681,-888.247130,1302.362347
3646.898881,-9400.615463,-518.144159,2068.457845
3646.899211,-9474.636058,-592.164754,0.000000
3646.899541,-9844.739029,-222.061783,-1149.143247
3646.899871,-10140.821405,-222.061783,-1225.752797
3646.900201,-10066.800811,-666.185348,-306.438199
3646.900531,-10362.883188,-814.226536,766.095498
3646.900860,-9622.677246,-1258.350101,995.924147
3646.901190,-8956.491898,-1258.350101,842.705048
3646.901520,-8512.368333,-740.205942,306.438199
3646.901850,-9918.759623,-148.041188,-383.047749
3646.902180,-10658.965565,296.082377,-842.705048
3646.902510,-10955.047942,148.041188,-612.876398
3646.902840,-10140.821405,0.000000,-459.657299
3646.903170,-9696.697840,-592.164754,153.219100
3646.903499,-9622.677246,-814.226536,306.438199
3646.903829,-9104.533087,-592.164754,612.876398
3646.904159,-8956.491898,-296.082377,-459.657299
3646.904489,-9474.636058,296.082377,-1225.752797
3646.904819,-9992.780217,592.164754,-612.876398
3646.905149,-10214.842000,444.123565,0.000000
3646.905479,-10214.842000,222.061783,1149.143247
3646.905809,-9696.697840,-370.102971,1532.190996
3646.906138,-9030.512492,-518.144159,1225.752797
3646.906468,-9326.594869,0.000000,842.705048
3646.906798,-9918.759623,444.123565,-306.438199
3646.907128,-10584.944971,740.205942,-76.609550
3646.907458,-10140.821405,370.102971,306.438199
3646.907788,-10066.800811,1184.329507,689.485948
3646.908118,-9622.677246,222.061783,1072.533697
3646.908448,-9474.636058,666.185348,1685.410096
3646.908777,-9474.636058,814.226536,1915.238745
3646.909107,-9622.677246,1332.370696,76.609550
3646.909437,-9844.739029,1110.308913,-689.485948
3646.909767,-10288.862594,1258.350101,-383.047749
3646.910097,-10584.944971,1036.288319,689.485948
3646.910427,-10214.842000,666.185348,1378.971896
