#time,accel_x,accel_y,accel_z
4060.373665,-11399.171507,-296.082377,1302.362347
4060.373995,-11251.130318,0.000000,919.314598
4060.374325,-10955.047942,-592.164754,766.095498
4060.374655,-10362.883188,-1406.391290,1838.629195
4060.374985,-8808.450710,-2072.576638,2604.724693
4060.375315,-7994.224174,-2368.659014,2681.334243
4060.375646,-7550.100608,-2220.617826,1762.019645
4060.375976,-8512.368333,-1776.494261,1225.752797
4060.376306,-9030.512492,-888.247130,1149.143247
4060.376636,-10140.821405,-296.082377,1378.971896
4060.376966,-11325.150913,814.226536,1915.238745
4060.377296,-11029.068536,518.144159,2298.286494
4060.377626,-10955.047942,444.123565,1532.190996
4060.377957,-10732.986159,444.123565,536.266849
4060.378287,-11399.171507,-148.041188,76.609550
4060.378617,-10584.944971,-592.164754,1149.143247
4060.378947,-9178.553681,-1480.411884,1378.971896
4060.379277,-8586.388927,-1480.411884,2145.067394
4060.379607,-8660.409521,-1480.411884,2451.505594
4060.379938,-9400.615463,-962.267725,2068.457845
4060.380268,-9326.594869,-1184.329507,2298.286494
4060.380598,-9400.615463,-814.226536,1915.238745
4060.380928,-10140.821405,-740.205942,2528.115143
4060.381258,-11177.109724,-518.144159,2834.553343
4060.381588,-11547.212695,-888.247130,3600.648841
4060.381919,-10955.047942,-1184.329507,3064.381992
4060.382249,-10066.800811,-1258.350101,2374.896044
4060.382579,-9918.759623,-1554.432478,2145.067394
4060.382909,-9844.739029,-1554.432478,2145.067394
4060.383239,-9178.553681,-1554.432478,2068.457845
4060.383569,-8882.471304,-1628.453072,1455.581446
4060.383899,-7772.162391,-2368.659014,689.485948
4060.384230,-9400.615463,-3108.864956,2145.067394
4060.384560,-11325.150913,-3627.009116,3447.429741
4060.384890,-10584.944971,-3701.029710,3907.087040
4060.385220,-10362.883188,-3478.967927,3983.696590
4060.385550,-10066.800811,-3997.112087,3294.210641
4060.385880,-9548.656652,-2664.741391,2911.162892
4060.386211,-10955.047942,-2220.617826,3217.601092
4060.386541,-9622.677246,-2072.576638,3370.820191
4060.386871,-9844.739029,-2590.720797,3064.381992
4060.387201,-9770.718434,-2886.803174,1991.848295
4060.387531,-9770.718434,-3330.926739,2298.286494
4060.387861,-10066.800811,-3627.009116,1838.629195
4060.388192,-9770.718434,-3775.050304,1455.581446
4060.388522,-9252.574275,-3997.112087,766.095498
4060.388852,-9696.697840,-4071.132681,2221.676944
4060.389182,-10214.842000,-3997.112087,3677.258390
4060.389512,-11029.068536,-3923.091493,5439.278036
4060.389842,-10288.862594,-3775.050304,4903.011187
4060.390173,-10362.883188,-4441.235652,3907.087040
4060.390503,-10362.883188,-4071.132681,3447.429741
4060.390833,-11103.089130,-4071.132681,3064.381992
4060.391163,-10362.883188,-3182.885551,2604.724693
4060.391493,-9696.697840,-3701.029710,2834.553343
4060.391823,-9252.574275,-3552.988522,1532.190996
4060.392153,-9400.615463,-3552.988522,1378.971896
4060.392484,-9992.780217,-3775.050304,1685.410096
4060.392814,-9548.656652,-4071.132681,2221.676944
4060.393144,-8956.491898,-4589.276840,2451.505594
4060.393474,-8290.306550,-4441.235652,3830.477490
4060.393804,-9252.574275,-4367.215058,4903.011187
4060.394134,-10436.903782,-3256.906145,4903.011187
4060.394465,-10140.821405,-3404.947333,2911.162892
4060.394795,-9474.636058,-2294.638420,1455.581446
4060.395125,-9844.739029,-1998.556043,1378.971896
4060.395455,-10288.862594,-1628.453072,2221.676944
4060.395785,-10658.965565,-1110.308913,2451.505594
4060.396115,-9474.636058,-1776.494261,1762.019645
4060.396446,-8586.388927,-1998.556043,76.609550
4060.396776,-8956.491898,-2368.659014,459.657299
4060.397106,-9844.739029,-2368.659014,2528.115143
4060.397435,-9474.636058,-2294.638420,3140.991542
4060.397765,-9252.574275,-1776.494261,3294.210641
4060.398095,-9474.636058,-1332.370696,3064.381992
4060.398425,-10658.965565,-444.123565,2451.505594
4060.398755,-11473.192101,444.123565,1685.410096
4060.399085,-11473.192101,740.205942,459.657299
4060.399415,-10881.027347,962.267725,689.485948
4060.399744,-9622.677246,222.061783,1225.752797
4060.400074,-9918.759623,74.020594,1991.848295
4060.400404,-10140.821405,74.020594,1762.019645
4060.400734,-9252.574275,-444.123565,153.219100
4060.401064,-8068.244768,-518.144159,-1302.362347
4060.401394,-8364.327145,-740.205942,-1072.533697
4060.401724,-9696.697840,-592.164754,1149.143247
4060.402054,-10214.842000,-148.041188,3294.210641
4060.402383,-9326.594869,0.000000,2757.943793
4060.402713,-9400.615463,370.102971,919.314598
4060.403043,-9992.780217,962.267725,536.266849
4060.403373,-10807.006753,1110.308913,536.266849
4060.403703,-10881.027347,1184.329507,1149.143247
4060.404033,-10510.924376,592.164754,1149.143247
4060.404363,-9696.697840,296.082377,1915.238745
4060.404692,-9474.636058,296.082377,2298.286494
4060.405022,-9474.636058,-222.061783,1532.190996
4060.405352,-8438.347739,-148.041188,0.000000
4060.405682,-8586.388927,-370.102971,-1149.143247
4060.406012,-8956.491898,0.000000,-1072.533697
4060.406342,-9548.656652,592.164754,306.438199
4060.406672,-10658.965565,1702.473667,459.657299
4060.407001,-10658.965565,888.247130,-612.876398
4060.407331,-10066.800811,444.123565,-2145.067394
4060.407661,-9992.780217,148.041188,-1149.143247
4060.407991,-10510.924376,74.020594,612.876398
4060.408321,-9696.697840,0.000000,1915.238745
4060.408651,-8882.471304,-370.102971,1225.752797
4060.408981,-8660.409521,-740.205942,-76.609550
4060.409311,-9696.697840,-1036.288319,-306.438199
4060.409640,-10362.883188,0.000000,-612.876398
4060.409970,-10288.862594,-814.226536,-229.828649
4060.410300,-9622.677246,0.000000,0.000000
4060.410630,-9178.553681,0.000000,459.657299
4060.410960,-10140.821405,296.082377,1149.143247
4060.411290,-10214.842000,814.226536,766.095498
4060.411620,-10955.047942,444.123565,536.266849
4060.411949,-10732.986159,222.061783,76.609550
4060.412279,-9696.697840,-740.205942,0.000000
4060.412609,-10066.800811,-666.185348,1532.190996
4060.412939,-10955.047942,-1036.288319,1762.019645
4060.413269,-10362.883188,-814.226536,383.047749
4060.413599,-8882.471304,-1332.370696,-689.485948
4060.413929,-7920.203579,-1258.350101,-2298.286494
4060.414258,-8660.409521,-370.102971,306.438199
4060.414588,-9770.718434,-148.041188,2145.067394
4060.414918,-10807.006753,-296.082377,1762.019645
4060.415248,-10288.862594,-518.144159,2145.067394
4060.415578,-9844.739029,-888.247130,919.314598
4060.415908,-10214.842000,-1184.329507,1762.019645
4060.416238,-10436.903782,-1332.370696,2451.505594
4060.416568,-9696.697840,-1924.535449,1149.143247
4060.416897,-9178.553681,-1110.308913,919.314598
4060.417227,-8882.471304,-740.205942,229.828649
4060.417557,-9770.718434,-370.102971,-229.828649
4060.417887,-9918.759623,74.020594,229.828649
4060.418217,-9844.739029,222.061783,-536.266849
4060.418547,-9844.739029,592.164754,153.219100
4060.418877,-9474.636058,296.082377,306.438199
4060.419206,-9770.718434,0.000000,383.047749
4060.419536,-10658.965565,296.082377,1149.143247
4060.419866,-10955.047942,-296.082377,459.657299
4060.420196,-10510.924376,-370.102971,229.828649
4060.420526,-9178.553681,-592.164754,-383.047749
4060.420856,-8882.471304,-592.164754,-383.047749
4060.421186,-9696.697840,-222.061783,383.047749
4060.421515,-9252.574275,148.041188,0.000000
4060.421845,-9252.574275,666.185348,-612.876398
4060.422175,-9030.512492,1332.370696,-229.828649
4060.422505,-10140.821405,740.205942,0.000000
4060.422835,-11325.150913,740.205942,536.266849
4060.423165,-10584.944971,222.061783,383.047749
4060.423495,-10140.821405,74.020594,0.000000
4060.423824,-9992.780217,0.000000,-76.609550
4060.424154,-9400.615463,0.000000,-612.876398
4060.424484,-9104.533087,148.041188,0.000000
4060.424814,-8734.430116,296.082377,0.000000
4060.425144,-9548.656652,814.226536,76.609550
4060.425474,-9326.594869,888.247130,919.314598
4060.425804,-9252.574275,222.061783,306.438199
4060.426134,-9696.697840,518.144159,536.266849
4060.426463,-9992.780217,592.164754,459.657299
4060.426793,-10658.965565,740.205942,-612.876398
4060.427123,-10288.862594,740.205942,-153.219100
4060.427453,-9918.759623,518.144159,0.000000
4060.427783,-9622.677246,740.205942,383.047749
4060.428113,-9326.594869,666.185348,0.000000
4060.428443,-9104.533087,666.185348,-1072.533697
4060.428772,-9104.533087,962.267725,-1149.143247
4060.429102,-9178.553681,962.267725,-383.047749
4060.429432,-9400.615463,1110.308913,306.438199
4060.429762,-9992.780217,962.267725,842.705048
4060.430092,-10288.862594,888.247130,0.000000
4060.430422,-10955.047942,1036.288319,0.000000
4060.430752,-10510.924376,1036.288319,-842.705048
4060.431081,-10362.883188,1036.288319,306.438199
4060.431411,-9992.780217,592.164754,459.657299
4060.431741,-9770.718434,740.205942,0.000000
4060.432071,-9696.697840,740.205942,-229.828649
4060.432401,-9178.553681,592.164754,-689.485948
4060.432731,-9030.512492,296.082377,-383.047749
4060.433061,-9474.636058,592.164754,306.438199
4060.433391,-9622.677246,0.000000,0.000000
4060.433720,-10288.862594,518.144159,76.609550
4060.434050,-9696.697840,666.185348,0.000000
4060.434380,-10658.965565,518.144159,76.609550
4060.434710,-10881.027347,148.041188,0.000000
4060.435040,-10066.800811,148.041188,-306.438199
4060.435370,-10066.800811,0.000000,383.047749
4060.435700,-9918.759623,-148.041188,689.485948
4060.436029,-9104.533087,-1110.308913,1225.752797
4060.436359,-9030.512492,-1110.308913,1915.238745
4060.436689,-9178.553681,-962.267725,689.485948
4060.437019,-10140.821405,-592.164754,0.000000
4060.437349,-10140.821405,-222.061783,-76.609550
4060.437679,-9696.697840,-296.082377,383.047749
4060.438009,-9474.636058,0.000000,536.266849
4060.438338,-9770.718434,-370.102971,0.000000
4060.438668,-10436.903782,-444.123565,-612.876398
4060.438998,-10066.800811,-666.185348,0.000000
4060.439328,-8882.471304,-1184.329507,306.438199
4060.439658,-9178.553681,-1332.370696,1608.800546
4060.439988,-9252.574275,-1332.370696,1532.190996
4060.440318,-9992.780217,-592.164754,766.095498
4060.440648,-9770.718434,-444.123565,-76.609550
4060.440977,-9400.615463,-370.102971,-306.438199
4060.441307,-10066.800811,222.061783,0.000000
4060.441637,-10214.842000,0.000000,0.000000
4060.441967,-10436.903782,0.000000,0.000000
4060.442297,-9770.718434,296.082377,-383.047749
4060.442627,-9326.594869,-370.102971,-229.828649
4060.442957,-9326.594869,-962.267725,536.266849
4060.443286,-9770.718434,-592.164754,689.485948
4060.443616,-9474.636058,-518.144159,383.047749
4060.443946,-9844.739029,-592.164754,1149.143247
4060.444276,-9178.553681,-370.102971,459.657299
4060.444606,-9474.636058,0.000000,383.047749
4060.444936,-9844.739029,370.102971,0.000000
4060.445266,-10732.986159,666.185348,-766.095498
4060.445595,-11103.089130,888.247130,306.438199
4060.445925,-9992.780217,296.082377,919.314598
4060.446255,-9770.718434,0.000000,766.095498
4060.446585,-9992.780217,74.020594,766.095498
4060.446915,-10436.903782,-148.041188,-383.047749
4060.447245,-9992.780217,148.041188,-766.095498
4060.447575,-9474.636058,148.041188,-383.047749
4060.447904,-9030.512492,444.123565,383.047749
4060.448234,-9474.636058,296.082377,383.047749
4060.448564,-10214.842000,592.164754,-689.485948
4060.448894,-10288.862594,518.144159,-1149.143247
4060.449224,-9252.574275,74.020594,-459.657299
4060.449554,-9104.533087,74.020594,306.438199
4060.449884,-9474.636058,148.041188,1302.362347
4060.450214,-9474.636058,74.020594,1378.971896
4060.450543,-9844.739029,222.061783,766.095498
4060.450873,-9918.759623,370.102971,-153.219100
4060.451203,-9400.615463,0.000000,-536.266849
4060.451533,-9770.718434,296.082377,-383.047749
4060.451863,-10140.821405,666.185348,-536.266849
4060.452193,-10288.862594,592.164754,-229.828649
4060.452523,-9474.636058,444.123565,-383.047749
4060.452852,-9030.512492,444.123565,-383.047749
4060.453182,-9696.697840,592.164754,383.047749
4060.453512,-9992.780217,444.123565,612.876398
4060.453842,-10510.924376,740.205942,612.876398
4060.454172,-9622.677246,444.123565,536.266849
4060.454502,-9474.636058,74.020594,459.657299
4060.454832,-9696.697840,0.000000,995.924147
4060.455161,-10214.842000,222.061783,0.000000
4060.455491,-9844.739029,592.164754,-536.266849
4060.455821,-9474.636058,666.185348,-76.609550
4060.456151,-9474.636058,0.000000,76.609550
4060.456481,-9844.739029,296.082377,842.705048
4060.456811,-9844.739029,74.020594,459.657299
4060.457141,-10436.903782,-370.102971,0.000000
4060.457471,-10214.842000,0.000000,766.095498
4060.457800,-9178.553681,-222.061783,153.219100
4060.458130,-8882.471304,-740.205942,995.924147
4060.458460,-9030.512492,74.020594,306.438199
4060.458790,-9696.697840,370.102971,-383.047749
4060.459120,-10288.862594,1036.288319,-76.609550
4060.459450,-9844.739029,0.000000,-229.828649
4060.459780,-9918.759623,0.000000,995.924147
4060.460109,-9918.759623,-444.123565,1149.143247
4060.460439,-10140.821405,-592.164754,0.000000
4060.460769,-10066.800811,-518.144159,459.657299
4060.461099,-9400.615463,-740.205942,536.266849
4060.461429,-9178.553681,-740.205942,689.485948
4060.461759,-10140.821405,-148.041188,306.438199
4060.462089,-10436.903782,0.000000,153.219100
4060.462418,-10732.986159,518.144159,306.438199
4060.462748,-9548.656652,0.000000,459.657299
4060.463078,-9918.759623,-296.082377,536.266849
4060.463408,-9770.718434,0.000000,1532.190996
4060.463738,-9844.739029,-814.226536,459.657299
4060.464068,-10214.842000,-444.123565,-306.438199
4060.464398,-9474.636058,-370.102971,536.266849
4060.464727,-9696.697840,0.000000,383.047749
4060.465057,-9770.718434,222.061783,383.047749
4060.465387,-10362.883188,148.041188,-612.876398
4060.465717,-10140.821405,370.102971,0.000000
4060.466047,-9770.718434,74.020594,76.609550
4060.466377,-9326.594869,0.000000,536.266849
4060.466707,-9844.739029,-222.061783,536.266849
4060.467037,-9992.780217,-370.102971,0.000000
4060.467366,-10066.800811,-444.123565,-306.438199
4060.467696,-9178.553681,-222.061783,-76.609550
4060.468026,-9474.636058,-592.164754,919.314598
4060.468356,-9696.697840,-296.082377,1149.143247
4060.468686,-9548.656652,-222.061783,459.657299
4060.469016,-10436.903782,518.144159,229.828649
4060.469346,-9992.780217,148.041188,536.266849
4060.469675,-9474.636058,-148.041188,459.657299
4060.470005,-9178.553681,-74.020594,766.095498
4060.470335,-9400.615463,-74.020594,0.000000
4060.470665,-10066.800811,0.000000,-383.047749
4060.470995,-9844.739029,370.102971,-229.828649
4060.471325,-9252.574275,296.082377,0.000000
4060.471655,-9474.636058,222.061783,0.000000
4060.471984,-9548.656652,1036.288319,-306.438199
4060.472314,-10066.800811,518.144159,0.000000
4060.472644,-9474.636058,666.185348,383.047749
4060.472974,-9104.533087,296.082377,229.828649
4060.473304,-9696.697840,592.164754,459.657299
4060.473634,-10436.903782,444.123565,0.000000
4060.473964,-10288.862594,0.000000,153.219100
4060.474294,-9918.759623,148.041188,612.876398
4060.474623,-9474.636058,-222.061783,1225.752797
4060.474953,-9696.697840,74.020594,1455.581446
4060.475283,-9622.677246,0.000000,153.219100
4060.475613,-10288.862594,592.164754,0.000000
4060.475943,-10510.924376,592.164754,76.609550
4060.476273,-9770.718434,74.020594,536.266849
4060.476603,-9696.697840,444.123565,766.095498
4060.476932,-10214.842000,222.061783,766.095498
4060.477262,-10584.944971,0.000000,383.047749
4060.477592,-10362.883188,0.000000,383.047749
4060.477922,-9252.574275,-518.144159,-76.609550
4060.478252,-8364.327145,-592.164754,0.000000
4060.478582,-8882.471304,148.041188,0.000000
4060.478912,-9844.739029,370.102971,-536.266849
4060.479241,-11251.130318,1036.288319,0.000000
4060.479571,-10436.903782,518.144159,0.000000
4060.479901,-9844.739029,0.000000,-383.047749
4060.480231,-9844.739029,-296.082377,0.000000
4060.480561,-9400.615463,-888.247130,229.828649
4060.480891,-9474.636058,-222.061783,536.266849
4060.481221,-8734.430116,-740.205942,229.828649
4060.481551,-9104.533087,-148.041188,0.000000
4060.481880,-9178.553681,296.082377,383.047749
4060.482210,-9992.780217,296.082377,-153.219100
4060.482540,-10732.986159,518.144159,0.000000
4060.482870,-10066.800811,740.205942,0.000000
4060.483200,-9770.718434,74.020594,-153.219100
4060.483530,-9696.697840,370.102971,-306.438199
4060.483860,-10510.924376,-148.041188,-536.266849
4060.484189,-10436.903782,222.061783,0.000000
4060.484519,-9474.636058,74.020594,0.000000
4060.484849,-8586.388927,0.000000,0.000000
4060.485179,-9326.594869,74.020594,306.438199
4060.485509,-9918.759623,222.061783,229.828649
4060.485839,-10436.903782,148.041188,306.438199
4060.486169,-10066.800811,222.061783,0.000000
4060.486498,-9696.697840,-74.020594,842.705048
4060.486828,-9696.697840,-148.041188,1455.581446
4060.487158,-9770.718434,0.000000,1608.800546
4060.487488,-9696.697840,148.041188,766.095498
4060.487818,-9844.739029,444.123565,612.876398
4060.488148,-9474.636058,0.000000,229.828649
4060.488478,-9918.759623,296.082377,842.705048
4060.488807,-9844.739029,-148.041188,612.876398
4060.489137,-10288.862594,222.061783,689.485948
4060.489467,-9474.636058,74.020594,229.828649
4060.489797,-8512.368333,0.000000,-306.438199
4060.490127,-8808.450710,0.000000,306.438199
4060.490457,-9770.718434,518.144159,536.266849
4060.490787,-10288.862594,74.020594,919.314598
4060.491117,-10140.821405,592.164754,919.314598
4060.491446,-9918.759623,74.020594,383.047749
4060.491776,-9696.697840,370.102971,0.000000
4060.492106,-9770.718434,222.061783,459.657299
4060.492436,-9844.739029,0.000000,0.000000
4060.492766,-9622.677246,370.102971,76.609550
4060.493096,-8882.471304,222.061783,-306.438199
4060.493426,-9622.677246,814.226536,0.000000
4060.493755,-10066.800811,592.164754,-229.828649
4060.494085,-10584.944971,518.144159,-536.266849
4060.494415,-10510.924376,444.123565,-383.047749
4060.494745,-9474.636058,0.000000,0.000000
4060.495075,-9696.697840,-74.020594,459.657299
4060.495405,-9622.677246,0.000000,689.485948
4060.495735,-10214.842000,-222.061783,229.828649
4060.496064,-10140.821405,518.144159,0.000000
4060.496394,-9696.697840,148.041188,0.000000
4060.496724,-9844.739029,222.061783,383.047749
4060.497054,-9992.780217,74.020594,842.705048
4060.497384,-10510.924376,666.185348,612.876398
4060.497714,-10288.862594,0.000000,-229.828649
4060.498043,-9474.636058,-222.061783,-153.219100
4060.498373,-9326.594869,-74.020594,0.000000
4060.498703,-9770.718434,74.020594,689.485948
4060.499033,-9992.780217,0.000000,383.047749
4060.499363,-10140.821405,-148.041188,0.000000
4060.499693,-9548.656652,222.061783,-229.828649
4060.500022,-9474.636058,0.000000,0.000000
4060.500352,-9326.594869,296.082377,536.266849
4060.500682,-9696.697840,296.082377,536.266849
4060.501012,-10214.842000,222.061783,536.266849
4060.501342,-9400.615463,0.000000,383.047749
4060.501672,-9104.533087,-296.082377,76.609550
4060.502001,-10140.821405,-148.041188,689.485948
4060.502331,-10436.903782,-518.144159,995.924147
4060.502661,-10362.883188,0.000000,459.657299
4060.502991,-9400.615463,0.000000,0.000000
4060.503321,-8660.409521,148.041188,-153.219100
4060.503650,-9104.533087,222.061783,459.657299
4060.503980,-10066.800811,518.144159,153.219100
4060.504310,-10584.944971,666.185348,76.609550
4060.504640,-9992.780217,0.000000,-153.219100
4060.504970,-9400.615463,0.000000,76.609550
4060.505300,-10140.821405,-592.164754,1225.752797
4060.505629,-10288.862594,74.020594,1072.533697
4060.505959,-9918.759623,148.041188,766.095498
4060.506289,-9252.574275,222.061783,0.000000
4060.506619,-8734.430116,-148.041188,0.000000
4060.506949,-9474.636058,0.000000,612.876398
4060.507279,-10066.800811,74.020594,1302.362347
4060.507608,-9918.759623,0.000000,1072.533697
4060.507938,-9844.739029,296.082377,612.876398
4060.508268,-9696.697840,-74.020594,0.000000
4060.508598,-10140.821405,0.000000,229.828649
4060.508928,-10066.800811,-74.020594,0.000000
4060.509258,-9992.780217,296.082377,-153.219100
4060.509587,-9918.759623,370.102971,0.000000
4060.509917,-9030.512492,0.000000,-153.219100
4060.510247,-8956.491898,0.000000,-766.095498
4060.510577,-9104.533087,0.000000,0.000000
4060.510907,-10362.883188,0.000000,-612.876398
4060.511237,-10214.842000,0.000000,0.000000
4060.511566,-9474.636058,222.061783,0.000000
4060.511896,-9326.594869,-74.020594,229.828649
4060.512226,-9474.636058,0.000000,919.314598
4060.512556,-9622.677246,0.000000,153.219100
4060.512886,-10140.821405,0.000000,0.000000
4060.513215,-10140.821405,518.144159,-229.828649
4060.513545,-10288.862594,444.123565,383.047749
4060.513875,-10658.965565,444.123565,229.828649
4060.514205,-10584.944971,148.041188,-383.047749
4060.514535,-10362.883188,222.061783,0.000000
4060.514865,-9474.636058,0.000000,-383.047749
4060.515194,-8586.388927,-370.102971,-306.438199
4060.515524,-9030.512492,0.000000,459.657299
4060.515854,-10140.821405,222.061783,842.705048
4060.516184,-10807.006753,0.000000,689.485948
4060.516514,-9844.739029,370.102971,153.219100
4060.516844,-9252.574275,-296.082377,-76.609550
4060.517173,-9326.594869,0.000000,306.438199
4060.517503,-9844.739029,-74.020594,153.219100
4060.517833,-10214.842000,0.000000,306.438199
4060.518163,-9696.697840,296.082377,306.438199
4060.518493,-9770.718434,-74.020594,459.657299
4060.518823,-9770.718434,222.061783,459.657299
4060.519152,-9548.656652,0.000000,459.657299
4060.519482,-9622.677246,296.082377,-306.438199
4060.519812,-9696.697840,518.144159,0.000000
4060.520142,-9696.697840,518.144159,229.828649
4060.520472,-9918.759623,222.061783,153.219100
4060.520802,-10288.862594,740.205942,0.000000
4060.521131,-10288.862594,148.041188,-612.876398
4060.521461,-9400.615463,370.102971,-383.047749
4060.521791,-9030.512492,148.041188,-536.266849
4060.522121,-9474.636058,296.082377,919.314598
4060.522451,-9844.739029,444.123565,1149.143247
4060.522780,-10584.944971,592.164754,612.876398
4060.523110,-11177.109724,444.123565,459.657299
4060.523440,-10214.842000,-222.061783,-76.609550
4060.523770,-9918.759623,-296.082377,536.266849
4060.524100,-9400.615463,-444.123565,0.000000
4060.524430,-9252.574275,148.041188,76.609550
4060.524759,-8956.491898,0.000000,229.828649
4060.525089,-8734.430116,0.000000,76.609550
4060.525419,-9326.594869,222.061783,459.657299
4060.525749,-9992.780217,296.082377,612.876398
4060.526079,-10881.027347,0.000000,383.047749
4060.526409,-10732.986159,-148.041188,459.657299
4060.526738,-9474.636058,-592.164754,229.828649
4060.527068,-9030.512492,-1110.308913,766.095498
4060.527398,-8660.409521,-148.041188,459.657299
4060.527728,-8808.450710,0.000000,-306.438199
4060.528058,-9474.636058,370.102971,-459.657299
4060.528388,-9696.697840,518.144159,-459.657299
4060.528717,-9696.697840,518.144159,306.438199
4060.529047,-10807.006753,518.144159,1072.533697
4060.529377,-11251.130318,-148.041188,229.828649
4060.529707,-10955.047942,-444.123565,459.657299
4060.530037,-9474.636058,-962.267725,76.609550
4060.530367,-8808.450710,-666.185348,76.609550
4060.530696,-8808.450710,-296.082377,842.705048
4060.531026,-9400.615463,0.000000,76.609550
4060.531356,-10214.842000,222.061783,-153.219100
4060.531686,-10214.842000,666.185348,-306.438199
4060.532016,-10066.800811,74.020594,0.000000
4060.532345,-9992.780217,0.000000,612.876398
4060.532675,-10288.862594,-740.205942,383.047749
4060.533005,-10066.800811,-888.247130,0.000000
4060.533335,-9326.594869,-666.185348,459.657299
4060.533665,-8956.491898,-592.164754,919.314598
4060.533995,-9474.636058,-148.041188,1378.971896
4060.534324,-10214.842000,222.061783,766.095498
4060.534654,-10658.965565,74.020594,0.000000
4060.534984,-9992.780217,0.000000,383.047749
4060.535314,-9622.677246,-518.144159,689.485948
4060.535644,-9548.656652,0.000000,1685.410096
4060.535974,-9178.553681,-888.247130,612.876398
4060.536303,-9770.718434,-518.144159,76.609550
4060.536633,-9548.656652,-296.082377,0.000000
4060.536963,-9548.656652,-148.041188,0.000000
4060.537293,-9918.759623,0.000000,1302.362347
4060.537623,-9770.718434,-296.082377,1302.362347
4060.537953,-10066.800811,592.164754,689.485948
4060.538282,-10362.883188,296.082377,0.000000
4060.538612,-10140.821405,518.144159,-306.438199
4060.538942,-9696.697840,74.020594,-229.828649
4060.539272,-10214.842000,444.123565,-76.609550
4060.539602,-10362.883188,0.000000,76.609550
4060.539932,-9992.780217,370.102971,919.314598
4060.540261,-8882.471304,-222.061783,536.266849
4060.540591,-9252.574275,-222.061783,612.876398
4060.540921,-9770.718434,296.082377,459.657299
4060.541251,-10140.821405,0.000000,153.219100
4060.541581,-10584.944971,740.205942,536.266849
4060.541910,-9770.718434,74.020594,919.314598
4060.542240,-9622.677246,0.000000,995.924147
4060.542570,-9400.615463,74.020594,0.000000
4060.542900,-9474.636058,444.123565,-1072.533697
4060.543230,-10066.800811,518.144159,-766.095498
4060.543560,-9696.697840,0.000000,459.657299
4060.543889,-9770.718434,0.000000,536.266849
4060.544219,-9622.677246,444.123565,612.876398
4060.544549,-9844.739029,148.041188,-536.266849
4060.544879,-10288.862594,592.164754,-612.876398
4060.545209,-9548.656652,222.061783,-612.876398
4060.545539,-8660.409521,592.164754,76.609550
4060.545868,-9696.697840,518.144159,0.000000
4060.546198,-10955.047942,592.164754,0.000000
4060.546528,-11325.150913,444.123565,459.657299
4060.546858,-9844.739029,0.000000,612.876398
4060.547188,-9178.553681,-296.082377,383.047749
4060.547518,-9178.553681,222.061783,459.657299
4060.547847,-9400.615463,0.000000,76.609550
4060.548177,-10140.821405,518.144159,-306.438199
4060.548507,-9992.780217,1036.288319,-306.438199
4060.548837,-10214.842000,518.144159,0.000000
4060.549167,-10584.944971,518.144159,1072.533697
4060.549497,-10584.944971,74.020594,229.828649
4060.549826,-10288.862594,222.061783,689.485948
4060.550156,-9400.615463,222.061783,0.000000
4060.550486,-9030.512492,0.000000,0.000000
4060.550816,-9622.677246,222.061783,0.000000
4060.551146,-10214.842000,518.144159,306.438199
4060.551475,-10807.006753,444.123565,76.609550
4060.551805,-10066.800811,296.082377,229.828649
4060.552135,-9400.615463,296.082377,76.609550
4060.552465,-9474.636058,222.061783,919.314598
4060.552795,-9400.615463,148.041188,459.657299
4060.553125,-9770.718434,0.000000,153.219100
4060.553454,-9770.718434,74.020594,229.828649
4060.553784,-9178.553681,0.000000,306.438199
4060.554114,-9474.636058,-74.020594,1149.143247
4060.554444,-9770.718434,0.000000,1149.143247
4060.554774,-10362.883188,0.000000,153.219100
4060.555104,-9844.739029,0.000000,0.000000
4060.555433,-9104.533087,74.020594,0.000000
4060.555763,-9474.636058,0.000000,153.219100
4060.556093,-9474.636058,222.061783,0.000000
4060.556423,-9918.759623,148.041188,0.000000
4060.556753,-10214.842000,148.041188,459.657299
4060.557083,-9622.677246,-444.123565,459.657299
4060.557412,-9548.656652,-740.205942,689.485948
4060.557742,-9548.656652,-444.123565,383.047749
4060.558072,-9918.759623,-444.123565,459.657299
4060.558402,-10362.883188,0.000000,1225.752797
4060.558732,-9992.780217,-148.041188,536.266849
4060.559061,-9326.594869,-370.102971,153.219100
4060.559391,-9548.656652,0.000000,229.828649
4060.559721,-10140.821405,-370.102971,689.485948
4060.560051,-10584.944971,-74.020594,1072.533697
4060.560381,-9474.636058,-222.061783,229.828649
4060.560711,-9104.533087,-370.102971,153.219100
4060.561040,-9548.656652,-148.041188,0.000000
4060.561370,-9918.759623,0.000000,-536.266849
4060.561700,-10584.944971,0.000000,-459.657299
4060.562030,-9474.636058,74.020594,229.828649
4060.562360,-9400.615463,148.041188,76.609550
4060.562690,-9844.739029,518.144159,995.924147
4060.563019,-10584.944971,0.000000,229.828649
4060.563349,-10510.924376,-296.082377,306.438199
4060.563679,-10066.800811,0.000000,842.705048
4060.564009,-9770.718434,0.000000,1072.533697
4060.564339,-9992.780217,-518.144159,919.314598
4060.564669,-9622.677246,-444.123565,383.047749
4060.564998,-9622.677246,-296.082377,-229.828649
4060.565328,-9178.553681,0.000000,-306.438199
4060.565658,-9474.636058,444.123565,-229.828649
4060.565988,-9918.759623,222.061783,229.828649
4060.566318,-9992.780217,148.041188,153.219100
4060.566648,-10510.924376,0.000000,919.314598
4060.566977,-9844.739029,0.000000,842.705048
4060.567307,-9178.553681,-740.205942,842.705048
4060.567637,-9252.574275,0.000000,612.876398
4060.567967,-9622.677246,0.000000,153.219100
4060.568297,-10510.924376,592.164754,0.000000
4060.568626,-9474.636058,888.247130,-306.438199
4060.568956,-9400.615463,592.164754,306.438199
4060.569286,-10066.800811,888.247130,689.485948
4060.569616,-10288.862594,518.144159,689.485948
4060.569946,-10288.862594,74.020594,-76.609550
4060.570276,-9622.677246,222.061783,766.095498
4060.570605,-9474.636058,-296.082377,766.095498
4060.570935,-9400.615463,-666.185348,612.876398
4060.571265,-9030.512492,0.000000,383.047749
4060.571595,-9548.656652,296.082377,-76.609550
4060.571925,-9918.759623,740.205942,-76.609550
4060.572255,-9844.739029,666.185348,0.000000
4060.572584,-9696.697840,592.164754,76.609550
4060.572914,-9770.718434,666.185348,306.438199
4060.573244,-10362.883188,518.144159,0.000000
4060.573574,-10362.883188,296.082377,0.000000
4060.573904,-9178.553681,0.000000,-306.438199
4060.574234,-9030.512492,0.000000,153.219100
4060.574563,-9770.718434,0.000000,306.438199
4060.574893,-10510.924376,0.000000,229.828649
4060.575223,-10362.883188,296.082377,612.876398
4060.575553,-9548.656652,296.082377,0.000000
4060.575883,-9400.615463,0.000000,-766.095498
4060.576213,-9622.677246,370.102971,-306.438199
4060.576542,-9992.780217,222.061783,-229.828649
4060.576872,-9992.780217,74.020594,76.609550
4060.577202,-9696.697840,222.061783,76.609550
4060.577532,-9918.759623,0.000000,459.657299
4060.577862,-9548.656652,0.000000,689.485948
4060.578191,-9400.615463,-518.144159,919.314598
4060.578521,-9992.780217,0.000000,612.876398
4060.578851,-9474.636058,148.041188,0.000000
4060.579181,-9474.636058,148.041188,0.000000
4060.579511,-9696.697840,444.123565,383.047749
4060.579841,-9696.697840,0.000000,0.000000
4060.580170,-10584.944971,222.061783,536.266849
4060.580500,-9622.677246,0.000000,459.657299
4060.580830,-9622.677246,-222.061783,0.000000
4060.581160,-9622.677246,0.000000,919.314598
4060.581490,-10140.821405,-444.123565,306.438199
4060.581820,-10584.944971,296.082377,0.000000
4060.582149,-9918.759623,-148.041188,0.000000
4060.582479,-8956.491898,74.020594,306.438199
4060.582809,-9326.594869,0.000000,1072.533697
4060.583139,-9844.739029,148.041188,995.924147
4060.583469,-10436.903782,0.000000,459.657299
4060.583799,-9992.780217,370.102971,0.000000
4060.584128,-8956.491898,-148.041188,459.657299
4060.584458,-9548.656652,-296.082377,766.095498
4060.584788,-9918.759623,0.000000,766.095498
4060.585118,-9548.656652,-148.041188,229.828649
4060.585448,-9474.636058,518.144159,-306.438199
4060.585778,-9252.574275,0.000000,-919.314598
4060.586107,-10214.842000,74.020594,-76.609550
4060.586437,-9992.780217,0.000000,383.047749
4060.586767,-10288.862594,148.041188,459.657299
4060.587097,-9844.739029,74.020594,995.924147
4060.587427,-9622.677246,-444.123565,229.828649
4060.587756,-9474.636058,-444.123565,459.657299
4060.588086,-9326.594869,0.000000,612.876398
4060.588416,-9918.759623,0.000000,306.438199
4060.588746,-10066.800811,296.082377,306.438199
4060.589076,-9622.677246,74.020594,229.828649
4060.589406,-9992.780217,0.000000,766.095498
4060.589735,-9992.780217,74.020594,766.095498
4060.590065,-10140.821405,-296.082377,76.609550
4060.590395,-9918.759623,-148.041188,153.219100
4060.590725,-8956.491898,-148.041188,0.000000
4060.591055,-9622.677246,-74.020594,919.314598
4060.591385,-10214.842000,0.000000,995.924147
4060.591714,-10658.965565,74.020594,0.000000
4060.592044,-10140.821405,148.041188,-306.438199
4060.592374,-9400.615463,444.123565,-612.876398
4060.592704,-9548.656652,0.000000,-229.828649
4060.593034,-9400.615463,-148.041188,306.438199
4060.593364,-9474.636058,0.000000,0.000000
4060.593693,-9770.718434,0.000000,76.609550
4060.594023,-9696.697840,74.020594,229.828649
4060.594353,-9622.677246,-74.020594,153.219100
4060.594683,-9770.718434,0.000000,842.705048
4060.595013,-10214.842000,0.000000,689.485948
4060.595343,-10732.986159,0.000000,689.485948
4060.595672,-9474.636058,74.020594,459.657299
4060.596002,-9104.533087,222.061783,153.219100
4060.596332,-9474.636058,296.082377,153.219100
4060.596662,-9770.718434,740.205942,0.000000
4060.596992,-10140.821405,592.164754,-612.876398
4060.597321,-9548.656652,74.020594,-229.828649
4060.597651,-9400.615463,74.020594,76.609550
4060.597981,-9622.677246,0.000000,1072.533697
4060.598311,-9622.677246,0.000000,306.438199
4060.598641,-9622.677246,74.020594,0.000000
4060.598971,-9918.759623,370.102971,-229.828649
4060.599300,-9992.780217,148.041188,306.438199
4060.599630,-10510.924376,296.082377,919.314598
4060.599960,-10066.800811,444.123565,842.705048
4060.600290,-10140.821405,222.061783,76.609550
4060.600619,-9770.718434,518.144159,0.000000
4060.600949,-8882.471304,370.102971,-459.657299
4060.601279,-9844.739029,222.061783,229.828649
4060.601609,-9992.780217,296.082377,306.438199
4060.601939,-10214.842000,148.041188,-153.219100
4060.602268,-9326.594869,222.061783,-153.219100
4060.602598,-9326.594869,222.061783,-229.828649
4060.602928,-9696.697840,222.061783,153.219100
4060.603258,-9844.739029,222.061783,536.266849
4060.603588,-10436.903782,74.020594,383.047749
4060.603917,-10584.944971,518.144159,306.438199
4060.604247,-9992.780217,0.000000,229.828649
4060.604577,-9696.697840,-370.102971,766.095498
4060.604907,-9844.739029,-444.123565,766.095498
4060.605237,-9474.636058,-296.082377,0.000000
4060.605566,-9326.594869,0.000000,76.609550
4060.605896,-8956.491898,0.000000,229.828649
4060.606226,-9030.512492,222.061783,919.314598
4060.606556,-9400.615463,148.041188,536.266849
4060.606886,-10362.883188,518.144159,229.828649
4060.607215,-10807.006753,74.020594,0.000000
4060.607545,-9696.697840,-296.082377,0.000000
4060.607875,-9326.594869,-518.144159,766.095498
4060.608205,-9400.615463,-296.082377,995.924147
4060.608535,-9548.656652,-518.144159,153.219100
4060.608864,-9844.739029,444.123565,0.000000
4060.609194,-9844.739029,370.102971,-459.657299
4060.609524,-9844.739029,444.123565,-306.438199
4060.609854,-10214.842000,74.020594,76.609550
4060.610184,-10214.842000,-296.082377,76.609550
4060.610513,-10288.862594,0.000000,306.438199
4060.610843,-10066.800811,370.102971,0.000000
4060.611173,-9178.553681,-296.082377,306.438199
4060.611503,-9252.574275,-296.082377,306.438199
4060.611832,-9696.697840,0.000000,76.609550
4060.612162,-10436.903782,370.102971,1149.143247
4060.612492,-10288.862594,296.082377,153.219100
4060.612822,-9400.615463,-148.041188,0.000000
4060.613152,-9474.636058,-74.020594,383.047749
4060.613481,-10066.800811,-74.020594,0.000000
4060.613811,-10510.924376,-148.041188,306.438199
4060.614141,-9844.739029,74.020594,459.657299
4060.614471,-9400.615463,-74.020594,76.609550
4060.614801,-9474.636058,74.020594,0.000000
4060.615130,-9696.697840,-370.102971,-459.657299
4060.615460,-10066.800811,370.102971,-459.657299
4060.615790,-9548.656652,666.185348,0.000000
4060.616120,-9548.656652,222.061783,306.438199
4060.616450,-9992.780217,0.000000,1225.752797
4060.616779,-9992.780217,-222.061783,459.657299
4060.617109,-10214.842000,0.000000,0.000000
4060.617439,-9474.636058,0.000000,383.047749
4060.617769,-8956.491898,-518.144159,766.095498
4060.618099,-9178.553681,-222.061783,1072.533697
4060.618428,-9326.594869,296.082377,229.828649
4060.618758,-10214.842000,592.164754,-229.828649
4060.619088,-10732.986159,592.164754,-612.876398
4060.619418,-10066.800811,296.082377,0.000000
4060.619748,-9770.718434,222.061783,536.266849
4060.620077,-9252.574275,74.020594,459.657299
4060.620407,-9770.718434,0.000000,383.047749
4060.620737,-10214.842000,592.164754,842.705048
4060.621067,-9326.594869,0.000000,383.047749
4060.621397,-9696.697840,296.082377,689.485948
4060.621726,-10214.842000,222.061783,689.485948
4060.622056,-9992.780217,222.061783,536.266849
4060.622386,-9918.759623,296.082377,0.000000
4060.622716,-9030.512492,74.020594,-536.266849
4060.623045,-9178.553681,148.041188,-383.047749
4060.623375,-9918.759623,592.164754,0.000000
4060.623705,-10066.800811,148.041188,-306.438199
4060.624035,-10658.965565,296.082377,229.828649
4060.624365,-9770.718434,148.041188,536.266849
4060.624694,-9844.739029,-370.102971,229.828649
4060.625024,-10288.862594,0.000000,919.314598
4060.625354,-9400.615463,-666.185348,-383.047749
4060.625684,-9696.697840,148.041188,-306.438199
4060.626014,-9252.574275,0.000000,0.000000
4060.626343,-9474.636058,0.000000,689.485948
4060.626673,-9622.677246,518.144159,229.828649
4060.627003,-10436.903782,370.102971,0.000000
4060.627333,-10658.965565,222.061783,0.000000
4060.627663,-9474.636058,-814.226536,76.609550
4060.627992,-9030.512492,-370.102971,612.876398
4060.628322,-9400.615463,-518.144159,995.924147
4060.628652,-9474.636058,0.000000,153.219100
4060.628982,-10066.800811,296.082377,-229.828649
4060.629312,-9696.697840,296.082377,153.219100
4060.629641,-9622.677246,296.082377,-76.609550
4060.629971,-9992.780217,444.123565,153.219100
4060.630301,-10362.883188,148.041188,0.000000
4060.630631,-9844.739029,592.164754,766.095498
4060.630961,-10214.842000,296.082377,153.219100
4060.631290,-9400.615463,-222.061783,459.657299
4060.631620,-9918.759623,-222.061783,995.924147
4060.631950,-9548.656652,-74.020594,536.266849
4060.632280,-9992.780217,-148.041188,536.266849
4060.632609,-10288.862594,74.020594,766.095498
4060.632939,-9918.759623,0.000000,459.657299
4060.633269,-9548.656652,0.000000,459.657299
4060.633599,-9696.697840,0.000000,0.000000
4060.633929,-9622.677246,296.082377,153.219100
4060.634258,-9696.697840,0.000000,306.438199
4060.634588,-9326.594869,-370.102971,0.000000
4060.634918,-9844.739029,0.000000,919.314598
4060.635248,-9844.739029,-518.144159,459.657299
4060.635578,-10288.862594,-296.082377,229.828649
4060.635907,-9844.739029,-296.082377,383.047749
4060.636237,-9326.594869,-370.102971,1378.971896
4060.636567,-9252.574275,-222.061783,459.657299
4060.636897,-9770.718434,0.000000,612.876398
4060.637227,-10510.924376,296.082377,76.609550
4060.637556,-10584.944971,296.082377,612.876398
4060.637886,-9696.697840,0.000000,536.266849
4060.638216,-9474.636058,-296.082377,612.876398
4060.638546,-9622.677246,-148.041188,383.047749
4060.638876,-9622.677246,0.000000,-306.438199
4060.639205,-10436.903782,814.226536,306.438199
4060.639535,-9696.697840,0.000000,0.000000
4060.639865,-9918.759623,592.164754,383.047749
4060.640195,-9918.759623,222.061783,153.219100
4060.640525,-10362.883188,370.102971,153.219100
4060.640854,-10436.903782,222.061783,459.657299
4060.641184,-9548.656652,-148.041188,153.219100
4060.641514,-9104.533087,-370.102971,0.000000
4060.641844,-9474.636058,-296.082377,459.657299
4060.642174,-10214.842000,0.000000,153.219100
4060.642503,-9918.759623,-296.082377,612.876398
4060.642833,-9844.739029,0.000000,383.047749
4060.643163,-9548.656652,0.000000,0.000000
4060.643493,-10288.862594,444.123565,153.219100
4060.643822,-9770.718434,-222.061783,-306.438199
4060.644152,-9622.677246,0.000000,76.609550
4060.644482,-9326.594869,0.000000,536.266849
4060.644812,-9326.594869,0.000000,536.266849
4060.645142,-9844.739029,0.000000,306.438199
4060.645471,-10362.883188,0.000000,-383.047749
4060.645801,-10288.862594,0.000000,-612.876398
4060.646131,-9622.677246,74.020594,0.000000
4060.646461,-9400.615463,296.082377,153.219100
4060.646791,-9474.636058,370.102971,766.095498
4060.647120,-9770.718434,666.185348,76.609550
4060.647450,-10362.883188,518.144159,0.000000
4060.647780,-10807.006753,518.144159,383.047749
4060.648110,-10140.821405,0.000000,766.095498
4060.648440,-9622.677246,-222.061783,842.705048
4060.648769,-9696.697840,-222.061783,383.047749
4060.649099,-9844.739029,370.102971,-229.828649
4060.649429,-9474.636058,296.082377,-153.219100
4060.649759,-9400.615463,444.123565,-153.219100
4060.650089,-9770.718434,740.205942,459.657299
4060.650418,-9992.780217,592.164754,766.095498
4060.650748,-10584.944971,666.185348,0.000000
4060.651078,-10066.800811,592.164754,0.000000
4060.651408,-9326.594869,0.000000,0.000000
4060.651738,-9474.636058,0.000000,306.438199
4060.652067,-9622.677246,74.020594,689.485948
4060.652397,-9622.677246,-296.082377,536.266849
4060.652727,-9474.636058,370.102971,689.485948
4060.653057,-9474.636058,74.020594,383.047749
4060.653386,-10288.862594,666.185348,689.485948
4060.653716,-10288.862594,444.123565,0.000000
4060.654046,-10288.862594,370.102971,229.828649
4060.654376,-10140.821405,0.000000,766.095498
4060.654706,-8956.491898,-666.185348,153.219100
4060.655035,-9104.533087,-518.144159,536.266849
4060.655365,-9474.636058,-370.102971,306.438199
4060.655695,-9770.718434,-296.082377,-383.047749
4060.656025,-9770.718434,-74.020594,-153.219100
4060.656355,-9400.615463,0.000000,153.219100
4060.656684,-9400.615463,74.020594,689.485948
4060.657014,-9992.780217,74.020594,689.485948
4060.657344,-10732.986159,0.000000,306.438199
4060.657674,-10140.821405,74.020594,306.438199
4060.658004,-9474.636058,-296.082377,153.219100
4060.658333,-9252.574275,-814.226536,229.828649
4060.658663,-9474.636058,-444.123565,689.485948
4060.658993,-9252.574275,-740.205942,76.609550
4060.659323,-10140.821405,74.020594,0.000000
4060.659653,-9918.759623,0.000000,-306.438199
4060.659982,-10066.800811,148.041188,0.000000
4060.660312,-9992.780217,148.041188,459.657299
4060.660642,-10436.903782,-222.061783,306.438199
4060.660972,-10584.944971,-296.082377,612.876398
4060.661302,-9548.656652,-370.102971,0.000000
4060.661631,-9030.512492,-444.123565,229.828649
4060.661961,-9252.574275,0.000000,536.266849
4060.662291,-10140.821405,-296.082377,0.000000
4060.662621,-10288.862594,0.000000,306.438199
4060.662951,-9474.636058,-74.020594,0.000000
4060.663280,-9178.553681,0.000000,0.000000
4060.663610,-9770.718434,0.000000,229.828649
4060.663940,-10066.800811,0.000000,76.609550
4060.664270,-10362.883188,74.020594,229.828649
4060.664599,-9696.697840,370.102971,153.219100
4060.664929,-9178.553681,0.000000,-536.266849
4060.665259,-9400.615463,0.000000,459.657299
4060.665589,-9770.718434,0.000000,536.266849
4060.665919,-10362.883188,296.082377,229.828649
4060.666248,-10066.800811,296.082377,-76.609550
4060.666578,-9252.574275,0.000000,-459.657299
4060.666908,-9252.574275,0.000000,229.828649
4060.667238,-9696.697840,0.000000,229.828649
4060.667568,-10658.965565,296.082377,383.047749
4060.667897,-10140.821405,666.185348,536.266849
4060.668227,-9400.615463,444.123565,0.000000
4060.668557,-9770.718434,518.144159,153.219100
4060.668887,-9918.759623,296.082377,689.485948
4060.669217,-10658.965565,518.144159,229.828649
4060.669546,-10288.862594,666.185348,-153.219100
4060.669876,-9178.553681,296.082377,-459.657299
4060.670206,-9400.615463,296.082377,-383.047749
4060.670536,-9548.656652,370.102971,-306.438199
4060.670866,-9770.718434,370.102971,-306.438199
4060.671195,-9696.697840,370.102971,153.219100
4060.671525,-8808.450710,296.082377,76.609550
4060.671855,-9696.697840,518.144159,919.314598
4060.672185,-10140.821405,666.185348,1225.752797
4060.672515,-10881.027347,148.041188,536.266849
4060.672844,-9918.759623,148.041188,153.219100
4060.673174,-8956.491898,296.082377,0.000000
4060.673504,-9474.636058,444.123565,0.000000
4060.673834,-9548.656652,74.020594,536.266849
4060.674164,-9992.780217,0.000000,-153.219100
4060.674493,-9918.759623,740.205942,229.828649
4060.674823,-9474.636058,0.000000,0.000000
4060.675153,-9622.677246,148.041188,612.876398
4060.675483,-9622.677246,0.000000,1072.533697
4060.675812,-10140.821405,-518.144159,459.657299
4060.676142,-10140.821405,0.000000,536.266849
4060.676472,-10140.821405,0.000000,0.000000
4060.676802,-9770.718434,0.000000,0.000000
4060.677132,-9326.594869,74.020594,153.219100
4060.677461,-9770.718434,444.123565,0.000000
4060.677791,-10584.944971,518.144159,-153.219100
4060.678121,-10214.842000,296.082377,-536.266849
4060.678451,-9400.615463,-370.102971,0.000000
4060.678781,-9474.636058,-370.102971,1608.800546
4060.679110,-10066.800811,-296.082377,383.047749
4060.679440,-10066.800811,-814.226536,76.609550
4060.679770,-9400.615463,-444.123565,76.609550
4060.680100,-9474.636058,-370.102971,0.000000
4060.680430,-10214.842000,0.000000,919.314598
4060.680759,-10362.883188,-148.041188,766.095498
4060.681089,-10362.883188,74.020594,766.095498
4060.681419,-9326.594869,74.020594,76.609550
4060.681749,-9548.656652,-148.041188,76.609550
4060.682079,-9548.656652,-518.144159,459.657299
4060.682408,-9918.759623,-444.123565,995.924147
4060.682738,-9770.718434,-444.123565,153.219100
4060.683068,-9548.656652,-370.102971,459.657299
4060.683398,-9326.594869,-370.102971,-306.438199
4060.683728,-9622.677246,-148.041188,229.828649
4060.684057,-9770.718434,0.000000,306.438199
4060.684387,-10288.862594,148.041188,229.828649
4060.684717,-10362.883188,444.123565,536.266849
4060.685047,-9918.759623,0.000000,536.266849
4060.685376,-9548.656652,-592.164754,995.924147
4060.685706,-9770.718434,-444.123565,612.876398
4060.686036,-10140.821405,-370.102971,612.876398
4060.686366,-9770.718434,-74.020594,306.438199
4060.686696,-9252.574275,-74.020594,306.438199
4060.687025,-9474.636058,222.061783,383.047749
4060.687355,-9918.759623,222.061783,995.924147
4060.687685,-10214.842000,296.082377,153.219100
4060.688015,-9918.759623,0.000000,-153.219100
4060.688345,-9770.718434,-518.144159,766.095498
4060.688674,-9622.677246,74.020594,1302.362347
4060.689004,-10066.800811,-370.102971,919.314598
4060.689334,-10066.800811,0.000000,383.047749
4060.689664,-9844.739029,-148.041188,-383.047749
4060.689994,-9474.636058,0.000000,0.000000
4060.690323,-8808.450710,148.041188,306.438199
4060.690653,-9474.636058,370.102971,766.095498
4060.690983,-9918.759623,370.102971,0.000000
4060.691313,-10066.800811,592.164754,0.000000
4060.691643,-9844.739029,0.000000,-229.828649
4060.691972,-9770.718434,-148.041188,229.828649
4060.692302,-9918.759623,-296.082377,766.095498
4060.692632,-9474.636058,-444.123565,383.047749
4060.692962,-9104.533087,0.000000,995.924147
4060.693292,-9178.553681,148.041188,459.657299
4060.693621,-9326.594869,518.144159,306.438199
4060.693951,-10066.800811,592.164754,536.266849
4060.694281,-10955.047942,740.205942,0.000000
4060.694611,-11029.068536,444.123565,76.609550
4060.694941,-9474.636058,0.000000,-306.438199
4060.695270,-8512.368333,-222.061783,-383.047749
4060.695600,-9030.512492,148.041188,76.609550
4060.695930,-9844.739029,-148.041188,-76.609550
4060.696260,-10584.944971,370.102971,-153.219100
4060.696589,-10510.924376,444.123565,-383.047749
4060.696919,-10140.821405,0.000000,0.000000
4060.697249,-9844.739029,0.000000,1072.533697
4060.697579,-9770.718434,74.020594,919.314598
4060.697909,-9992.780217,74.020594,0.000000
4060.698239,-9992.780217,222.061783,229.828649
4060.698568,-9548.656652,-148.041188,842.705048
4060.698898,-10066.800811,0.000000,1225.752797
4060.699228,-9844.739029,0.000000,459.657299
4060.699558,-9992.780217,-592.164754,0.000000
4060.699888,-9992.780217,74.020594,-536.266849
4060.700217,-8808.450710,-296.082377,-306.438199
4060.700547,-8956.491898,74.020594,229.828649
4060.700877,-9326.594869,222.061783,76.609550
4060.701207,-10362.883188,592.164754,0.000000
4060.701537,-9992.780217,666.185348,0.000000
4060.701867,-9474.636058,222.061783,-229.828649
4060.702196,-9474.636058,370.102971,153.219100
4060.702526,-10066.800811,0.000000,842.705048
4060.702856,-10066.800811,0.000000,612.876398
4060.703186,-9992.780217,0.000000,459.657299
4060.703516,-9326.594869,74.020594,0.000000
4060.703845,-9400.615463,0.000000,-153.219100
4060.704175,-9400.615463,444.123565,-536.266849
4060.704505,-9770.718434,296.082377,-689.485948
4060.704835,-10066.800811,0.000000,689.485948
4060.705165,-9400.615463,-222.061783,919.314598
4060.705495,-9474.636058,0.000000,842.705048
4060.705824,-9622.677246,-148.041188,919.314598
4060.706154,-10362.883188,74.020594,153.219100
4060.706484,-10140.821405,0.000000,459.657299
4060.706814,-9770.718434,-74.020594,306.438199
4060.707144,-9326.594869,-148.041188,842.705048
4060.707473,-9252.574275,0.000000,766.095498
4060.707803,-9770.718434,296.082377,229.828649
4060.708133,-10066.800811,222.061783,0.000000
4060.708463,-9918.759623,370.102971,76.609550
4060.708793,-9696.697840,0.000000,689.485948
4060.709123,-9992.780217,148.041188,612.876398
4060.709452,-9770.718434,0.000000,0.000000
4060.709782,-9622.677246,0.000000,-536.266849
4060.710112,-9326.594869,0.000000,229.828649
4060.710442,-9622.677246,0.000000,153.219100
4060.710772,-9992.780217,148.041188,766.095498
4060.711101,-10066.800811,148.041188,842.705048
4060.711431,-10214.842000,0.000000,1455.581446
4060.711761,-9992.780217,74.020594,766.095498
4060.712091,-9770.718434,0.000000,459.657299
4060.712421,-9474.636058,-74.020594,0.000000
4060.712751,-9992.780217,0.000000,-689.485948
4060.713080,-10288.862594,0.000000,-383.047749
4060.713410,-9918.759623,0.000000,229.828649
4060.713740,-9474.636058,0.000000,306.438199
4060.714070,-9622.677246,74.020594,153.219100
4060.714400,-9548.656652,0.000000,-306.438199
4060.714729,-9844.739029,74.020594,-612.876398
4060.715059,-9696.697840,0.000000,306.438199
4060.715389,-9622.677246,-74.020594,842.705048
4060.715719,-10436.903782,-444.123565,1685.410096
4060.716049,-10214.842000,-370.102971,612.876398
4060.716379,-10362.883188,-296.082377,0.000000
4060.716708,-10288.862594,-370.102971,153.219100
4060.717038,-9696.697840,-666.185348,919.314598
4060.717368,-9178.553681,0.000000,459.657299
4060.717698,-8586.388927,0.000000,306.438199
4060.718028,-9252.574275,370.102971,-612.876398
4060.718357,-10140.821405,444.123565,-153.219100
4060.718687,-10066.800811,0.000000,-383.047749
4060.719017,-10214.842000,148.041188,383.047749
4060.719347,-10140.821405,0.000000,612.876398
4060.719677,-9918.759623,0.000000,153.219100
4060.720007,-9844.739029,0.000000,0.000000
4060.720336,-9178.553681,0.000000,0.000000
4060.720666,-9252.574275,296.082377,153.219100
4060.720996,-10288.862594,518.144159,766.095498
4060.721326,-10362.883188,518.144159,229.828649
4060.721656,-10140.821405,592.164754,306.438199
4060.721985,-9474.636058,444.123565,-383.047749
4060.722315,-9104.533087,148.041188,0.000000
4060.722645,-9622.677246,148.041188,229.828649
4060.722975,-9770.718434,74.020594,76.609550
4060.723305,-10066.800811,0.000000,76.609550
4060.723634,-9918.759623,74.020594,0.000000
4060.723964,-9918.759623,0.000000,153.219100
4060.724294,-9696.697840,518.144159,383.047749
4060.724624,-9548.656652,148.041188,306.438199
4060.724954,-10288.862594,296.082377,536.266849
4060.725284,-9992.780217,74.020594,995.924147
4060.725613,-9918.759623,0.000000,1302.362347
4060.725943,-10140.821405,0.000000,536.266849
4060.726273,-10510.924376,74.020594,0.000000
4060.726603,-10066.800811,0.000000,-612.876398
4060.726933,-9252.574275,-222.061783,-536.266849
4060.727262,-8734.430116,0.000000,229.828649
4060.727592,-9178.553681,296.082377,536.266849
4060.727922,-9918.759623,592.164754,0.000000
4060.728252,-10510.924376,666.185348,-306.438199
4060.728582,-9622.677246,666.185348,229.828649
4060.728912,-9474.636058,296.082377,306.438199
4060.729241,-10140.821405,0.000000,1072.533697
4060.729571,-10140.821405,0.000000,766.095498
4060.729901,-10140.821405,0.000000,0.000000
4060.730231,-9696.697840,370.102971,0.000000
4060.730561,-9326.594869,0.000000,-153.219100
4060.730890,-9252.574275,222.061783,76.609550
4060.731220,-9400.615463,370.102971,612.876398
4060.731550,-10436.903782,888.247130,229.828649
4060.731880,-10214.842000,518.144159,153.219100
4060.732210,-9770.718434,74.020594,-536.266849
4060.732540,-9622.677246,-148.041188,0.000000
4060.732869,-9474.636058,0.000000,306.438199
4060.733199,-9622.677246,0.000000,0.000000
4060.733529,-9326.594869,0.000000,459.657299
4060.733859,-9030.512492,296.082377,306.438199
4060.734189,-10066.800811,666.185348,459.657299
4060.734518,-10214.842000,444.123565,229.828649
4060.734848,-10732.986159,592.164754,536.266849
4060.735178,-10288.862594,296.082377,689.485948
4060.735508,-9104.533087,-296.082377,383.047749
4060.735838,-9178.553681,-222.061783,536.266849
4060.736168,-9474.636058,0.000000,229.828649
4060.736497,-10066.800811,74.020594,-536.266849
4060.736827,-10362.883188,148.041188,-229.828649
4060.737157,-9992.780217,296.082377,0.000000
4060.737487,-9622.677246,222.061783,383.047749
4060.737817,-9548.656652,0.000000,612.876398
4060.738146,-9696.697840,0.000000,383.047749
4060.738476,-9844.739029,0.000000,1225.752797
4060.738806,-9400.615463,0.000000,766.095498
4060.739136,-9696.697840,0.000000,1072.533697
4060.739466,-10288.862594,0.000000,1532.190996
4060.739796,-10584.944971,-518.144159,612.876398
4060.740125,-10214.842000,-518.144159,842.705048
4060.740455,-9474.636058,-370.102971,153.219100
4060.740785,-9104.533087,-518.144159,306.438199
4060.741115,-9474.636058,0.000000,229.828649
4060.741445,-9844.739029,0.000000,229.828649
4060.741774,-10140.821405,74.020594,0.000000
4060.742104,-9992.780217,-74.020594,306.438199
4060.742434,-10066.800811,-296.082377,766.095498
4060.742764,-9770.718434,-740.205942,995.924147
4060.743094,-9770.718434,-740.205942,229.828649
4060.743424,-9474.636058,-444.123565,383.047749
4060.743753,-9104.533087,0.000000,0.000000
4060.744083,-9326.594869,-296.082377,0.000000
4060.744413,-10214.842000,222.061783,0.000000
4060.744743,-10510.924376,370.102971,0.000000
4060.745073,-10584.944971,592.164754,229.828649
4060.745402,-9918.759623,0.000000,0.000000
4060.745732,-9622.677246,0.000000,-229.828649
4060.746062,-9326.594869,-444.123565,306.438199
4060.746392,-9548.656652,-296.082377,306.438199
4060.746722,-9992.780217,-222.061783,153.219100
4060.747052,-10288.862594,222.061783,689.485948
4060.747381,-10288.862594,0.000000,229.828649
4060.747711,-10436.903782,0.000000,536.266849
4060.748041,-10362.883188,0.000000,306.438199
4060.748371,-10140.821405,148.041188,0.000000
4060.748701,-9400.615463,296.082377,459.657299
4060.749030,-8586.388927,0.000000,383.047749
4060.749360,-9030.512492,148.041188,383.047749
4060.749690,-10214.842000,296.082377,229.828649
4060.750020,-10732.986159,74.020594,-229.828649
4060.750350,-10584.944971,222.061783,-153.219100
4060.750680,-9474.636058,-222.061783,-383.047749
4060.751009,-9252.574275,-148.041188,229.828649
4060.751339,-9474.636058,370.102971,0.000000
4060.751669,-9474.636058,444.123565,-536.266849
4060.751999,-9548.656652,444.123565,-306.438199
4060.752329,-9400.615463,296.082377,-153.219100
4060.752658,-9918.759623,296.082377,306.438199
4060.752988,-10362.883188,148.041188,1378.971896
4060.753318,-10140.821405,-148.041188,536.266849
4060.753648,-9326.594869,0.000000,459.657299
4060.753978,-9030.512492,0.000000,-459.657299
4060.754308,-8956.491898,0.000000,-306.438199
4060.754637,-9770.718434,962.267725,0.000000
4060.754967,-10140.821405,1184.329507,0.000000
4060.755297,-10807.006753,1406.391290,-229.828649
4060.755627,-10288.862594,814.226536,-689.485948
4060.755957,-9622.677246,296.082377,-536.266849
4060.756286,-9326.594869,148.041188,536.266849
4060.756616,-9696.697840,0.000000,689.485948
4060.756946,-9992.780217,148.041188,1302.362347
4060.757276,-9918.759623,0.000000,229.828649
4060.757606,-9622.677246,148.041188,229.828649
4060.757936,-9918.759623,74.020594,306.438199
4060.758265,-10288.862594,296.082377,995.924147
4060.758595,-9770.718434,148.041188,612.876398
4060.758925,-9178.553681,0.000000,766.095498
4060.759255,-9104.533087,0.000000,689.485948
4060.759585,-10436.903782,0.000000,1225.752797
4060.759914,-11177.109724,-370.102971,153.219100
4060.760244,-9992.780217,-518.144159,0.000000
4060.760574,-8882.471304,-444.123565,-153.219100
4060.760904,-8734.430116,-666.185348,383.047749
4060.761234,-9474.636058,0.000000,995.924147
4060.761564,-9696.697840,0.000000,612.876398
4060.761893,-10658.965565,740.205942,153.219100
4060.762223,-10510.924376,814.226536,0.000000
4060.762553,-9844.739029,0.000000,229.828649
4060.762883,-10214.842000,74.020594,459.657299
4060.763213,-9844.739029,-740.205942,766.095498
4060.763542,-9992.780217,-888.247130,-459.657299
4060.763872,-9030.512492,-148.041188,-1072.533697
4060.764202,-8882.471304,-518.144159,-766.095498
4060.764532,-9548.656652,0.000000,76.609550
4060.764862,-10066.800811,0.000000,383.047749
4060.765192,-10584.944971,296.082377,306.438199
4060.765521,-9992.780217,222.061783,-229.828649
4060.765851,-9696.697840,-296.082377,0.000000
4060.766181,-9474.636058,-518.144159,536.266849
4060.766511,-9622.677246,-296.082377,995.924147
4060.766841,-9918.759623,0.000000,0.000000
4060.767170,-10214.842000,518.144159,0.000000
4060.767500,-9696.697840,0.000000,-153.219100
4060.767830,-9844.739029,0.000000,306.438199
4060.768160,-9918.759623,296.082377,229.828649
4060.768490,-9992.780217,444.123565,0.000000
4060.768820,-9622.677246,444.123565,76.609550
4060.769149,-9030.512492,0.000000,383.047749
4060.769479,-8734.430116,0.000000,612.876398
4060.769809,-9548.656652,222.061783,766.095498
4060.770139,-10288.862594,296.082377,536.266849
4060.770469,-10658.965565,518.144159,153.219100
4060.770798,-9770.718434,148.041188,0.000000
4060.771128,-9252.574275,222.061783,306.438199
4060.771458,-9104.533087,592.164754,383.047749
4060.771788,-9696.697840,518.144159,76.609550
4060.772118,-9844.739029,592.164754,-76.609550
4060.772448,-9548.656652,296.082377,-306.438199
4060.772777,-9622.677246,370.102971,0.000000
4060.773107,-9992.780217,0.000000,689.485948
4060.773437,-10066.800811,0.000000,306.438199
4060.773767,-9918.759623,-148.041188,459.657299
4060.774097,-9178.553681,0.000000,153.219100
4060.774426,-9178.553681,148.041188,536.266849
4060.774756,-9844.739029,666.185348,536.266849
4060.775086,-10288.862594,148.041188,0.000000
4060.775416,-10362.883188,592.164754,153.219100
4060.775746,-9696.697840,-296.082377,229.828649
4060.776076,-9992.780217,0.000000,689.485948
4060.776405,-9992.780217,0.000000,995.924147
4060.776735,-9992.780217,-444.123565,383.047749
4060.777065,-8956.491898,-592.164754,-306.438199
4060.777395,-8882.471304,0.000000,0.000000
4060.777725,-9252.574275,0.000000,306.438199
4060.778054,-10214.842000,74.020594,689.485948
4060.778384,-10510.924376,74.020594,0.000000
4060.778714,-10140.821405,0.000000,0.000000
4060.779044,-10140.821405,74.020594,229.828649
4060.779374,-9548.656652,-74.020594,842.705048
4060.779703,-9696.697840,0.000000,1532.190996
4060.780033,-9696.697840,-74.020594,1225.752797
4060.780363,-10362.883188,296.082377,0.000000
4060.780693,-10214.842000,148.041188,-229.828649
4060.781023,-9474.636058,0.000000,0.000000
4060.781353,-9326.594869,0.000000,153.219100
4060.781682,-9400.615463,0.000000,-383.047749
4060.782012,-9844.739029,148.041188,-306.438199
4060.782342,-10214.842000,444.123565,-383.047749
4060.782672,-9474.636058,-222.061783,-842.705048
4060.783002,-9178.553681,0.000000,229.828649
4060.783331,-10066.800811,0.000000,1455.581446
4060.783661,-10510.924376,-148.041188,919.314598
4060.783991,-10436.903782,0.000000,919.314598
4060.784321,-9548.656652,-814.226536,0.000000
4060.784651,-9252.574275,-666.185348,76.609550
4060.784981,-9104.533087,-518.144159,612.876398
4060.785310,-9474.636058,0.000000,536.266849
4060.785640,-9844.739029,222.061783,0.000000
4060.785970,-9770.718434,0.000000,0.000000
4060.786300,-9770.718434,0.000000,0.000000
4060.786630,-9844.739029,-74.020594,306.438199
4060.786959,-10214.842000,370.102971,-842.705048
4060.787289,-9844.739029,0.000000,153.219100
4060.787619,-9030.512492,-370.102971,383.047749
4060.787949,-9252.574275,-222.061783,153.219100
4060.788279,-9992.780217,0.000000,766.095498
4060.788609,-10214.842000,0.000000,153.219100
4060.788938,-10584.944971,74.020594,229.828649
4060.789268,-9696.697840,148.041188,153.219100
4060.789598,-9252.574275,0.000000,919.314598
4060.789928,-9030.512492,74.020594,1378.971896
4060.790258,-9548.656652,148.041188,536.266849
4060.790587,-9770.718434,296.082377,-229.828649
4060.790917,-9548.656652,74.020594,-383.047749
4060.791247,-10066.800811,0.000000,-919.314598
4060.791577,-10066.800811,444.123565,0.000000
4060.791907,-10066.800811,444.123565,-383.047749
4060.792237,-9918.759623,592.164754,-842.705048
4060.792566,-9252.574275,370.102971,0.000000
4060.792896,-9252.574275,148.041188,689.485948
4060.793226,-9992.780217,74.020594,1455.581446
4060.793556,-10436.903782,148.041188,995.924147
4060.793886,-10214.842000,222.061783,153.219100
4060.794215,-9696.697840,222.061783,229.828649
4060.794545,-9474.636058,0.000000,153.219100
4060.794875,-9548.656652,0.000000,153.219100
4060.795205,-9474.636058,370.102971,-612.876398
4060.795535,-9770.718434,444.123565,-842.705048
4060.795865,-9696.697840,666.185348,-229.828649
4060.796194,-9474.636058,0.000000,0.000000
4060.796524,-9918.759623,-296.082377,689.485948
4060.796854,-9770.718434,0.000000,766.095498
4060.797184,-10288.862594,-222.061783,383.047749
4060.797514,-9918.759623,-74.020594,383.047749
4060.797843,-8956.491898,-666.185348,612.876398
4060.798173,-9030.512492,0.000000,919.314598
4060.798503,-9622.677246,296.082377,689.485948
4060.798833,-11029.068536,444.123565,0.000000
4060.799163,-10658.965565,444.123565,153.219100
4060.799492,-9770.718434,0.000000,459.657299
4060.799822,-9326.594869,222.061783,306.438199
4060.800152,-9622.677246,74.020594,612.876398
4060.800482,-10214.842000,74.020594,0.000000
4060.800812,-9992.780217,0.000000,0.000000
4060.801142,-9696.697840,74.020594,-612.876398
4060.801472,-9992.780217,148.041188,76.609550
4060.801802,-9992.780217,0.000000,0.000000
4060.802132,-9992.780217,370.102971,0.000000
4060.802462,-9696.697840,296.082377,0.000000
4060.802791,-9252.574275,0.000000,0.000000
4060.803121,-9474.636058,0.000000,383.047749
4060.803451,-9770.718434,74.020594,1225.752797
4060.803781,-9622.677246,74.020594,306.438199
4060.804111,-9992.780217,74.020594,0.000000
4060.804441,-10214.842000,0.000000,383.047749
4060.804771,-10066.800811,-370.102971,153.219100
4060.805101,-10140.821405,0.000000,306.438199
4060.805431,-9474.636058,0.000000,-459.657299
4060.805761,-9918.759623,222.061783,459.657299
4060.806091,-9622.677246,222.061783,229.828649
4060.806420,-9252.574275,74.020594,0.000000
4060.806750,-9622.677246,666.185348,229.828649
4060.807080,-9992.780217,0.000000,0.000000
4060.807410,-10584.944971,0.000000,383.047749
4060.807740,-9770.718434,-518.144159,766.095498
4060.808070,-8882.471304,-740.205942,919.314598
4060.808400,-9252.574275,-222.061783,766.095498
4060.808730,-10214.842000,-148.041188,383.047749
4060.809060,-10510.924376,74.020594,383.047749
4060.809390,-9696.697840,148.041188,306.438199
4060.809720,-9252.574275,444.123565,0.000000
4060.810049,-9844.739029,0.000000,766.095498
4060.810379,-9992.780217,296.082377,383.047749
4060.810709,-9918.759623,74.020594,-536.266849
4060.811039,-9548.656652,0.000000,-536.266849
4060.811369,-9252.574275,-444.123565,0.000000
4060.811699,-9548.656652,0.000000,306.438199
4060.812029,-9548.656652,-296.082377,229.828649
4060.812359,-10214.842000,74.020594,-153.219100
4060.812689,-9844.739029,0.000000,-76.609550
4060.813019,-9474.636058,-74.020594,0.000000
4060.813349,-9474.636058,148.041188,459.657299
4060.813678,-10066.800811,222.061783,459.657299
4060.814008,-10066.800811,222.061783,-76.609550
4060.814338,-10066.800811,444.123565,383.047749
4060.814668,-9696.697840,0.000000,153.219100
4060.814998,-9400.615463,-518.144159,153.219100
4060.815328,-10288.862594,0.000000,0.000000
4060.815658,-10436.903782,0.000000,0.000000
4060.815988,-10066.800811,0.000000,153.219100
4060.816318,-9178.553681,-444.123565,459.657299
4060.816648,-9326.594869,0.000000,689.485948
4060.816978,-9770.718434,370.102971,766.095498
4060.817307,-10436.903782,148.041188,459.657299
4060.817637,-10658.965565,592.164754,383.047749
4060.817967,-9696.697840,74.020594,306.438199
4060.818297,-9622.677246,0.000000,766.095498
4060.818627,-9918.759623,222.061783,536.266849
4060.818957,-10066.800811,0.000000,0.000000
4060.819287,-9844.739029,444.123565,229.828649
4060.819617,-9178.553681,518.144159,153.219100
4060.819947,-9770.718434,444.123565,0.000000
4060.820277,-9918.759623,666.185348,0.000000
4060.820607,-10214.842000,444.123565,0.000000
4060.820936,-10066.800811,740.205942,459.657299
4060.821266,-9548.656652,444.123565,76.609550
4060.821596,-9326.594869,74.020594,76.609550
4060.821926,-9474.636058,148.041188,0.000000
4060.822256,-9770.718434,74.020594,306.438199
4060.822586,-9844.739029,222.061783,306.438199
4060.822916,-9696.697840,370.102971,1072.533697
4060.823246,-9326.594869,0.000000,612.876398
4060.823576,-9622.677246,148.041188,1149.143247
4060.823906,-9844.739029,148.041188,0.000000
4060.824236,-9918.759623,518.144159,-612.876398
4060.824565,-9474.636058,148.041188,-229.828649
4060.824895,-8882.471304,222.061783,-153.219100
4060.825225,-9178.553681,148.041188,383.047749
4060.825555,-9844.739029,0.000000,0.000000
4060.825885,-10362.883188,0.000000,-306.438199
4060.826215,-9992.780217,0.000000,153.219100
4060.826545,-9474.636058,-370.102971,76.609550
4060.826875,-9326.594869,-370.102971,1302.362347
4060.827205,-9992.780217,0.000000,1149.143247
4060.827535,-10362.883188,0.000000,995.924147
4060.827865,-10288.862594,222.061783,0.000000
4060.828194,-9770.718434,0.000000,-612.876398
4060.828524,-9474.636058,0.000000,-842.705048
4060.828854,-10214.842000,74.020594,0.000000
4060.829184,-10510.924376,74.020594,229.828649
4060.829514,-9992.780217,-222.061783,689.485948
4060.829844,-9252.574275,-444.123565,-153.219100
4060.830174,-9622.677246,-296.082377,-229.828649
4060.830504,-10214.842000,-222.061783,0.000000
4060.830834,-10510.924376,0.000000,536.266849
4060.831164,-10066.800811,-222.061783,536.266849
4060.831494,-9326.594869,-370.102971,459.657299
4060.831823,-9474.636058,-592.164754,1072.533697
4060.832153,-9622.677246,-222.061783,919.314598
4060.832483,-10066.800811,0.000000,383.047749
4060.832813,-10214.842000,222.061783,0.000000
4060.833143,-9622.677246,0.000000,0.000000
4060.833473,-9770.718434,0.000000,0.000000
4060.833803,-9992.780217,-296.082377,612.876398
4060.834133,-9844.739029,-296.082377,153.219100
4060.834463,-9548.656652,0.000000,0.000000
4060.834793,-9104.533087,-148.041188,0.000000
4060.835123,-9030.512492,0.000000,306.438199
4060.835452,-9474.636058,370.102971,383.047749
4060.835782,-10288.862594,666.185348,766.095498
4060.836112,-10658.965565,888.247130,459.657299
4060.836442,-9844.739029,222.061783,0.000000
4060.836772,-9548.656652,0.000000,0.000000
4060.837102,-9770.718434,0.000000,306.438199
4060.837432,-10436.903782,148.041188,689.485948
4060.837762,-9622.677246,0.000000,459.657299
4060.838092,-9030.512492,444.123565,842.705048
4060.838422,-8660.409521,370.102971,689.485948
4060.838752,-10214.842000,962.267725,1072.533697
4060.839081,-11177.109724,666.185348,153.219100
4060.839411,-11103.089130,1110.308913,0.000000
4060.839741,-10362.883188,666.185348,-229.828649
4060.840071,-9844.739029,592.164754,306.438199
4060.840401,-10066.800811,296.082377,766.095498
4060.840731,-9548.656652,0.000000,76.609550
4060.841061,-9400.615463,222.061783,-383.047749
4060.841391,-9696.697840,222.061783,-306.438199
4060.841721,-9474.636058,222.061783,229.828649
4060.842051,-9696.697840,0.000000,1149.143247
4060.842381,-9992.780217,0.000000,1608.800546
4060.842710,-10140.821405,0.000000,536.266849
4060.843040,-9770.718434,-74.020594,229.828649
4060.843370,-9178.553681,-666.185348,306.438199
4060.843700,-9252.574275,-148.041188,383.047749
4060.844030,-9992.780217,-74.020594,76.609550
4060.844360,-9844.739029,0.000000,306.438199
4060.844690,-9326.594869,0.000000,76.609550
4060.845020,-8512.368333,-148.041188,0.000000
4060.845350,-8438.347739,-296.082377,0.000000
4060.845680,-9696.697840,-222.061783,0.000000
4060.846010,-10362.883188,-370.102971,0.000000
4060.846339,-10066.800811,-222.061783,-383.047749
4060.846669,-9474.636058,-962.267725,0.000000
4060.846999,-9474.636058,-370.102971,229.828649
4060.847329,-9622.677246,-370.102971,612.876398
4060.847659,-9918.759623,148.041188,0.000000
4060.847989,-9770.718434,74.020594,459.657299
4060.848319,-9770.718434,148.041188,-153.219100
4060.848649,-10214.842000,0.000000,612.876398
4060.848979,-10732.986159,222.061783,536.266849
4060.849309,-11029.068536,370.102971,612.876398
4060.849639,-10510.924376,-222.061783,153.219100
4060.849968,-9548.656652,-370.102971,-842.705048
4060.850298,-8882.471304,-148.041188,-383.047749
4060.850628,-9326.594869,0.000000,0.000000
4060.850958,-10066.800811,666.185348,306.438199
4060.851288,-10807.006753,592.164754,459.657299
4060.851618,-10436.903782,296.082377,0.000000
4060.851948,-9696.697840,222.061783,0.000000
4060.852278,-9918.759623,-518.144159,842.705048
4060.852608,-10658.965565,-518.144159,995.924147
4060.852938,-9474.636058,-518.144159,459.657299
4060.853268,-8438.347739,-296.082377,153.219100
4060.853597,-8364.327145,-518.144159,612.876398
4060.853927,-9548.656652,222.061783,612.876398
4060.854257,-10584.944971,296.082377,76.609550
4060.854587,-10510.924376,370.102971,-383.047749
4060.854917,-9770.718434,222.061783,0.000000
4060.855247,-9474.636058,-222.061783,536.266849
4060.855577,-8882.471304,0.000000,76.609550
4060.855907,-9104.533087,-296.082377,459.657299
4060.856237,-9622.677246,222.061783,0.000000
4060.856567,-9622.677246,222.061783,459.657299
4060.856897,-9548.656652,0.000000,919.314598
4060.857226,-9770.718434,296.082377,919.314598
4060.857556,-9844.739029,0.000000,459.657299
4060.857886,-10140.821405,148.041188,229.828649
4060.858216,-9326.594869,370.102971,-612.876398
4060.858546,-9104.533087,74.020594,-383.047749
4060.858876,-9844.739029,814.226536,459.657299
4060.859206,-10510.924376,740.205942,689.485948
4060.859536,-10362.883188,370.102971,-536.266849
4060.859866,-9992.780217,74.020594,-383.047749
4060.860196,-9178.553681,0.000000,-383.047749
4060.860526,-9178.553681,74.020594,0.000000
4060.860855,-9844.739029,296.082377,153.219100
4060.861185,-9770.718434,666.185348,-306.438199
4060.861515,-9992.780217,666.185348,-306.438199
4060.861845,-9770.718434,518.144159,76.609550
4060.862175,-10362.883188,666.185348,612.876398
4060.862505,-10140.821405,148.041188,383.047749
4060.862835,-10214.842000,0.000000,-459.657299
4060.863165,-9474.636058,0.000000,0.000000
4060.863495,-9326.594869,-740.205942,0.000000
4060.863825,-9474.636058,0.000000,153.219100
4060.864155,-9696.697840,0.000000,306.438199
4060.864484,-9992.780217,148.041188,76.609550
4060.864814,-10214.842000,0.000000,306.438199
4060.865144,-9770.718434,-148.041188,689.485948
4060.865474,-9474.636058,-518.144159,1455.581446
4060.865804,-9326.594869,-296.082377,1149.143247
4060.866134,-9474.636058,148.041188,229.828649
4060.866464,-10066.800811,0.000000,-536.266849
4060.866794,-9918.759623,148.041188,0.000000
4060.867124,-9770.718434,0.000000,0.000000
4060.867454,-9548.656652,-148.041188,0.000000
4060.867784,-9622.677246,0.000000,-536.266849
4060.868113,-9770.718434,0.000000,0.000000
4060.868443,-9696.697840,0.000000,0.000000
4060.868773,-9622.677246,148.041188,306.438199
4060.869103,-9696.697840,-222.061783,612.876398
4060.869433,-10362.883188,0.000000,919.314598
4060.869763,-10362.883188,0.000000,919.314598
4060.870093,-10140.821405,0.000000,842.705048
4060.870423,-9400.615463,-296.082377,306.438199
4060.870753,-9992.780217,-74.020594,612.876398
4060.871083,-10362.883188,0.000000,306.438199
4060.871413,-10362.883188,222.061783,76.609550
4060.871742,-10066.800811,74.020594,229.828649
4060.872072,-9770.718434,444.123565,459.657299
4060.872402,-9844.739029,370.102971,0.000000
4060.872732,-9992.780217,-222.061783,0.000000
4060.873062,-10362.883188,0.000000,153.219100
4060.873392,-9918.759623,222.061783,612.876398
4060.873722,-8808.450710,-518.144159,0.000000
4060.874052,-8882.471304,148.041188,842.705048
4060.874382,-9474.636058,148.041188,383.047749
4060.874712,-10288.862594,296.082377,229.828649
4060.875042,-10066.800811,148.041188,-612.876398
4060.875371,-9548.656652,0.000000,153.219100
4060.875701,-9474.636058,-518.144159,689.485948
4060.876031,-9400.615463,-296.082377,1072.533697
4060.876361,-10214.842000,0.000000,383.047749
4060.876691,-9696.697840,-222.061783,153.219100
4060.877021,-9252.574275,-222.061783,0.000000
4060.877351,-9104.533087,0.000000,306.438199
4060.877681,-10214.842000,222.061783,842.705048
4060.878011,-10584.944971,518.144159,229.828649
4060.878341,-10510.924376,444.123565,-153.219100
4060.878671,-10066.800811,222.061783,-919.314598
4060.879000,-9252.574275,0.000000,-459.657299
4060.879330,-8882.471304,-370.102971,76.609550
4060.879660,-9622.677246,0.000000,459.657299
4060.879990,-9770.718434,0.000000,766.095498
4060.880320,-10066.800811,-222.061783,153.219100
4060.880650,-9770.718434,-370.102971,0.000000
4060.880980,-10140.821405,0.000000,306.438199
4060.881310,-10140.821405,-222.061783,153.219100
4060.881640,-10140.821405,0.000000,153.219100
4060.881970,-9326.594869,-148.041188,153.219100
4060.882300,-9474.636058,222.061783,536.266849
4060.882629,-9696.697840,74.020594,76.609550
4060.882959,-10140.821405,296.082377,-229.828649
4060.883289,-10140.821405,0.000000,-459.657299
4060.883619,-9696.697840,0.000000,0.000000
4060.883949,-9104.533087,0.000000,459.657299
4060.884279,-9696.697840,222.061783,842.705048
4060.884609,-10066.800811,148.041188,-76.609550
4060.884939,-9548.656652,0.000000,-689.485948
4060.885269,-9770.718434,296.082377,0.000000
4060.885599,-9252.574275,296.082377,0.000000
4060.885929,-9844.739029,222.061783,536.266849
4060.886258,-9844.739029,666.185348,766.095498
4060.886588,-10214.842000,0.000000,842.705048
4060.886918,-9474.636058,0.000000,689.485948
4060.887248,-9178.553681,-222.061783,0.000000
4060.887578,-9252.574275,74.020594,612.876398
4060.887908,-9548.656652,0.000000,153.219100
4060.888238,-10436.903782,296.082377,-153.219100
4060.888568,-9918.759623,592.164754,153.219100
4060.888898,-9474.636058,666.185348,0.000000
4060.889228,-9622.677246,518.144159,229.828649
4060.889558,-10362.883188,444.123565,-76.609550
4060.889887,-10066.800811,296.082377,0.000000
4060.890217,-9696.697840,444.123565,153.219100
4060.890547,-9844.739029,666.185348,536.266849
4060.890877,-10140.821405,370.102971,1149.143247
4060.891207,-10658.965565,444.123565,0.000000
4060.891537,-10288.862594,444.123565,-536.266849
4060.891867,-10362.883188,1258.350101,-153.219100
4060.892197,-9178.553681,444.123565,612.876398
4060.892527,-9474.636058,444.123565,536.266849
4060.892857,-9696.697840,666.185348,612.876398
4060.893187,-10436.903782,666.185348,306.438199
4060.893516,-10362.883188,222.061783,306.438199
4060.893846,-9992.780217,0.000000,0.000000
4060.894176,-9548.656652,0.000000,689.485948
4060.894506,-9178.553681,-814.226536,536.266849
4060.894836,-9178.553681,-518.144159,459.657299
4060.895166,-9030.512492,-148.041188,459.657299
4060.895496,-9030.512492,0.000000,612.876398
4060.895826,-9252.574275,370.102971,0.000000
4060.896156,-9992.780217,0.000000,0.000000
4060.896486,-10140.821405,74.020594,-229.828649
4060.896816,-10288.862594,0.000000,612.876398
4060.897145,-9548.656652,-740.205942,919.314598
4060.897475,-8882.471304,-814.226536,919.314598
4060.897805,-9178.553681,-444.123565,383.047749
4060.898135,-10066.800811,-370.102971,-383.047749
4060.898465,-10288.862594,148.041188,-383.047749
4060.898795,-10288.862594,296.082377,-306.438199
4060.899125,-9474.636058,222.061783,306.438199
4060.899455,-9770.718434,0.000000,0.000000
4060.899785,-10214.842000,148.041188,-306.438199
4060.900115,-10732.986159,0.000000,-76.609550
4060.900445,-9548.656652,-148.041188,-76.609550
4060.900775,-9030.512492,-444.123565,0.000000
4060.901104,-9474.636058,-370.102971,383.047749
4060.901434,-10362.883188,-370.102971,536.266849
4060.901764,-10510.924376,-296.082377,1225.752797
4060.902094,-10066.800811,-296.082377,689.485948
4060.902424,-9474.636058,-444.123565,153.219100
4060.902754,-9696.697840,0.000000,383.047749
4060.903084,-9992.780217,-222.061783,689.485948
4060.903414,-10066.800811,222.061783,1302.362347
4060.903744,-9400.615463,-74.020594,459.657299
4060.904074,-9030.512492,-518.144159,0.000000
4060.904404,-9696.697840,-370.102971,229.828649
4060.904734,-10140.821405,-518.144159,306.438199
4060.905064,-10066.800811,-74.020594,306.438199
4060.905393,-9622.677246,0.000000,536.266849
4060.905723,-8734.430116,-148.041188,459.657299
4060.906053,-9252.574275,0.000000,306.438199
4060.906383,-9992.780217,148.041188,153.219100
4060.906713,-10214.842000,222.061783,0.000000
4060.907043,-9548.656652,74.020594,0.000000
4060.907373,-9474.636058,-222.061783,383.047749
4060.907703,-9326.594869,0.000000,612.876398
4060.908033,-10288.862594,-222.061783,0.000000
4060.908363,-9844.739029,-444.123565,-306.438199
4060.908693,-9104.533087,-444.123565,0.000000
4060.909023,-8956.491898,0.000000,842.705048
4060.909353,-9474.636058,0.000000,1608.800546
4060.909682,-10658.965565,222.061783,1532.190996
4060.910012,-10955.047942,148.041188,612.876398
4060.910342,-10436.903782,370.102971,-536.266849
4060.910672,-9548.656652,74.020594,0.000000
4060.911002,-9696.697840,-296.082377,383.047749
4060.911332,-10140.821405,222.061783,919.314598
4060.911662,-9770.718434,888.247130,153.219100
4060.911992,-9918.759623,666.185348,-612.876398
4060.912322,-9918.759623,666.185348,-766.095498
4060.912652,-10288.862594,888.247130,-536.266849
4060.912982,-10214.842000,814.226536,0.000000
4060.913312,-10288.862594,444.123565,0.000000
4060.913642,-10436.903782,296.082377,306.438199
4060.913971,-9622.677246,-296.082377,766.095498
4060.914301,-9030.512492,-296.082377,612.876398
4060.914631,-9474.636058,0.000000,1225.752797
4060.914961,-9918.759623,0.000000,459.657299
4060.915291,-10288.862594,74.020594,536.266849
4060.915621,-9474.636058,148.041188,766.095498
4060.915951,-9548.656652,888.247130,919.314598
4060.916281,-9844.739029,222.061783,0.000000
4060.916611,-10214.842000,0.000000,-766.095498
4060.916941,-9400.615463,148.041188,-919.314598
4060.917271,-9178.553681,148.041188,-459.657299
4060.917601,-9104.533087,148.041188,153.219100
4060.917931,-9326.594869,0.000000,0.000000
4060.918260,-9770.718434,74.020594,-536.266849
4060.918590,-9918.759623,296.082377,-306.438199
4060.918920,-10584.944971,518.144159,-76.609550
4060.919250,-10214.842000,0.000000,459.657299
4060.919580,-10140.821405,74.020594,842.705048
4060.919910,-9622.677246,74.020594,536.266849
4060.920240,-9474.636058,740.205942,383.047749
4060.920570,-9844.739029,0.000000,-153.219100
4060.920900,-9178.553681,0.000000,-306.438199
4060.921230,-9548.656652,74.020594,306.438199
4060.921560,-9992.780217,0.000000,459.657299
4060.921890,-10362.883188,296.082377,0.000000
4060.922220,-9326.594869,0.000000,-536.266849
4060.922549,-8882.471304,444.123565,-459.657299
4060.922879,-9474.636058,0.000000,0.000000
4060.923209,-10214.842000,148.041188,306.438199
4060.923539,-10362.883188,296.082377,689.485948
4060.923869,-9844.739029,74.020594,612.876398
4060.924199,-9474.636058,0.000000,766.095498
4060.924529,-9326.594869,0.000000,153.219100
4060.924859,-9918.759623,-444.123565,842.705048
4060.925189,-9622.677246,74.020594,306.438199
4060.925519,-9326.594869,74.020594,-153.219100
4060.925849,-9474.636058,518.144159,153.219100
4060.926179,-9178.553681,444.123565,0.000000
4060.926509,-10288.862594,592.164754,0.000000
4060.926838,-10732.986159,444.123565,-306.438199
4060.927168,-10658.965565,0.000000,0.000000
4060.927498,-9474.636058,-592.164754,0.000000
4060.927828,-9178.553681,-740.205942,766.095498
4060.928158,-9474.636058,-740.205942,919.314598
4060.928488,-9992.780217,-148.041188,459.657299
4060.928818,-9548.656652,-148.041188,0.000000
4060.929148,-9400.615463,-222.061783,229.828649
4060.929478,-9992.780217,0.000000,1532.190996
4060.929808,-10807.006753,296.082377,1915.238745
4060.930138,-11029.068536,148.041188,1378.971896
4060.930468,-10732.986159,0.000000,0.000000
4060.930798,-9474.636058,-148.041188,-229.828649
4060.931127,-9178.553681,-370.102971,229.828649
4060.931457,-9992.780217,74.020594,306.438199
4060.931787,-9992.780217,74.020594,153.219100
4060.932117,-9548.656652,0.000000,-459.657299
4060.932447,-9178.553681,0.000000,-459.657299
4060.932777,-9474.636058,0.000000,229.828649
4060.933107,-10140.821405,0.000000,1072.533697
4060.933437,-10214.842000,-296.082377,919.314598
4060.933767,-9548.656652,0.000000,536.266849
4060.934097,-9326.594869,-296.082377,0.000000
4060.934427,-9474.636058,74.020594,306.438199
4060.934757,-9918.759623,0.000000,612.876398
4060.935087,-10584.944971,0.000000,229.828649
4060.935416,-9844.739029,0.000000,-536.266849
4060.935746,-8956.491898,0.000000,-995.924147
4060.936076,-9030.512492,0.000000,-229.828649
4060.936406,-9474.636058,222.061783,383.047749
4060.936736,-9770.718434,0.000000,229.828649
4060.937066,-9696.697840,148.041188,0.000000
4060.937396,-9622.677246,296.082377,0.000000
4060.937726,-9770.718434,0.000000,383.047749
4060.938056,-10140.821405,0.000000,995.924147
4060.938386,-10288.862594,0.000000,536.266849
4060.938716,-10066.800811,592.164754,229.828649
4060.939046,-9696.697840,444.123565,0.000000
4060.939376,-9326.594869,296.082377,0.000000
4060.939705,-10140.821405,444.123565,459.657299
4060.940035,-10510.924376,370.102971,919.314598
4060.940365,-10510.924376,222.061783,-76.609550
4060.940695,-9696.697840,0.000000,153.219100
4060.941025,-9622.677246,-148.041188,229.828649
4060.941355,-9622.677246,0.000000,1225.752797
4060.941685,-10066.800811,0.000000,689.485948
4060.942015,-10066.800811,0.000000,229.828649
4060.942345,-9844.739029,444.123565,153.219100
4060.942675,-9844.739029,518.144159,0.000000
4060.943005,-10288.862594,370.102971,919.314598
4060.943335,-10362.883188,222.061783,689.485948
4060.943665,-10066.800811,0.000000,0.000000
4060.943994,-9622.677246,-74.020594,-306.438199
4060.944324,-9474.636058,-370.102971,306.438199
4060.944654,-9178.553681,-444.123565,919.314598
4060.944984,-9474.636058,74.020594,842.705048
4060.945314,-9918.759623,518.144159,0.000000
4060.945644,-9918.759623,518.144159,-612.876398
4060.945974,-9992.780217,444.123565,-459.657299
4060.946304,-9992.780217,370.102971,153.219100
4060.946634,-10140.821405,222.061783,612.876398
4060.946964,-10362.883188,370.102971,766.095498
4060.947294,-10288.862594,222.061783,229.828649
4060.947624,-9252.574275,-296.082377,-306.438199
4060.947954,-8808.450710,-444.123565,-383.047749
4060.948283,-9178.553681,-370.102971,383.047749
4060.948613,-9918.759623,0.000000,689.485948
4060.948943,-10214.842000,666.185348,153.219100
4060.949273,-10288.862594,296.082377,0.000000
4060.949603,-9992.780217,518.144159,229.828649
4060.949933,-10140.821405,592.164754,306.438199
4060.950263,-10732.986159,444.123565,306.438199
4060.950593,-9770.718434,0.000000,383.047749
4060.950923,-9030.512492,0.000000,153.219100
4060.951253,-8882.471304,0.000000,383.047749
4060.951583,-9918.759623,222.061783,459.657299
4060.951913,-10510.924376,0.000000,76.609550
4060.952243,-10140.821405,-370.102971,-153.219100
4060.952572,-9548.656652,-296.082377,76.609550
4060.952902,-9030.512492,-296.082377,612.876398
4060.953232,-9474.636058,-296.082377,1072.533697
4060.953562,-9474.636058,-222.061783,689.485948
4060.953892,-9918.759623,74.020594,0.000000
4060.954222,-9918.759623,666.185348,-153.219100
4060.954552,-10510.924376,74.020594,-229.828649
4060.954882,-9622.677246,0.000000,612.876398
4060.955212,-10066.800811,0.000000,306.438199
4060.955542,-10288.862594,-370.102971,-229.828649
4060.955872,-9622.677246,-370.102971,-689.485948
4060.956202,-8438.347739,-592.164754,-459.657299
4060.956532,-8586.388927,-518.144159,459.657299
4060.956861,-9474.636058,222.061783,689.485948
4060.957191,-10436.903782,370.102971,153.219100
4060.957521,-10584.944971,296.082377,536.266849
4060.957851,-10140.821405,-222.061783,459.657299
4060.958181,-9622.677246,-592.164754,919.314598
4060.958511,-9474.636058,-592.164754,612.876398
4060.958841,-9548.656652,-148.041188,-153.219100
4060.959171,-9178.553681,0.000000,0.000000
4060.959501,-9474.636058,0.000000,0.000000
4060.959831,-9696.697840,148.041188,76.609550
4060.960161,-10214.842000,296.082377,0.000000
4060.960491,-10807.006753,518.144159,76.609550
4060.960821,-10288.862594,370.102971,76.609550
4060.961150,-9844.739029,0.000000,766.095498
4060.961480,-9548.656652,-592.164754,459.657299
4060.961810,-9326.594869,0.000000,153.219100
4060.962140,-9844.739029,222.061783,-459.657299
4060.962470,-10436.903782,518.144159,153.219100
4060.962800,-9622.677246,148.041188,459.657299
4060.963130,-9400.615463,222.061783,689.485948
4060.963460,-10066.800811,518.144159,842.705048
4060.963790,-9992.780217,148.041188,153.219100
4060.964120,-9992.780217,296.082377,459.657299
4060.964450,-9474.636058,74.020594,612.876398
4060.964780,-9474.636058,74.020594,1455.581446
4060.965110,-10584.944971,370.102971,766.095498
4060.965439,-10214.842000,148.041188,76.609550
4060.965769,-9918.759623,0.000000,-153.219100
4060.966099,-9474.636058,0.000000,153.219100
4060.966429,-9400.615463,74.020594,153.219100
4060.966759,-9548.656652,444.123565,76.609550
4060.967089,-9474.636058,518.144159,-229.828649
4060.967419,-9918.759623,444.123565,229.828649
4060.967749,-9844.739029,444.123565,536.266849
4060.968079,-9696.697840,296.082377,306.438199
4060.968409,-9992.780217,148.041188,229.828649
4060.968739,-10436.903782,-148.041188,-383.047749
4060.969069,-9992.780217,74.020594,-229.828649
4060.969399,-9696.697840,0.000000,459.657299
4060.969728,-9178.553681,444.123565,536.266849
4060.970058,-9474.636058,296.082377,306.438199
4060.970388,-9844.739029,518.144159,76.609550
4060.970718,-10214.842000,148.041188,-153.219100
4060.971048,-10140.821405,0.000000,229.828649
4060.971378,-9696.697840,148.041188,536.266849
4060.971708,-9696.697840,-296.082377,766.095498
4060.972038,-9696.697840,-370.102971,153.219100
4060.972368,-9770.718434,0.000000,0.000000
4060.972698,-9326.594869,0.000000,153.219100
4060.973028,-9326.594869,370.102971,-459.657299
4060.973358,-9844.739029,370.102971,0.000000
4060.973688,-10362.883188,444.123565,306.438199
4060.974017,-10658.965565,1036.288319,459.657299
4060.974347,-10881.027347,148.041188,306.438199
4060.974677,-9770.718434,-296.082377,0.000000
4060.975007,-8956.491898,-370.102971,-383.047749
4060.975337,-9252.574275,-518.144159,-766.095498
4060.975667,-9696.697840,-222.061783,-766.095498
4060.975997,-9326.594869,-666.185348,306.438199
4060.976327,-9252.574275,-444.123565,689.485948
4060.976657,-9548.656652,0.000000,919.314598
4060.976987,-10807.006753,0.000000,1455.581446
4060.977317,-10658.965565,148.041188,459.657299
4060.977647,-10436.903782,-222.061783,842.705048
4060.977977,-9918.759623,-592.164754,766.095498
4060.978306,-9400.615463,-740.205942,1608.800546
4060.978636,-9844.739029,-518.144159,1072.533697
4060.978966,-9548.656652,-148.041188,-306.438199
4060.979296,-9474.636058,0.000000,-842.705048
4060.979626,-9548.656652,-222.061783,-995.924147
4060.979956,-9622.677246,0.000000,0.000000
4060.980286,-9992.780217,148.041188,689.485948
4060.980616,-10066.800811,148.041188,689.485948
4060.980946,-10140.821405,222.061783,229.828649
4060.981276,-9474.636058,-74.020594,612.876398
4060.981606,-9474.636058,-222.061783,536.266849
4060.981936,-10066.800811,0.000000,919.314598
4060.982266,-10214.842000,-222.061783,766.095498
4060.982595,-10140.821405,0.000000,1608.800546
4060.982925,-9992.780217,0.000000,1225.752797
4060.983255,-9474.636058,74.020594,689.485948
4060.983585,-9696.697840,296.082377,306.438199
4060.983915,-9918.759623,370.102971,-153.219100
4060.984245,-10140.821405,444.123565,153.219100
4060.984575,-9696.697840,444.123565,306.438199
4060.984905,-9622.677246,0.000000,76.609550
4060.985235,-10214.842000,148.041188,229.828649
4060.985565,-9844.739029,0.000000,-459.657299
4060.985895,-9400.615463,148.041188,-153.219100
4060.986225,-9252.574275,0.000000,689.485948
4060.986555,-9474.636058,444.123565,1149.143247
4060.986884,-10288.862594,592.164754,1455.581446
4060.987214,-10807.006753,666.185348,153.219100
4060.987544,-10584.944971,518.144159,-229.828649
4060.987874,-9992.780217,296.082377,-459.657299
4060.988204,-9178.553681,0.000000,76.609550
4060.988534,-9178.553681,0.000000,153.219100
4060.988864,-9400.615463,0.000000,-306.438199
4060.989194,-9252.574275,0.000000,-612.876398
4060.989524,-9474.636058,370.102971,76.609550
4060.989854,-9622.677246,222.061783,-306.438199
4060.990184,-10140.821405,222.061783,76.609550
4060.990514,-10510.924376,222.061783,306.438199
4060.990844,-9992.780217,592.164754,76.609550
4060.991173,-9992.780217,74.020594,459.657299
4060.991503,-9474.636058,-74.020594,0.000000
4060.991833,-9326.594869,0.000000,459.657299
4060.992163,-9992.780217,0.000000,766.095498
4060.992493,-10436.903782,740.205942,153.219100
4060.992823,-9992.780217,222.061783,-766.095498
4060.993153,-9622.677246,296.082377,-612.876398
4060.993483,-9400.615463,370.102971,-153.219100
4060.993813,-10214.842000,370.102971,0.000000
4060.994143,-10362.883188,444.123565,229.828649
4060.994473,-10288.862594,74.020594,76.609550
4060.994803,-9474.636058,0.000000,0.000000
4060.995133,-9030.512492,-148.041188,76.609550
4060.995462,-10362.883188,0.000000,612.876398
4060.995792,-9918.759623,-814.226536,689.485948
4060.996122,-9770.718434,0.000000,689.485948
4060.996452,-9474.636058,0.000000,459.657299
4060.996782,-9252.574275,444.123565,459.657299
4060.997112,-9696.697840,296.082377,459.657299
4060.997442,-10288.862594,370.102971,306.438199
4060.997772,-10362.883188,222.061783,383.047749
4060.998102,-10214.842000,0.000000,153.219100
4060.998432,-9474.636058,-148.041188,-306.438199
4060.998762,-9400.615463,-74.020594,536.266849
4060.999092,-9844.739029,0.000000,306.438199
4060.999421,-10140.821405,74.020594,153.219100
4060.999751,-9844.739029,222.061783,0.000000
4061.000081,-9104.533087,444.123565,0.000000
4061.000411,-9474.636058,296.082377,229.828649
4061.000741,-10658.965565,74.020594,536.266849
4061.001071,-10362.883188,666.185348,76.609550
4061.001401,-9918.759623,148.041188,0.000000
4061.001731,-9030.512492,0.000000,0.000000
4061.002061,-9844.739029,0.000000,842.705048
4061.002391,-10584.944971,0.000000,383.047749
4061.002721,-10140.821405,0.000000,612.876398
4061.003050,-9252.574275,-296.082377,76.609550
4061.003380,-8512.368333,0.000000,0.000000
4061.003710,-9474.636058,148.041188,459.657299
4061.004040,-10214.842000,74.020594,383.047749
4061.004370,-10140.821405,148.041188,153.219100
4061.004700,-9474.636058,0.000000,76.609550
4061.005030,-9178.553681,-444.123565,459.657299
4061.005360,-9400.615463,-518.144159,1149.143247
4061.005690,-10066.800811,-370.102971,612.876398
4061.006020,-9992.780217,-296.082377,229.828649
4061.006350,-9622.677246,0.000000,-229.828649
4061.006679,-9548.656652,-296.082377,-459.657299
4061.007009,-9844.739029,-148.041188,459.657299
4061.007339,-9844.739029,0.000000,612.876398
4061.007669,-9474.636058,148.041188,306.438199
4061.007999,-9918.759623,518.144159,-306.438199
4061.008329,-9474.636058,-222.061783,-536.266849
4061.008659,-9844.739029,0.000000,383.047749
4061.008989,-10436.903782,0.000000,766.095498
4061.009319,-10066.800811,-148.041188,306.438199
4061.009649,-9252.574275,-666.185348,76.609550
4061.009979,-9178.553681,-592.164754,919.314598
4061.010308,-9326.594869,-444.123565,995.924147
4061.010638,-9844.739029,74.020594,612.876398
4061.010968,-10140.821405,888.247130,-612.876398
4061.011298,-9622.677246,518.144159,-459.657299
4061.011628,-9326.594869,592.164754,-153.219100
4061.011958,-9844.739029,222.061783,-383.047749
4061.012288,-10362.883188,296.082377,153.219100
4061.012618,-9918.759623,-148.041188,-306.438199
4061.012948,-9770.718434,0.000000,-689.485948
4061.013278,-9474.636058,-444.123565,-153.219100
4061.013608,-9178.553681,-74.020594,76.609550
4061.013937,-9474.636058,148.041188,536.266849
4061.014267,-9844.739029,370.102971,536.266849
4061.014597,-10955.047942,518.144159,76.609550
4061.014927,-10807.006753,592.164754,536.266849
4061.015257,-9622.677246,74.020594,229.828649
4061.015587,-9844.739029,-296.082377,842.705048
4061.015917,-10214.842000,-444.123565,842.705048
4061.016247,-9770.718434,-370.102971,383.047749
4061.016577,-8956.491898,296.082377,-383.047749
4061.016907,-8956.491898,74.020594,-153.219100
4061.017237,-9622.677246,370.102971,153.219100
4061.017566,-10510.924376,666.185348,612.876398
4061.017896,-10584.944971,814.226536,612.876398
4061.018226,-10436.903782,444.123565,612.876398
4061.018556,-10066.800811,0.000000,229.828649
4061.018886,-9696.697840,-592.164754,459.657299
4061.019216,-9326.594869,-444.123565,766.095498
4061.019546,-9400.615463,0.000000,0.000000
4061.019876,-9252.574275,74.020594,229.828649
4061.020206,-9030.512492,148.041188,0.000000
4061.020536,-9400.615463,370.102971,76.609550
4061.020866,-10214.842000,666.185348,229.828649
4061.021195,-11177.109724,592.164754,0.000000
4061.021525,-10066.800811,296.082377,-536.266849
4061.021855,-9252.574275,0.000000,-229.828649
4061.022185,-9030.512492,222.061783,383.047749
4061.022515,-9548.656652,-296.082377,306.438199
4061.022845,-10066.800811,0.000000,76.609550
4061.023175,-9400.615463,74.020594,-612.876398
4061.023505,-9252.574275,148.041188,-689.485948
4061.023835,-9548.656652,296.082377,229.828649
4061.024165,-10140.821405,222.061783,306.438199
4061.024495,-9770.718434,370.102971,0.000000
4061.024824,-9622.677246,444.123565,-306.438199
4061.025154,-9400.615463,0.000000,-383.047749
4061.025484,-9474.636058,-296.082377,0.000000
4061.025814,-10066.800811,-296.082377,459.657299
4061.026144,-9844.739029,-148.041188,0.000000
4061.026474,-9918.759623,222.061783,0.000000
4061.026804,-9474.636058,-148.041188,229.828649
4061.027134,-9400.615463,0.000000,306.438199
4061.027464,-9992.780217,74.020594,383.047749
4061.027794,-10362.883188,148.041188,0.000000
4061.028124,-10362.883188,296.082377,-229.828649
4061.028453,-9696.697840,-74.020594,0.000000
4061.028783,-9474.636058,0.000000,612.876398
4061.029113,-10066.800811,0.000000,1149.143247
4061.029443,-10140.821405,-592.164754,153.219100
4061.029773,-9770.718434,-444.123565,-459.657299
4061.030103,-8882.471304,-370.102971,-383.047749
4061.030433,-8956.491898,0.000000,1072.533697
4061.030763,-9548.656652,0.000000,2298.286494
4061.031093,-10658.965565,148.041188,842.705048
4061.031423,-10436.903782,222.061783,-229.828649
4061.031753,-9918.759623,74.020594,0.000000
4061.032082,-9548.656652,0.000000,842.705048
4061.032412,-9474.636058,222.061783,995.924147
4061.032742,-9844.739029,222.061783,306.438199
4061.033072,-9992.780217,370.102971,-383.047749
4061.033402,-9992.780217,370.102971,-766.095498
4061.033732,-9696.697840,0.000000,-766.095498
4061.034062,-10066.800811,148.041188,-306.438199
4061.034392,-9548.656652,0.000000,0.000000
4061.034722,-9178.553681,0.000000,0.000000
4061.035052,-9030.512492,0.000000,-306.438199
4061.035382,-9474.636058,296.082377,383.047749
4061.035711,-9770.718434,444.123565,919.314598
4061.036041,-10658.965565,148.041188,536.266849
4061.036371,-10362.883188,592.164754,229.828649
4061.036701,-9918.759623,296.082377,689.485948
4061.037031,-9770.718434,0.000000,1149.143247
4061.037361,-9622.677246,74.020594,612.876398
4061.037691,-9548.656652,-74.020594,0.000000
4061.038021,-9178.553681,370.102971,-689.485948
4061.038351,-9474.636058,370.102971,229.828649
4061.038681,-9474.636058,296.082377,612.876398
4061.039011,-9770.718434,74.020594,1149.143247
4061.039340,-10955.047942,518.144159,0.000000
4061.039670,-10140.821405,296.082377,0.000000
4061.040000,-9474.636058,74.020594,0.000000
4061.040330,-9178.553681,222.061783,689.485948
4061.040660,-9178.553681,444.123565,1378.971896
4061.040990,-9992.780217,296.082377,766.095498
4061.041320,-9844.739029,74.020594,-229.828649
4061.041650,-9696.697840,-148.041188,-612.876398
4061.041980,-9326.594869,-370.102971,0.000000
4061.042310,-9548.656652,-444.123565,766.095498
4061.042640,-9548.656652,-592.164754,459.657299
4061.042969,-9400.615463,-296.082377,0.000000
4061.043299,-8956.491898,74.020594,-383.047749
4061.043629,-9474.636058,296.082377,153.219100
4061.043959,-10066.800811,222.061783,0.000000
4061.044289,-10510.924376,370.102971,-153.219100
4061.044619,-10066.800811,0.000000,-612.876398
4061.044949,-10214.842000,444.123565,153.219100
4061.045279,-10066.800811,-518.144159,76.609550
4061.045609,-9326.594869,-740.205942,689.485948
4061.045939,-9400.615463,-592.164754,459.657299
4061.046269,-9696.697840,-370.102971,-459.657299
4061.046598,-9918.759623,-222.061783,0.000000
4061.046928,-10214.842000,74.020594,229.828649
4061.047258,-9844.739029,0.000000,153.219100
4061.047588,-9770.718434,296.082377,306.438199
4061.047918,-10288.862594,222.061783,229.828649
4061.048248,-10807.006753,296.082377,0.000000
4061.048578,-10362.883188,-222.061783,0.000000
4061.048908,-9696.697840,-592.164754,536.266849
4061.049238,-9178.553681,-814.226536,1455.581446
4061.049568,-9474.636058,-592.164754,842.705048
4061.049898,-9400.615463,-222.061783,229.828649
4061.050227,-9104.533087,0.000000,459.657299
4061.050557,-9400.615463,0.000000,306.438199
4061.050887,-10214.842000,0.000000,76.609550
4061.051217,-10658.965565,222.061783,229.828649
4061.051547,-9918.759623,74.020594,306.438199
4061.051877,-9400.615463,0.000000,689.485948
4061.052207,-9326.594869,222.061783,459.657299
4061.052537,-9918.759623,148.041188,229.828649
4061.052867,-10214.842000,0.000000,0.000000
4061.053197,-9696.697840,148.041188,-76.609550
4061.053527,-9326.594869,962.267725,-459.657299
4061.053856,-9326.594869,444.123565,153.219100
4061.054186,-9696.697840,296.082377,76.609550
4061.054516,-9992.780217,222.061783,0.000000
4061.054846,-9992.780217,814.226536,0.000000
4061.055176,-9770.718434,518.144159,0.000000
4061.055506,-9770.718434,0.000000,689.485948
4061.055836,-9918.759623,222.061783,1378.971896
4061.056166,-10584.944971,74.020594,1302.362347
4061.056496,-10140.821405,666.185348,0.000000
4061.056826,-9548.656652,0.000000,-153.219100
4061.057156,-8956.491898,370.102971,-306.438199
4061.057485,-9030.512492,0.000000,536.266849
4061.057815,-9400.615463,592.164754,0.000000
4061.058145,-10140.821405,444.123565,0.000000
4061.058475,-10066.800811,296.082377,0.000000
4061.058805,-9844.739029,74.020594,0.000000
4061.059135,-9400.615463,0.000000,-153.219100
4061.059465,-9474.636058,0.000000,689.485948
4061.059795,-9474.636058,74.020594,306.438199
4061.060125,-9474.636058,148.041188,306.438199
4061.060455,-9696.697840,740.205942,0.000000
4061.060785,-9918.759623,518.144159,-306.438199
4061.061114,-10362.883188,518.144159,-306.438199
4061.061444,-10288.862594,370.102971,-536.266849
4061.061774,-10214.842000,0.000000,-459.657299
4061.062104,-9104.533087,-592.164754,76.609550
4061.062434,-8956.491898,-592.164754,153.219100
4061.062764,-9474.636058,-518.144159,383.047749
4061.063094,-10066.800811,-148.041188,76.609550
4061.063424,-9696.697840,-370.102971,0.000000
4061.063754,-10214.842000,-74.020594,459.657299
4061.064084,-9548.656652,-444.123565,536.266849
4061.064414,-9844.739029,222.061783,459.657299
4061.064743,-10362.883188,-74.020594,-612.876398
4061.065073,-9918.759623,-296.082377,-153.219100
4061.065403,-9548.656652,-518.144159,0.000000
4061.065733,-9326.594869,-444.123565,842.705048
4061.066063,-9696.697840,-592.164754,919.314598
4061.066393,-10066.800811,-518.144159,612.876398
4061.066723,-9918.759623,-296.082377,612.876398
4061.067053,-9474.636058,-222.061783,383.047749
4061.067383,-9252.574275,148.041188,229.828649
4061.067713,-10140.821405,148.041188,306.438199
4061.068043,-10510.924376,222.061783,153.219100
4061.068372,-10140.821405,518.144159,76.609550
4061.068702,-9992.780217,148.041188,0.000000
4061.069032,-9474.636058,0.000000,-459.657299
4061.069362,-10066.800811,-592.164754,76.609550
4061.069692,-9918.759623,-222.061783,229.828649
4061.070022,-9178.553681,-296.082377,383.047749
4061.070352,-9178.553681,0.000000,689.485948
4061.070682,-9326.594869,0.000000,459.657299
4061.071012,-9770.718434,740.205942,306.438199
4061.071342,-9844.739029,592.164754,-76.609550
4061.071672,-10658.965565,962.267725,76.609550
4061.072001,-10436.903782,444.123565,76.609550
4061.072331,-9770.718434,-518.144159,536.266849
4061.072661,-9030.512492,-370.102971,306.438199
4061.072991,-9474.636058,-370.102971,229.828649
4061.073321,-8956.491898,74.020594,-229.828649
4061.073651,-9326.594869,0.000000,76.609550
4061.073981,-9104.533087,0.000000,76.609550
4061.074311,-9622.677246,296.082377,383.047749
4061.074641,-10288.862594,962.267725,459.657299
4061.074971,-10510.924376,518.144159,0.000000
4061.075301,-10066.800811,814.226536,-536.266849
4061.075630,-9400.615463,0.000000,-459.657299
4061.075960,-9178.553681,0.000000,0.000000
4061.076290,-9992.780217,222.061783,459.657299
4061.076620,-10436.903782,-222.061783,306.438199
4061.076950,-10140.821405,0.000000,383.047749
4061.077280,-9770.718434,0.000000,153.219100
4061.077610,-9326.594869,444.123565,459.657299
4061.077940,-9696.697840,296.082377,306.438199
4061.078270,-10362.883188,518.144159,383.047749
4061.078600,-10214.842000,518.144159,0.000000
4061.078930,-9622.677246,148.041188,-76.609550
4061.079259,-9104.533087,0.000000,-383.047749
4061.079589,-9474.636058,0.000000,689.485948
4061.079919,-10288.862594,-148.041188,229.828649
4061.080249,-9400.615463,0.000000,0.000000
4061.080579,-8956.491898,0.000000,76.609550
4061.080909,-9474.636058,370.102971,-306.438199
4061.081239,-10436.903782,74.020594,306.438199
4061.081569,-10362.883188,74.020594,76.609550
4061.081899,-9326.594869,222.061783,0.000000
4061.082229,-9696.697840,370.102971,459.657299
4061.082559,-9178.553681,0.000000,0.000000
4061.082888,-9474.636058,74.020594,536.266849
4061.083218,-9696.697840,74.020594,-306.438199
4061.083548,-10140.821405,74.020594,-306.438199
4061.083878,-10214.842000,0.000000,-383.047749
4061.084208,-9992.780217,0.000000,229.828649
4061.084538,-9548.656652,0.000000,383.047749
4061.084868,-9918.759623,-148.041188,612.876398
4061.085198,-9918.759623,-370.102971,459.657299
4061.085528,-9696.697840,0.000000,459.657299
4061.085858,-9548.656652,-148.041188,919.314598
4061.086188,-9770.718434,-74.020594,1378.971896
4061.086517,-10732.986159,-74.020594,995.924147
4061.086847,-9992.780217,0.000000,306.438199
4061.087177,-9696.697840,-74.020594,229.828649
4061.087507,-8956.491898,0.000000,-229.828649
4061.087837,-9400.615463,74.020594,-306.438199
4061.088167,-10140.821405,148.041188,306.438199
4061.088497,-9992.780217,222.061783,76.609550
4061.088827,-9474.636058,888.247130,0.000000
4061.089157,-9474.636058,148.041188,0.000000
4061.089487,-9696.697840,296.082377,842.705048
4061.089817,-10732.986159,0.000000,1072.533697
4061.090146,-11029.068536,-296.082377,229.828649
4061.090476,-9844.739029,-74.020594,383.047749
4061.090806,-8956.491898,-592.164754,153.219100
4061.091136,-8808.450710,74.020594,306.438199
4061.091466,-9474.636058,222.061783,536.266849
4061.091796,-10066.800811,1110.308913,0.000000
4061.092126,-10140.821405,814.226536,-612.876398
4061.092456,-9622.677246,370.102971,-612.876398
4061.092786,-9400.615463,148.041188,-229.828649
4061.093116,-9622.677246,222.061783,383.047749
4061.093446,-10066.800811,0.000000,0.000000
4061.093775,-9474.636058,-370.102971,-153.219100
4061.094105,-9030.512492,-148.041188,-383.047749
4061.094435,-9474.636058,-148.041188,0.000000
4061.094765,-9992.780217,370.102971,995.924147
4061.095095,-10436.903782,370.102971,1378.971896
4061.095425,-10288.862594,518.144159,842.705048
4061.095755,-9992.780217,296.082377,0.000000
4061.096085,-9326.594869,148.041188,383.047749
4061.096415,-9770.718434,0.000000,459.657299
4061.096745,-10214.842000,-222.061783,229.828649
4061.097075,-9770.718434,-222.061783,0.000000
4061.097404,-9326.594869,0.000000,229.828649
4061.097734,-9104.533087,-444.123565,0.000000
4061.098064,-9548.656652,0.000000,459.657299
4061.098394,-10288.862594,0.000000,612.876398
4061.098724,-10214.842000,0.000000,153.219100
4061.099054,-10066.800811,222.061783,536.266849
4061.099384,-9474.636058,148.041188,766.095498
4061.099714,-10066.800811,0.000000,1302.362347
4061.100043,-10658.965565,-296.082377,536.266849
4061.100373,-9770.718434,0.000000,-306.438199
4061.100703,-9400.615463,0.000000,-612.876398
4061.101033,-9474.636058,296.082377,-229.828649
4061.101362,-9844.739029,0.000000,383.047749
4061.101692,-10362.883188,0.000000,0.000000
4061.102022,-10066.800811,592.164754,0.000000
4061.102352,-9622.677246,148.041188,-536.266849
4061.102682,-9474.636058,-296.082377,0.000000
4061.103011,-9252.574275,-518.144159,689.485948
4061.103341,-9622.677246,-444.123565,459.657299
4061.103671,-9770.718434,0.000000,383.047749
4061.104001,-9918.759623,0.000000,229.828649
4061.104330,-9992.780217,-148.041188,536.266849
4061.104660,-9548.656652,74.020594,536.266849
4061.104990,-9918.759623,0.000000,229.828649
4061.105320,-10362.883188,148.041188,-306.438199
4061.105649,-9992.780217,74.020594,-76.609550
4061.105979,-9400.615463,0.000000,0.000000
4061.106309,-9474.636058,-74.020594,306.438199
4061.106639,-9918.759623,0.000000,689.485948
4061.106968,-9992.780217,0.000000,229.828649
4061.107298,-9696.697840,74.020594,-229.828649
4061.107628,-9252.574275,0.000000,-536.266849
4061.107958,-9474.636058,0.000000,153.219100
4061.108288,-10066.800811,222.061783,689.485948
4061.108617,-10362.883188,296.082377,536.266849
4061.108947,-9844.739029,666.185348,842.705048
4061.109277,-9696.697840,74.020594,536.266849
4061.109607,-9770.718434,222.061783,1072.533697
4061.109936,-10288.862594,0.000000,1608.800546
4061.110266,-10288.862594,-296.082377,536.266849
4061.110596,-10140.821405,148.041188,306.438199
4061.110926,-9252.574275,0.000000,229.828649
4061.111255,-9030.512492,74.020594,76.609550
4061.111585,-9474.636058,74.020594,612.876398
4061.111915,-9918.759623,296.082377,76.609550
4061.112245,-10436.903782,148.041188,0.000000
4061.112574,-9844.739029,222.061783,-229.828649
4061.112904,-9252.574275,0.000000,0.000000
4061.113234,-9474.636058,148.041188,919.314598
4061.113564,-10066.800811,-296.082377,612.876398
4061.113893,-9622.677246,-222.061783,383.047749
4061.114223,-9474.636058,0.000000,919.314598
4061.114553,-9030.512492,148.041188,995.924147
4061.114883,-9696.697840,0.000000,1072.533697
4061.115213,-10066.800811,0.000000,229.828649
4061.115542,-9918.759623,370.102971,-842.705048
4061.115872,-9548.656652,222.061783,-306.438199
4061.116202,-9548.656652,148.041188,-153.219100
4061.116532,-9474.636058,0.000000,0.000000
4061.116861,-9474.636058,74.020594,0.000000
4061.117191,-9548.656652,222.061783,-919.314598
4061.117521,-9548.656652,74.020594,-153.219100
4061.117851,-9844.739029,0.000000,0.000000
4061.118180,-9622.677246,-148.041188,76.609550
4061.118510,-9918.759623,0.000000,459.657299
4061.118840,-10214.842000,0.000000,995.924147
4061.119170,-10658.965565,296.082377,536.266849
4061.119499,-9770.718434,-370.102971,153.219100
4061.119829,-8956.491898,-296.082377,459.657299
4061.120159,-8882.471304,-296.082377,459.657299
4061.120489,-9992.780217,74.020594,153.219100
4061.120819,-10214.842000,148.041188,0.000000
4061.121148,-9548.656652,0.000000,-76.609550
4061.121478,-9326.594869,0.000000,-459.657299
4061.121808,-9918.759623,74.020594,-306.438199
4061.122138,-10510.924376,-222.061783,-383.047749
4061.122467,-9844.739029,222.061783,459.657299
4061.122797,-9178.553681,-296.082377,689.485948
4061.123127,-8882.471304,0.000000,1072.533697
4061.123457,-10066.800811,222.061783,1149.143247
4061.123786,-11029.068536,74.020594,612.876398
4061.124116,-10288.862594,0.000000,229.828649
4061.124446,-9474.636058,0.000000,459.657299
4061.124776,-9474.636058,0.000000,383.047749
4061.125105,-9622.677246,0.000000,459.657299
4061.125435,-9844.739029,74.020594,0.000000
4061.125765,-9770.718434,296.082377,-459.657299
4061.126095,-9548.656652,74.020594,-229.828649
4061.126424,-9252.574275,0.000000,0.000000
4061.126754,-9622.677246,148.041188,612.876398
4061.127084,-9918.759623,0.000000,536.266849
4061.127414,-9178.553681,0.000000,76.609550
4061.127744,-9548.656652,0.000000,383.047749
4061.128073,-9622.677246,-74.020594,689.485948
4061.128403,-9992.780217,296.082377,1532.190996
4061.128733,-10288.862594,296.082377,0.000000
4061.129063,-10362.883188,148.041188,0.000000
4061.129392,-9918.759623,444.123565,0.000000
4061.129722,-9548.656652,222.061783,0.000000
4061.130052,-9918.759623,592.164754,689.485948
4061.130382,-10288.862594,148.041188,0.000000
4061.130711,-10066.800811,-148.041188,-306.438199
4061.131041,-9326.594869,0.000000,0.000000
4061.131371,-9252.574275,0.000000,459.657299
4061.131701,-9474.636058,0.000000,1225.752797
4061.132030,-10732.986159,148.041188,229.828649
4061.132360,-10584.944971,222.061783,-536.266849
4061.132690,-9992.780217,370.102971,0.000000
4061.133020,-9844.739029,740.205942,0.000000
4061.133349,-9622.677246,148.041188,919.314598
4061.133679,-10066.800811,74.020594,229.828649
4061.134009,-9918.759623,296.082377,-766.095498
4061.134339,-9770.718434,296.082377,-536.266849
4061.134669,-9844.739029,0.000000,-153.219100
4061.134998,-9548.656652,0.000000,0.000000
4061.135328,-9770.718434,148.041188,0.000000
4061.135658,-9548.656652,0.000000,0.000000
4061.135988,-9474.636058,0.000000,612.876398
4061.136317,-9696.697840,0.000000,919.314598
4061.136647,-9696.697840,0.000000,995.924147
4061.136977,-9622.677246,0.000000,459.657299
4061.137307,-10436.903782,370.102971,0.000000
4061.137636,-10066.800811,296.082377,766.095498
4061.137966,-10214.842000,0.000000,766.095498
4061.138296,-9770.718434,0.000000,0.000000
4061.138626,-9474.636058,74.020594,229.828649
4061.138955,-9474.636058,148.041188,-306.438199
4061.139285,-9622.677246,148.041188,76.609550
4061.139615,-9326.594869,222.061783,383.047749
4061.139945,-9474.636058,148.041188,229.828649
4061.140275,-9918.759623,518.144159,229.828649
4061.140604,-10436.903782,148.041188,-76.609550
4061.140934,-10436.903782,74.020594,-229.828649
4061.141264,-9400.615463,-222.061783,0.000000
4061.141594,-9030.512492,-222.061783,383.047749
4061.141923,-9474.636058,74.020594,383.047749
4061.142253,-9992.780217,0.000000,306.438199
4061.142583,-9696.697840,74.020594,-153.219100
4061.142913,-9474.636058,444.123565,0.000000
4061.143242,-9844.739029,296.082377,153.219100
4061.143572,-9844.739029,74.020594,229.828649
4061.143902,-10288.862594,0.000000,612.876398
4061.144232,-9844.739029,0.000000,306.438199
4061.144561,-9770.718434,0.000000,0.000000
4061.144891,-9252.574275,0.000000,-153.219100
4061.145221,-9918.759623,148.041188,0.000000
4061.145551,-10066.800811,148.041188,76.609550
4061.145880,-10288.862594,74.020594,76.609550
4061.146210,-10066.800811,148.041188,612.876398
4061.146540,-9918.759623,0.000000,1072.533697
4061.146870,-9770.718434,0.000000,919.314598
4061.147200,-9696.697840,148.041188,0.000000
4061.147529,-9844.739029,148.041188,0.000000
4061.147859,-9770.718434,0.000000,0.000000
4061.148189,-9400.615463,0.000000,0.000000
4061.148519,-9696.697840,74.020594,689.485948
4061.148848,-9622.677246,-296.082377,0.000000
4061.149178,-9696.697840,0.000000,-383.047749
4061.149508,-9252.574275,-370.102971,0.000000
4061.149838,-9622.677246,-444.123565,383.047749
4061.150167,-9326.594869,-518.144159,1225.752797
4061.150497,-9548.656652,-888.247130,459.657299
4061.150827,-9696.697840,0.000000,0.000000
4061.151157,-9548.656652,-444.123565,0.000000
4061.151486,-9548.656652,0.000000,153.219100
4061.151816,-9992.780217,0.000000,153.219100
4061.152146,-10066.800811,0.000000,612.876398
4061.152476,-9918.759623,296.082377,-383.047749
4061.152806,-9696.697840,962.267725,0.000000
4061.153135,-9548.656652,296.082377,306.438199
4061.153465,-9844.739029,0.000000,0.000000
4061.153795,-10288.862594,148.041188,153.219100
4061.154125,-10362.883188,222.061783,153.219100
4061.154454,-9696.697840,444.123565,153.219100
4061.154784,-9622.677246,222.061783,306.438199
4061.155114,-9918.759623,370.102971,0.000000
4061.155444,-10362.883188,518.144159,0.000000
4061.155773,-10510.924376,666.185348,-229.828649
4061.156103,-9918.759623,444.123565,-153.219100
4061.156433,-9474.636058,148.041188,229.828649
4061.156763,-9696.697840,222.061783,383.047749
4061.157092,-10288.862594,592.164754,766.095498
4061.157422,-10140.821405,0.000000,153.219100
4061.157752,-9918.759623,148.041188,459.657299
4061.158082,-9400.615463,0.000000,689.485948
4061.158411,-9104.533087,0.000000,919.314598
4061.158741,-9548.656652,0.000000,1378.971896
4061.159071,-10288.862594,222.061783,766.095498
4061.159401,-10436.903782,518.144159,536.266849
4061.159731,-9918.759623,222.061783,306.438199
4061.160060,-9770.718434,370.102971,306.438199
4061.160390,-9696.697840,296.082377,383.047749
4061.160720,-10140.821405,296.082377,0.000000
4061.161050,-9770.718434,222.061783,0.000000
4061.161379,-9178.553681,518.144159,0.000000
4061.161709,-9178.553681,148.041188,-306.438199
4061.162039,-9400.615463,0.000000,229.828649
4061.162369,-10140.821405,0.000000,383.047749
4061.162698,-9770.718434,0.000000,153.219100
4061.163028,-9844.739029,-222.061783,306.438199
4061.163358,-9622.677246,0.000000,229.828649
4061.163688,-9548.656652,0.000000,612.876398
4061.164017,-9770.718434,74.020594,536.266849
4061.164347,-10436.903782,222.061783,689.485948
4061.164677,-10066.800811,222.061783,383.047749
4061.165007,-9400.615463,0.000000,0.000000
4061.165337,-9400.615463,-148.041188,76.609550
4061.165666,-9844.739029,0.000000,0.000000
4061.165996,-10214.842000,148.041188,-306.438199
4061.166326,-9696.697840,0.000000,-153.219100
4061.166656,-8956.491898,0.000000,-383.047749
4061.166985,-9622.677246,518.144159,536.266849
4061.167315,-10584.944971,148.041188,383.047749
4061.167645,-10807.006753,370.102971,689.485948
4061.167975,-9844.739029,222.061783,459.657299
4061.168304,-9474.636058,-148.041188,306.438199
4061.168634,-9992.780217,0.000000,536.266849
4061.168964,-10436.903782,-148.041188,842.705048
4061.169294,-10510.924376,-370.102971,383.047749
4061.169623,-9844.739029,-370.102971,383.047749
4061.169953,-9252.574275,-148.041188,153.219100
4061.170283,-9622.677246,0.000000,383.047749
4061.170613,-9548.656652,-296.082377,383.047749
4061.170942,-9770.718434,-74.020594,383.047749
4061.171272,-9992.780217,222.061783,995.924147
4061.171602,-9622.677246,-296.082377,612.876398
4061.171932,-9400.615463,0.000000,459.657299
4061.172262,-9770.718434,-222.061783,0.000000
4061.172591,-9844.739029,0.000000,76.609550
4061.172921,-9696.697840,0.000000,-153.219100
4061.173251,-9548.656652,148.041188,-229.828649
4061.173581,-9104.533087,-222.061783,229.828649
4061.173910,-9622.677246,296.082377,842.705048
4061.174240,-10510.924376,444.123565,153.219100
4061.174570,-10214.842000,296.082377,-306.438199
4061.174900,-9622.677246,222.061783,0.000000
4061.175229,-9548.656652,0.000000,383.047749
4061.175559,-9992.780217,74.020594,1072.533697
4061.175889,-10214.842000,74.020594,383.047749
4061.176219,-10288.862594,222.061783,-153.219100
4061.176548,-9696.697840,148.041188,0.000000
4061.176878,-9326.594869,0.000000,-306.438199
4061.177208,-9770.718434,148.041188,76.609550
4061.177538,-10436.903782,74.020594,689.485948
4061.177868,-10362.883188,0.000000,612.876398
4061.178197,-9622.677246,-444.123565,689.485948
4061.178527,-9548.656652,-370.102971,919.314598
4061.178857,-9844.739029,0.000000,689.485948
4061.179187,-10214.842000,-296.082377,919.314598
4061.179516,-9770.718434,-370.102971,689.485948
4061.179846,-9400.615463,370.102971,612.876398
4061.180176,-9400.615463,222.061783,612.876398
4061.180506,-9400.615463,296.082377,689.485948
4061.180835,-9622.677246,370.102971,0.000000
4061.181165,-9474.636058,740.205942,-536.266849
4061.181495,-10140.821405,222.061783,-536.266849
4061.181825,-9770.718434,148.041188,153.219100
4061.182154,-9844.739029,-444.123565,766.095498
4061.182484,-10288.862594,-370.102971,919.314598
4061.182814,-9992.780217,-296.082377,383.047749
4061.183144,-9474.636058,296.082377,229.828649
4061.183473,-9548.656652,296.082377,689.485948
4061.183803,-9918.759623,370.102971,766.095498
4061.184133,-10362.883188,592.164754,459.657299
4061.184463,-10066.800811,666.185348,-536.266849
4061.184793,-9918.759623,666.185348,-842.705048
4061.185122,-9770.718434,148.041188,-689.485948
4061.185452,-9326.594869,-148.041188,76.609550
4061.185782,-9622.677246,-222.061783,536.266849
4061.186112,-9696.697840,0.000000,306.438199
4061.186441,-9696.697840,0.000000,536.266849
4061.186771,-9474.636058,0.000000,919.314598
4061.187101,-9622.677246,222.061783,1072.533697
4061.187431,-10732.986159,444.123565,1532.190996
4061.187760,-11103.089130,370.102971,842.705048
4061.188090,-10140.821405,-444.123565,0.000000
4061.188420,-9326.594869,-222.061783,76.609550
4061.188750,-8882.471304,-370.102971,153.219100
4061.189079,-9622.677246,74.020594,766.095498
4061.189409,-9474.636058,0.000000,0.000000
4061.189739,-9696.697840,444.123565,0.000000
4061.190069,-10066.800811,148.041188,-306.438199
4061.190399,-10066.800811,148.041188,306.438199
4061.190728,-9696.697840,0.000000,919.314598
4061.191058,-9622.677246,518.144159,306.438199
4061.191388,-9622.677246,0.000000,0.000000
4061.191718,-9992.780217,0.000000,-612.876398
4061.192047,-9770.718434,0.000000,0.000000
4061.192377,-9696.697840,148.041188,153.219100
4061.192707,-10214.842000,74.020594,153.219100
4061.193037,-9918.759623,0.000000,0.000000
4061.193366,-9992.780217,-222.061783,0.000000
4061.193696,-9178.553681,-296.082377,306.438199
4061.194026,-9622.677246,-296.082377,842.705048
4061.194356,-10362.883188,-222.061783,76.609550
4061.194685,-9918.759623,-148.041188,-536.266849
4061.195015,-9400.615463,-148.041188,0.000000
4061.195345,-9030.512492,0.000000,229.828649
4061.195675,-9918.759623,0.000000,1455.581446
4061.196004,-10362.883188,0.000000,766.095498
4061.196334,-10214.842000,0.000000,0.000000
4061.196664,-9844.739029,888.247130,-459.657299
4061.196994,-9844.739029,0.000000,153.219100
4061.197324,-10140.821405,148.041188,459.657299
4061.197653,-10066.800811,0.000000,612.876398
4061.197983,-9622.677246,0.000000,76.609550
4061.198313,-9622.677246,518.144159,-229.828649
4061.198643,-9474.636058,148.041188,-153.219100
4061.198972,-9992.780217,0.000000,459.657299
4061.199302,-10362.883188,0.000000,536.266849
4061.199632,-9548.656652,222.061783,842.705048
4061.199962,-9400.615463,0.000000,766.095498
4061.200291,-9548.656652,0.000000,842.705048
4061.200621,-9326.594869,-518.144159,995.924147
4061.200951,-9992.780217,0.000000,1072.533697
4061.201281,-9622.677246,0.000000,-229.828649
4061.201610,-9178.553681,-148.041188,0.000000
4061.201940,-9252.574275,0.000000,689.485948
4061.202270,-9548.656652,148.041188,1455.581446
4061.202600,-10288.862594,444.123565,919.314598
4061.202929,-10362.883188,222.061783,-766.095498
4061.203259,-9918.759623,74.020594,-1225.752797
4061.203589,-9400.615463,0.000000,-842.705048
4061.203919,-8438.347739,0.000000,459.657299
4061.204248,-9474.636058,222.061783,306.438199
4061.204578,-10214.842000,0.000000,-229.828649
4061.204908,-10140.821405,0.000000,-536.266849
4061.205238,-9326.594869,148.041188,-306.438199
4061.205567,-9548.656652,0.000000,306.438199
4061.205897,-10066.800811,0.000000,995.924147
4061.206227,-10362.883188,222.061783,919.314598
4061.206557,-10362.883188,296.082377,612.876398
4061.206886,-9770.718434,0.000000,383.047749
4061.207216,-9622.677246,0.000000,153.219100
4061.207546,-10140.821405,222.061783,306.438199
4061.207876,-10658.965565,0.000000,153.219100
4061.208205,-9918.759623,-74.020594,0.000000
4061.208535,-9474.636058,148.041188,76.609550
4061.208865,-9474.636058,148.041188,76.609550
4061.209195,-9918.759623,222.061783,153.219100
4061.209524,-9622.677246,148.041188,-919.314598
4061.209854,-9252.574275,148.041188,-153.219100
4061.210184,-9252.574275,74.020594,76.609550
4061.210514,-9326.594869,0.000000,919.314598
4061.210843,-9770.718434,296.082377,995.924147
4061.211173,-9992.780217,0.000000,306.438199
4061.211503,-10214.842000,370.102971,-229.828649
4061.211833,-10584.944971,222.061783,153.219100
4061.212162,-9844.739029,0.000000,459.657299
4061.212492,-9400.615463,74.020594,842.705048
4061.212822,-9252.574275,222.061783,153.219100
4061.213152,-9548.656652,370.102971,-306.438199
4061.213481,-9696.697840,370.102971,0.000000
4061.213811,-9548.656652,222.061783,0.000000
4061.214141,-9696.697840,148.041188,0.000000
4061.214471,-10140.821405,0.000000,-612.876398
4061.214800,-9918.759623,222.061783,-536.266849
4061.215130,-9474.636058,148.041188,459.657299
4061.215460,-9844.739029,148.041188,612.876398
4061.215790,-9770.718434,0.000000,1072.533697
4061.216119,-10066.800811,74.020594,536.266849
4061.216449,-10288.862594,0.000000,153.219100
4061.216779,-10066.800811,74.020594,1072.533697
4061.217109,-9844.739029,74.020594,306.438199
4061.217438,-9252.574275,-296.082377,0.000000
