#time,accel_x,accel_y,accel_z
4025.666666,-8142.265362,-1850.514855,1838.629195
4025.666995,-7698.141797,-1554.432478,1685.410096
4025.667325,-8364.327145,-1184.329507,1991.848295
4025.667655,-9696.697840,-148.041188,1838.629195
4025.667985,-10584.944971,148.041188,2528.115143
4025.668315,-10362.883188,888.247130,995.924147
4025.668645,-11103.089130,888.247130,2068.457845
4025.668975,-10140.821405,444.123565,1838.629195
4025.669305,-9400.615463,0.000000,1072.533697
4025.669635,-8142.265362,222.061783,1378.971896
4025.669965,-9400.615463,0.000000,766.095498
4025.670295,-9770.718434,-370.102971,995.924147
4025.670625,-9104.533087,-296.082377,383.047749
4025.670955,-9326.594869,0.000000,459.657299
4025.671285,-9844.739029,0.000000,1302.362347
4025.671615,-10955.047942,-222.061783,1378.971896
4025.671944,-10732.986159,-518.144159,1838.629195
4025.672274,-10436.903782,-888.247130,2757.943793
4025.672604,-10510.924376,-296.082377,3907.087040
4025.672934,-10362.883188,-592.164754,3830.477490
4025.673264,-9918.759623,-740.205942,2451.505594
4025.673594,-9992.780217,-370.102971,2145.067394
4025.673924,-10955.047942,74.020594,2451.505594
4025.674254,-11547.212695,-814.226536,2451.505594
4025.674584,-10140.821405,-814.226536,1762.019645
4025.674914,-8364.327145,-1554.432478,0.000000
4025.675244,-8438.347739,-1776.494261,76.609550
4025.675574,-8882.471304,-2294.638420,1915.238745
4025.675904,-9326.594869,-2368.659014,3064.381992
4025.676234,-9622.677246,-2072.576638,3907.087040
4025.676564,-9992.780217,-2664.741391,3983.696590
4025.676893,-10658.965565,-2146.597232,4213.525239
4025.677223,-10955.047942,-2368.659014,3064.381992
4025.677553,-9622.677246,-2664.741391,4136.915689
4025.677883,-12805.562797,-2960.823768,3524.039291
4025.678213,-10881.027347,-2516.700203,2374.896044
4025.678543,-7994.224174,-3330.926739,2451.505594
4025.678873,-8808.450710,-3923.091493,1762.019645
4025.679203,-8808.450710,-3923.091493,2987.772442
4025.679533,-10658.965565,-4071.132681,5056.230287
4025.679863,-9474.636058,-4145.153275,4903.011187
4025.680193,-8882.471304,-4145.153275,2604.724693
4025.680523,-9770.718434,-3997.112087,2068.457845
4025.680853,-10584.944971,-3404.947333,2374.896044
4025.681183,-11251.130318,-3182.885551,2757.943793
4025.681512,-11325.150913,-3256.906145,3677.258390
4025.681842,-10288.862594,-3256.906145,3140.991542
4025.682172,-9918.759623,-3997.112087,2604.724693
4025.682502,-9326.594869,-4737.318029,2145.067394
4025.682832,-8734.430116,-5921.647536,3753.867940
4025.683162,-9178.553681,-5551.544565,5515.887586
4025.683492,-9548.656652,-5329.482782,5286.058936
4025.683822,-9400.615463,-4737.318029,3677.258390
4025.684152,-9918.759623,-4145.153275,1532.190996
4025.684482,-10510.924376,-3478.967927,919.314598
4025.684812,-11251.130318,-2886.803174,2068.457845
4025.685142,-10140.821405,-3256.906145,1149.143247
4025.685472,-8808.450710,-3552.988522,1149.143247
4025.685802,-7994.224174,-4219.173869,2145.067394
4025.686132,-9400.615463,-4293.194464,2987.772442
4025.686461,-9622.677246,-4367.215058,2834.553343
4025.686791,-9474.636058,-4737.318029,1302.362347
4025.687121,-9252.574275,-4515.256246,383.047749
4025.687451,-9326.594869,-3849.070898,1915.238745
4025.687781,-9992.780217,-2738.761985,3140.991542
4025.688111,-10510.924376,-1776.494261,3140.991542
4025.688441,-10436.903782,-1332.370696,1915.238745
4025.688771,-10732.986159,-1332.370696,229.828649
4025.689101,-10955.047942,-1184.329507,0.000000
4025.689431,-10807.006753,-1110.308913,536.266849
4025.689761,-10066.800811,-1036.288319,1149.143247
4025.690091,-9326.594869,-1258.350101,1378.971896
4025.690421,-9622.677246,-1258.350101,842.705048
4025.690751,-9622.677246,-444.123565,153.219100
4025.691080,-9918.759623,74.020594,536.266849
4025.691410,-10732.986159,222.061783,1685.410096
4025.691740,-10732.986159,740.205942,1685.410096
4025.692070,-10881.027347,1184.329507,459.657299
4025.692400,-10584.944971,1110.308913,459.657299
4025.692730,-10732.986159,1036.288319,-919.314598
4025.693060,-9696.697840,962.267725,-995.924147
4025.693390,-9326.594869,962.267725,0.000000
4025.693720,-9400.615463,1258.350101,1072.533697
4025.694050,-9104.533087,1628.453072,1532.190996
4025.694380,-9474.636058,2146.597232,229.828649
4025.694709,-9104.533087,2220.617826,-995.924147
4025.695039,-9770.718434,2368.659014,-2298.286494
4025.695369,-10214.842000,2294.638420,-1532.190996
4025.695699,-9844.739029,2368.659014,-383.047749
4025.696029,-8956.491898,2146.597232,536.266849
4025.696359,-8586.388927,2368.659014,459.657299
4025.696689,-9474.636058,2442.679609,-153.219100
4025.697019,-9770.718434,2960.823768,-1149.143247
4025.697349,-9548.656652,3108.864956,-1532.190996
4025.697679,-9030.512492,3034.844362,-1225.752797
4025.698009,-9474.636058,3256.906145,153.219100
4025.698339,-10362.883188,3256.906145,306.438199
4025.698668,-10584.944971,3034.844362,-612.876398
4025.698998,-9918.759623,2590.720797,-2681.334243
4025.699328,-9326.594869,2516.700203,-3677.258390
4025.699658,-9104.533087,2886.803174,-3140.991542
4025.699988,-9400.615463,2960.823768,-1608.800546
4025.700318,-9844.739029,2960.823768,536.266849
4025.700648,-10955.047942,2812.782580,1378.971896
4025.700978,-11399.171507,2442.679609,766.095498
4025.701308,-10955.047942,1998.556043,-919.314598
4025.701638,-10288.862594,1332.370696,-1225.752797
4025.701968,-10288.862594,888.247130,-459.657299
4025.702298,-9548.656652,148.041188,842.705048
4025.702627,-9252.574275,74.020594,1072.533697
4025.702957,-8956.491898,74.020594,1149.143247
4025.703287,-9252.574275,0.000000,383.047749
4025.703617,-9770.718434,-296.082377,-612.876398
4025.703947,-9252.574275,-518.144159,-459.657299
4025.704277,-9474.636058,-592.164754,612.876398
4025.704607,-9326.594869,-1332.370696,2068.457845
4025.704937,-8956.491898,-1850.514855,2451.505594
4025.705267,-9104.533087,-1998.556043,2451.505594
4025.705597,-10214.842000,-1776.494261,1225.752797
4025.705927,-10362.883188,-2146.597232,0.000000
4025.706256,-9622.677246,-1850.514855,-76.609550
4025.706586,-8364.327145,-2294.638420,229.828649
4025.706916,-8808.450710,-1776.494261,1455.581446
4025.707246,-9696.697840,-1850.514855,2451.505594
4025.707576,-10881.027347,-1924.535449,1838.629195
4025.707906,-10658.965565,-1998.556043,306.438199
4025.708236,-10214.842000,-2590.720797,-383.047749
4025.708566,-10584.944971,-2664.741391,306.438199
4025.708896,-10658.965565,-2664.741391,1685.410096
4025.709226,-9548.656652,-2960.823768,2528.115143
4025.709556,-9030.512492,-2886.803174,2911.162892
4025.709886,-9696.697840,-2442.679609,2068.457845
4025.710215,-10214.842000,-2516.700203,689.485948
4025.710545,-10658.965565,-2516.700203,919.314598
4025.710875,-9844.739029,-2442.679609,1378.971896
4025.711205,-9474.636058,-2072.576638,1225.752797
4025.711535,-9474.636058,-1998.556043,1455.581446
4025.711865,-9918.759623,-1628.453072,1302.362347
4025.712195,-10584.944971,-1998.556043,383.047749
4025.712525,-10658.965565,-1184.329507,-536.266849
4025.712855,-10436.903782,-1110.308913,-1225.752797
4025.713185,-9844.739029,-740.205942,-459.657299
4025.713515,-9770.718434,-592.164754,383.047749
4025.713844,-9696.697840,-444.123565,995.924147
4025.714174,-9400.615463,-740.205942,842.705048
4025.714504,-9326.594869,-592.164754,766.095498
4025.714834,-9400.615463,-74.020594,0.000000
4025.715164,-9770.718434,0.000000,-842.705048
4025.715494,-9770.718434,0.000000,-383.047749
4025.715824,-8956.491898,444.123565,0.000000
4025.716154,-9474.636058,296.082377,689.485948
4025.716484,-9696.697840,444.123565,919.314598
4025.716814,-9770.718434,740.205942,766.095498
4025.717144,-9696.697840,592.164754,-383.047749
4025.717474,-8734.430116,666.185348,-1302.362347
4025.717803,-9918.759623,1406.391290,-459.657299
4025.718133,-9770.718434,1258.350101,306.438199
4025.718463,-9030.512492,1628.453072,153.219100
4025.718793,-9326.594869,1924.535449,459.657299
4025.719123,-9918.759623,2294.638420,-153.219100
4025.719453,-9918.759623,2294.638420,-995.924147
4025.719783,-10066.800811,2368.659014,-1378.971896
4025.720113,-9474.636058,2368.659014,-1378.971896
4025.720443,-9474.636058,2294.638420,-612.876398
4025.720773,-8882.471304,2294.638420,-689.485948
4025.721103,-9326.594869,2072.576638,0.000000
4025.721432,-9400.615463,1850.514855,-612.876398
4025.721762,-9548.656652,1924.535449,-1302.362347
4025.722092,-9326.594869,2368.659014,-2451.505594
4025.722422,-9696.697840,2368.659014,-919.314598
4025.722752,-9992.780217,2368.659014,-459.657299
4025.723082,-9918.759623,2072.576638,0.000000
4025.723412,-10140.821405,2072.576638,459.657299
4025.723742,-10436.903782,2072.576638,153.219100
4025.724072,-10584.944971,2220.617826,-1072.533697
4025.724402,-9844.739029,2146.597232,-1915.238745
4025.724732,-9326.594869,1924.535449,-1685.410096
4025.725062,-9474.636058,1776.494261,-1149.143247
4025.725391,-9770.718434,1406.391290,306.438199
4025.725721,-10436.903782,1406.391290,919.314598
4025.726051,-10214.842000,962.267725,229.828649
4025.726381,-9770.718434,814.226536,-1685.410096
4025.726711,-9844.739029,296.082377,-842.705048
4025.727041,-10066.800811,444.123565,459.657299
4025.727371,-10362.883188,0.000000,1838.629195
4025.727701,-9844.739029,444.123565,2145.067394
4025.728031,-9844.739029,-296.082377,1685.410096
4025.728361,-10140.821405,-444.123565,842.705048
4025.728691,-10140.821405,-962.267725,-536.266849
4025.729020,-9474.636058,-666.185348,-1072.533697
4025.729350,-8808.450710,-814.226536,-459.657299
4025.729680,-9030.512492,-1258.350101,536.266849
4025.730010,-9178.553681,-1258.350101,1302.362347
4025.730340,-9770.718434,-740.205942,1532.190996
4025.730670,-9770.718434,-1036.288319,306.438199
4025.731000,-10732.986159,-888.247130,76.609550
4025.731330,-10436.903782,-1702.473667,306.438199
4025.731660,-9696.697840,-1850.514855,1378.971896
4025.731990,-9474.636058,-1850.514855,2068.457845
4025.732320,-9030.512492,-1998.556043,2374.896044
4025.732650,-9770.718434,-1702.473667,1455.581446
4025.732979,-9622.677246,-1406.391290,0.000000
4025.733309,-9918.759623,-1258.350101,-995.924147
4025.733639,-9844.739029,-1332.370696,-1225.752797
4025.733969,-9474.636058,-1332.370696,229.828649
4025.734299,-9400.615463,-1924.535449,1762.019645
4025.734629,-9474.636058,-1628.453072,1915.238745
4025.734959,-9622.677246,-1332.370696,1762.019645
4025.735289,-9474.636058,-1776.494261,383.047749
4025.735619,-9992.780217,-1850.514855,459.657299
4025.735949,-10214.842000,-1480.411884,1225.752797
4025.736279,-10436.903782,-962.267725,2451.505594
4025.736608,-9548.656652,-888.247130,2451.505594
4025.736938,-9104.533087,-1036.288319,2298.286494
4025.737268,-9622.677246,-666.185348,612.876398
4025.737598,-10584.944971,-518.144159,-229.828649
4025.737928,-10584.944971,-296.082377,-995.924147
4025.738258,-9474.636058,-740.205942,-689.485948
4025.738588,-9104.533087,-888.247130,153.219100
4025.738918,-9474.636058,-814.226536,1225.752797
4025.739248,-9770.718434,-370.102971,1225.752797
4025.739578,-9548.656652,-518.144159,383.047749
4025.739908,-9252.574275,-370.102971,0.000000
4025.740238,-9696.697840,-444.123565,-76.609550
4025.740567,-9770.718434,0.000000,76.609550
4025.740897,-10214.842000,222.061783,1762.019645
4025.741227,-9770.718434,518.144159,1378.971896
4025.741557,-9918.759623,666.185348,842.705048
4025.741887,-10066.800811,962.267725,-536.266849
4025.742217,-9474.636058,962.267725,-1762.019645
4025.742547,-9622.677246,962.267725,-2298.286494
4025.742877,-9474.636058,1110.308913,-1378.971896
4025.743207,-9252.574275,1184.329507,-612.876398
4025.743537,-9030.512492,1036.288319,-383.047749
4025.743867,-10066.800811,1258.350101,0.000000
4025.744197,-10362.883188,1332.370696,-306.438199
4025.744526,-9918.759623,1184.329507,-995.924147
4025.744856,-9474.636058,962.267725,-1455.581446
4025.745186,-9622.677246,1110.308913,229.828649
4025.745516,-10140.821405,1184.329507,995.924147
4025.745846,-9844.739029,1332.370696,612.876398
4025.746176,-9918.759623,1850.514855,229.828649
4025.746506,-10510.924376,1628.453072,-383.047749
4025.746836,-10436.903782,1628.453072,-1225.752797
4025.747166,-9918.759623,1480.411884,-1378.971896
4025.747496,-9326.594869,1406.391290,-1608.800546
4025.747826,-8586.388927,740.205942,-689.485948
4025.748155,-9030.512492,888.247130,229.828649
4025.748485,-9474.636058,888.247130,76.609550
4025.748815,-9770.718434,1184.329507,-536.266849
4025.749145,-9474.636058,888.247130,-766.095498
4025.749475,-9770.718434,814.226536,-842.705048
4025.749805,-10066.800811,740.205942,153.219100
4025.750135,-10288.862594,1036.288319,1072.533697
4025.750465,-9474.636058,1036.288319,1838.629195
4025.750795,-9696.697840,814.226536,689.485948
4025.751125,-9770.718434,444.123565,-153.219100
4025.751455,-9992.780217,740.205942,-842.705048
4025.751785,-9918.759623,666.185348,-1378.971896
4025.752114,-9770.718434,666.185348,-459.657299
4025.752444,-9326.594869,222.061783,306.438199
4025.752774,-9104.533087,-296.082377,383.047749
4025.753104,-9844.739029,0.000000,842.705048
4025.753434,-9992.780217,296.082377,306.438199
4025.753764,-9992.780217,-370.102971,-153.219100
4025.754094,-9770.718434,-296.082377,76.609550
4025.754424,-9770.718434,-296.082377,1149.143247
4025.754754,-9770.718434,0.000000,2145.067394
4025.755084,-10214.842000,-222.061783,1838.629195
4025.755414,-9844.739029,-444.123565,689.485948
4025.755743,-9918.759623,-518.144159,0.000000
4025.756073,-9992.780217,-518.144159,-153.219100
4025.756403,-9770.718434,-814.226536,153.219100
4025.756733,-9400.615463,-740.205942,306.438199
4025.757063,-8956.491898,-1184.329507,229.828649
4025.757393,-9622.677246,-888.247130,1149.143247
4025.757723,-10436.903782,-1036.288319,1225.752797
4025.758053,-10140.821405,-666.185348,459.657299
4025.758383,-9622.677246,-1258.350101,536.266849
4025.758713,-9104.533087,-1036.288319,383.047749
4025.759043,-9992.780217,-740.205942,1225.752797
4025.759373,-10066.800811,-962.267725,1685.410096
4025.759702,-9918.759623,-962.267725,1149.143247
4025.760032,-9918.759623,-1110.308913,536.266849
4025.760362,-10140.821405,-592.164754,306.438199
4025.760692,-10140.821405,-814.226536,76.609550
4025.761022,-9474.636058,-1184.329507,0.000000
4025.761352,-9474.636058,-1036.288319,612.876398
4025.761682,-9326.594869,-814.226536,1302.362347
4025.762012,-9696.697840,-592.164754,1915.238745
4025.762342,-10362.883188,-592.164754,1378.971896
4025.762672,-10140.821405,-740.205942,612.876398
4025.763002,-10140.821405,-740.205942,-229.828649
4025.763331,-9918.759623,-296.082377,0.000000
4025.763661,-10362.883188,-296.082377,766.095498
4025.763991,-9918.759623,-444.123565,689.485948
4025.764321,-9548.656652,-370.102971,612.876398
4025.764651,-9696.697840,74.020594,-689.485948
4025.764981,-9770.718434,-222.061783,-612.876398
4025.765311,-9992.780217,0.000000,-689.485948
4025.765641,-9844.739029,0.000000,0.000000
4025.765971,-10066.800811,0.000000,536.266849
4025.766301,-9548.656652,0.000000,995.924147
4025.766631,-9770.718434,0.000000,1072.533697
4025.766961,-10066.800811,222.061783,459.657299
4025.767290,-9696.697840,0.000000,153.219100
4025.767620,-9400.615463,74.020594,0.000000
4025.767950,-9474.636058,222.061783,0.000000
4025.768280,-9770.718434,666.185348,536.266849
4025.768610,-9474.636058,1110.308913,306.438199
4025.768940,-9178.553681,740.205942,536.266849
4025.769270,-9844.739029,1110.308913,-766.095498
4025.769600,-9918.759623,1184.329507,-1455.581446
4025.769930,-10140.821405,888.247130,-1685.410096
4025.770260,-9696.697840,666.185348,-1378.971896
4025.770590,-9252.574275,814.226536,-459.657299
4025.770919,-8882.471304,592.164754,-76.609550
4025.771249,-9326.594869,592.164754,0.000000
4025.771579,-9474.636058,740.205942,0.000000
4025.771909,-9474.636058,1110.308913,-459.657299
4025.772239,-9622.677246,1184.329507,0.000000
4025.772569,-10214.842000,1258.350101,153.219100
4025.772899,-10658.965565,1628.453072,306.438199
4025.773229,-10140.821405,1702.473667,459.657299
4025.773559,-9844.739029,962.267725,-229.828649
4025.773889,-9548.656652,1480.411884,-842.705048
4025.774219,-9622.677246,1258.350101,-1072.533697
4025.774549,-10066.800811,1776.494261,-995.924147
4025.774878,-10214.842000,1554.432478,-689.485948
4025.775208,-10214.842000,1110.308913,-306.438199
4025.775538,-9992.780217,740.205942,612.876398
4025.775868,-10288.862594,592.164754,842.705048
4025.776198,-9770.718434,222.061783,919.314598
4025.776528,-9400.615463,0.000000,459.657299
4025.776858,-9104.533087,-74.020594,153.219100
4025.777188,-9844.739029,148.041188,1302.362347
4025.777518,-10066.800811,296.082377,1685.410096
4025.777848,-9918.759623,518.144159,1455.581446
4025.778178,-10362.883188,444.123565,1149.143247
4025.778507,-10066.800811,-222.061783,536.266849
4025.778837,-9548.656652,0.000000,0.000000
4025.779167,-9474.636058,-370.102971,-536.266849
4025.779497,-8808.450710,-592.164754,-229.828649
4025.779827,-8660.409521,-962.267725,459.657299
4025.780157,-9030.512492,-666.185348,689.485948
4025.780487,-9622.677246,-370.102971,536.266849
4025.780817,-9992.780217,-148.041188,536.266849
4025.781147,-10214.842000,-370.102971,229.828649
4025.781477,-10140.821405,-740.205942,766.095498
4025.781807,-10140.821405,-814.226536,689.485948
4025.782137,-9622.677246,-962.267725,1225.752797
4025.782466,-9844.739029,-814.226536,1302.362347
4025.782796,-9918.759623,-666.185348,1072.533697
4025.783126,-9918.759623,-518.144159,536.266849
4025.783456,-10510.924376,-666.185348,0.000000
4025.783786,-9770.718434,-666.185348,-306.438199
4025.784116,-9548.656652,-814.226536,612.876398
4025.784446,-9474.636058,-592.164754,766.095498
4025.784776,-9918.759623,-814.226536,919.314598
4025.785106,-10214.842000,-518.144159,1072.533697
4025.785436,-9696.697840,-1036.288319,383.047749
4025.785766,-9548.656652,-962.267725,0.000000
4025.786095,-9548.656652,-666.185348,76.609550
4025.786425,-10140.821405,-296.082377,995.924147
4025.786755,-10288.862594,-74.020594,995.924147
4025.787085,-9992.780217,-296.082377,919.314598
4025.787415,-9474.636058,0.000000,459.657299
4025.787745,-9770.718434,-518.144159,0.000000
4025.788075,-9844.739029,-592.164754,0.000000
4025.788405,-9252.574275,-518.144159,-229.828649
4025.788738,-9030.512492,-148.041188,76.609550
4025.789068,-8882.471304,-518.144159,612.876398
4025.789398,-9178.553681,-370.102971,766.095498
4025.789728,-9844.739029,74.020594,536.266849
4025.790058,-9992.780217,0.000000,76.609550
4025.790387,-9918.759623,0.000000,0.000000
4025.790717,-9844.739029,-370.102971,-306.438199
4025.791047,-9992.780217,148.041188,459.657299
4025.791377,-9548.656652,0.000000,306.438199
4025.791706,-8882.471304,370.102971,383.047749
4025.792036,-9178.553681,222.061783,0.000000
4025.792366,-9992.780217,444.123565,-306.438199
4025.792696,-9918.759623,444.123565,-919.314598
4025.793026,-9548.656652,370.102971,-612.876398
4025.793355,-9252.574275,518.144159,-306.438199
4025.793685,-9178.553681,518.144159,0.000000
4025.794015,-9696.697840,814.226536,383.047749
4025.794345,-10066.800811,592.164754,0.000000
4025.794674,-10140.821405,1036.288319,0.000000
4025.795004,-9918.759623,888.247130,-153.219100
4025.795334,-10214.842000,740.205942,229.828649
4025.795664,-10288.862594,888.247130,536.266849
4025.795994,-9622.677246,666.185348,612.876398
4025.796323,-9548.656652,1184.329507,459.657299
4025.796653,-9548.656652,962.267725,306.438199
4025.796983,-10362.883188,1480.411884,229.828649
4025.797313,-10214.842000,1628.453072,-689.485948
4025.797642,-10214.842000,1332.370696,-689.485948
4025.797972,-9622.677246,666.185348,-459.657299
4025.798302,-9992.780217,666.185348,383.047749
4025.798632,-9918.759623,814.226536,1378.971896
4025.798962,-9548.656652,0.000000,1455.581446
4025.799291,-8660.409521,222.061783,612.876398
4025.799621,-8956.491898,222.061783,-383.047749
4025.799951,-9474.636058,814.226536,76.609550
4025.800281,-9844.739029,1036.288319,153.219100
4025.800610,-9992.780217,962.267725,306.438199
4025.800940,-9696.697840,740.205942,536.266849
4025.801270,-10214.842000,444.123565,383.047749
4025.801600,-9770.718434,740.205942,-766.095498
4025.801930,-9474.636058,0.000000,-1225.752797
4025.802259,-9400.615463,0.000000,-919.314598
4025.802589,-9178.553681,-370.102971,153.219100
4025.802919,-9474.636058,0.000000,1225.752797
4025.803249,-9770.718434,0.000000,1838.629195
4025.803578,-9770.718434,-518.144159,1302.362347
4025.803908,-9696.697840,-518.144159,0.000000
4025.804238,-9770.718434,-370.102971,-842.705048
4025.804568,-9992.780217,-222.061783,-612.876398
4025.804898,-10140.821405,-74.020594,0.000000
4025.805227,-9622.677246,0.000000,612.876398
4025.805557,-10066.800811,-148.041188,689.485948
4025.805887,-10510.924376,0.000000,459.657299
4025.806217,-10436.903782,-148.041188,-383.047749
4025.806546,-10140.821405,-296.082377,-1149.143247
4025.806876,-9696.697840,-444.123565,-689.485948
4025.807206,-9252.574275,-444.123565,-766.095498
4025.807536,-9400.615463,-888.247130,1225.752797
4025.807866,-9696.697840,-444.123565,1838.629195
4025.808195,-9844.739029,-370.102971,1302.362347
4025.808525,-9992.780217,-666.185348,-459.657299
4025.808855,-9844.739029,-444.123565,0.000000
4025.809185,-10214.842000,-148.041188,842.705048
4025.809514,-10436.903782,-740.205942,1302.362347
4025.809844,-9548.656652,-888.247130,919.314598
4025.810174,-9252.574275,-518.144159,842.705048
4025.810504,-9548.656652,-592.164754,153.219100
4025.810834,-9844.739029,-148.041188,-612.876398
4025.811163,-9696.697840,-444.123565,-842.705048
4025.811493,-8882.471304,0.000000,-1225.752797
4025.811823,-9030.512492,-740.205942,229.828649
4025.812153,-9770.718434,-444.123565,1455.581446
4025.812482,-10510.924376,-444.123565,1532.190996
4025.812812,-9992.780217,0.000000,1072.533697
4025.813142,-9474.636058,-740.205942,-229.828649
4025.813472,-9474.636058,-740.205942,0.000000
4025.813802,-10288.862594,-148.041188,459.657299
4025.814131,-9770.718434,-222.061783,1378.971896
4025.814461,-9474.636058,0.000000,1302.362347
4025.814791,-9844.739029,148.041188,1149.143247
4025.815121,-10288.862594,0.000000,459.657299
4025.815450,-9918.759623,74.020594,-995.924147
4025.815780,-9474.636058,296.082377,-1149.143247
4025.816110,-9252.574275,296.082377,-229.828649
4025.816440,-9178.553681,0.000000,459.657299
4025.816770,-10140.821405,148.041188,1072.533697
4025.817099,-9918.759623,666.185348,1072.533697
4025.817429,-10066.800811,518.144159,229.828649
4025.817759,-9696.697840,148.041188,-383.047749
4025.818089,-10288.862594,444.123565,-306.438199
4025.818418,-10584.944971,592.164754,229.828649
4025.818748,-10066.800811,592.164754,1072.533697
4025.819078,-9548.656652,814.226536,1149.143247
4025.819408,-9400.615463,814.226536,0.000000
4025.819738,-9844.739029,740.205942,-306.438199
4025.820067,-10066.800811,962.267725,-766.095498
4025.820397,-10066.800811,518.144159,-1302.362347
4025.820727,-9400.615463,666.185348,-766.095498
4025.821057,-9252.574275,74.020594,0.000000
4025.821387,-9770.718434,814.226536,1762.019645
4025.821716,-10362.883188,222.061783,1149.143247
4025.822046,-9622.677246,222.061783,0.000000
4025.822376,-9474.636058,0.000000,-383.047749
4025.822706,-9992.780217,74.020594,229.828649
4025.823035,-10214.842000,444.123565,1225.752797
4025.823365,-9622.677246,666.185348,1072.533697
4025.823695,-9474.636058,666.185348,1072.533697
4025.824025,-9770.718434,518.144159,0.000000
4025.824355,-10288.862594,518.144159,-995.924147
4025.824684,-10066.800811,740.205942,-1762.019645
4025.825014,-9548.656652,444.123565,-1685.410096
4025.825344,-9178.553681,148.041188,-766.095498
4025.825674,-9178.553681,0.000000,153.219100
4025.826003,-9474.636058,222.061783,1225.752797
4025.826333,-9770.718434,74.020594,919.314598
4025.826663,-9992.780217,222.061783,0.000000
4025.826993,-9770.718434,74.020594,-612.876398
4025.827323,-10214.842000,296.082377,76.609550
4025.827652,-10140.821405,74.020594,995.924147
4025.827982,-9844.739029,0.000000,1455.581446
4025.828312,-9622.677246,-296.082377,1149.143247
4025.828642,-10288.862594,74.020594,689.485948
4025.828971,-10214.842000,222.061783,-153.219100
4025.829301,-9548.656652,296.082377,-995.924147
4025.829631,-9030.512492,74.020594,-1225.752797
4025.829961,-9400.615463,444.123565,-383.047749
4025.830291,-9548.656652,296.082377,689.485948
4025.830620,-10214.842000,148.041188,995.924147
4025.830950,-10140.821405,0.000000,612.876398
4025.831280,-9844.739029,0.000000,-612.876398
4025.831610,-10066.800811,-444.123565,-306.438199
4025.831939,-10288.862594,-518.144159,766.095498
4025.832269,-10066.800811,-518.144159,2145.067394
4025.832599,-9474.636058,-444.123565,1991.848295
4025.832929,-9844.739029,0.000000,1991.848295
4025.833259,-10510.924376,148.041188,689.485948
4025.833588,-10140.821405,0.000000,-229.828649
4025.833918,-9548.656652,-296.082377,-919.314598
4025.834248,-9252.574275,-444.123565,-689.485948
4025.834578,-9030.512492,-518.144159,536.266849
4025.834907,-9178.553681,-888.247130,919.314598
4025.835237,-9622.677246,-740.205942,1149.143247
4025.835567,-9548.656652,0.000000,689.485948
4025.835897,-9992.780217,-222.061783,-612.876398
4025.836227,-9770.718434,-222.061783,-306.438199
4025.836556,-9918.759623,-74.020594,995.924147
4025.836886,-10140.821405,0.000000,1838.629195
4025.837216,-9696.697840,0.000000,1762.019645
4025.837546,-10066.800811,-222.061783,1072.533697
4025.837875,-9770.718434,-222.061783,-153.219100
4025.838205,-10066.800811,0.000000,-919.314598
4025.838535,-9474.636058,-74.020594,-1149.143247
4025.838865,-9104.533087,0.000000,0.000000
4025.839195,-9030.512492,0.000000,536.266849
4025.839524,-9770.718434,0.000000,1532.190996
4025.839854,-9844.739029,370.102971,1302.362347
4025.840184,-9918.759623,296.082377,0.000000
4025.840514,-9844.739029,0.000000,-842.705048
4025.840843,-10066.800811,74.020594,-536.266849
4025.841173,-10362.883188,370.102971,1072.533697
4025.841503,-10066.800811,444.123565,842.705048
4025.841833,-9326.594869,222.061783,1378.971896
4025.842163,-9918.759623,518.144159,536.266849
4025.842492,-10288.862594,444.123565,-383.047749
4025.842822,-10288.862594,592.164754,-842.705048
4025.843152,-10066.800811,444.123565,-766.095498
4025.843482,-9622.677246,222.061783,0.000000
4025.843811,-9474.636058,0.000000,842.705048
4025.844141,-9770.718434,0.000000,1685.410096
4025.844471,-9992.780217,74.020594,459.657299
4025.844801,-9474.636058,0.000000,-919.314598
4025.845131,-9326.594869,0.000000,-1072.533697
4025.845460,-9696.697840,148.041188,459.657299
4025.845790,-10362.883188,518.144159,1608.800546
4025.846120,-9548.656652,296.082377,1378.971896
4025.846450,-9400.615463,148.041188,1225.752797
4025.846779,-9918.759623,814.226536,229.828649
4025.847109,-10288.862594,296.082377,-383.047749
4025.847439,-10214.842000,148.041188,-1149.143247
4025.847769,-9474.636058,296.082377,-383.047749
4025.848099,-9252.574275,296.082377,0.000000
4025.848428,-9030.512492,0.000000,536.266849
4025.848758,-9844.739029,148.041188,612.876398
4025.849088,-9992.780217,222.061783,306.438199
4025.849418,-9474.636058,148.041188,-612.876398
4025.849747,-9178.553681,296.082377,-2145.067394
4025.850077,-9622.677246,518.144159,-153.219100
4025.850407,-9918.759623,740.205942,995.924147
4025.850737,-9992.780217,370.102971,612.876398
4025.851067,-9696.697840,740.205942,459.657299
4025.851396,-10066.800811,0.000000,-459.657299
4025.851726,-10436.903782,592.164754,-1072.533697
4025.852056,-9918.759623,222.061783,-995.924147
4025.852386,-9770.718434,296.082377,-383.047749
4025.852715,-9252.574275,0.000000,459.657299
4025.853045,-9474.636058,0.000000,1378.971896
4025.853375,-9992.780217,0.000000,1455.581446
4025.853705,-9918.759623,-74.020594,766.095498
4025.854035,-9844.739029,0.000000,76.609550
4025.854364,-9622.677246,-444.123565,-229.828649
4025.854694,-10140.821405,0.000000,459.657299
4025.855024,-10214.842000,296.082377,1072.533697
4025.855354,-9918.759623,592.164754,1532.190996
4025.855683,-9844.739029,222.061783,536.266849
4025.856013,-10288.862594,-222.061783,76.609550
4025.856343,-10362.883188,0.000000,-612.876398
4025.856673,-9548.656652,0.000000,-229.828649
4025.857003,-8956.491898,-296.082377,-459.657299
4025.857332,-9178.553681,-370.102971,229.828649
4025.857662,-9400.615463,-296.082377,995.924147
4025.857992,-9992.780217,0.000000,1072.533697
4025.858322,-10214.842000,74.020594,306.438199
4025.858651,-9992.780217,0.000000,-306.438199
4025.858981,-9770.718434,-444.123565,0.000000
4025.859311,-10214.842000,-148.041188,1149.143247
4025.859641,-10362.883188,296.082377,2221.676944
4025.859971,-9400.615463,0.000000,1149.143247
4025.860300,-9474.636058,0.000000,612.876398
4025.860630,-9696.697840,148.041188,-766.095498
4025.860960,-9992.780217,370.102971,-612.876398
4025.861290,-9992.780217,0.000000,-612.876398
4025.861619,-9696.697840,0.000000,-536.266849
4025.861949,-9326.594869,-296.082377,76.609550
4025.862279,-9696.697840,-370.102971,689.485948
4025.862609,-9844.739029,0.000000,536.266849
4025.862939,-9622.677246,-74.020594,0.000000
4025.863268,-9400.615463,-296.082377,-459.657299
4025.863598,-9696.697840,-296.082377,-153.219100
4025.863928,-10214.842000,0.000000,1302.362347
4025.864258,-10288.862594,0.000000,1915.238745
4025.864587,-9992.780217,0.000000,1685.410096
4025.864917,-9622.677246,0.000000,76.609550
4025.865247,-10066.800811,222.061783,-229.828649
4025.865577,-9770.718434,0.000000,-1072.533697
4025.865907,-9326.594869,0.000000,-459.657299
4025.866236,-9326.594869,370.102971,0.000000
4025.866566,-9474.636058,0.000000,689.485948
4025.866896,-9770.718434,0.000000,612.876398
4025.867226,-10214.842000,296.082377,383.047749
4025.867555,-10066.800811,222.061783,-612.876398
4025.867885,-9770.718434,-148.041188,-1072.533697
4025.868215,-9844.739029,-444.123565,229.828649
4025.868545,-10436.903782,74.020594,1762.019645
4025.868875,-10214.842000,148.041188,2221.676944
4025.869204,-9548.656652,-148.041188,995.924147
4025.869534,-9770.718434,0.000000,153.219100
4025.869864,-9622.677246,148.041188,-1072.533697
4025.870194,-9992.780217,222.061783,-842.705048
4025.870523,-9622.677246,74.020594,-383.047749
4025.870853,-9252.574275,74.020594,306.438199
4025.871183,-9252.574275,0.000000,689.485948
4025.871513,-10066.800811,0.000000,0.000000
4025.871843,-10436.903782,74.020594,-536.266849
4025.872172,-9918.759623,-222.061783,-689.485948
4025.872502,-9696.697840,-74.020594,0.000000
4025.872832,-10066.800811,-148.041188,1225.752797
4025.873162,-10214.842000,370.102971,1762.019645
4025.873492,-9548.656652,444.123565,995.924147
4025.873821,-9548.656652,518.144159,612.876398
4025.874151,-10140.821405,296.082377,-766.095498
4025.874481,-10362.883188,518.144159,-1225.752797
4025.874811,-10214.842000,666.185348,-995.924147
4025.875140,-9474.636058,370.102971,612.876398
4025.875470,-9770.718434,0.000000,536.266849
4025.875800,-9400.615463,0.000000,536.266849
4025.876130,-9622.677246,0.000000,306.438199
4025.876460,-9622.677246,222.061783,153.219100
4025.876789,-9696.697840,0.000000,536.266849
4025.877119,-9992.780217,0.000000,689.485948
4025.877449,-10510.924376,74.020594,1455.581446
4025.877779,-10436.903782,148.041188,1455.581446
4025.878108,-10436.903782,74.020594,689.485948
4025.878438,-9622.677246,74.020594,0.000000
4025.878768,-9770.718434,74.020594,-536.266849
4025.879098,-9622.677246,370.102971,-689.485948
4025.879428,-9548.656652,0.000000,-383.047749
4025.879757,-9474.636058,222.061783,-536.266849
4025.880087,-9696.697840,0.000000,383.047749
4025.880417,-9548.656652,-740.205942,536.266849
4025.880747,-9696.697840,0.000000,459.657299
4025.881076,-9252.574275,-444.123565,536.266849
4025.881406,-9178.553681,-74.020594,612.876398
4025.881736,-9770.718434,-222.061783,459.657299
4025.882066,-10584.944971,74.020594,689.485948
4025.882396,-10658.965565,666.185348,612.876398
4025.882725,-10066.800811,148.041188,383.047749
4025.883055,-9844.739029,0.000000,229.828649
4025.883385,-9844.739029,-148.041188,0.000000
4025.883715,-10066.800811,296.082377,76.609550
4025.884044,-9178.553681,74.020594,-689.485948
4025.884374,-9030.512492,0.000000,-689.485948
4025.884704,-9252.574275,-148.041188,0.000000
4025.885034,-9918.759623,-148.041188,1378.971896
4025.885364,-10510.924376,222.061783,919.314598
4025.885693,-9992.780217,74.020594,689.485948
4025.886023,-9770.718434,-148.041188,76.609550
4025.886353,-9474.636058,-296.082377,0.000000
4025.886683,-10584.944971,444.123565,689.485948
4025.887012,-10807.006753,518.144159,842.705048
4025.887342,-10214.842000,0.000000,766.095498
4025.887672,-9844.739029,148.041188,306.438199
4025.888002,-10066.800811,370.102971,76.609550
4025.888332,-9844.739029,74.020594,-383.047749
4025.888661,-9548.656652,0.000000,-459.657299
4025.888991,-9474.636058,148.041188,0.000000
4025.889321,-9252.574275,-370.102971,536.266849
4025.889651,-9474.636058,-296.082377,1149.143247
4025.889980,-10436.903782,0.000000,1302.362347
4025.890310,-10140.821405,-370.102971,1072.533697
4025.890640,-9844.739029,-222.061783,612.876398
4025.890970,-9474.636058,-296.082377,383.047749
4025.891299,-10066.800811,74.020594,995.924147
4025.891629,-9770.718434,74.020594,1302.362347
4025.891959,-9474.636058,0.000000,766.095498
4025.892289,-9844.739029,666.185348,536.266849
4025.892618,-10436.903782,74.020594,-306.438199
4025.892948,-10288.862594,222.061783,-766.095498
4025.893278,-9474.636058,0.000000,-1225.752797
4025.893607,-8808.450710,0.000000,-536.266849
4025.893937,-9178.553681,-74.020594,459.657299
4025.894267,-9696.697840,0.000000,1225.752797
4025.894597,-10066.800811,0.000000,995.924147
4025.894926,-9844.739029,74.020594,766.095498
4025.895256,-9400.615463,0.000000,229.828649
4025.895586,-9992.780217,-296.082377,459.657299
4025.895915,-10510.924376,148.041188,766.095498
4025.896245,-9696.697840,0.000000,919.314598
4025.896575,-9104.533087,0.000000,919.314598
4025.896905,-9548.656652,0.000000,-229.828649
4025.897234,-9770.718434,296.082377,-689.485948
4025.897564,-9918.759623,518.144159,-1149.143247
4025.897894,-9548.656652,370.102971,-1149.143247
4025.898223,-9918.759623,296.082377,-383.047749
4025.898553,-9622.677246,222.061783,0.000000
4025.898883,-10140.821405,0.000000,766.095498
4025.899213,-10288.862594,74.020594,459.657299
4025.899542,-9770.718434,0.000000,-153.219100
4025.899872,-9474.636058,0.000000,-306.438199
4025.900202,-9622.677246,-222.061783,383.047749
4025.900531,-9992.780217,0.000000,1225.752797
4025.900861,-10288.862594,444.123565,1532.190996
4025.901191,-10140.821405,148.041188,1225.752797
4025.901521,-10066.800811,148.041188,536.266849
4025.901850,-10214.842000,148.041188,0.000000
4025.902180,-10436.903782,444.123565,-229.828649
4025.902510,-9548.656652,0.000000,-689.485948
4025.902839,-9252.574275,0.000000,-689.485948
4025.903169,-9030.512492,0.000000,153.219100
4025.903499,-9770.718434,296.082377,766.095498
4025.903829,-9844.739029,222.061783,459.657299
4025.904158,-9548.656652,0.000000,-689.485948
4025.904488,-9474.636058,0.000000,-536.266849
4025.904818,-9844.739029,74.020594,383.047749
4025.905147,-10510.924376,148.041188,1225.752797
4025.905477,-9696.697840,74.020594,1608.800546
4025.905807,-9696.697840,370.102971,1378.971896
4025.906137,-10140.821405,296.082377,229.828649
4025.906466,-9992.780217,518.144159,-306.438199
4025.906796,-9622.677246,296.082377,-995.924147
4025.907126,-9104.533087,296.082377,-766.095498
4025.907455,-9104.533087,518.144159,-306.438199
4025.907785,-9326.594869,148.041188,229.828649
4025.908115,-10214.842000,370.102971,689.485948
4025.908445,-10140.821405,74.020594,612.876398
4025.908774,-9992.780217,-296.082377,-153.219100
4025.909104,-9622.677246,0.000000,153.219100
4025.909434,-9770.718434,74.020594,766.095498
4025.909763,-9844.739029,222.061783,1455.581446
4025.910093,-9696.697840,222.061783,1532.190996
4025.910423,-9696.697840,444.123565,1225.752797
4025.910753,-10288.862594,814.226536,306.438199
4025.911082,-10584.944971,370.102971,-306.438199
4025.911412,-9992.780217,74.020594,-842.705048
4025.911742,-9474.636058,222.061783,-766.095498
4025.912071,-9030.512492,0.000000,76.609550
4025.912401,-9104.533087,-222.061783,76.609550
4025.912731,-9548.656652,74.020594,459.657299
4025.913061,-9622.677246,0.000000,459.657299
4025.913390,-9844.739029,0.000000,0.000000
4025.913720,-9696.697840,0.000000,76.609550
4025.914050,-10140.821405,222.061783,459.657299
4025.914379,-9992.780217,0.000000,1149.143247
4025.914709,-9770.718434,0.000000,1072.533697
4025.915039,-9844.739029,148.041188,766.095498
4025.915369,-10140.821405,0.000000,76.609550
4025.915698,-10214.842000,0.000000,-536.266849
4025.916028,-9770.718434,-148.041188,-536.266849
4025.916358,-9400.615463,0.000000,0.000000
4025.916687,-9104.533087,0.000000,-383.047749
4025.917017,-9252.574275,-370.102971,383.047749
4025.917347,-9696.697840,74.020594,459.657299
4025.917677,-9474.636058,74.020594,0.000000
4025.918006,-9622.677246,148.041188,-766.095498
4025.918336,-10140.821405,0.000000,-459.657299
4025.918666,-10288.862594,0.000000,0.000000
4025.918995,-10362.883188,0.000000,766.095498
4025.919325,-9326.594869,-814.226536,1149.143247
4025.919655,-9622.677246,-518.144159,995.924147
4025.919985,-9992.780217,-518.144159,459.657299
4025.920314,-10436.903782,-296.082377,0.000000
4025.920644,-9770.718434,0.000000,229.828649
4025.920974,-9622.677246,74.020594,0.000000
4025.921303,-9918.759623,0.000000,383.047749
4025.921633,-9992.780217,0.000000,536.266849
4025.921963,-10066.800811,-148.041188,383.047749
4025.922293,-9326.594869,-518.144159,0.000000
4025.922622,-9400.615463,-518.144159,-766.095498
4025.922952,-9326.594869,-592.164754,-229.828649
4025.923282,-9992.780217,-370.102971,383.047749
4025.923611,-9844.739029,0.000000,995.924147
4025.923941,-9992.780217,74.020594,1532.190996
4025.924271,-10140.821405,0.000000,1685.410096
4025.924601,-10362.883188,0.000000,995.924147
4025.924930,-9474.636058,0.000000,-689.485948
4025.925260,-9474.636058,148.041188,-689.485948
4025.925590,-9622.677246,0.000000,-536.266849
4025.925919,-9474.636058,148.041188,0.000000
4025.926249,-9474.636058,0.000000,306.438199
4025.926579,-9696.697840,74.020594,612.876398
4025.926909,-9548.656652,0.000000,153.219100
4025.927238,-9252.574275,-148.041188,-383.047749
4025.927568,-9474.636058,-222.061783,-229.828649
4025.927898,-9400.615463,148.041188,0.000000
4025.928227,-9770.718434,148.041188,689.485948
4025.928557,-10066.800811,370.102971,995.924147
4025.928887,-10881.027347,740.205942,1072.533697
4025.929217,-10658.965565,444.123565,536.266849
4025.929546,-10288.862594,518.144159,-689.485948
4025.929876,-9622.677246,518.144159,-995.924147
4025.930206,-9252.574275,592.164754,-383.047749
4025.930535,-9326.594869,814.226536,229.828649
4025.930865,-9548.656652,296.082377,1149.143247
4025.931195,-9844.739029,222.061783,919.314598
4025.931525,-9918.759623,0.000000,0.000000
4025.931854,-9548.656652,0.000000,-1072.533697
4025.932184,-9400.615463,0.000000,-459.657299
4025.932514,-9548.656652,0.000000,995.924147
4025.932843,-9252.574275,296.082377,1685.410096
4025.933173,-9696.697840,148.041188,1915.238745
4025.933503,-10066.800811,1110.308913,1225.752797
4025.933833,-10658.965565,666.185348,0.000000
4025.934162,-10955.047942,740.205942,-995.924147
4025.934492,-9844.739029,148.041188,-919.314598
4025.934822,-9252.574275,592.164754,0.000000
4025.935151,-9104.533087,-222.061783,383.047749
4025.935481,-9474.636058,222.061783,842.705048
4025.935811,-9622.677246,0.000000,0.000000
4025.936141,-9548.656652,-222.061783,-766.095498
4025.936470,-9770.718434,-222.061783,-459.657299
4025.936800,-10288.862594,-148.041188,306.438199
4025.937130,-10066.800811,-74.020594,1608.800546
4025.937460,-9696.697840,-148.041188,2068.457845
4025.937789,-9844.739029,0.000000,1762.019645
4025.938119,-10140.821405,0.000000,459.657299
4025.938449,-10140.821405,222.061783,-536.266849
4025.938778,-10066.800811,444.123565,-1149.143247
4025.939108,-9770.718434,592.164754,-1532.190996
4025.939438,-9770.718434,74.020594,153.219100
4025.939768,-9844.739029,74.020594,842.705048
4025.940097,-9770.718434,0.000000,612.876398
4025.940427,-9474.636058,74.020594,76.609550
4025.940757,-9326.594869,-592.164754,-842.705048
4025.941086,-9400.615463,-444.123565,-842.705048
4025.941416,-9918.759623,0.000000,383.047749
4025.941746,-10214.842000,0.000000,1378.971896
4025.942076,-9770.718434,0.000000,2068.457845
4025.942405,-9696.697840,0.000000,1762.019645
4025.942735,-10288.862594,222.061783,842.705048
4025.943065,-10510.924376,222.061783,-153.219100
4025.943394,-9992.780217,296.082377,-1378.971896
4025.943724,-9548.656652,222.061783,-536.266849
4025.944054,-9178.553681,-222.061783,383.047749
4025.944384,-9474.636058,-518.144159,689.485948
4025.944713,-9622.677246,74.020594,995.924147
4025.945043,-9474.636058,-222.061783,0.000000
4025.945373,-8882.471304,-296.082377,-689.485948
4025.945702,-9400.615463,0.000000,76.609550
4025.946032,-10362.883188,148.041188,1072.533697
4025.946362,-10510.924376,148.041188,1608.800546
4025.946692,-9918.759623,0.000000,1532.190996
4025.947021,-10288.862594,-148.041188,995.924147
4025.947351,-9992.780217,0.000000,306.438199
4025.947681,-9844.739029,222.061783,-536.266849
4025.948010,-9326.594869,0.000000,-1225.752797
4025.948340,-9474.636058,222.061783,-153.219100
4025.948670,-9548.656652,296.082377,536.266849
4025.949000,-10140.821405,444.123565,536.266849
4025.949329,-10140.821405,296.082377,383.047749
4025.949659,-9548.656652,0.000000,-766.095498
4025.949989,-9474.636058,0.000000,-1302.362347
4025.950318,-9548.656652,-74.020594,-536.266849
4025.950648,-10140.821405,74.020594,1072.533697
4025.950978,-10214.842000,222.061783,2221.676944
4025.951308,-9992.780217,0.000000,1762.019645
4025.951637,-10140.821405,0.000000,1225.752797
4025.951967,-9844.739029,0.000000,0.000000
4025.952297,-9770.718434,0.000000,-689.485948
4025.952626,-9326.594869,74.020594,-995.924147
4025.952956,-8956.491898,0.000000,-383.047749
4025.953286,-8734.430116,592.164754,766.095498
4025.953616,-9696.697840,370.102971,459.657299
4025.953945,-10140.821405,370.102971,383.047749
4025.954275,-9696.697840,222.061783,-689.485948
4025.954605,-9474.636058,0.000000,-766.095498
4025.954934,-9696.697840,0.000000,0.000000
4025.955264,-10214.842000,148.041188,766.095498
4025.955594,-9548.656652,296.082377,1302.362347
4025.955924,-9252.574275,222.061783,1302.362347
4025.956253,-9844.739029,518.144159,689.485948
4025.956583,-10436.903782,296.082377,-306.438199
4025.956913,-10807.006753,666.185348,-383.047749
4025.957242,-10214.842000,222.061783,-536.266849
4025.957572,-9992.780217,740.205942,612.876398
4025.957902,-9474.636058,148.041188,1149.143247
4025.958232,-9844.739029,222.061783,1225.752797
4025.958561,-9474.636058,74.020594,612.876398
4025.958891,-9104.533087,296.082377,-536.266849
4025.959221,-9918.759623,296.082377,-383.047749
4025.959550,-10584.944971,444.123565,76.609550
4025.959880,-10584.944971,370.102971,1225.752797
4025.960210,-9622.677246,222.061783,1225.752797
4025.960540,-9474.636058,74.020594,1378.971896
4025.960869,-9548.656652,222.061783,153.219100
4025.961199,-9918.759623,74.020594,-306.438199
4025.961529,-9696.697840,148.041188,-612.876398
4025.961858,-9770.718434,222.061783,-459.657299
4025.962188,-9696.697840,148.041188,689.485948
4025.962518,-9770.718434,-222.061783,1149.143247
4025.962848,-10288.862594,0.000000,1149.143247
4025.963177,-9474.636058,148.041188,229.828649
4025.963507,-9104.533087,-592.164754,-919.314598
4025.963837,-9252.574275,-370.102971,-612.876398
4025.964166,-9770.718434,0.000000,536.266849
4025.964496,-9844.739029,0.000000,1608.800546
4025.964826,-9622.677246,0.000000,1608.800546
4025.965156,-10066.800811,0.000000,536.266849
4025.965485,-9622.677246,-518.144159,-76.609550
4025.965815,-10066.800811,-222.061783,-842.705048
4025.966145,-9474.636058,0.000000,-612.876398
4025.966474,-9178.553681,74.020594,76.609550
4025.966804,-9178.553681,74.020594,536.266849
4025.967134,-9474.636058,-222.061783,1149.143247
4025.967464,-10658.965565,518.144159,1149.143247
4025.967793,-9992.780217,74.020594,0.000000
4025.968123,-9770.718434,-296.082377,-689.485948
4025.968453,-9400.615463,-666.185348,0.000000
4025.968782,-10066.800811,-222.061783,766.095498
4025.969112,-10288.862594,0.000000,1455.581446
4025.969442,-9770.718434,0.000000,995.924147
4025.969772,-9770.718434,222.061783,0.000000
4025.970101,-10362.883188,444.123565,-689.485948
4025.970431,-10288.862594,74.020594,-383.047749
4025.970761,-9696.697840,0.000000,0.000000
4025.971090,-9548.656652,74.020594,842.705048
4025.971420,-9400.615463,-296.082377,536.266849
4025.971750,-9548.656652,0.000000,842.705048
4025.972080,-10066.800811,0.000000,229.828649
4025.972409,-9696.697840,-148.041188,-306.438199
4025.972739,-9548.656652,-370.102971,-383.047749
4025.973069,-9548.656652,74.020594,229.828649
4025.973398,-10066.800811,0.000000,1072.533697
4025.973728,-10436.903782,74.020594,1532.190996
4025.974058,-9696.697840,-296.082377,995.924147
4025.974388,-9622.677246,0.000000,536.266849
4025.974717,-9474.636058,0.000000,0.000000
4025.975047,-9696.697840,148.041188,-383.047749
4025.975377,-9178.553681,74.020594,-612.876398
4025.975706,-9104.533087,0.000000,0.000000
4025.976036,-9474.636058,518.144159,153.219100
4025.976366,-9696.697840,148.041188,-383.047749
4025.976696,-9992.780217,592.164754,0.000000
4025.977025,-9474.636058,148.041188,0.000000
4025.977355,-9178.553681,148.041188,0.000000
4025.977685,-9548.656652,0.000000,153.219100
4025.978014,-10214.842000,444.123565,919.314598
4025.978344,-10214.842000,296.082377,919.314598
4025.978674,-10066.800811,444.123565,919.314598
4025.979004,-9918.759623,296.082377,229.828649
4025.979333,-10436.903782,666.185348,-536.266849
4025.979663,-10066.800811,666.185348,-766.095498
4025.979993,-9696.697840,666.185348,-612.876398
4025.980322,-9178.553681,370.102971,0.000000
4025.980652,-9918.759623,444.123565,229.828649
4025.980982,-10214.842000,296.082377,689.485948
4025.981312,-9992.780217,222.061783,689.485948
4025.981641,-9696.697840,148.041188,76.609550
4025.981971,-9400.615463,-222.061783,0.000000
4025.982301,-9770.718434,222.061783,306.438199
4025.982630,-10288.862594,148.041188,1838.629195
4025.982960,-9992.780217,148.041188,2374.896044
4025.983290,-9918.759623,0.000000,1378.971896
4025.983620,-10140.821405,0.000000,306.438199
4025.983949,-9992.780217,0.000000,-689.485948
4025.984279,-9770.718434,370.102971,-919.314598
4025.984609,-9548.656652,0.000000,-229.828649
4025.984938,-9326.594869,148.041188,459.657299
4025.985268,-8956.491898,-296.082377,919.314598
4025.985598,-9770.718434,74.020594,995.924147
4025.985928,-10214.842000,-74.020594,153.219100
4025.986257,-9844.739029,-296.082377,-919.314598
4025.986587,-9474.636058,-370.102971,-612.876398
4025.986917,-9696.697840,-222.061783,306.438199
4025.987246,-9770.718434,-518.144159,2068.457845
4025.987576,-9474.636058,-296.082377,2068.457845
4025.987906,-9622.677246,0.000000,919.314598
4025.988236,-9844.739029,0.000000,-306.438199
4025.988565,-10510.924376,148.041188,-842.705048
4025.988895,-10140.821405,0.000000,-536.266849
4025.989225,-9696.697840,0.000000,76.609550
4025.989554,-9474.636058,0.000000,612.876398
4025.989884,-9770.718434,-296.082377,689.485948
4025.990214,-10436.903782,-222.061783,766.095498
4025.990544,-10362.883188,-74.020594,229.828649
4025.990874,-9844.739029,-296.082377,-612.876398
4025.991204,-9918.759623,-296.082377,0.000000
4025.991533,-10658.965565,0.000000,1608.800546
4025.991863,-9992.780217,0.000000,1991.848295
4025.992193,-9844.739029,0.000000,1149.143247
4025.992523,-9770.718434,222.061783,459.657299
4025.992853,-10362.883188,0.000000,-383.047749
4025.993183,-10436.903782,148.041188,-689.485948
4025.993512,-9770.718434,0.000000,-536.266849
4025.993842,-9178.553681,0.000000,229.828649
4025.994172,-9178.553681,-592.164754,229.828649
4025.994502,-9400.615463,-444.123565,536.266849
4025.994832,-9770.718434,-370.102971,383.047749
4025.995162,-9918.759623,-148.041188,306.438199
4025.995491,-9918.759623,0.000000,383.047749
4025.995821,-9178.553681,-592.164754,536.266849
4025.996151,-9770.718434,0.000000,766.095498
4025.996481,-9548.656652,0.000000,1225.752797
4025.996811,-9400.615463,74.020594,766.095498
4025.997141,-9326.594869,296.082377,383.047749
4025.997470,-9400.615463,296.082377,-612.876398
4025.997800,-9992.780217,592.164754,-766.095498
4025.998130,-9992.780217,740.205942,-689.485948
4025.998460,-9992.780217,444.123565,0.000000
4025.998790,-9548.656652,222.061783,229.828649
4025.999120,-9548.656652,148.041188,536.266849
4025.999449,-9844.739029,444.123565,459.657299
4025.999779,-9326.594869,0.000000,0.000000
4026.000109,-9474.636058,296.082377,-459.657299
4026.000439,-9474.636058,444.123565,-153.219100
4026.000769,-10140.821405,592.164754,153.219100
4026.001099,-10066.800811,814.226536,306.438199
4026.001428,-9918.759623,518.144159,306.438199
4026.001758,-9844.739029,370.102971,229.828649
4026.002088,-10066.800811,222.061783,0.000000
4026.002418,-9918.759623,148.041188,-229.828649
4026.002748,-9474.636058,666.185348,0.000000
4026.003078,-9474.636058,296.082377,306.438199
4026.003407,-9918.759623,370.102971,536.266849
4026.003737,-10214.842000,740.205942,612.876398
4026.004067,-10140.821405,740.205942,536.266849
4026.004397,-9548.656652,0.000000,0.000000
4026.004727,-9326.594869,148.041188,-766.095498
4026.005056,-9400.615463,0.000000,229.828649
4026.005386,-9918.759623,222.061783,383.047749
4026.005716,-9326.594869,-370.102971,459.657299
4026.006046,-9400.615463,-148.041188,612.876398
4026.006376,-9548.656652,-296.082377,766.095498
4026.006706,-9918.759623,0.000000,459.657299
4026.007035,-9844.739029,0.000000,-229.828649
4026.007365,-9474.636058,0.000000,229.828649
4026.007695,-9474.636058,222.061783,536.266849
4026.008025,-9474.636058,0.000000,459.657299
4026.008355,-10362.883188,0.000000,383.047749
4026.008685,-10066.800811,-148.041188,383.047749
4026.009014,-9400.615463,-518.144159,-229.828649
4026.009344,-8956.491898,-518.144159,-229.828649
4026.009674,-9326.594869,-592.164754,153.219100
4026.010004,-9474.636058,-1036.288319,766.095498
4026.010334,-9770.718434,0.000000,842.705048
4026.010664,-9918.759623,74.020594,995.924147
4026.010993,-10362.883188,0.000000,459.657299
4026.011323,-10066.800811,74.020594,0.000000
4026.011653,-10362.883188,148.041188,-383.047749
4026.011983,-9696.697840,0.000000,-612.876398
4026.012313,-9770.718434,0.000000,-459.657299
4026.012643,-9622.677246,-74.020594,306.438199
4026.012972,-9622.677246,-74.020594,995.924147
4026.013302,-9622.677246,-222.061783,229.828649
4026.013632,-10066.800811,0.000000,76.609550
4026.013962,-9844.739029,-370.102971,153.219100
4026.014292,-10288.862594,-666.185348,459.657299
4026.014622,-10214.842000,-222.061783,842.705048
4026.014951,-9844.739029,-518.144159,1072.533697
4026.015281,-9844.739029,-370.102971,1225.752797
4026.015611,-9622.677246,0.000000,612.876398
4026.015941,-9622.677246,0.000000,306.438199
4026.016271,-9548.656652,0.000000,-306.438199
4026.016601,-9770.718434,222.061783,-612.876398
4026.016930,-9918.759623,222.061783,-995.924147
4026.017260,-9474.636058,-296.082377,536.266849
4026.017590,-10436.903782,0.000000,536.266849
4026.017920,-9918.759623,0.000000,459.657299
4026.018250,-9030.512492,-444.123565,-383.047749
4026.018580,-8882.471304,-296.082377,-383.047749
4026.018909,-9474.636058,0.000000,0.000000
4026.019239,-9918.759623,0.000000,842.705048
4026.019569,-9770.718434,-74.020594,995.924147
4026.019899,-9400.615463,296.082377,766.095498
4026.020229,-9918.759623,222.061783,0.000000
4026.020558,-10288.862594,148.041188,0.000000
4026.020888,-9622.677246,518.144159,-766.095498
4026.021218,-9326.594869,740.205942,-995.924147
4026.021548,-9474.636058,518.144159,-459.657299
4026.021878,-9696.697840,148.041188,0.000000
4026.022208,-10362.883188,296.082377,459.657299
4026.022537,-9622.677246,74.020594,153.219100
4026.022867,-9622.677246,0.000000,0.000000
4026.023197,-9178.553681,-148.041188,0.000000
4026.023527,-9326.594869,0.000000,459.657299
4026.023857,-9770.718434,518.144159,995.924147
4026.024187,-9770.718434,666.185348,995.924147
4026.024516,-10436.903782,444.123565,1302.362347
4026.024846,-10732.986159,666.185348,766.095498
4026.025176,-11029.068536,592.164754,-153.219100
4026.025506,-10066.800811,592.164754,-1455.581446
4026.025836,-9770.718434,148.041188,-995.924147
4026.026166,-9326.594869,148.041188,-306.438199
4026.026495,-9030.512492,222.061783,306.438199
4026.026825,-9400.615463,370.102971,229.828649
4026.027155,-9770.718434,592.164754,76.609550
4026.027485,-9918.759623,222.061783,-612.876398
4026.027815,-9770.718434,0.000000,-306.438199
4026.028145,-10066.800811,74.020594,689.485948
4026.028474,-10066.800811,148.041188,1149.143247
4026.028804,-9474.636058,-296.082377,1455.581446
4026.029134,-9400.615463,0.000000,1149.143247
4026.029464,-9918.759623,74.020594,919.314598
4026.029794,-9992.780217,666.185348,-689.485948
4026.030124,-10510.924376,740.205942,-919.314598
4026.030453,-9622.677246,222.061783,-1149.143247
4026.030783,-9326.594869,0.000000,-383.047749
4026.031113,-9770.718434,148.041188,306.438199
4026.031443,-9992.780217,0.000000,229.828649
4026.031773,-9178.553681,-370.102971,-459.657299
4026.032103,-8586.388927,-518.144159,-536.266849
4026.032432,-9474.636058,-444.123565,0.000000
4026.032762,-10436.903782,74.020594,1072.533697
4026.033092,-10214.842000,-222.061783,1455.581446
4026.033422,-9844.739029,-148.041188,1991.848295
4026.033752,-10066.800811,-222.061783,1225.752797
4026.034082,-10066.800811,0.000000,153.219100
4026.034411,-10436.903782,74.020594,-76.609550
4026.034741,-9474.636058,0.000000,-766.095498
4026.035071,-9770.718434,74.020594,-536.266849
4026.035401,-9474.636058,74.020594,-383.047749
4026.035731,-9770.718434,148.041188,-76.609550
4026.036061,-10066.800811,296.082377,76.609550
4026.036390,-9548.656652,0.000000,-229.828649
4026.036720,-9770.718434,-222.061783,-459.657299
4026.037050,-9918.759623,-740.205942,459.657299
4026.037380,-9918.759623,-518.144159,1455.581446
4026.037710,-9770.718434,-592.164754,1532.190996
4026.038039,-9696.697840,-592.164754,2068.457845
4026.038369,-9400.615463,-444.123565,1378.971896
4026.038699,-9622.677246,0.000000,919.314598
4026.039029,-10362.883188,370.102971,0.000000
4026.039359,-9992.780217,148.041188,-612.876398
4026.039689,-9474.636058,296.082377,-383.047749
4026.040018,-9252.574275,0.000000,-229.828649
4026.040348,-9770.718434,296.082377,229.828649
4026.040678,-10066.800811,-148.041188,229.828649
4026.041008,-9474.636058,-444.123565,-76.609550
4026.041338,-9326.594869,-370.102971,-689.485948
4026.041668,-9844.739029,0.000000,-459.657299
4026.041997,-10214.842000,148.041188,612.876398
4026.042327,-9548.656652,148.041188,1455.581446
4026.042657,-9474.636058,74.020594,1378.971896
4026.042987,-10214.842000,222.061783,612.876398
4026.043317,-10881.027347,222.061783,0.000000
4026.043647,-10510.924376,370.102971,-842.705048
4026.043976,-9104.533087,148.041188,-689.485948
4026.044306,-9548.656652,296.082377,-536.266849
4026.044636,-9696.697840,148.041188,0.000000
4026.044966,-9992.780217,296.082377,919.314598
4026.045296,-10214.842000,1036.288319,229.828649
4026.045626,-9992.780217,518.144159,-689.485948
4026.045955,-9770.718434,370.102971,-689.485948
4026.046285,-10066.800811,296.082377,-306.438199
4026.046615,-9770.718434,74.020594,459.657299
4026.046945,-9178.553681,0.000000,1302.362347
4026.047275,-9252.574275,0.000000,1608.800546
4026.047605,-9696.697840,74.020594,995.924147
4026.047934,-10288.862594,74.020594,306.438199
4026.048264,-10436.903782,888.247130,0.000000
4026.048594,-10436.903782,444.123565,0.000000
4026.048924,-9548.656652,74.020594,459.657299
4026.049254,-9400.615463,0.000000,536.266849
4026.049584,-9474.636058,518.144159,995.924147
4026.049913,-9474.636058,296.082377,0.000000
4026.050243,-9030.512492,74.020594,-1378.971896
4026.050573,-9252.574275,74.020594,-1455.581446
4026.050903,-9844.739029,0.000000,153.219100
4026.051233,-9696.697840,222.061783,1378.971896
4026.051563,-9844.739029,0.000000,1762.019645
4026.051892,-9992.780217,148.041188,1532.190996
4026.052222,-9992.780217,-148.041188,995.924147
4026.052552,-10140.821405,74.020594,153.219100
4026.052882,-9992.780217,222.061783,-689.485948
4026.053212,-9474.636058,148.041188,-306.438199
4026.053542,-9178.553681,0.000000,0.000000
4026.053871,-9770.718434,222.061783,459.657299
4026.054201,-10140.821405,148.041188,689.485948
4026.054531,-9992.780217,148.041188,-459.657299
4026.054861,-9770.718434,-444.123565,-1225.752797
4026.055191,-9474.636058,-444.123565,-459.657299
4026.055520,-9474.636058,-592.164754,919.314598
4026.055850,-9696.697840,-370.102971,1532.190996
4026.056180,-9548.656652,-444.123565,1991.848295
4026.056510,-9992.780217,-444.123565,1838.629195
4026.056840,-10436.903782,0.000000,1149.143247
4026.057170,-11177.109724,296.082377,-153.219100
4026.057499,-10436.903782,370.102971,-612.876398
4026.057829,-9844.739029,148.041188,-153.219100
4026.058159,-9252.574275,0.000000,0.000000
4026.058489,-9844.739029,74.020594,229.828649
4026.058819,-10140.821405,0.000000,0.000000
4026.059149,-9696.697840,-444.123565,-766.095498
4026.059478,-9474.636058,-148.041188,-995.924147
4026.059808,-9326.594869,-814.226536,-459.657299
4026.060138,-10214.842000,-444.123565,766.095498
4026.060468,-9548.656652,-592.164754,1991.848295
4026.060798,-9474.636058,-592.164754,2374.896044
4026.061128,-9622.677246,-370.102971,1608.800546
4026.061457,-10807.006753,0.000000,459.657299
4026.061787,-10732.986159,0.000000,-153.219100
4026.062117,-10066.800811,148.041188,-766.095498
4026.062447,-9696.697840,666.185348,0.000000
4026.062777,-9474.636058,0.000000,459.657299
4026.063107,-9844.739029,0.000000,459.657299
4026.063436,-9474.636058,74.020594,0.000000
4026.063766,-8956.491898,0.000000,-1225.752797
4026.064096,-9400.615463,0.000000,-1685.410096
4026.064426,-9474.636058,0.000000,-612.876398
4026.064756,-10140.821405,74.020594,1225.752797
4026.065086,-9918.759623,0.000000,1838.629195
4026.065415,-9622.677246,-444.123565,1991.848295
4026.065745,-9696.697840,0.000000,995.924147
4026.066075,-9696.697840,0.000000,383.047749
4026.066405,-9992.780217,444.123565,0.000000
4026.066735,-9474.636058,814.226536,306.438199
4026.067065,-9548.656652,666.185348,306.438199
4026.067394,-9400.615463,592.164754,229.828649
4026.067724,-9918.759623,814.226536,459.657299
4026.068054,-10066.800811,962.267725,76.609550
4026.068384,-9622.677246,444.123565,-1225.752797
4026.068714,-9178.553681,0.000000,-1991.848295
4026.069044,-9326.594869,0.000000,-919.314598
4026.069373,-9696.697840,296.082377,1532.190996
4026.069703,-9326.594869,370.102971,1685.410096
4026.070033,-9548.656652,222.061783,1762.019645
4026.070363,-10288.862594,518.144159,1302.362347
4026.070693,-10658.965565,444.123565,306.438199
4026.071023,-10807.006753,592.164754,229.828649
4026.071352,-10140.821405,518.144159,0.000000
4026.071682,-9474.636058,370.102971,76.609550
4026.072012,-9326.594869,74.020594,689.485948
4026.072342,-9474.636058,296.082377,919.314598
4026.072672,-9770.718434,518.144159,-383.047749
4026.073001,-9474.636058,296.082377,-1685.410096
4026.073331,-9474.636058,370.102971,-1838.629195
4026.073661,-9696.697840,222.061783,229.828649
4026.073991,-10214.842000,148.041188,1455.581446
4026.074321,-9770.718434,0.000000,1685.410096
4026.074651,-9918.759623,74.020594,1608.800546
4026.074980,-9696.697840,-148.041188,689.485948
4026.075310,-10658.965565,-148.041188,-383.047749
4026.075640,-10362.883188,74.020594,-459.657299
4026.075970,-10140.821405,0.000000,229.828649
4026.076300,-9770.718434,0.000000,995.924147
4026.076630,-9178.553681,-518.144159,995.924147
4026.076959,-9918.759623,-148.041188,689.485948
4026.077289,-9770.718434,-296.082377,0.000000
4026.077619,-9474.636058,74.020594,-1455.581446
4026.077949,-9030.512492,-444.123565,-1072.533697
4026.078279,-9548.656652,-444.123565,0.000000
4026.078609,-9696.697840,-296.082377,689.485948
4026.078938,-10214.842000,-148.041188,1455.581446
4026.079268,-9770.718434,-296.082377,995.924147
4026.079598,-10066.800811,-296.082377,0.000000
4026.079928,-10214.842000,-222.061783,-766.095498
4026.080258,-9696.697840,-222.061783,-306.438199
4026.080588,-10140.821405,74.020594,383.047749
4026.080917,-9548.656652,-222.061783,766.095498
4026.081247,-9918.759623,-296.082377,842.705048
4026.081577,-10362.883188,-222.061783,153.219100
4026.081907,-9474.636058,-740.205942,-766.095498
4026.082237,-9474.636058,-370.102971,-1762.019645
4026.082567,-9104.533087,-370.102971,-842.705048
4026.082896,-9030.512492,-592.164754,383.047749
4026.083226,-9474.636058,-222.061783,1149.143247
4026.083556,-9622.677246,222.061783,1455.581446
4026.083886,-10140.821405,0.000000,842.705048
4026.084216,-10510.924376,0.000000,536.266849
4026.084546,-10955.047942,296.082377,0.000000
4026.084875,-9844.739029,0.000000,-306.438199
4026.085205,-9622.677246,296.082377,612.876398
4026.085535,-9548.656652,0.000000,536.266849
4026.085865,-9844.739029,296.082377,612.876398
4026.086195,-10140.821405,592.164754,-306.438199
4026.086525,-9474.636058,370.102971,-842.705048
4026.086854,-9474.636058,222.061783,-1378.971896
4026.087184,-9770.718434,0.000000,-459.657299
4026.087514,-9918.759623,0.000000,689.485948
4026.087844,-9400.615463,-222.061783,1685.410096
4026.088174,-9400.615463,-370.102971,1608.800546
4026.088504,-9474.636058,0.000000,689.485948
4026.088833,-9622.677246,0.000000,229.828649
4026.089163,-9918.759623,296.082377,0.000000
4026.089493,-9400.615463,148.041188,0.000000
4026.089823,-10066.800811,666.185348,1072.533697
4026.090153,-9992.780217,296.082377,1149.143247
4026.090482,-10362.883188,518.144159,766.095498
4026.090812,-10066.800811,518.144159,0.000000
4026.091142,-9770.718434,296.082377,-995.924147
4026.091472,-9400.615463,0.000000,-1072.533697
4026.091802,-9474.636058,0.000000,-383.047749
4026.092132,-9104.533087,666.185348,766.095498
4026.092461,-9548.656652,148.041188,842.705048
4026.092791,-9770.718434,148.041188,1072.533697
4026.093121,-10140.821405,370.102971,0.000000
4026.093451,-10584.944971,518.144159,0.000000
4026.093781,-10362.883188,444.123565,0.000000
4026.094110,-9548.656652,74.020594,-383.047749
4026.094440,-9622.677246,0.000000,1072.533697
4026.094770,-9548.656652,0.000000,919.314598
4026.095100,-9992.780217,370.102971,383.047749
4026.095430,-9992.780217,518.144159,-459.657299
4026.095759,-9696.697840,370.102971,-1225.752797
4026.096089,-9474.636058,222.061783,-995.924147
4026.096419,-9844.739029,148.041188,-995.924147
4026.096749,-9844.739029,0.000000,1302.362347
4026.097079,-9474.636058,0.000000,1455.581446
4026.097408,-9844.739029,0.000000,1149.143247
4026.097738,-9696.697840,296.082377,153.219100
4026.098068,-10140.821405,296.082377,-766.095498
4026.098398,-9992.780217,148.041188,-459.657299
4026.098727,-9918.759623,222.061783,0.000000
4026.099057,-9696.697840,222.061783,919.314598
4026.099387,-9548.656652,-296.082377,1149.143247
4026.099717,-9770.718434,0.000000,842.705048
4026.100047,-9918.759623,-74.020594,0.000000
4026.100376,-9474.636058,-592.164754,-919.314598
4026.100706,-8660.409521,-444.123565,-306.438199
4026.101036,-9474.636058,-370.102971,612.876398
4026.101366,-9770.718434,-222.061783,1991.848295
4026.101696,-9844.739029,-296.082377,1915.238745
4026.102025,-9474.636058,-148.041188,1149.143247
4026.102355,-9844.739029,0.000000,459.657299
4026.102685,-10288.862594,370.102971,-229.828649
4026.103015,-9918.759623,0.000000,-306.438199
4026.103345,-9548.656652,74.020594,0.000000
4026.103674,-9548.656652,0.000000,383.047749
4026.104004,-9548.656652,-444.123565,0.000000
4026.104334,-10140.821405,-74.020594,0.000000
4026.104664,-9844.739029,0.000000,-153.219100
4026.104994,-9992.780217,-444.123565,-383.047749
4026.105323,-9326.594869,-592.164754,0.000000
4026.105653,-10066.800811,0.000000,995.924147
4026.105983,-10362.883188,74.020594,1225.752797
4026.106313,-9992.780217,-74.020594,1225.752797
4026.106643,-10066.800811,0.000000,306.438199
4026.106972,-10214.842000,74.020594,76.609550
4026.107302,-10584.944971,296.082377,0.000000
4026.107632,-9844.739029,0.000000,306.438199
4026.107962,-9844.739029,74.020594,229.828649
4026.108292,-9844.739029,-148.041188,306.438199
4026.108621,-9474.636058,-296.082377,153.219100
4026.108951,-9918.759623,0.000000,-306.438199
4026.109281,-9474.636058,-296.082377,-689.485948
4026.109611,-9252.574275,-222.061783,0.000000
4026.109941,-9252.574275,0.000000,383.047749
4026.110270,-10214.842000,370.102971,1072.533697
4026.110600,-10436.903782,740.205942,995.924147
4026.110930,-10140.821405,74.020594,689.485948
4026.111260,-10362.883188,148.041188,76.609550
4026.111589,-10066.800811,74.020594,229.828649
4026.111919,-10214.842000,370.102971,0.000000
4026.112249,-9474.636058,148.041188,153.219100
4026.112579,-9178.553681,0.000000,153.219100
4026.112909,-9178.553681,148.041188,153.219100
4026.113238,-9326.594869,222.061783,76.609550
4026.113568,-9918.759623,592.164754,0.000000
4026.113898,-9548.656652,296.082377,-153.219100
4026.114228,-9548.656652,222.061783,-306.438199
4026.114558,-9622.677246,0.000000,-306.438199
4026.114887,-10140.821405,444.123565,0.000000
4026.115217,-9770.718434,148.041188,842.705048
4026.115547,-9474.636058,0.000000,842.705048
4026.115877,-9622.677246,74.020594,1072.533697
4026.116207,-9844.739029,666.185348,1072.533697
4026.116536,-10362.883188,740.205942,306.438199
4026.116866,-10140.821405,592.164754,76.609550
4026.117196,-9770.718434,518.144159,-306.438199
4026.117526,-10066.800811,962.267725,0.000000
4026.117856,-10214.842000,148.041188,383.047749
4026.118185,-9918.759623,370.102971,153.219100
4026.118515,-9474.636058,148.041188,-536.266849
4026.118845,-9326.594869,74.020594,-612.876398
4026.119175,-10140.821405,296.082377,-306.438199
4026.119505,-10362.883188,814.226536,153.219100
4026.119834,-10288.862594,518.144159,1072.533697
4026.120164,-9770.718434,296.082377,919.314598
4026.120494,-9622.677246,444.123565,1302.362347
4026.120824,-10066.800811,0.000000,612.876398
4026.121154,-10214.842000,0.000000,153.219100
4026.121483,-9770.718434,0.000000,0.000000
4026.121813,-9252.574275,296.082377,0.000000
4026.122143,-9326.594869,222.061783,459.657299
4026.122473,-10140.821405,222.061783,1072.533697
4026.122802,-10362.883188,296.082377,536.266849
4026.123132,-9844.739029,0.000000,76.609550
4026.123462,-9622.677246,-296.082377,-306.438199
4026.123792,-9548.656652,-592.164754,0.000000
4026.124122,-9696.697840,-518.144159,229.828649
4026.124451,-8956.491898,-296.082377,766.095498
4026.124781,-9104.533087,-444.123565,1532.190996
4026.125111,-9992.780217,222.061783,536.266849
4026.125441,-10066.800811,0.000000,0.000000
4026.125771,-9992.780217,0.000000,-383.047749
4026.126100,-9992.780217,0.000000,0.000000
4026.126430,-10288.862594,0.000000,153.219100
4026.126760,-9474.636058,-592.164754,229.828649
4026.127090,-9696.697840,0.000000,766.095498
4026.127420,-9326.594869,-518.144159,459.657299
4026.127749,-9548.656652,-444.123565,0.000000
4026.128079,-9474.636058,-518.144159,-919.314598
4026.128409,-9844.739029,-148.041188,0.000000
4026.128739,-9844.739029,-148.041188,919.314598
4026.129069,-9696.697840,-518.144159,1072.533697
4026.129398,-9918.759623,-592.164754,842.705048
4026.129728,-9844.739029,-740.205942,459.657299
4026.130058,-10214.842000,-296.082377,0.000000
4026.130388,-9474.636058,0.000000,-306.438199
4026.130718,-9770.718434,-370.102971,0.000000
4026.131047,-9474.636058,0.000000,612.876398
4026.131377,-9844.739029,148.041188,995.924147
4026.131707,-10288.862594,1036.288319,766.095498
4026.132037,-10140.821405,148.041188,0.000000
4026.132367,-9918.759623,222.061783,-842.705048
4026.132696,-9474.636058,148.041188,-919.314598
4026.133026,-9844.739029,74.020594,-383.047749
4026.133356,-9844.739029,148.041188,0.000000
4026.133686,-9178.553681,0.000000,612.876398
4026.134016,-9474.636058,148.041188,766.095498
4026.134345,-9696.697840,296.082377,536.266849
4026.134675,-10140.821405,518.144159,-76.609550
4026.135005,-10140.821405,444.123565,76.609550
4026.135335,-9696.697840,0.000000,306.438199
4026.135664,-9548.656652,0.000000,766.095498
4026.135994,-9548.656652,444.123565,1455.581446
4026.136324,-9696.697840,518.144159,995.924147
4026.136654,-9770.718434,222.061783,153.219100
4026.136984,-9696.697840,296.082377,-536.266849
4026.137313,-9918.759623,370.102971,-612.876398
4026.137643,-9844.739029,444.123565,0.000000
4026.137973,-9178.553681,296.082377,153.219100
4026.138303,-9178.553681,222.061783,383.047749
4026.138633,-9548.656652,370.102971,459.657299
4026.138962,-10066.800811,592.164754,459.657299
4026.139292,-10140.821405,0.000000,-76.609550
4026.139622,-10066.800811,148.041188,-536.266849
4026.139952,-9696.697840,296.082377,0.000000
4026.140282,-9400.615463,518.144159,0.000000
4026.140611,-9770.718434,74.020594,919.314598
4026.140941,-9770.718434,148.041188,1072.533697
4026.141271,-9844.739029,74.020594,459.657299
4026.141601,-9548.656652,222.061783,-459.657299
4026.141931,-9770.718434,74.020594,-459.657299
4026.142260,-10288.862594,148.041188,229.828649
4026.142590,-9918.759623,296.082377,995.924147
4026.142920,-9622.677246,0.000000,612.876398
4026.143250,-9548.656652,-296.082377,536.266849
4026.143580,-9992.780217,-370.102971,306.438199
4026.143909,-10066.800811,148.041188,76.609550
4026.144239,-9474.636058,0.000000,-153.219100
4026.144569,-8882.471304,370.102971,-919.314598
4026.144899,-9474.636058,222.061783,229.828649
4026.145229,-10214.842000,444.123565,689.485948
4026.145558,-10362.883188,444.123565,766.095498
4026.145888,-10214.842000,740.205942,-383.047749
4026.146218,-9844.739029,222.061783,-1302.362347
4026.146548,-9548.656652,0.000000,-766.095498
4026.146877,-9622.677246,0.000000,-76.609550
4026.147207,-9178.553681,74.020594,689.485948
4026.147537,-9104.533087,0.000000,1225.752797
4026.147867,-9770.718434,0.000000,1378.971896
4026.148197,-10214.842000,148.041188,689.485948
4026.148526,-10510.924376,0.000000,0.000000
4026.148856,-9992.780217,222.061783,-766.095498
4026.149186,-9696.697840,-148.041188,-306.438199
4026.149516,-9474.636058,-296.082377,995.924147
4026.149846,-9696.697840,-296.082377,1225.752797
4026.150175,-9474.636058,-148.041188,1072.533697
4026.150505,-9548.656652,-370.102971,153.219100
4026.150835,-9548.656652,-148.041188,-459.657299
4026.151165,-10066.800811,0.000000,0.000000
4026.151495,-10140.821405,0.000000,306.438199
4026.151824,-9326.594869,-444.123565,1149.143247
4026.152154,-9030.512492,-518.144159,1302.362347
4026.152484,-9548.656652,-370.102971,1072.533697
4026.152814,-9992.780217,-444.123565,306.438199
4026.153144,-9770.718434,-74.020594,-383.047749
4026.153473,-9548.656652,0.000000,-76.609550
4026.153803,-9474.636058,-148.041188,0.000000
4026.154133,-9400.615463,-444.123565,1149.143247
4026.154463,-9178.553681,0.000000,1608.800546
4026.154793,-9770.718434,148.041188,612.876398
4026.155122,-9474.636058,0.000000,-536.266849
4026.155452,-9696.697840,74.020594,-1149.143247
4026.155782,-10066.800811,148.041188,-995.924147
4026.156112,-9770.718434,222.061783,0.000000
4026.156442,-9104.533087,0.000000,612.876398
4026.156771,-9474.636058,0.000000,1072.533697
4026.157101,-9770.718434,0.000000,612.876398
4026.157431,-10362.883188,296.082377,0.000000
4026.157761,-10288.862594,296.082377,-689.485948
4026.158091,-10436.903782,370.102971,-459.657299
4026.158420,-9622.677246,74.020594,0.000000
4026.158750,-9474.636058,-444.123565,1149.143247
4026.159080,-9844.739029,148.041188,1608.800546
4026.159410,-9622.677246,370.102971,995.924147
4026.159739,-9992.780217,74.020594,-612.876398
4026.160069,-9400.615463,518.144159,-1685.410096
4026.160399,-10140.821405,222.061783,-459.657299
4026.160729,-10288.862594,518.144159,536.266849
4026.161059,-9548.656652,0.000000,1149.143247
4026.161388,-9770.718434,222.061783,1149.143247
4026.161718,-9696.697840,148.041188,153.219100
4026.162048,-9918.759623,0.000000,-766.095498
4026.162378,-9918.759623,0.000000,-689.485948
4026.162708,-9696.697840,148.041188,-383.047749
4026.163037,-8734.430116,74.020594,536.266849
4026.163367,-9252.574275,-370.102971,1991.848295
4026.163697,-9992.780217,296.082377,1838.629195
4026.164027,-9992.780217,0.000000,612.876398
4026.164357,-9844.739029,444.123565,-1072.533697
4026.164686,-10066.800811,222.061783,-919.314598
4026.165016,-9992.780217,370.102971,306.438199
4026.165346,-9918.759623,444.123565,995.924147
4026.165676,-8956.491898,370.102971,1072.533697
4026.166006,-8808.450710,0.000000,536.266849
4026.166335,-9548.656652,0.000000,76.609550
4026.166665,-10066.800811,296.082377,-459.657299
4026.166995,-10214.842000,222.061783,-919.314598
4026.167325,-9548.656652,444.123565,-153.219100
4026.167655,-9178.553681,222.061783,536.266849
4026.167984,-9548.656652,74.020594,1225.752797
4026.168314,-10140.821405,444.123565,1149.143247
4026.168644,-10140.821405,740.205942,-306.438199
4026.168974,-9918.759623,222.061783,-1455.581446
4026.169304,-9696.697840,74.020594,-1149.143247
4026.169633,-9918.759623,296.082377,76.609550
4026.169963,-10066.800811,592.164754,1149.143247
4026.170293,-9770.718434,74.020594,1608.800546
4026.170623,-10214.842000,0.000000,612.876398
4026.170952,-10436.903782,0.000000,-536.266849
4026.171282,-9918.759623,-74.020594,-995.924147
4026.171612,-9400.615463,0.000000,-766.095498
4026.171942,-9326.594869,-296.082377,153.219100
4026.172272,-9104.533087,-370.102971,1838.629195
4026.172601,-9844.739029,-148.041188,2528.115143
4026.172931,-10658.965565,222.061783,1302.362347
4026.173261,-10214.842000,0.000000,0.000000
4026.173591,-9992.780217,-148.041188,-919.314598
4026.173921,-9770.718434,-370.102971,-612.876398
4026.174250,-9770.718434,592.164754,536.266849
4026.174580,-9548.656652,0.000000,1149.143247
4026.174910,-9474.636058,-148.041188,995.924147
4026.175240,-9548.656652,0.000000,0.000000
4026.175570,-9770.718434,0.000000,-459.657299
4026.175899,-9918.759623,-148.041188,-995.924147
4026.176229,-9622.677246,-222.061783,-766.095498
4026.176559,-9326.594869,-740.205942,229.828649
4026.176889,-9178.553681,-740.205942,919.314598
4026.177219,-9622.677246,-296.082377,1455.581446
4026.177548,-10214.842000,-222.061783,995.924147
4026.177878,-9696.697840,0.000000,-306.438199
4026.178208,-9622.677246,0.000000,-766.095498
4026.178538,-9622.677246,592.164754,-383.047749
4026.178868,-10288.862594,148.041188,229.828649
4026.179197,-10140.821405,0.000000,995.924147
4026.179527,-9844.739029,0.000000,612.876398
4026.179857,-9696.697840,444.123565,0.000000
4026.180187,-10214.842000,222.061783,-919.314598
4026.180517,-9918.759623,296.082377,-1072.533697
4026.180846,-9770.718434,-148.041188,-612.876398
4026.181176,-9474.636058,0.000000,612.876398
4026.181506,-9474.636058,-370.102971,2298.286494
4026.181836,-10214.842000,296.082377,2068.457845
4026.182166,-10584.944971,296.082377,1378.971896
4026.182495,-9918.759623,148.041188,0.000000
4026.182825,-9474.636058,296.082377,-1378.971896
4026.183155,-9918.759623,74.020594,-536.266849
4026.183485,-10214.842000,592.164754,919.314598
4026.183814,-9400.615463,74.020594,1072.533697
4026.184144,-8882.471304,296.082377,689.485948
4026.184474,-9252.574275,74.020594,0.000000
4026.184804,-10510.924376,592.164754,-766.095498
4026.185134,-10140.821405,148.041188,-995.924147
4026.185463,-9474.636058,0.000000,0.000000
4026.185793,-9178.553681,-148.041188,383.047749
4026.186123,-9474.636058,-148.041188,1991.848295
4026.186453,-9622.677246,0.000000,1225.752797
4026.186783,-9770.718434,74.020594,459.657299
4026.187112,-9326.594869,74.020594,-306.438199
4026.187442,-9696.697840,148.041188,-995.924147
4026.187772,-10510.924376,444.123565,229.828649
4026.188102,-10214.842000,370.102971,1072.533697
4026.188432,-9252.574275,0.000000,1762.019645
4026.188761,-9992.780217,0.000000,842.705048
4026.189091,-10214.842000,148.041188,0.000000
4026.189421,-10288.862594,74.020594,-1378.971896
4026.189751,-9474.636058,222.061783,-1225.752797
4026.190081,-9178.553681,370.102971,-459.657299
4026.190410,-9474.636058,370.102971,919.314598
4026.190740,-9918.759623,148.041188,1225.752797
4026.191070,-10584.944971,444.123565,919.314598
4026.191400,-10436.903782,222.061783,-306.438199
4026.191730,-10362.883188,148.041188,-1072.533697
4026.192060,-10288.862594,0.000000,-919.314598
4026.192389,-10140.821405,0.000000,612.876398
4026.192719,-9918.759623,148.041188,995.924147
4026.193049,-9400.615463,0.000000,1149.143247
4026.193379,-9622.677246,0.000000,-306.438199
4026.193709,-9992.780217,0.000000,-842.705048
4026.194039,-10140.821405,148.041188,-842.705048
4026.194368,-9622.677246,-592.164754,-306.438199
4026.194698,-8808.450710,-518.144159,229.828649
4026.195028,-8882.471304,-814.226536,919.314598
4026.195358,-9326.594869,-666.185348,1072.533697
4026.195688,-9622.677246,-222.061783,766.095498
4026.196018,-9474.636058,-296.082377,0.000000
4026.196347,-9474.636058,-444.123565,-153.219100
4026.196677,-9696.697840,-444.123565,383.047749
4026.197007,-10140.821405,0.000000,1149.143247
4026.197337,-10066.800811,0.000000,995.924147
4026.197667,-9992.780217,0.000000,306.438199
4026.197997,-9918.759623,-222.061783,-612.876398
4026.198326,-9696.697840,0.000000,-229.828649
4026.198656,-9696.697840,296.082377,-229.828649
4026.198986,-9252.574275,74.020594,-612.876398
4026.199316,-9400.615463,0.000000,76.609550
4026.199646,-9622.677246,148.041188,229.828649
4026.199976,-10584.944971,370.102971,766.095498
4026.200305,-10955.047942,222.061783,459.657299
4026.200635,-9844.739029,0.000000,-229.828649
4026.200965,-9178.553681,0.000000,0.000000
4026.201295,-9548.656652,0.000000,919.314598
4026.201625,-10510.924376,74.020594,1072.533697
4026.201955,-10436.903782,370.102971,995.924147
4026.202284,-10214.842000,370.102971,766.095498
4026.202614,-10214.842000,666.185348,459.657299
4026.202944,-10510.924376,518.144159,0.000000
4026.203274,-10066.800811,296.082377,-536.266849
4026.203604,-9696.697840,222.061783,-995.924147
4026.203934,-9474.636058,-74.020594,-383.047749
4026.204264,-9326.594869,-444.123565,536.266849
4026.204593,-9548.656652,0.000000,1455.581446
4026.204923,-9548.656652,222.061783,919.314598
4026.205253,-9474.636058,74.020594,0.000000
4026.205583,-9696.697840,0.000000,-153.219100
4026.205913,-10140.821405,74.020594,153.219100
4026.206243,-10288.862594,296.082377,1072.533697
4026.206572,-9474.636058,148.041188,1302.362347
4026.206902,-9770.718434,592.164754,1149.143247
4026.207232,-9474.636058,222.061783,383.047749
4026.207562,-9770.718434,148.041188,-689.485948
4026.207892,-9622.677246,0.000000,-612.876398
4026.208222,-9474.636058,74.020594,-995.924147
4026.208551,-9178.553681,0.000000,-153.219100
4026.208881,-9104.533087,-74.020594,919.314598
4026.209211,-9622.677246,148.041188,1072.533697
4026.209541,-9622.677246,370.102971,459.657299
4026.209871,-9918.759623,370.102971,-766.095498
4026.210201,-9622.677246,148.041188,-995.924147
4026.210530,-10658.965565,592.164754,76.609550
4026.210860,-10584.944971,444.123565,919.314598
4026.211190,-10214.842000,222.061783,1225.752797
4026.211520,-9696.697840,370.102971,76.609550
4026.211850,-9326.594869,-296.082377,-842.705048
4026.212180,-9474.636058,0.000000,-995.924147
4026.212509,-9844.739029,296.082377,-689.485948
4026.212839,-9326.594869,370.102971,0.000000
4026.213169,-9474.636058,444.123565,383.047749
4026.213499,-10140.821405,74.020594,995.924147
4026.213829,-10436.903782,0.000000,612.876398
4026.214159,-10436.903782,-148.041188,76.609550
4026.214488,-10066.800811,-444.123565,-383.047749
4026.214818,-9326.594869,-592.164754,76.609550
4026.215148,-9548.656652,0.000000,766.095498
4026.215478,-9474.636058,0.000000,919.314598
4026.215808,-9992.780217,0.000000,536.266849
4026.216138,-9918.759623,148.041188,0.000000
4026.216468,-9770.718434,148.041188,-689.485948
4026.216797,-9696.697840,0.000000,0.000000
4026.217127,-9252.574275,148.041188,-612.876398
4026.217457,-9252.574275,-74.020594,306.438199
4026.217787,-9400.615463,-222.061783,459.657299
4026.218117,-9770.718434,-148.041188,766.095498
4026.218447,-10140.821405,0.000000,459.657299
4026.218776,-10066.800811,0.000000,76.609550
4026.219106,-9992.780217,74.020594,-306.438199
4026.219436,-9844.739029,0.000000,536.266849
4026.219766,-10214.842000,-222.061783,995.924147
4026.220096,-10214.842000,148.041188,1455.581446
4026.220426,-9548.656652,0.000000,919.314598
4026.220755,-9326.594869,0.000000,76.609550
4026.221085,-9326.594869,0.000000,-612.876398
4026.221415,-9844.739029,296.082377,-536.266849
4026.221745,-9548.656652,148.041188,-306.438199
4026.222075,-9770.718434,370.102971,0.000000
4026.222405,-9474.636058,-74.020594,689.485948
4026.222734,-9918.759623,74.020594,689.485948
4026.223064,-10436.903782,0.000000,766.095498
4026.223394,-9844.739029,-222.061783,306.438199
4026.223724,-9770.718434,-296.082377,76.609550
4026.224054,-9252.574275,-592.164754,919.314598
4026.224384,-9622.677246,-222.061783,1149.143247
4026.224713,-9326.594869,222.061783,1302.362347
4026.225043,-9400.615463,148.041188,612.876398
4026.225373,-10066.800811,592.164754,76.609550
4026.225703,-10288.862594,296.082377,-612.876398
4026.226033,-10658.965565,518.144159,-1149.143247
4026.226363,-10140.821405,148.041188,-766.095498
4026.226692,-9474.636058,-444.123565,76.609550
4026.227022,-8956.491898,-296.082377,1225.752797
4026.227352,-9252.574275,-296.082377,995.924147
4026.227682,-9918.759623,-296.082377,995.924147
4026.228012,-9844.739029,-296.082377,229.828649
4026.228342,-9844.739029,0.000000,459.657299
4026.228672,-10362.883188,222.061783,919.314598
4026.229001,-10807.006753,0.000000,1149.143247
4026.229331,-10510.924376,-74.020594,995.924147
4026.229661,-9844.739029,-74.020594,76.609550
4026.229991,-9548.656652,0.000000,0.000000
4026.230321,-9696.697840,-222.061783,-383.047749
4026.230651,-9844.739029,74.020594,-689.485948
4026.230980,-9326.594869,0.000000,-766.095498
4026.231310,-9104.533087,0.000000,-306.438199
4026.231640,-9548.656652,0.000000,306.438199
4026.231970,-10214.842000,148.041188,459.657299
4026.232300,-10140.821405,-222.061783,383.047749
4026.232630,-9844.739029,-148.041188,0.000000
4026.232959,-9474.636058,-370.102971,0.000000
4026.233289,-9770.718434,-518.144159,612.876398
4026.233619,-9992.780217,0.000000,1302.362347
4026.233949,-9548.656652,0.000000,1072.533697
4026.234279,-9622.677246,740.205942,1149.143247
4026.234609,-10066.800811,370.102971,459.657299
4026.234938,-10658.965565,888.247130,0.000000
4026.235268,-10140.821405,296.082377,-383.047749
4026.235598,-9548.656652,444.123565,-1225.752797
4026.235928,-9030.512492,74.020594,-612.876398
4026.236258,-9104.533087,222.061783,-306.438199
4026.236588,-9548.656652,592.164754,229.828649
4026.236917,-10510.924376,518.144159,459.657299
4026.237247,-10288.862594,370.102971,0.000000
4026.237577,-10066.800811,0.000000,153.219100
4026.237907,-10658.965565,296.082377,919.314598
4026.238237,-10214.842000,148.041188,1378.971896
4026.238567,-9474.636058,0.000000,1455.581446
4026.238896,-9474.636058,370.102971,919.314598
4026.239226,-9622.677246,0.000000,153.219100
4026.239556,-9992.780217,222.061783,-306.438199
4026.239886,-9770.718434,518.144159,-842.705048
4026.240216,-9548.656652,518.144159,-306.438199
4026.240546,-8438.347739,74.020594,-153.219100
4026.240876,-8882.471304,370.102971,459.657299
4026.241205,-9844.739029,222.061783,459.657299
4026.241535,-9992.780217,222.061783,0.000000
4026.241865,-9548.656652,74.020594,-612.876398
4026.242195,-9844.739029,222.061783,-536.266849
4026.242525,-10288.862594,296.082377,383.047749
4026.242855,-9844.739029,74.020594,995.924147
4026.243184,-9474.636058,148.041188,1149.143247
4026.243514,-9622.677246,0.000000,919.314598
4026.243844,-10288.862594,222.061783,536.266849
4026.244174,-10658.965565,74.020594,-153.219100
4026.244504,-10140.821405,0.000000,-153.219100
4026.244834,-9474.636058,0.000000,0.000000
4026.245163,-9104.533087,-370.102971,229.828649
4026.245493,-9326.594869,-222.061783,842.705048
4026.245823,-9622.677246,296.082377,536.266849
4026.246153,-9770.718434,148.041188,0.000000
4026.246483,-9844.739029,0.000000,-306.438199
4026.246813,-9918.759623,0.000000,-229.828649
4026.247142,-10584.944971,148.041188,459.657299
4026.247472,-10288.862594,0.000000,1378.971896
4026.247802,-9918.759623,-370.102971,995.924147
4026.248132,-9918.759623,-370.102971,306.438199
4026.248462,-9548.656652,0.000000,-153.219100
4026.248792,-9696.697840,74.020594,-306.438199
4026.249121,-9770.718434,370.102971,-229.828649
4026.249451,-9918.759623,296.082377,0.000000
4026.249781,-9622.677246,-148.041188,0.000000
4026.250111,-9548.656652,0.000000,229.828649
4026.250441,-10066.800811,0.000000,459.657299
4026.250771,-9844.739029,0.000000,0.000000
4026.251100,-9844.739029,-74.020594,-383.047749
4026.251430,-9400.615463,-592.164754,0.000000
4026.251760,-9770.718434,0.000000,766.095498
4026.252090,-10066.800811,74.020594,1455.581446
4026.252420,-9992.780217,-296.082377,1838.629195
4026.252750,-9844.739029,0.000000,1302.362347
4026.253080,-9844.739029,-148.041188,612.876398
4026.253409,-10288.862594,0.000000,-306.438199
4026.253739,-9696.697840,0.000000,-536.266849
4026.254069,-8956.491898,-74.020594,0.000000
4026.254399,-8512.368333,-370.102971,153.219100
4026.254729,-9474.636058,74.020594,383.047749
4026.255059,-10066.800811,148.041188,766.095498
4026.255388,-9844.739029,148.041188,0.000000
4026.255718,-9622.677246,-296.082377,-459.657299
4026.256048,-10066.800811,-222.061783,0.000000
4026.256378,-10436.903782,0.000000,766.095498
4026.256708,-9548.656652,0.000000,1378.971896
4026.257038,-9326.594869,74.020594,1532.190996
4026.257367,-9770.718434,222.061783,766.095498
4026.257697,-10140.821405,370.102971,0.000000
4026.258027,-10362.883188,740.205942,-612.876398
4026.258357,-9400.615463,296.082377,-919.314598
4026.258687,-9326.594869,148.041188,0.000000
4026.259017,-9030.512492,0.000000,306.438199
4026.259346,-9696.697840,0.000000,1072.533697
4026.259676,-9918.759623,0.000000,689.485948
4026.260006,-9770.718434,0.000000,76.609550
4026.260336,-9474.636058,0.000000,-306.438199
4026.260666,-10066.800811,-370.102971,76.609550
4026.260996,-10362.883188,74.020594,1149.143247
4026.261325,-9622.677246,74.020594,1838.629195
4026.261655,-9326.594869,148.041188,1608.800546
4026.261985,-9992.780217,222.061783,536.266849
4026.262315,-10510.924376,518.144159,-612.876398
4026.262645,-10510.924376,222.061783,-1378.971896
4026.262975,-9844.739029,0.000000,-842.705048
4026.263305,-9104.533087,-148.041188,-459.657299
4026.263634,-9400.615463,-296.082377,383.047749
4026.263964,-9992.780217,222.061783,383.047749
4026.264294,-9770.718434,-148.041188,842.705048
4026.264624,-9548.656652,-222.061783,-306.438199
4026.264954,-9400.615463,-148.041188,-383.047749
4026.265284,-9770.718434,0.000000,0.000000
4026.265613,-10510.924376,370.102971,1378.971896
4026.265943,-9992.780217,0.000000,1532.190996
4026.266273,-10288.862594,0.000000,1225.752797
4026.266603,-10510.924376,0.000000,306.438199
4026.266933,-10584.944971,148.041188,-689.485948
4026.267263,-9622.677246,74.020594,-842.705048
4026.267592,-8882.471304,0.000000,-536.266849
4026.267922,-8882.471304,0.000000,0.000000
4026.268252,-9400.615463,592.164754,1072.533697
4026.268582,-10510.924376,444.123565,689.485948
4026.268912,-10732.986159,148.041188,306.438199
4026.269242,-9918.759623,0.000000,-76.609550
4026.269571,-9326.594869,-148.041188,-995.924147
4026.269901,-9622.677246,0.000000,153.219100
4026.270231,-9474.636058,148.041188,1225.752797
4026.270561,-9326.594869,0.000000,1072.533697
4026.270891,-9918.759623,518.144159,689.485948
4026.271221,-10214.842000,740.205942,459.657299
4026.271550,-10510.924376,814.226536,-383.047749
4026.271880,-9474.636058,370.102971,-919.314598
4026.272210,-9474.636058,444.123565,-1072.533697
4026.272540,-9178.553681,444.123565,-766.095498
4026.272870,-9770.718434,0.000000,76.609550
4026.273200,-9696.697840,444.123565,306.438199
4026.273529,-9474.636058,444.123565,229.828649
4026.273859,-9622.677246,814.226536,-995.924147
4026.274189,-9696.697840,148.041188,-459.657299
4026.274519,-10288.862594,296.082377,536.266849
4026.274849,-10066.800811,592.164754,995.924147
4026.275179,-9474.636058,0.000000,919.314598
4026.275509,-9252.574275,0.000000,1378.971896
4026.275838,-9548.656652,0.000000,842.705048
4026.276168,-10140.821405,0.000000,0.000000
4026.276498,-9918.759623,74.020594,-306.438199
4026.276828,-9326.594869,148.041188,76.609550
4026.277158,-9104.533087,74.020594,842.705048
4026.277488,-9400.615463,-370.102971,1455.581446
4026.277817,-10362.883188,296.082377,1378.971896
4026.278147,-9622.677246,222.061783,0.000000
4026.278477,-9696.697840,148.041188,-689.485948
4026.278807,-9696.697840,0.000000,-689.485948
4026.279137,-10732.986159,222.061783,153.219100
4026.279467,-10214.842000,0.000000,229.828649
4026.279796,-9326.594869,-222.061783,1149.143247
4026.280126,-9252.574275,0.000000,536.266849
4026.280456,-9474.636058,74.020594,0.000000
4026.280786,-9400.615463,0.000000,-229.828649
4026.281116,-9178.553681,296.082377,-306.438199
4026.281446,-9696.697840,0.000000,229.828649
4026.281775,-9844.739029,0.000000,842.705048
4026.282105,-10362.883188,-222.061783,1455.581446
4026.282435,-10436.903782,0.000000,536.266849
4026.282765,-9474.636058,-592.164754,0.000000
4026.283095,-9104.533087,-296.082377,-689.485948
4026.283425,-9474.636058,0.000000,0.000000
4026.283754,-10066.800811,814.226536,459.657299
4026.284084,-10436.903782,222.061783,1149.143247
4026.284414,-10436.903782,370.102971,1149.143247
4026.284744,-10584.944971,148.041188,306.438199
4026.285074,-10732.986159,0.000000,-689.485948
4026.285404,-9770.718434,0.000000,-1378.971896
4026.285733,-9326.594869,-444.123565,-995.924147
4026.286063,-8956.491898,-444.123565,306.438199
4026.286393,-9178.553681,-370.102971,1455.581446
4026.286723,-9696.697840,0.000000,1991.848295
4026.287053,-10214.842000,0.000000,1302.362347
4026.287383,-9770.718434,74.020594,76.609550
4026.287713,-9622.677246,0.000000,-842.705048
4026.288042,-9844.739029,370.102971,0.000000
4026.288372,-9992.780217,296.082377,459.657299
4026.288702,-9474.636058,148.041188,919.314598
4026.289032,-9474.636058,518.144159,0.000000
4026.289362,-9844.739029,370.102971,-383.047749
4026.289692,-10140.821405,148.041188,-1072.533697
4026.290021,-9474.636058,222.061783,-919.314598
4026.290351,-9178.553681,0.000000,-612.876398
4026.290681,-8956.491898,148.041188,612.876398
4026.291011,-9104.533087,-148.041188,1378.971896
4026.291341,-9992.780217,74.020594,1685.410096
4026.291671,-10214.842000,0.000000,612.876398
4026.292000,-10584.944971,0.000000,-612.876398
4026.292330,-9992.780217,-296.082377,0.000000
4026.292660,-9918.759623,-222.061783,536.266849
4026.292990,-9548.656652,148.041188,1455.581446
4026.293320,-9252.574275,0.000000,1378.971896
4026.293650,-9252.574275,74.020594,689.485948
4026.293979,-9770.718434,0.000000,-689.485948
4026.294309,-10362.883188,370.102971,-1685.410096
4026.294639,-10140.821405,444.123565,-1838.629195
4026.294969,-9548.656652,-222.061783,-306.438199
4026.295299,-9104.533087,-444.123565,536.266849
4026.295629,-9030.512492,-666.185348,1608.800546
4026.295959,-9844.739029,0.000000,1455.581446
4026.296288,-10288.862594,-74.020594,459.657299
4026.296618,-10140.821405,148.041188,-536.266849
4026.296948,-9918.759623,0.000000,0.000000
4026.297278,-10732.986159,148.041188,1378.971896
4026.297608,-9918.759623,0.000000,1378.971896
4026.297938,-9844.739029,444.123565,842.705048
4026.298268,-9548.656652,148.041188,0.000000
4026.298597,-9622.677246,0.000000,-919.314598
4026.298927,-10362.883188,222.061783,-1608.800546
4026.299257,-9622.677246,148.041188,-459.657299
4026.299587,-8956.491898,74.020594,0.000000
4026.299917,-9252.574275,-148.041188,919.314598
4026.300247,-9844.739029,-222.061783,1149.143247
4026.300577,-10214.842000,74.020594,1149.143247
4026.300906,-9474.636058,0.000000,383.047749
4026.301236,-9622.677246,0.000000,153.219100
4026.301566,-10066.800811,0.000000,0.000000
4026.301896,-10362.883188,370.102971,919.314598
4026.302226,-9770.718434,814.226536,1149.143247
4026.302556,-9622.677246,222.061783,766.095498
4026.302886,-9992.780217,222.061783,459.657299
4026.303215,-10066.800811,296.082377,-612.876398
4026.303545,-9770.718434,962.267725,-1685.410096
4026.303875,-9474.636058,518.144159,-1532.190996
4026.304205,-9622.677246,74.020594,-229.828649
4026.304535,-9548.656652,0.000000,536.266849
4026.304865,-9918.759623,0.000000,995.924147
4026.305195,-9770.718434,0.000000,919.314598
4026.305524,-9770.718434,-370.102971,459.657299
4026.305854,-9548.656652,0.000000,229.828649
4026.306184,-9548.656652,0.000000,766.095498
4026.306514,-9770.718434,222.061783,1378.971896
4026.306844,-10362.883188,518.144159,1378.971896
4026.307174,-10288.862594,370.102971,1072.533697
4026.307504,-10436.903782,222.061783,-153.219100
4026.307833,-10140.821405,296.082377,-1455.581446
4026.308163,-9696.697840,74.020594,-1608.800546
4026.308493,-9178.553681,0.000000,-1149.143247
4026.308823,-8512.368333,0.000000,-229.828649
4026.309153,-8660.409521,-296.082377,383.047749
4026.309483,-9474.636058,-74.020594,1149.143247
4026.309813,-10140.821405,74.020594,612.876398
4026.310142,-9918.759623,-148.041188,76.609550
4026.310472,-9548.656652,-740.205942,306.438199
4026.310802,-10288.862594,-518.144159,995.924147
4026.311132,-9918.759623,-518.144159,1532.190996
4026.311462,-9622.677246,-296.082377,1302.362347
4026.311792,-9326.594869,-148.041188,842.705048
4026.312122,-9696.697840,148.041188,0.000000
4026.312451,-10732.986159,444.123565,-766.095498
4026.312781,-10066.800811,444.123565,-1149.143247
4026.313111,-9474.636058,370.102971,-919.314598
4026.313441,-8882.471304,-74.020594,153.219100
4026.313771,-9104.533087,-222.061783,459.657299
4026.314101,-10140.821405,0.000000,459.657299
4026.314431,-10140.821405,0.000000,459.657299
4026.314760,-9770.718434,-296.082377,-76.609550
4026.315090,-9252.574275,0.000000,153.219100
4026.315420,-9992.780217,0.000000,842.705048
4026.315750,-10658.965565,444.123565,1532.190996
4026.316080,-9992.780217,296.082377,1225.752797
4026.316410,-9770.718434,444.123565,842.705048
4026.316740,-10214.842000,518.144159,-153.219100
4026.317069,-10658.965565,592.164754,-919.314598
4026.317399,-10288.862594,592.164754,-1072.533697
4026.317729,-9696.697840,148.041188,-383.047749
4026.318059,-9252.574275,74.020594,0.000000
4026.318389,-9252.574275,0.000000,383.047749
4026.318719,-9844.739029,444.123565,459.657299
4026.319049,-10214.842000,518.144159,0.000000
4026.319378,-9992.780217,296.082377,-689.485948
4026.319708,-9770.718434,0.000000,0.000000
4026.320038,-10214.842000,296.082377,995.924147
4026.320368,-10288.862594,222.061783,2145.067394
4026.320698,-9770.718434,148.041188,1149.143247
4026.321028,-9622.677246,-148.041188,689.485948
4026.321358,-9770.718434,0.000000,229.828649
4026.321687,-9918.759623,222.061783,-229.828649
4026.322017,-9474.636058,518.144159,-995.924147
4026.322347,-9548.656652,518.144159,-229.828649
4026.322677,-8808.450710,296.082377,0.000000
4026.323007,-9474.636058,0.000000,153.219100
4026.323337,-9992.780217,444.123565,-306.438199
4026.323667,-9400.615463,222.061783,-689.485948
4026.323996,-9400.615463,0.000000,-383.047749
4026.324326,-9474.636058,148.041188,0.000000
4026.324656,-10140.821405,148.041188,995.924147
4026.324986,-10362.883188,296.082377,1685.410096
4026.325316,-9770.718434,0.000000,1072.533697
4026.325646,-9918.759623,74.020594,536.266849
4026.325976,-9770.718434,0.000000,-229.828649
4026.326305,-10140.821405,148.041188,-153.219100
4026.326635,-9474.636058,296.082377,-383.047749
4026.326965,-8882.471304,74.020594,-306.438199
4026.327295,-9474.636058,74.020594,0.000000
4026.327625,-9918.759623,-370.102971,459.657299
4026.327955,-9992.780217,0.000000,306.438199
4026.328285,-9770.718434,-74.020594,0.000000
4026.328614,-9474.636058,-74.020594,-229.828649
4026.328944,-9474.636058,-518.144159,153.219100
4026.329274,-9918.759623,-370.102971,1455.581446
4026.329604,-9918.759623,74.020594,1302.362347
4026.329934,-10140.821405,0.000000,1149.143247
4026.330264,-10584.944971,-222.061783,766.095498
4026.330594,-10436.903782,0.000000,383.047749
4026.330923,-9992.780217,0.000000,-536.266849
4026.331253,-9474.636058,0.000000,-229.828649
4026.331583,-9548.656652,0.000000,383.047749
4026.331913,-9622.677246,-592.164754,1072.533697
4026.332243,-9770.718434,-666.185348,766.095498
4026.332573,-9696.697840,-740.205942,766.095498
4026.332903,-9474.636058,-518.144159,306.438199
4026.333232,-9326.594869,-518.144159,0.000000
4026.333562,-9918.759623,-74.020594,689.485948
4026.333892,-10436.903782,222.061783,1072.533697
4026.334222,-10362.883188,222.061783,1149.143247
4026.334552,-9918.759623,148.041188,612.876398
4026.334882,-9770.718434,296.082377,-766.095498
4026.335212,-10362.883188,74.020594,-383.047749
4026.335541,-10066.800811,148.041188,-689.485948
4026.335871,-9178.553681,0.000000,-536.266849
4026.336201,-8882.471304,222.061783,229.828649
4026.336531,-9326.594869,-74.020594,689.485948
4026.336861,-9844.739029,0.000000,536.266849
4026.337191,-10140.821405,296.082377,459.657299
4026.337521,-9474.636058,0.000000,-153.219100
4026.337850,-9696.697840,74.020594,0.000000
4026.338180,-9844.739029,0.000000,536.266849
4026.338510,-10066.800811,518.144159,1149.143247
4026.338840,-9400.615463,444.123565,919.314598
4026.339170,-9548.656652,888.247130,306.438199
4026.339500,-10584.944971,740.205942,-612.876398
4026.339830,-10584.944971,518.144159,-919.314598
4026.340159,-9992.780217,296.082377,-612.876398
4026.340489,-9474.636058,962.267725,-689.485948
4026.340819,-9400.615463,370.102971,229.828649
4026.341149,-9548.656652,74.020594,689.485948
4026.341479,-10214.842000,148.041188,766.095498
4026.341809,-10066.800811,222.061783,536.266849
4026.342139,-9770.718434,0.000000,459.657299
4026.342468,-9770.718434,296.082377,536.266849
4026.342798,-10288.862594,222.061783,1072.533697
4026.343128,-10140.821405,296.082377,1685.410096
4026.343458,-9844.739029,148.041188,1378.971896
4026.343788,-9548.656652,222.061783,689.485948
4026.344118,-9696.697840,148.041188,-153.219100
4026.344448,-9770.718434,74.020594,-689.485948
4026.344777,-8956.491898,666.185348,-1685.410096
4026.345107,-8882.471304,0.000000,-612.876398
4026.345437,-9326.594869,74.020594,0.000000
4026.345767,-9326.594869,0.000000,306.438199
4026.346097,-9770.718434,666.185348,229.828649
4026.346427,-9622.677246,222.061783,229.828649
4026.346757,-9474.636058,0.000000,0.000000
4026.347086,-9770.718434,0.000000,0.000000
4026.347416,-10436.903782,148.041188,153.219100
4026.347746,-10436.903782,0.000000,842.705048
4026.348076,-9622.677246,0.000000,766.095498
4026.348406,-9548.656652,222.061783,459.657299
4026.348736,-9770.718434,0.000000,0.000000
4026.349066,-10066.800811,296.082377,-536.266849
4026.349395,-9770.718434,74.020594,-536.266849
4026.349725,-9844.739029,74.020594,-229.828649
4026.350055,-9918.759623,-148.041188,383.047749
4026.350385,-10510.924376,296.082377,1378.971896
4026.350715,-10658.965565,148.041188,1072.533697
4026.351045,-9548.656652,-370.102971,229.828649
4026.351375,-9548.656652,-518.144159,-383.047749
4026.351704,-9474.636058,-370.102971,0.000000
4026.352034,-10140.821405,0.000000,766.095498
4026.352364,-10066.800811,-370.102971,1225.752797
4026.352694,-9474.636058,-592.164754,766.095498
4026.353024,-9474.636058,-666.185348,459.657299
4026.353354,-9844.739029,-370.102971,0.000000
4026.353684,-10066.800811,-296.082377,-383.047749
4026.354013,-9992.780217,74.020594,-689.485948
4026.354343,-9474.636058,0.000000,-536.266849
4026.354673,-9474.636058,0.000000,306.438199
4026.355003,-9918.759623,-296.082377,689.485948
4026.355333,-10140.821405,-148.041188,612.876398
4026.355663,-9770.718434,-370.102971,0.000000
4026.355993,-9326.594869,-592.164754,-766.095498
4026.356322,-9400.615463,-518.144159,0.000000
4026.356652,-9622.677246,-74.020594,1378.971896
4026.356982,-9474.636058,148.041188,766.095498
4026.357312,-9400.615463,148.041188,383.047749
4026.357642,-9992.780217,0.000000,459.657299
4026.357972,-10510.924376,74.020594,0.000000
4026.358302,-11029.068536,370.102971,0.000000
4026.358631,-10140.821405,0.000000,-306.438199
4026.358961,-9326.594869,0.000000,153.219100
4026.359291,-8808.450710,-296.082377,842.705048
4026.359621,-9104.533087,0.000000,995.924147
4026.359951,-9844.739029,444.123565,689.485948
4026.360281,-10140.821405,222.061783,229.828649
4026.360611,-9992.780217,74.020594,-383.047749
4026.360941,-9992.780217,148.041188,153.219100
4026.361270,-10362.883188,296.082377,995.924147
4026.361600,-9992.780217,518.144159,995.924147
4026.361930,-9548.656652,296.082377,689.485948
4026.362260,-9992.780217,740.205942,0.000000
4026.362590,-10584.944971,666.185348,0.000000
4026.362920,-10881.027347,740.205942,153.219100
4026.363250,-10214.842000,666.185348,-689.485948
4026.363579,-9178.553681,666.185348,-842.705048
4026.363909,-8956.491898,296.082377,-229.828649
4026.364239,-9696.697840,296.082377,536.266849
4026.364569,-9770.718434,666.185348,842.705048
4026.364899,-9622.677246,0.000000,76.609550
4026.365229,-9474.636058,0.000000,459.657299
4026.365559,-9918.759623,-296.082377,766.095498
4026.365888,-9992.780217,0.000000,1455.581446
4026.366218,-9104.533087,0.000000,1072.533697
4026.366548,-9030.512492,0.000000,766.095498
4026.366878,-9622.677246,296.082377,919.314598
4026.367208,-10584.944971,518.144159,229.828649
4026.367538,-10288.862594,666.185348,-383.047749
4026.367868,-9918.759623,666.185348,-1302.362347
4026.368197,-9770.718434,74.020594,-1302.362347
4026.368527,-9326.594869,0.000000,-689.485948
4026.368857,-9918.759623,666.185348,536.266849
4026.369187,-9696.697840,148.041188,76.609550
4026.369517,-9474.636058,0.000000,-459.657299
4026.369847,-9844.739029,0.000000,-536.266849
4026.370177,-10362.883188,74.020594,459.657299
4026.370506,-10658.965565,148.041188,1072.533697
4026.370836,-10214.842000,0.000000,1072.533697
4026.371166,-9696.697840,-518.144159,1149.143247
4026.371496,-9622.677246,-74.020594,689.485948
4026.371826,-10140.821405,74.020594,-229.828649
4026.372156,-9696.697840,222.061783,-612.876398
4026.372486,-9474.636058,0.000000,-766.095498
4026.372815,-9104.533087,74.020594,-842.705048
4026.373145,-9770.718434,0.000000,229.828649
4026.373475,-9918.759623,0.000000,153.219100
4026.373805,-9844.739029,0.000000,0.000000
4026.374135,-9622.677246,0.000000,-306.438199
4026.374465,-9400.615463,-148.041188,-459.657299
4026.374795,-10288.862594,0.000000,536.266849
4026.375124,-10436.903782,222.061783,995.924147
4026.375454,-9770.718434,-370.102971,1149.143247
4026.375784,-9844.739029,148.041188,842.705048
4026.376114,-10584.944971,370.102971,1149.143247
4026.376444,-10658.965565,0.000000,0.000000
4026.376774,-9844.739029,0.000000,-995.924147
4026.377104,-9104.533087,74.020594,-1225.752797
4026.377433,-8808.450710,-74.020594,0.000000
4026.377763,-9178.553681,-148.041188,842.705048
4026.378093,-10066.800811,74.020594,1072.533697
4026.378423,-9770.718434,-74.020594,76.609550
4026.378753,-9474.636058,-296.082377,0.000000
4026.379083,-9400.615463,-740.205942,-76.609550
4026.379413,-10214.842000,-296.082377,1149.143247
4026.379742,-9770.718434,-296.082377,1915.238745
4026.380072,-9474.636058,-222.061783,1608.800546
4026.380402,-9548.656652,74.020594,1455.581446
4026.380732,-10584.944971,518.144159,459.657299
4026.381062,-10732.986159,74.020594,-306.438199
4026.381392,-10066.800811,74.020594,-842.705048
4026.381722,-8956.491898,148.041188,-689.485948
4026.382051,-8512.368333,-444.123565,-383.047749
4026.382381,-8956.491898,-222.061783,842.705048
4026.382711,-9548.656652,0.000000,919.314598
4026.383041,-9474.636058,0.000000,0.000000
4026.383371,-9622.677246,0.000000,-766.095498
4026.383701,-10066.800811,-370.102971,-306.438199
4026.384031,-10732.986159,0.000000,1072.533697
4026.384360,-10288.862594,-296.082377,2221.676944
4026.384690,-9400.615463,-370.102971,1455.581446
4026.385020,-9696.697840,-74.020594,1149.143247
4026.385350,-10214.842000,148.041188,229.828649
4026.385680,-10510.924376,444.123565,-689.485948
4026.386010,-10214.842000,518.144159,-1149.143247
4026.386340,-9400.615463,222.061783,-919.314598
4026.386669,-9548.656652,0.000000,0.000000
4026.386999,-10140.821405,74.020594,612.876398
4026.387329,-9918.759623,148.041188,306.438199
4026.387659,-9474.636058,-148.041188,-766.095498
4026.387989,-9474.636058,-74.020594,-1149.143247
4026.388319,-9770.718434,0.000000,0.000000
4026.388649,-10881.027347,370.102971,1378.971896
4026.388978,-9770.718434,0.000000,1455.581446
4026.389308,-9622.677246,0.000000,1378.971896
4026.389638,-9992.780217,148.041188,1072.533697
4026.389968,-10140.821405,148.041188,229.828649
4026.390298,-10214.842000,962.267725,-766.095498
4026.390628,-9918.759623,444.123565,-842.705048
4026.390958,-9548.656652,222.061783,-229.828649
4026.391287,-9326.594869,444.123565,-306.438199
4026.391617,-9474.636058,518.144159,0.000000
4026.391947,-9992.780217,518.144159,0.000000
4026.392277,-9252.574275,370.102971,-536.266849
4026.392607,-8956.491898,74.020594,-1225.752797
4026.392936,-10140.821405,370.102971,-229.828649
4026.393266,-10288.862594,296.082377,229.828649
4026.393596,-9844.739029,0.000000,995.924147
4026.393926,-9400.615463,0.000000,995.924147
4026.394256,-9622.677246,0.000000,1608.800546
4026.394585,-10288.862594,222.061783,612.876398
4026.394915,-10214.842000,666.185348,-306.438199
4026.395245,-9770.718434,370.102971,-842.705048
4026.395575,-9474.636058,444.123565,-536.266849
4026.395905,-9400.615463,222.061783,76.609550
4026.396234,-9992.780217,296.082377,689.485948
4026.396564,-9622.677246,148.041188,0.000000
4026.396894,-9474.636058,0.000000,-1072.533697
4026.397224,-9696.697840,74.020594,-842.705048
4026.397554,-10066.800811,0.000000,0.000000
4026.397883,-10362.883188,74.020594,1608.800546
4026.398213,-9252.574275,0.000000,1762.019645
4026.398543,-10288.862594,74.020594,2145.067394
4026.398873,-10214.842000,0.000000,1225.752797
4026.399202,-10584.944971,0.000000,459.657299
4026.399532,-9918.759623,0.000000,-612.876398
4026.399862,-9400.615463,0.000000,-459.657299
4026.400192,-9326.594869,-296.082377,0.000000
4026.400522,-9178.553681,-518.144159,766.095498
4026.400851,-9696.697840,0.000000,689.485948
4026.401181,-9548.656652,-222.061783,-306.438199
4026.401511,-9326.594869,-444.123565,-766.095498
4026.401841,-9326.594869,-444.123565,-919.314598
4026.402171,-10214.842000,0.000000,689.485948
4026.402500,-10362.883188,0.000000,1532.190996
4026.402830,-10436.903782,0.000000,2068.457845
4026.403160,-9918.759623,-222.061783,1378.971896
4026.403490,-9844.739029,-296.082377,229.828649
4026.403820,-9992.780217,0.000000,-383.047749
4026.404149,-9548.656652,-296.082377,0.000000
4026.404479,-9326.594869,148.041188,0.000000
4026.404809,-9104.533087,0.000000,229.828649
4026.405139,-9844.739029,0.000000,766.095498
4026.405468,-10288.862594,0.000000,612.876398
4026.405798,-9696.697840,-740.205942,0.000000
4026.406128,-9326.594869,-592.164754,-842.705048
4026.406458,-9622.677246,-814.226536,-612.876398
4026.406788,-9844.739029,-148.041188,766.095498
4026.407117,-9844.739029,666.185348,2374.896044
4026.407447,-9326.594869,0.000000,1685.410096
4026.407777,-9696.697840,0.000000,919.314598
4026.408107,-10436.903782,296.082377,306.438199
4026.408437,-10807.006753,370.102971,0.000000
4026.408766,-9844.739029,0.000000,-536.266849
4026.409096,-9326.594869,0.000000,-306.438199
4026.409426,-9252.574275,-444.123565,153.219100
4026.409756,-9326.594869,-148.041188,842.705048
4026.410086,-9622.677246,222.061783,612.876398
4026.410415,-9326.594869,222.061783,0.000000
4026.410745,-9696.697840,296.082377,-689.485948
4026.411075,-10214.842000,148.041188,0.000000
4026.411405,-10510.924376,296.082377,612.876398
4026.411734,-9918.759623,74.020594,919.314598
4026.412064,-9696.697840,0.000000,842.705048
4026.412394,-9400.615463,74.020594,689.485948
4026.412724,-9474.636058,74.020594,689.485948
4026.413054,-9548.656652,370.102971,-612.876398
4026.413383,-9474.636058,592.164754,-689.485948
4026.413713,-9770.718434,1036.288319,-229.828649
4026.414043,-9696.697840,518.144159,383.047749
4026.414373,-9992.780217,370.102971,766.095498
4026.414703,-10140.821405,444.123565,612.876398
4026.415032,-9770.718434,148.041188,-383.047749
4026.415362,-9030.512492,0.000000,-1455.581446
4026.415692,-9770.718434,148.041188,-306.438199
4026.416022,-10214.842000,74.020594,536.266849
4026.416352,-10140.821405,148.041188,1762.019645
4026.416681,-9992.780217,0.000000,1608.800546
4026.417011,-10510.924376,222.061783,1072.533697
4026.417341,-9992.780217,74.020594,0.000000
4026.417671,-10066.800811,296.082377,-459.657299
4026.418000,-9548.656652,148.041188,-536.266849
4026.418330,-9326.594869,0.000000,995.924147
4026.418660,-10066.800811,0.000000,1225.752797
4026.418990,-10362.883188,74.020594,1455.581446
4026.419320,-10140.821405,-296.082377,766.095498
4026.419649,-9104.533087,-592.164754,-842.705048
4026.419979,-9252.574275,-148.041188,-919.314598
4026.420309,-9696.697840,-370.102971,459.657299
4026.420639,-10214.842000,74.020594,1685.410096
4026.420969,-9622.677246,0.000000,1685.410096
4026.421298,-9770.718434,370.102971,842.705048
4026.421628,-9844.739029,148.041188,-383.047749
4026.421958,-10288.862594,222.061783,-1685.410096
4026.422288,-9844.739029,222.061783,-1915.238745
4026.422618,-9474.636058,370.102971,-536.266849
4026.422947,-9474.636058,74.020594,383.047749
4026.423277,-9474.636058,-148.041188,766.095498
4026.423607,-10288.862594,0.000000,689.485948
4026.423937,-9622.677246,-222.061783,-229.828649
4026.424266,-9252.574275,-592.164754,-1225.752797
4026.424596,-9400.615463,-444.123565,-842.705048
4026.424926,-9548.656652,-370.102971,689.485948
4026.425256,-9918.759623,-296.082377,2068.457845
4026.425586,-9992.780217,222.061783,1762.019645
4026.425915,-9992.780217,222.061783,1302.362347
4026.426245,-10732.986159,0.000000,-229.828649
4026.426575,-10732.986159,222.061783,-919.314598
4026.426905,-9622.677246,0.000000,-1149.143247
4026.427235,-9326.594869,0.000000,0.000000
4026.427564,-8956.491898,-370.102971,612.876398
4026.427894,-9178.553681,-296.082377,612.876398
4026.428224,-9918.759623,296.082377,306.438199
4026.428554,-9548.656652,0.000000,-536.266849
4026.428884,-9474.636058,0.000000,-689.485948
4026.429213,-9474.636058,0.000000,0.000000
4026.429543,-10288.862594,296.082377,1455.581446
4026.429873,-10066.800811,-148.041188,1915.238745
4026.430203,-10140.821405,0.000000,919.314598
4026.430532,-9696.697840,0.000000,689.485948
4026.430862,-9918.759623,74.020594,0.000000
4026.431192,-10214.842000,0.000000,0.000000
4026.431522,-9918.759623,148.041188,0.000000
4026.431852,-9178.553681,0.000000,0.000000
4026.432181,-9178.553681,0.000000,536.266849
4026.432511,-9696.697840,74.020594,459.657299
4026.432841,-10362.883188,296.082377,0.000000
4026.433171,-9474.636058,74.020594,-689.485948
4026.433501,-9326.594869,0.000000,-766.095498
4026.433830,-9770.718434,0.000000,153.219100
4026.434160,-10066.800811,0.000000,1302.362347
4026.434490,-9696.697840,0.000000,1532.190996
4026.434820,-9474.636058,-148.041188,1072.533697
4026.435150,-9696.697840,148.041188,612.876398
4026.435479,-10214.842000,0.000000,536.266849
4026.435809,-10288.862594,296.082377,-383.047749
4026.436139,-9696.697840,296.082377,-459.657299
4026.436469,-9474.636058,370.102971,0.000000
4026.436798,-9030.512492,370.102971,0.000000
4026.437128,-9622.677246,74.020594,153.219100
4026.437458,-9844.739029,592.164754,0.000000
4026.437788,-9622.677246,222.061783,-766.095498
4026.438118,-9474.636058,296.082377,-842.705048
4026.438447,-9696.697840,148.041188,76.609550
4026.438777,-10732.986159,444.123565,1072.533697
4026.439107,-10214.842000,74.020594,1225.752797
4026.439437,-9844.739029,-148.041188,842.705048
4026.439767,-9992.780217,-444.123565,1149.143247
4026.440096,-9474.636058,-148.041188,229.828649
4026.440426,-9844.739029,148.041188,0.000000
4026.440756,-9400.615463,222.061783,383.047749
4026.441086,-9548.656652,666.185348,612.876398
4026.441416,-9770.718434,370.102971,612.876398
4026.441745,-10288.862594,444.123565,229.828649
4026.442075,-10140.821405,148.041188,-306.438199
4026.442405,-9696.697840,0.000000,-1608.800546
4026.442735,-8956.491898,-592.164754,-1149.143247
4026.443064,-9400.615463,-592.164754,229.828649
4026.443394,-9918.759623,0.000000,1838.629195
4026.443724,-9918.759623,0.000000,1762.019645
4026.444054,-9548.656652,0.000000,919.314598
4026.444384,-9992.780217,0.000000,459.657299
4026.444713,-10362.883188,222.061783,0.000000
4026.445043,-10288.862594,148.041188,-229.828649
4026.445373,-9622.677246,222.061783,-383.047749
4026.445703,-9400.615463,-370.102971,76.609550
4026.446033,-8734.430116,-370.102971,229.828649
4026.446362,-9696.697840,0.000000,383.047749
4026.446692,-9844.739029,370.102971,-383.047749
4026.447022,-9474.636058,0.000000,-612.876398
4026.447352,-9252.574275,0.000000,-306.438199
4026.447682,-9770.718434,0.000000,1225.752797
4026.448011,-10510.924376,0.000000,1915.238745
4026.448341,-9992.780217,-74.020594,1378.971896
4026.448671,-9770.718434,-296.082377,689.485948
4026.449001,-10066.800811,-222.061783,0.000000
4026.449330,-10288.862594,74.020594,0.000000
4026.449660,-10436.903782,74.020594,-459.657299
4026.449990,-9474.636058,148.041188,0.000000
4026.450320,-9696.697840,222.061783,229.828649
4026.450650,-9548.656652,-296.082377,76.609550
4026.450979,-9400.615463,370.102971,-459.657299
4026.451309,-9770.718434,0.000000,0.000000
4026.451639,-9326.594869,0.000000,-383.047749
4026.451969,-9252.574275,-592.164754,-153.219100
4026.452299,-10066.800811,0.000000,536.266849
4026.452628,-10140.821405,0.000000,995.924147
4026.452958,-9622.677246,0.000000,689.485948
4026.453288,-9770.718434,0.000000,842.705048
4026.453618,-10066.800811,-74.020594,229.828649
4026.453948,-9992.780217,148.041188,0.000000
4026.454277,-9696.697840,296.082377,76.609550
4026.454607,-9622.677246,370.102971,-229.828649
4026.454937,-9548.656652,0.000000,-153.219100
4026.455267,-9252.574275,148.041188,-612.876398
4026.455597,-10066.800811,148.041188,0.000000
4026.455926,-9992.780217,74.020594,0.000000
4026.456256,-9252.574275,0.000000,-459.657299
4026.456586,-9326.594869,0.000000,-383.047749
4026.456916,-10066.800811,-74.020594,842.705048
4026.457245,-10140.821405,0.000000,1532.190996
4026.457575,-9474.636058,0.000000,1149.143247
4026.457905,-9548.656652,74.020594,919.314598
4026.458235,-10510.924376,592.164754,919.314598
4026.458565,-10732.986159,296.082377,536.266849
4026.458894,-10510.924376,592.164754,0.000000
4026.459224,-10362.883188,444.123565,-153.219100
4026.459554,-9474.636058,222.061783,-689.485948
4026.459884,-9844.739029,0.000000,229.828649
4026.460214,-9844.739029,222.061783,153.219100
4026.460543,-9326.594869,370.102971,0.000000
4026.460873,-8882.471304,0.000000,-536.266849
4026.461203,-9030.512492,74.020594,-306.438199
4026.461533,-10140.821405,370.102971,766.095498
4026.461863,-10362.883188,222.061783,1149.143247
4026.462192,-9918.759623,0.000000,612.876398
4026.462522,-10140.821405,-74.020594,306.438199
4026.462852,-9770.718434,-296.082377,0.000000
4026.463182,-10214.842000,296.082377,-76.609550
4026.463511,-9918.759623,148.041188,0.000000
4026.463841,-9696.697840,370.102971,229.828649
4026.464171,-9844.739029,0.000000,536.266849
4026.464501,-10140.821405,0.000000,459.657299
4026.464831,-10066.800811,74.020594,536.266849
4026.465160,-9474.636058,-296.082377,229.828649
4026.465490,-9252.574275,-296.082377,-459.657299
4026.465820,-8956.491898,-444.123565,-153.219100
4026.466150,-9696.697840,148.041188,612.876398
4026.466480,-10214.842000,148.041188,1302.362347
4026.466809,-10140.821405,222.061783,995.924147
4026.467139,-9992.780217,0.000000,842.705048
4026.467469,-9918.759623,74.020594,536.266849
4026.467799,-10362.883188,74.020594,153.219100
4026.468129,-10214.842000,148.041188,459.657299
4026.468458,-9400.615463,0.000000,306.438199
4026.468788,-9252.574275,0.000000,76.609550
4026.469118,-9844.739029,222.061783,459.657299
4026.469448,-9992.780217,814.226536,229.828649
4026.469777,-9844.739029,74.020594,-536.266849
4026.470107,-9326.594869,-296.082377,-766.095498
4026.470437,-9474.636058,-74.020594,-229.828649
4026.470767,-9696.697840,0.000000,919.314598
4026.471097,-9474.636058,222.061783,612.876398
4026.471426,-9474.636058,74.020594,1072.533697
4026.471756,-10066.800811,0.000000,919.314598
4026.472086,-10436.903782,0.000000,306.438199
4026.472416,-10881.027347,592.164754,-306.438199
4026.472746,-10288.862594,296.082377,-229.828649
4026.473075,-9770.718434,148.041188,-383.047749
4026.473405,-9474.636058,-74.020594,306.438199
4026.473735,-9622.677246,148.041188,536.266849
4026.474065,-9474.636058,0.000000,536.266849
4026.474395,-9178.553681,0.000000,-153.219100
4026.474724,-9252.574275,74.020594,-459.657299
4026.475054,-9770.718434,74.020594,459.657299
4026.475384,-10362.883188,0.000000,1149.143247
4026.475714,-10288.862594,0.000000,1149.143247
4026.476043,-9548.656652,0.000000,1149.143247
4026.476373,-10140.821405,0.000000,689.485948
4026.476703,-10362.883188,0.000000,383.047749
4026.477033,-10214.842000,222.061783,76.609550
4026.477363,-9548.656652,444.123565,-76.609550
4026.477692,-9474.636058,518.144159,-306.438199
4026.478022,-9844.739029,518.144159,0.000000
4026.478352,-10214.842000,296.082377,153.219100
4026.478682,-10214.842000,148.041188,153.219100
4026.479012,-9548.656652,-148.041188,-229.828649
4026.479341,-9326.594869,-518.144159,76.609550
4026.479671,-9326.594869,-296.082377,459.657299
4026.480001,-9548.656652,-444.123565,1149.143247
4026.480331,-9400.615463,-148.041188,1455.581446
4026.480661,-9548.656652,0.000000,919.314598
4026.480990,-10214.842000,296.082377,995.924147
4026.481320,-10214.842000,148.041188,459.657299
4026.481650,-10288.862594,74.020594,0.000000
4026.481980,-9696.697840,444.123565,-995.924147
4026.482309,-9400.615463,74.020594,-1149.143247
4026.482639,-9252.574275,74.020594,-536.266849
4026.482969,-9844.739029,74.020594,0.000000
4026.483299,-9992.780217,148.041188,-306.438199
4026.483629,-9548.656652,0.000000,383.047749
4026.483958,-9178.553681,0.000000,0.000000
4026.484288,-9400.615463,0.000000,383.047749
4026.484618,-9622.677246,370.102971,995.924147
4026.484948,-9770.718434,148.041188,1532.190996
4026.485278,-9992.780217,222.061783,1149.143247
4026.485607,-10807.006753,296.082377,612.876398
4026.485937,-11103.089130,592.164754,-229.828649
4026.486267,-10362.883188,222.061783,-689.485948
4026.486597,-9696.697840,296.082377,-1302.362347
4026.486927,-8586.388927,0.000000,-459.657299
4026.487256,-8956.491898,0.000000,383.047749
4026.487586,-10066.800811,814.226536,766.095498
4026.487916,-9696.697840,592.164754,229.828649
4026.488246,-9622.677246,296.082377,-689.485948
4026.488575,-9844.739029,-148.041188,-536.266849
4026.488905,-10881.027347,0.000000,536.266849
4026.489235,-9918.759623,-222.061783,1762.019645
4026.489565,-9252.574275,-740.205942,2221.676944
4026.489895,-9474.636058,0.000000,2145.067394
4026.490224,-9844.739029,74.020594,919.314598
4026.490554,-10214.842000,444.123565,-229.828649
4026.490884,-9770.718434,444.123565,-995.924147
4026.491214,-9622.677246,444.123565,-842.705048
4026.491544,-9400.615463,444.123565,-153.219100
4026.491873,-9696.697840,148.041188,0.000000
4026.492203,-9844.739029,444.123565,536.266849
4026.492533,-9326.594869,0.000000,-383.047749
4026.492863,-9178.553681,-518.144159,-612.876398
4026.493193,-9474.636058,-444.123565,-612.876398
4026.493522,-10140.821405,296.082377,1149.143247
4026.493852,-9696.697840,0.000000,1838.629195
4026.494182,-9696.697840,-518.144159,1915.238745
4026.494512,-10066.800811,0.000000,1378.971896
4026.494842,-9992.780217,296.082377,1378.971896
4026.495171,-10214.842000,370.102971,0.000000
4026.495501,-9696.697840,222.061783,-919.314598
4026.495831,-9622.677246,222.061783,-1302.362347
4026.496161,-9178.553681,0.000000,-306.438199
4026.496491,-9918.759623,222.061783,612.876398
4026.496821,-10214.842000,518.144159,536.266849
4026.497150,-9918.759623,0.000000,76.609550
4026.497480,-9474.636058,0.000000,-612.876398
4026.497810,-9696.697840,222.061783,76.609550
4026.498140,-10510.924376,222.061783,919.314598
4026.498470,-9844.739029,0.000000,1838.629195
4026.498799,-9844.739029,0.000000,2068.457845
4026.499129,-9844.739029,-370.102971,1608.800546
4026.499459,-10288.862594,-296.082377,306.438199
4026.499789,-9696.697840,-370.102971,-842.705048
4026.500119,-9104.533087,-444.123565,-766.095498
4026.500449,-9400.615463,222.061783,-153.219100
4026.500778,-9400.615463,148.041188,306.438199
4026.501108,-9918.759623,296.082377,1149.143247
4026.501438,-9622.677246,296.082377,0.000000
