#time,accel_x,accel_y,accel_z
4107.758072,-9918.759623,0.000000,153.219100
4107.758402,-9770.718434,0.000000,536.266849
4107.758732,-9844.739029,0.000000,766.095498
4107.759062,-9992.780217,74.020594,153.219100
4107.759392,-9770.718434,74.020594,76.609550
4107.759722,-9696.697840,444.123565,0.000000
4107.760052,-9918.759623,370.102971,153.219100
4107.760382,-9918.759623,148.041188,76.609550
4107.760712,-9622.677246,148.041188,0.000000
4107.761042,-9992.780217,444.123565,229.828649
4107.761372,-9696.697840,0.000000,-229.828649
4107.761702,-9918.759623,74.020594,0.000000
4107.762032,-9548.656652,-518.144159,383.047749
4107.762362,-9548.656652,370.102971,612.876398
4107.762692,-9326.594869,-518.144159,383.047749
4107.763022,-9918.759623,-74.020594,306.438199
4107.763352,-9696.697840,-74.020594,0.000000
4107.763682,-10140.821405,0.000000,76.609550
4107.764012,-9548.656652,0.000000,612.876398
4107.764342,-9844.739029,0.000000,842.705048
4107.764672,-9770.718434,-74.020594,766.095498
4107.765002,-9474.636058,-74.020594,919.314598
4107.765332,-9252.574275,-518.144159,1762.019645
4107.765662,-9918.759623,-370.102971,1838.629195
4107.765992,-10066.800811,-148.041188,842.705048
4107.766322,-10066.800811,-74.020594,0.000000
4107.766652,-9770.718434,-296.082377,-229.828649
4107.766983,-9622.677246,-148.041188,0.000000
4107.767313,-9844.739029,-444.123565,995.924147
4107.767643,-10214.842000,-296.082377,1532.190996
4107.767973,-9992.780217,-370.102971,2221.676944
4107.768303,-9104.533087,-1036.288319,2451.505594
4107.768633,-9326.594869,-814.226536,2145.067394
4107.768963,-9622.677246,-1036.288319,2451.505594
4107.769293,-10066.800811,-1110.308913,2298.286494
4107.769623,-9696.697840,-814.226536,2604.724693
4107.769953,-10066.800811,-888.247130,3064.381992
4107.770283,-10066.800811,-740.205942,3064.381992
4107.770613,-10288.862594,-666.185348,3064.381992
4107.770943,-10214.842000,-444.123565,3064.381992
4107.771273,-10436.903782,-370.102971,1915.238745
4107.771603,-9992.780217,-592.164754,1225.752797
4107.771933,-9622.677246,-518.144159,1378.971896
4107.772263,-9252.574275,-1110.308913,2298.286494
4107.772593,-9400.615463,-1332.370696,2298.286494
4107.772923,-10140.821405,-1702.473667,2451.505594
4107.773253,-9844.739029,-2146.597232,2451.505594
4107.773583,-9326.594869,-2590.720797,2604.724693
4107.773913,-9030.512492,-2738.761985,3447.429741
4107.774243,-9474.636058,-2442.679609,4366.744339
4107.774573,-9844.739029,-2812.782580,4366.744339
4107.774903,-10288.862594,-2368.659014,4366.744339
4107.775233,-10658.965565,-2294.638420,3140.991542
4107.775563,-11695.253884,-2220.617826,2221.676944
4107.775893,-11547.212695,-2294.638420,1762.019645
4107.776223,-10807.006753,-2516.700203,1532.190996
4107.776553,-9326.594869,-2368.659014,1608.800546
4107.776883,-8660.409521,-3404.947333,1915.238745
4107.777213,-8660.409521,-3552.988522,2374.896044
4107.777543,-7772.162391,-3849.070898,2757.943793
4107.777873,-9030.512492,-4219.173869,3370.820191
4107.778203,-9252.574275,-4515.256246,3294.210641
4107.778533,-9474.636058,-4737.318029,3064.381992
4107.778863,-9548.656652,-4737.318029,3140.991542
4107.779193,-9548.656652,-4589.276840,3830.477490
4107.779523,-9548.656652,-3627.009116,4290.134789
4107.779853,-10140.821405,-3404.947333,3217.601092
4107.780183,-10140.821405,-2812.782580,1072.533697
4107.780513,-9844.739029,-2886.803174,-229.828649
4107.780843,-9696.697840,-3256.906145,612.876398
4107.781173,-9548.656652,-3701.029710,1991.848295
4107.781503,-9400.615463,-3701.029710,2757.943793
4107.781833,-8882.471304,-4441.235652,1838.629195
4107.782163,-8808.450710,-4515.256246,1149.143247
4107.782493,-9252.574275,-4145.153275,1225.752797
4107.782823,-10214.842000,-3552.988522,3217.601092
4107.783153,-11177.109724,-3034.844362,4136.915689
4107.783483,-11177.109724,-2590.720797,4443.353888
4107.783813,-10140.821405,-2960.823768,3447.429741
4107.784143,-9770.718434,-2960.823768,2068.457845
4107.784473,-10288.862594,-2368.659014,2221.676944
4107.784803,-11399.171507,-2442.679609,2298.286494
4107.785133,-10214.842000,-2368.659014,1532.190996
4107.785463,-9992.780217,-2368.659014,2757.943793
4107.785793,-9770.718434,-2516.700203,2298.286494
4107.786123,-10362.883188,-2368.659014,2068.457845
4107.786453,-10140.821405,-1776.494261,1608.800546
4107.786783,-9844.739029,-2146.597232,2145.067394
4107.787113,-9696.697840,-1850.514855,2987.772442
4107.787443,-9770.718434,-1628.453072,4136.915689
4107.787773,-10510.924376,-1702.473667,4979.620737
4107.788103,-10214.842000,-1554.432478,4136.915689
4107.788433,-10436.903782,-1628.453072,2987.772442
4107.788763,-10140.821405,-1480.411884,1915.238745
4107.789093,-9474.636058,-1406.391290,2374.896044
4107.789423,-9252.574275,-1036.288319,2451.505594
4107.789753,-9104.533087,-888.247130,3677.258390
4107.790083,-9992.780217,-222.061783,1838.629195
4107.790413,-9770.718434,-444.123565,536.266849
4107.790743,-8882.471304,-296.082377,459.657299
4107.791073,-9104.533087,-592.164754,1072.533697
4107.791403,-9474.636058,-370.102971,2221.676944
4107.791733,-9104.533087,-444.123565,2451.505594
4107.792063,-8956.491898,-666.185348,2145.067394
4107.792393,-10066.800811,-74.020594,1225.752797
4107.792723,-10658.965565,148.041188,1225.752797
4107.793053,-10362.883188,-444.123565,1225.752797
4107.793383,-9992.780217,-296.082377,1762.019645
4107.793713,-10214.842000,74.020594,3064.381992
4107.794043,-10214.842000,-222.061783,2451.505594
4107.794374,-9696.697840,0.000000,1532.190996
4107.794704,-8956.491898,-222.061783,0.000000
4107.795034,-9400.615463,-592.164754,-153.219100
4107.795364,-10732.986159,-296.082377,995.924147
4107.795694,-10436.903782,-666.185348,2298.286494
4107.796024,-9548.656652,-1184.329507,2374.896044
4107.796354,-9400.615463,-1406.391290,1532.190996
4107.796684,-9770.718434,-1702.473667,1225.752797
4107.797014,-10066.800811,-2146.597232,2145.067394
4107.797344,-9918.759623,-1628.453072,3064.381992
4107.797674,-10066.800811,-1776.494261,4136.915689
4107.798004,-10066.800811,-1776.494261,3524.039291
4107.798334,-9844.739029,-2146.597232,2528.115143
4107.798664,-10881.027347,-2294.638420,2068.457845
4107.798994,-10584.944971,-2590.720797,1762.019645
4107.799324,-9548.656652,-2368.659014,2145.067394
4107.799654,-8142.265362,-3034.844362,1991.848295
4107.799984,-8512.368333,-2812.782580,2374.896044
4107.800314,-9696.697840,-2368.659014,3140.991542
4107.800644,-11029.068536,-2738.761985,3524.039291
4107.800974,-10955.047942,-3478.967927,1378.971896
4107.801304,-9030.512492,-4219.173869,2451.505594
4107.801634,-9104.533087,-4367.215058,4213.525239
4107.801964,-9400.615463,-4219.173869,5056.230287
4107.802294,-9474.636058,-3404.947333,4519.963438
4107.802624,-9400.615463,-2960.823768,1915.238745
4107.802954,-10066.800811,-2368.659014,153.219100
4107.803284,-11769.274478,-1406.391290,76.609550
4107.803614,-11547.212695,-2442.679609,1302.362347
4107.803944,-10436.903782,-2442.679609,2374.896044
4107.804274,-8882.471304,-3108.864956,2068.457845
4107.804604,-9474.636058,-2960.823768,1225.752797
4107.804934,-9918.759623,-2886.803174,766.095498
4107.805264,-9770.718434,-2738.761985,153.219100
4107.805594,-9474.636058,-2368.659014,1455.581446
4107.805924,-9622.677246,-2146.597232,2145.067394
4107.806254,-9918.759623,-1850.514855,2757.943793
4107.806584,-9696.697840,-2368.659014,2911.162892
4107.806914,-9844.739029,-1184.329507,2757.943793
4107.807244,-10584.944971,-1184.329507,1532.190996
4107.807574,-10807.006753,-814.226536,1072.533697
4107.807904,-10881.027347,-296.082377,1302.362347
4107.808234,-10140.821405,-518.144159,1072.533697
4107.808564,-10955.047942,-148.041188,536.266849
4107.808894,-9918.759623,-592.164754,-383.047749
4107.809224,-9844.739029,-888.247130,-1149.143247
4107.809554,-8512.368333,74.020594,-1685.410096
4107.809884,-8142.265362,-666.185348,-153.219100
4107.810214,-8734.430116,592.164754,766.095498
4107.810544,-8512.368333,0.000000,459.657299
4107.810874,-9104.533087,740.205942,383.047749
4107.811204,-9918.759623,222.061783,76.609550
4107.811534,-11547.212695,592.164754,919.314598
4107.811864,-10584.944971,222.061783,689.485948
4107.812194,-9770.718434,222.061783,-229.828649
4107.812524,-9030.512492,814.226536,766.095498
4107.812856,-8882.471304,740.205942,1455.581446
4107.813186,-8438.347739,1258.350101,229.828649
4107.813516,-8364.327145,1036.288319,-995.924147
4107.813845,-8734.430116,1924.535449,-1608.800546
4107.814175,-10140.821405,1702.473667,-612.876398
4107.814505,-10658.965565,2146.597232,-306.438199
4107.814835,-10881.027347,1554.432478,-842.705048
4107.815165,-10288.862594,2072.576638,-919.314598
4107.815495,-9548.656652,1480.411884,-1378.971896
4107.815825,-9474.636058,1406.391290,-1532.190996
4107.816154,-9844.739029,1850.514855,-842.705048
4107.816484,-10288.862594,1850.514855,306.438199
4107.816814,-10436.903782,2294.638420,766.095498
4107.817144,-9696.697840,2146.597232,-459.657299
4107.817474,-10362.883188,2294.638420,-689.485948
4107.817804,-10881.027347,1406.391290,-1072.533697
4107.818134,-10436.903782,1332.370696,-689.485948
4107.818463,-9770.718434,1184.329507,-842.705048
4107.818793,-9622.677246,1036.288319,-153.219100
4107.819123,-10066.800811,1036.288319,306.438199
4107.819453,-9474.636058,740.205942,-536.266849
4107.819783,-9252.574275,444.123565,-1072.533697
4107.820113,-9400.615463,740.205942,-306.438199
4107.820443,-9474.636058,592.164754,306.438199
4107.820772,-10066.800811,518.144159,995.924147
4107.821102,-10066.800811,666.185348,1455.581446
4107.821432,-9918.759623,296.082377,842.705048
4107.821762,-10658.965565,666.185348,153.219100
4107.822092,-10658.965565,0.000000,-536.266849
4107.822422,-10066.800811,0.000000,229.828649
4107.822751,-9326.594869,0.000000,76.609550
4107.823081,-9252.574275,0.000000,153.219100
4107.823411,-9104.533087,-222.061783,-306.438199
4107.823741,-8586.388927,0.000000,229.828649
4107.824071,-9400.615463,-148.041188,-306.438199
4107.824401,-10066.800811,222.061783,-306.438199
4107.824731,-10214.842000,0.000000,0.000000
4107.825060,-10066.800811,222.061783,459.657299
4107.825390,-9696.697840,0.000000,306.438199
4107.825720,-10066.800811,0.000000,0.000000
4107.826050,-10436.903782,0.000000,0.000000
4107.826380,-10214.842000,-222.061783,612.876398
4107.826710,-10066.800811,-740.205942,842.705048
4107.827040,-9400.615463,-592.164754,842.705048
4107.827369,-9844.739029,-296.082377,1072.533697
4107.827699,-9696.697840,0.000000,459.657299
4107.828029,-8734.430116,0.000000,-919.314598
4107.828359,-9548.656652,-222.061783,-383.047749
4107.828689,-10362.883188,-370.102971,76.609550
4107.829019,-10066.800811,-296.082377,919.314598
4107.829349,-9474.636058,-148.041188,153.219100
4107.829678,-10140.821405,-592.164754,919.314598
4107.830008,-9622.677246,-814.226536,1149.143247
4107.830338,-9548.656652,-444.123565,842.705048
4107.830668,-8808.450710,-666.185348,153.219100
4107.830998,-9770.718434,0.000000,995.924147
4107.831328,-10436.903782,-222.061783,2068.457845
4107.831657,-9844.739029,-962.267725,1149.143247
4107.831987,-9474.636058,-518.144159,0.000000
4107.832317,-9770.718434,-296.082377,-459.657299
4107.832647,-10362.883188,-518.144159,-612.876398
4107.832977,-9400.615463,-740.205942,-612.876398
4107.833307,-8882.471304,-666.185348,229.828649
4107.833637,-9104.533087,-740.205942,1532.190996
4107.833966,-9844.739029,-888.247130,2221.676944
4107.834296,-10362.883188,-1184.329507,1378.971896
4107.834626,-9252.574275,-1184.329507,842.705048
4107.834956,-8290.306550,-962.267725,1072.533697
4107.835286,-9622.677246,-592.164754,1072.533697
4107.835616,-10436.903782,-518.144159,536.266849
4107.835946,-10436.903782,-518.144159,383.047749
4107.836275,-9696.697840,0.000000,76.609550
4107.836605,-10066.800811,0.000000,-153.219100
4107.836935,-9918.759623,-148.041188,-306.438199
4107.837265,-9252.574275,-148.041188,-306.438199
4107.837595,-9252.574275,0.000000,0.000000
4107.837925,-9474.636058,222.061783,76.609550
4107.838255,-10510.924376,74.020594,842.705048
4107.838584,-10140.821405,0.000000,995.924147
4107.838914,-9844.739029,296.082377,0.000000
4107.839244,-10066.800811,1184.329507,0.000000
4107.839574,-10732.986159,592.164754,-383.047749
4107.839904,-10140.821405,888.247130,-1072.533697
4107.840234,-9474.636058,148.041188,-842.705048
4107.840564,-9622.677246,814.226536,-459.657299
4107.840893,-10214.842000,888.247130,536.266849
4107.841223,-10066.800811,666.185348,0.000000
4107.841553,-9178.553681,296.082377,-766.095498
4107.841883,-9326.594869,666.185348,-1072.533697
4107.842213,-9622.677246,740.205942,-229.828649
4107.842543,-10584.944971,740.205942,229.828649
4107.842872,-10066.800811,740.205942,0.000000
4107.843202,-9770.718434,666.185348,153.219100
4107.843532,-9918.759623,1258.350101,0.000000
4107.843862,-10140.821405,814.226536,-689.485948
4107.844192,-9474.636058,444.123565,-2068.457845
4107.844522,-8660.409521,888.247130,-153.219100
4107.844852,-9326.594869,1184.329507,842.705048
4107.845181,-9918.759623,444.123565,919.314598
4107.845511,-9548.656652,740.205942,0.000000
4107.845841,-9770.718434,592.164754,0.000000
4107.846171,-9992.780217,592.164754,-383.047749
4107.846501,-10140.821405,444.123565,383.047749
4107.846831,-9918.759623,370.102971,766.095498
4107.847161,-9474.636058,444.123565,153.219100
4107.847490,-9252.574275,518.144159,153.219100
4107.847820,-8734.430116,666.185348,306.438199
4107.848150,-10288.862594,592.164754,76.609550
4107.848480,-9992.780217,962.267725,536.266849
4107.848810,-9696.697840,74.020594,766.095498
4107.849140,-9844.739029,518.144159,306.438199
4107.849470,-9400.615463,-148.041188,612.876398
4107.849799,-9548.656652,-148.041188,689.485948
4107.850129,-9474.636058,0.000000,-229.828649
4107.850459,-9548.656652,148.041188,229.828649
4107.850789,-9252.574275,222.061783,842.705048
4107.851119,-9696.697840,370.102971,306.438199
4107.851449,-9548.656652,370.102971,459.657299
4107.851778,-10066.800811,148.041188,0.000000
4107.852108,-10807.006753,74.020594,0.000000
4107.852438,-9992.780217,-444.123565,0.000000
4107.852768,-9474.636058,-740.205942,-229.828649
4107.853098,-9474.636058,-592.164754,842.705048
4107.853428,-9844.739029,-1110.308913,1149.143247
4107.853758,-9770.718434,-1406.391290,0.000000
4107.854087,-9844.739029,-666.185348,76.609550
4107.854417,-10140.821405,-740.205942,612.876398
4107.854747,-10436.903782,-444.123565,919.314598
4107.855077,-9844.739029,-518.144159,536.266849
4107.855407,-9844.739029,-1184.329507,612.876398
4107.855737,-10140.821405,-888.247130,1225.752797
4107.856067,-10658.965565,-1480.411884,842.705048
4107.856396,-10436.903782,-1184.329507,536.266849
4107.856726,-9178.553681,-1776.494261,-306.438199
4107.857056,-9474.636058,-592.164754,0.000000
4107.857386,-10510.924376,-1332.370696,383.047749
4107.857716,-10658.965565,-592.164754,995.924147
4107.858046,-9844.739029,-1258.350101,1149.143247
4107.858376,-9030.512492,-1258.350101,1455.581446
4107.858705,-9030.512492,-1332.370696,1532.190996
4107.859035,-10436.903782,-740.205942,1455.581446
4107.859365,-10436.903782,-592.164754,689.485948
4107.859695,-9548.656652,-962.267725,0.000000
4107.860025,-9474.636058,-666.185348,153.219100
4107.860355,-9770.718434,-814.226536,842.705048
4107.860684,-9770.718434,0.000000,1685.410096
4107.861014,-9030.512492,0.000000,1072.533697
4107.861344,-9622.677246,0.000000,-306.438199
4107.861674,-9548.656652,148.041188,-995.924147
4107.862004,-10066.800811,592.164754,-766.095498
4107.862334,-9918.759623,222.061783,-229.828649
4107.862664,-9548.656652,148.041188,612.876398
4107.862993,-9474.636058,592.164754,842.705048
4107.863323,-9178.553681,444.123565,383.047749
4107.863653,-9770.718434,740.205942,-842.705048
4107.863983,-10288.862594,814.226536,-383.047749
4107.864313,-9992.780217,666.185348,153.219100
4107.864643,-9844.739029,814.226536,536.266849
4107.864973,-9474.636058,1184.329507,229.828649
4107.865302,-9918.759623,814.226536,766.095498
4107.865632,-9548.656652,370.102971,536.266849
4107.865962,-9178.553681,74.020594,-612.876398
4107.866292,-9474.636058,518.144159,-689.485948
4107.866622,-10140.821405,592.164754,76.609550
4107.866952,-9992.780217,592.164754,536.266849
4107.867282,-9400.615463,592.164754,-153.219100
4107.867611,-9474.636058,888.247130,0.000000
4107.867941,-9844.739029,1184.329507,0.000000
4107.868271,-10140.821405,888.247130,153.219100
4107.868601,-9918.759623,888.247130,76.609550
4107.868931,-10288.862594,666.185348,76.609550
4107.869261,-10066.800811,592.164754,459.657299
4107.869591,-9918.759623,0.000000,229.828649
4107.869920,-9474.636058,444.123565,229.828649
4107.870250,-9326.594869,296.082377,383.047749
4107.870580,-9622.677246,666.185348,153.219100
4107.870910,-10066.800811,444.123565,229.828649
4107.871240,-9992.780217,814.226536,0.000000
4107.871570,-9918.759623,740.205942,-612.876398
4107.871899,-9696.697840,1184.329507,-842.705048
4107.872229,-9548.656652,444.123565,-1225.752797
4107.872559,-10436.903782,-148.041188,-689.485948
4107.872889,-9918.759623,-148.041188,459.657299
4107.873219,-9622.677246,-296.082377,536.266849
4107.873549,-9622.677246,-444.123565,612.876398
4107.873879,-9474.636058,-222.061783,383.047749
4107.874208,-9326.594869,0.000000,0.000000
4107.874538,-9622.677246,0.000000,0.000000
4107.874868,-10436.903782,444.123565,76.609550
4107.875198,-10807.006753,592.164754,766.095498
4107.875528,-10140.821405,0.000000,995.924147
4107.875858,-9622.677246,-222.061783,0.000000
4107.876188,-9844.739029,-518.144159,-229.828649
4107.876517,-9844.739029,-592.164754,-689.485948
4107.876847,-9696.697840,-444.123565,-689.485948
4107.877177,-9326.594869,-666.185348,536.266849
4107.877507,-10066.800811,-148.041188,1991.848295
4107.877837,-10214.842000,-370.102971,2068.457845
4107.878167,-10214.842000,-518.144159,1149.143247
4107.878497,-10214.842000,-222.061783,383.047749
4107.878826,-10140.821405,-370.102971,536.266849
4107.879156,-10658.965565,-370.102971,689.485948
4107.879486,-9548.656652,-814.226536,1302.362347
4107.879816,-9844.739029,-444.123565,1685.410096
4107.880146,-9696.697840,-518.144159,1378.971896
4107.880476,-9548.656652,148.041188,766.095498
4107.880805,-9030.512492,-370.102971,-306.438199
4107.881135,-9622.677246,74.020594,0.000000
4107.881465,-9622.677246,370.102971,153.219100
4107.881795,-9770.718434,0.000000,0.000000
4107.882125,-9992.780217,0.000000,0.000000
4107.882455,-10140.821405,-592.164754,536.266849
4107.882785,-9918.759623,0.000000,612.876398
4107.883114,-9474.636058,-222.061783,306.438199
4107.883444,-10214.842000,0.000000,306.438199
4107.883774,-9696.697840,74.020594,766.095498
4107.884104,-9030.512492,-592.164754,842.705048
4107.884434,-9104.533087,0.000000,689.485948
4107.884764,-9844.739029,-592.164754,766.095498
4107.885094,-10066.800811,0.000000,766.095498
4107.885423,-9622.677246,-370.102971,689.485948
4107.885753,-9474.636058,296.082377,76.609550
4107.886083,-9178.553681,-148.041188,-153.219100
4107.886413,-9770.718434,666.185348,-689.485948
4107.886743,-9474.636058,444.123565,-689.485948
4107.887073,-10362.883188,592.164754,306.438199
4107.887403,-9844.739029,592.164754,1532.190996
4107.887732,-10066.800811,518.144159,229.828649
4107.888062,-9474.636058,0.000000,-383.047749
4107.888392,-9992.780217,0.000000,-76.609550
4107.888722,-9844.739029,-296.082377,0.000000
4107.889052,-9548.656652,-444.123565,-76.609550
4107.889382,-9030.512492,-148.041188,229.828649
4107.889711,-9696.697840,-148.041188,1302.362347
4107.890041,-10510.924376,592.164754,1685.410096
4107.890371,-10214.842000,74.020594,612.876398
4107.890701,-10288.862594,74.020594,76.609550
4107.891031,-9918.759623,0.000000,-459.657299
4107.891361,-10214.842000,148.041188,-306.438199
4107.891691,-9104.533087,-296.082377,-153.219100
4107.892020,-9326.594869,-296.082377,-766.095498
4107.892350,-8586.388927,0.000000,-766.095498
4107.892680,-8734.430116,0.000000,-689.485948
4107.893010,-10288.862594,592.164754,-459.657299
4107.893340,-10584.944971,222.061783,0.000000
4107.893670,-10436.903782,814.226536,229.828649
4107.894000,-10066.800811,370.102971,229.828649
4107.894329,-10658.965565,148.041188,229.828649
4107.894659,-9992.780217,-222.061783,536.266849
4107.894989,-8882.471304,-370.102971,459.657299
4107.895319,-9178.553681,0.000000,919.314598
4107.895649,-10362.883188,518.144159,612.876398
4107.895979,-10436.903782,296.082377,766.095498
4107.896309,-9992.780217,148.041188,-229.828649
4107.896638,-9548.656652,0.000000,-459.657299
4107.896968,-9548.656652,0.000000,612.876398
4107.897298,-9326.594869,0.000000,536.266849
4107.897628,-8882.471304,-370.102971,383.047749
4107.897958,-9104.533087,222.061783,459.657299
4107.898288,-9992.780217,444.123565,612.876398
4107.898617,-10658.965565,592.164754,229.828649
4107.898947,-10140.821405,370.102971,383.047749
4107.899277,-10140.821405,148.041188,766.095498
4107.899607,-9844.739029,74.020594,1302.362347
4107.899937,-9252.574275,-444.123565,1532.190996
4107.900267,-9104.533087,-222.061783,612.876398
4107.900597,-9474.636058,0.000000,153.219100
4107.900926,-9770.718434,592.164754,-76.609550
4107.901256,-10214.842000,592.164754,-383.047749
4107.901586,-9992.780217,740.205942,76.609550
4107.901916,-10510.924376,888.247130,76.609550
4107.902246,-10214.842000,444.123565,-459.657299
4107.902576,-9252.574275,296.082377,-1149.143247
4107.902906,-9104.533087,296.082377,-1378.971896
4107.903235,-9474.636058,296.082377,-995.924147
4107.903565,-9770.718434,296.082377,0.000000
4107.903895,-9622.677246,0.000000,76.609550
4107.904225,-9548.656652,0.000000,229.828649
4107.904555,-9400.615463,0.000000,766.095498
4107.904885,-10288.862594,74.020594,1072.533697
4107.905215,-10436.903782,0.000000,766.095498
4107.905544,-10584.944971,148.041188,612.876398
4107.905874,-10066.800811,296.082377,842.705048
4107.906204,-9992.780217,0.000000,842.705048
4107.906534,-9918.759623,74.020594,306.438199
4107.906864,-9696.697840,0.000000,306.438199
4107.907194,-9992.780217,-222.061783,-612.876398
4107.907524,-9770.718434,-148.041188,-459.657299
4107.907853,-9548.656652,-148.041188,0.000000
4107.908183,-9104.533087,-518.144159,459.657299
4107.908513,-9326.594869,-296.082377,0.000000
4107.908843,-9474.636058,-592.164754,-306.438199
4107.909173,-10214.842000,-592.164754,153.219100
4107.909503,-10214.842000,-74.020594,842.705048
4107.909832,-9770.718434,0.000000,1608.800546
4107.910162,-9548.656652,-592.164754,1838.629195
4107.910492,-9918.759623,0.000000,1302.362347
4107.910822,-10288.862594,-222.061783,919.314598
4107.911152,-9622.677246,-370.102971,0.000000
4107.911482,-9474.636058,-222.061783,0.000000
4107.911812,-9326.594869,0.000000,229.828649
4107.912141,-9474.636058,0.000000,153.219100
4107.912471,-9474.636058,-444.123565,0.000000
4107.912801,-9622.677246,-518.144159,-229.828649
4107.913131,-9400.615463,-518.144159,153.219100
4107.913461,-9992.780217,-370.102971,76.609550
4107.913791,-10066.800811,-222.061783,612.876398
4107.914121,-10140.821405,74.020594,842.705048
4107.914450,-10140.821405,0.000000,1378.971896
4107.914780,-9844.739029,0.000000,0.000000
4107.915110,-10510.924376,148.041188,-153.219100
4107.915440,-10140.821405,148.041188,-383.047749
4107.915770,-10066.800811,444.123565,229.828649
4107.916099,-9474.636058,296.082377,0.000000
4107.916429,-9474.636058,222.061783,0.000000
4107.916759,-10288.862594,666.185348,0.000000
4107.917089,-10436.903782,370.102971,-459.657299
4107.917418,-10066.800811,74.020594,-459.657299
4107.917748,-9844.739029,296.082377,153.219100
4107.918078,-9622.677246,370.102971,689.485948
4107.918408,-9400.615463,74.020594,229.828649
4107.918737,-9548.656652,148.041188,-153.219100
4107.919067,-9474.636058,296.082377,0.000000
4107.919397,-10066.800811,222.061783,0.000000
4107.919727,-9844.739029,0.000000,459.657299
4107.920056,-10362.883188,370.102971,612.876398
4107.920386,-9474.636058,0.000000,995.924147
4107.920716,-9252.574275,0.000000,306.438199
4107.921046,-9326.594869,148.041188,0.000000
4107.921375,-9548.656652,74.020594,0.000000
4107.921705,-9770.718434,148.041188,383.047749
4107.922035,-10066.800811,-296.082377,153.219100
4107.922365,-10436.903782,148.041188,536.266849
4107.922695,-10140.821405,-222.061783,689.485948
4107.923024,-9104.533087,296.082377,-459.657299
4107.923354,-8290.306550,-148.041188,-1072.533697
4107.923684,-9030.512492,222.061783,-536.266849
4107.924014,-9844.739029,592.164754,383.047749
4107.924343,-10066.800811,370.102971,153.219100
4107.924673,-10214.842000,370.102971,383.047749
4107.925003,-10436.903782,0.000000,612.876398
4107.925333,-10066.800811,0.000000,612.876398
4107.925662,-9696.697840,-444.123565,459.657299
4107.925992,-9326.594869,0.000000,229.828649
4107.926322,-9622.677246,-74.020594,383.047749
4107.926652,-10140.821405,148.041188,0.000000
4107.926981,-10214.842000,518.144159,-612.876398
4107.927311,-10436.903782,962.267725,-1225.752797
4107.927641,-10288.862594,814.226536,-536.266849
4107.927971,-10362.883188,222.061783,-306.438199
4107.928300,-9178.553681,148.041188,-612.876398
4107.928630,-8808.450710,0.000000,-689.485948
4107.928960,-9548.656652,0.000000,383.047749
4107.929290,-9844.739029,-296.082377,153.219100
4107.929620,-10807.006753,0.000000,306.438199
4107.929949,-9844.739029,-962.267725,842.705048
4107.930279,-10214.842000,-222.061783,842.705048
4107.930609,-9844.739029,-370.102971,1532.190996
4107.930939,-9474.636058,-222.061783,1072.533697
4107.931268,-9770.718434,0.000000,689.485948
4107.931598,-9844.739029,-74.020594,229.828649
4107.931928,-9548.656652,-444.123565,383.047749
4107.932258,-9844.739029,0.000000,842.705048
4107.932587,-10214.842000,0.000000,383.047749
4107.932917,-9696.697840,0.000000,0.000000
4107.933247,-8734.430116,0.000000,-919.314598
4107.933577,-8956.491898,0.000000,-383.047749
4107.933906,-9400.615463,148.041188,153.219100
4107.934236,-9326.594869,0.000000,536.266849
4107.934566,-9696.697840,0.000000,536.266849
4107.934896,-9918.759623,370.102971,76.609550
4107.935225,-10362.883188,148.041188,-306.438199
4107.935555,-10658.965565,0.000000,-76.609550
4107.935885,-9696.697840,74.020594,0.000000
4107.936215,-8808.450710,370.102971,76.609550
4107.936544,-9252.574275,518.144159,0.000000
4107.936874,-10140.821405,814.226536,-229.828649
4107.937204,-10510.924376,296.082377,0.000000
4107.937534,-10214.842000,814.226536,-612.876398
4107.937864,-9770.718434,296.082377,-689.485948
4107.938193,-9770.718434,296.082377,-306.438199
4107.938523,-8956.491898,148.041188,995.924147
4107.938853,-9252.574275,148.041188,459.657299
4107.939183,-8882.471304,222.061783,-612.876398
4107.939512,-9770.718434,592.164754,0.000000
4107.939842,-10436.903782,444.123565,383.047749
4107.940172,-10584.944971,666.185348,1072.533697
4107.940502,-10362.883188,444.123565,459.657299
4107.940831,-10510.924376,518.144159,612.876398
4107.941161,-9844.739029,0.000000,0.000000
4107.941491,-9326.594869,74.020594,-689.485948
4107.941821,-9178.553681,444.123565,0.000000
4107.942150,-9622.677246,518.144159,229.828649
4107.942480,-9992.780217,518.144159,306.438199
4107.942810,-9992.780217,222.061783,-689.485948
4107.943140,-9844.739029,74.020594,536.266849
4107.943469,-10214.842000,-296.082377,766.095498
4107.943799,-9474.636058,-666.185348,689.485948
4107.944129,-9104.533087,-592.164754,995.924147
4107.944459,-9474.636058,-148.041188,1225.752797
4107.944789,-9696.697840,-296.082377,1608.800546
4107.945118,-9992.780217,-222.061783,612.876398
4107.945448,-10066.800811,-222.061783,0.000000
4107.945778,-9844.739029,-814.226536,536.266849
4107.946108,-8956.491898,-1184.329507,1072.533697
4107.946437,-8956.491898,-1258.350101,1149.143247
4107.946767,-9770.718434,-814.226536,1685.410096
4107.947097,-9400.615463,-666.185348,306.438199
4107.947427,-9474.636058,-518.144159,0.000000
4107.947756,-9104.533087,-592.164754,-383.047749
4107.948086,-10362.883188,-74.020594,153.219100
4107.948416,-10288.862594,370.102971,1072.533697
4107.948746,-9992.780217,-370.102971,229.828649
4107.949075,-9844.739029,-296.082377,0.000000
4107.949405,-10066.800811,-296.082377,-153.219100
4107.949735,-10214.842000,0.000000,-229.828649
4107.950065,-10584.944971,-74.020594,536.266849
4107.950394,-10214.842000,-148.041188,689.485948
4107.950724,-9918.759623,-74.020594,459.657299
4107.951054,-9622.677246,0.000000,689.485948
4107.951384,-9474.636058,-222.061783,0.000000
4107.951713,-10732.986159,296.082377,76.609550
4107.952043,-10584.944971,74.020594,612.876398
4107.952373,-10066.800811,-592.164754,459.657299
4107.952703,-9178.553681,-444.123565,689.485948
4107.953033,-9918.759623,-370.102971,1762.019645
4107.953362,-10362.883188,-888.247130,0.000000
4107.953692,-8660.409521,0.000000,-919.314598
4107.954022,-9548.656652,666.185348,-306.438199
4107.954352,-9918.759623,-296.082377,0.000000
4107.954681,-9474.636058,74.020594,919.314598
4107.955011,-9400.615463,148.041188,842.705048
4107.955341,-10140.821405,444.123565,229.828649
4107.955671,-10510.924376,148.041188,0.000000
4107.956000,-10066.800811,444.123565,-229.828649
4107.956330,-9252.574275,0.000000,-842.705048
4107.956660,-9548.656652,222.061783,-536.266849
4107.956990,-9326.594869,1036.288319,-383.047749
4107.957319,-9252.574275,222.061783,0.000000
4107.957649,-9770.718434,1110.308913,76.609550
4107.957979,-9918.759623,74.020594,153.219100
4107.958309,-9770.718434,1110.308913,-306.438199
4107.958638,-9548.656652,222.061783,153.219100
4107.958968,-10288.862594,962.267725,919.314598
4107.959298,-10214.842000,592.164754,612.876398
4107.959628,-9770.718434,962.267725,0.000000
4107.959958,-8882.471304,444.123565,-766.095498
4107.960287,-9178.553681,1036.288319,-766.095498
4107.960617,-9474.636058,1110.308913,-919.314598
4107.960947,-9992.780217,740.205942,-383.047749
4107.961277,-9104.533087,1184.329507,-919.314598
4107.961606,-9326.594869,592.164754,-536.266849
4107.961936,-9770.718434,888.247130,-689.485948
4107.962266,-10362.883188,962.267725,0.000000
4107.962596,-10362.883188,518.144159,76.609550
4107.962925,-10288.862594,222.061783,383.047749
4107.963255,-10214.842000,888.247130,0.000000
4107.963585,-10214.842000,592.164754,0.000000
4107.963915,-10066.800811,444.123565,0.000000
4107.964244,-9252.574275,518.144159,689.485948
4107.964574,-9548.656652,666.185348,0.000000
4107.964904,-10288.862594,296.082377,-153.219100
4107.965234,-10436.903782,0.000000,0.000000
4107.965563,-10066.800811,148.041188,-153.219100
4107.965893,-9844.739029,222.061783,-306.438199
4107.966223,-9622.677246,0.000000,-306.438199
4107.966553,-9474.636058,0.000000,-306.438199
4107.966883,-9474.636058,74.020594,1302.362347
4107.967212,-9770.718434,-74.020594,919.314598
4107.967542,-10288.862594,-370.102971,1685.410096
4107.967872,-9992.780217,-518.144159,2068.457845
4107.968202,-9918.759623,-444.123565,1762.019645
4107.968531,-9326.594869,-962.267725,995.924147
4107.968861,-9474.636058,-592.164754,995.924147
4107.969191,-9400.615463,-518.144159,919.314598
4107.969521,-9622.677246,-518.144159,919.314598
4107.969850,-9400.615463,-444.123565,842.705048
4107.970180,-9696.697840,-592.164754,919.314598
4107.970510,-9992.780217,-74.020594,0.000000
4107.970840,-9770.718434,-370.102971,-1072.533697
4107.971169,-10066.800811,-518.144159,-689.485948
4107.971499,-9326.594869,-370.102971,612.876398
4107.971829,-9178.553681,-518.144159,919.314598
4107.972159,-9326.594869,-296.082377,842.705048
4107.972488,-10066.800811,-370.102971,153.219100
4107.972818,-10214.842000,0.000000,0.000000
4107.973148,-10658.965565,0.000000,76.609550
4107.973478,-10140.821405,-370.102971,229.828649
4107.973807,-9992.780217,-370.102971,919.314598
4107.974137,-9178.553681,-370.102971,995.924147
4107.974467,-9178.553681,-370.102971,76.609550
4107.974797,-9474.636058,74.020594,0.000000
4107.975127,-10214.842000,148.041188,0.000000
4107.975456,-10807.006753,222.061783,-383.047749
4107.975786,-10510.924376,296.082377,-459.657299
4107.976116,-10214.842000,0.000000,229.828649
4107.976446,-9326.594869,296.082377,0.000000
4107.976775,-9030.512492,0.000000,0.000000
4107.977105,-9548.656652,0.000000,0.000000
4107.977435,-10436.903782,0.000000,0.000000
4107.977765,-10066.800811,222.061783,229.828649
4107.978094,-9622.677246,0.000000,612.876398
4107.978424,-9844.739029,740.205942,1455.581446
4107.978754,-10066.800811,74.020594,689.485948
4107.979084,-9622.677246,0.000000,0.000000
4107.979413,-9400.615463,-74.020594,-689.485948
4107.979743,-9622.677246,0.000000,-383.047749
4107.980073,-10214.842000,74.020594,689.485948
4107.980403,-9622.677246,148.041188,689.485948
4107.980732,-8660.409521,222.061783,0.000000
4107.981062,-9030.512492,0.000000,-229.828649
4107.981392,-9326.594869,222.061783,0.000000
4107.981722,-9844.739029,0.000000,-153.219100
4107.982052,-9400.615463,518.144159,0.000000
4107.982381,-9474.636058,222.061783,459.657299
4107.982711,-10066.800811,370.102971,612.876398
4107.983041,-10140.821405,0.000000,153.219100
4107.983371,-9992.780217,222.061783,-76.609550
4107.983700,-9548.656652,296.082377,-459.657299
4107.984030,-9548.656652,296.082377,-459.657299
4107.984360,-9104.533087,296.082377,-229.828649
4107.984690,-9400.615463,666.185348,459.657299
4107.985019,-9992.780217,740.205942,919.314598
4107.985349,-10807.006753,740.205942,-383.047749
4107.985679,-11029.068536,1110.308913,-1455.581446
4107.986009,-10214.842000,296.082377,-766.095498
4107.986338,-9548.656652,592.164754,536.266849
4107.986668,-9474.636058,222.061783,1378.971896
4107.986998,-9770.718434,370.102971,1302.362347
4107.987328,-10066.800811,296.082377,0.000000
4107.987657,-10140.821405,296.082377,-766.095498
4107.987987,-10510.924376,444.123565,-766.095498
4107.988317,-10288.862594,518.144159,459.657299
4107.988647,-9474.636058,148.041188,766.095498
4107.988976,-8660.409521,-148.041188,612.876398
4107.989306,-8956.491898,0.000000,383.047749
4107.989636,-10436.903782,222.061783,383.047749
4107.989966,-10362.883188,0.000000,536.266849
4107.990296,-10362.883188,-222.061783,0.000000
4107.990625,-9844.739029,148.041188,459.657299
4107.990955,-9474.636058,148.041188,1149.143247
4107.991285,-9474.636058,-370.102971,1072.533697
4107.991615,-9178.553681,-444.123565,0.000000
4107.991944,-9622.677246,0.000000,536.266849
4107.992274,-10140.821405,0.000000,919.314598
4107.992604,-10436.903782,0.000000,306.438199
4107.992934,-9548.656652,-370.102971,0.000000
4107.993263,-9548.656652,-222.061783,76.609550
4107.993593,-9326.594869,-370.102971,536.266849
4107.993923,-9474.636058,-740.205942,306.438199
4107.994253,-9326.594869,-222.061783,383.047749
4107.994582,-9844.739029,-370.102971,995.924147
4107.994912,-10510.924376,296.082377,842.705048
4107.995242,-10584.944971,-74.020594,153.219100
4107.995572,-10436.903782,-222.061783,-76.609550
4107.995901,-9622.677246,-370.102971,306.438199
4107.996231,-9400.615463,0.000000,842.705048
4107.996561,-8956.491898,-518.144159,153.219100
4107.996891,-9474.636058,-444.123565,229.828649
4107.997221,-9770.718434,-148.041188,153.219100
4107.997550,-10732.986159,0.000000,0.000000
4107.997880,-10214.842000,0.000000,-383.047749
4107.998210,-9844.739029,-444.123565,0.000000
4107.998540,-9178.553681,-296.082377,536.266849
4107.998869,-9474.636058,-592.164754,459.657299
4107.999199,-10510.924376,-74.020594,459.657299
4107.999529,-10140.821405,-296.082377,612.876398
4107.999859,-10436.903782,148.041188,153.219100
4108.000188,-9474.636058,-666.185348,-459.657299
4108.000518,-10362.883188,222.061783,689.485948
4108.000848,-9474.636058,0.000000,1149.143247
4108.001178,-9252.574275,0.000000,153.219100
4108.001507,-9252.574275,74.020594,-536.266849
4108.001837,-9918.759623,74.020594,0.000000
4108.002167,-10140.821405,296.082377,229.828649
4108.002497,-10140.821405,-74.020594,-306.438199
4108.002826,-10584.944971,518.144159,0.000000
4108.003156,-9844.739029,-518.144159,459.657299
4108.003486,-9326.594869,0.000000,689.485948
4108.003816,-9326.594869,-296.082377,229.828649
4108.004146,-9770.718434,0.000000,842.705048
4108.004475,-10214.842000,0.000000,612.876398
4108.004805,-10140.821405,0.000000,229.828649
4108.005135,-9770.718434,222.061783,459.657299
4108.005465,-10066.800811,-148.041188,536.266849
4108.005794,-9474.636058,148.041188,153.219100
4108.006124,-9104.533087,74.020594,383.047749
4108.006454,-8956.491898,148.041188,229.828649
4108.006784,-9474.636058,0.000000,536.266849
4108.007113,-10066.800811,148.041188,76.609550
4108.007443,-10436.903782,74.020594,306.438199
4108.007773,-10436.903782,148.041188,76.609550
4108.008103,-9400.615463,74.020594,76.609550
4108.008432,-8808.450710,-222.061783,0.000000
4108.008762,-8660.409521,148.041188,-229.828649
4108.009092,-9400.615463,370.102971,76.609550
4108.009422,-9474.636058,740.205942,0.000000
4108.009751,-10288.862594,1036.288319,76.609550
4108.010081,-10362.883188,1184.329507,0.000000
4108.010411,-10436.903782,592.164754,-306.438199
4108.010741,-9696.697840,962.267725,-459.657299
4108.011070,-9844.739029,0.000000,-612.876398
4108.011400,-10288.862594,666.185348,0.000000
4108.011730,-10510.924376,370.102971,383.047749
4108.012060,-10066.800811,740.205942,-76.609550
4108.012390,-9400.615463,592.164754,-1302.362347
4108.012719,-9622.677246,814.226536,-1455.581446
4108.013049,-9918.759623,888.247130,-842.705048
4108.013379,-10140.821405,888.247130,-459.657299
4108.013709,-9400.615463,296.082377,-76.609550
4108.014038,-10066.800811,222.061783,76.609550
4108.014368,-10288.862594,370.102971,919.314598
4108.014698,-10436.903782,-444.123565,1149.143247
4108.015028,-9992.780217,-74.020594,995.924147
4108.015358,-9474.636058,-814.226536,1455.581446
4108.015688,-9474.636058,-222.061783,1302.362347
4108.016018,-9178.553681,-370.102971,1149.143247
4108.016347,-9178.553681,222.061783,919.314598
4108.016677,-9622.677246,370.102971,1302.362347
4108.017007,-9992.780217,222.061783,536.266849
4108.017337,-10584.944971,222.061783,0.000000
4108.017667,-10362.883188,0.000000,0.000000
4108.017997,-9548.656652,0.000000,383.047749
4108.018327,-9030.512492,-1110.308913,153.219100
4108.018657,-9178.553681,-592.164754,766.095498
4108.018986,-9104.533087,-148.041188,1149.143247
4108.019316,-9400.615463,74.020594,919.314598
4108.019646,-10066.800811,-296.082377,1149.143247
4108.019976,-10955.047942,296.082377,383.047749
4108.020306,-10066.800811,-222.061783,0.000000
4108.020636,-9474.636058,0.000000,76.609550
4108.020966,-9770.718434,-370.102971,766.095498
4108.021295,-9548.656652,-518.144159,1072.533697
4108.021625,-9104.533087,-296.082377,536.266849
4108.021955,-9326.594869,-370.102971,-76.609550
4108.022285,-10214.842000,0.000000,-229.828649
4108.022615,-10955.047942,0.000000,0.000000
4108.022945,-9918.759623,-370.102971,306.438199
4108.023275,-9918.759623,-962.267725,919.314598
4108.023604,-9696.697840,-888.247130,766.095498
4108.023934,-10066.800811,-888.247130,689.485948
4108.024264,-9178.553681,-888.247130,-383.047749
4108.024594,-9030.512492,-888.247130,-612.876398
4108.024924,-10214.842000,0.000000,612.876398
4108.025254,-9844.739029,-296.082377,1225.752797
4108.025584,-9770.718434,0.000000,536.266849
4108.025914,-9622.677246,-518.144159,229.828649
4108.026243,-10584.944971,-370.102971,536.266849
4108.026573,-10436.903782,-444.123565,842.705048
4108.026903,-9548.656652,-1036.288319,0.000000
4108.027233,-9622.677246,-370.102971,0.000000
4108.027563,-9770.718434,-74.020594,-229.828649
4108.027893,-9474.636058,-222.061783,-229.828649
4108.028223,-9104.533087,-148.041188,-383.047749
4108.028552,-9770.718434,-148.041188,383.047749
4108.028882,-9918.759623,-444.123565,1302.362347
4108.029212,-10066.800811,0.000000,1532.190996
4108.029542,-9918.759623,-370.102971,612.876398
4108.029872,-9918.759623,-1110.308913,-842.705048
4108.030202,-9030.512492,74.020594,229.828649
4108.030532,-9844.739029,-296.082377,1532.190996
4108.030861,-10584.944971,-444.123565,1685.410096
4108.031191,-10066.800811,74.020594,1608.800546
4108.031521,-9474.636058,-222.061783,1072.533697
4108.031851,-9474.636058,222.061783,-383.047749
4108.032181,-9696.697840,592.164754,-689.485948
4108.032511,-9474.636058,592.164754,0.000000
4108.032841,-9474.636058,1036.288319,-612.876398
4108.033170,-9918.759623,888.247130,76.609550
4108.033500,-10807.006753,814.226536,0.000000
4108.033830,-9918.759623,888.247130,0.000000
4108.034160,-9548.656652,370.102971,-1149.143247
4108.034490,-9844.739029,962.267725,-306.438199
4108.034820,-9770.718434,1036.288319,689.485948
4108.035150,-9548.656652,1036.288319,689.485948
4108.035480,-8734.430116,740.205942,766.095498
4108.035809,-9770.718434,962.267725,0.000000
4108.036139,-11399.171507,1406.391290,229.828649
4108.036469,-10658.965565,814.226536,-612.876398
4108.036799,-9548.656652,1110.308913,-995.924147
4108.037129,-9400.615463,1258.350101,-766.095498
4108.037459,-9474.636058,814.226536,-459.657299
4108.037789,-9326.594869,888.247130,-766.095498
4108.038118,-9252.574275,1110.308913,-919.314598
4108.038448,-10288.862594,1110.308913,-229.828649
4108.038778,-10807.006753,1258.350101,76.609550
4108.039108,-10584.944971,666.185348,-306.438199
4108.039438,-9770.718434,814.226536,-536.266849
4108.039768,-9326.594869,296.082377,0.000000
4108.040098,-9770.718434,370.102971,766.095498
4108.040427,-9326.594869,-222.061783,229.828649
4108.040757,-9326.594869,370.102971,919.314598
4108.041087,-9844.739029,148.041188,842.705048
4108.041417,-10807.006753,0.000000,919.314598
4108.041747,-9992.780217,0.000000,842.705048
4108.042077,-9252.574275,-148.041188,153.219100
4108.042407,-8882.471304,0.000000,0.000000
4108.042737,-9474.636058,-888.247130,0.000000
4108.043066,-9770.718434,-370.102971,459.657299
4108.043396,-9844.739029,-888.247130,383.047749
4108.043726,-9548.656652,0.000000,995.924147
4108.044056,-9548.656652,-962.267725,0.000000
4108.044386,-10214.842000,-74.020594,306.438199
4108.044716,-9474.636058,-814.226536,689.485948
4108.045046,-10288.862594,-666.185348,459.657299
4108.045375,-10140.821405,-592.164754,229.828649
4108.045705,-10066.800811,-814.226536,153.219100
4108.046035,-9622.677246,-444.123565,383.047749
4108.046365,-9252.574275,-814.226536,0.000000
4108.046695,-10510.924376,-444.123565,0.000000
4108.047025,-10140.821405,-888.247130,459.657299
4108.047355,-10436.903782,-592.164754,383.047749
4108.047684,-9844.739029,-1036.288319,0.000000
4108.048014,-9252.574275,-740.205942,383.047749
4108.048344,-9918.759623,-592.164754,919.314598
4108.048674,-10066.800811,-444.123565,689.485948
4108.049004,-9474.636058,-592.164754,0.000000
4108.049334,-9844.739029,-666.185348,229.828649
4108.049664,-9844.739029,0.000000,612.876398
4108.049993,-9918.759623,-296.082377,612.876398
4108.050323,-9844.739029,-444.123565,0.000000
4108.050653,-9474.636058,-592.164754,536.266849
4108.050983,-9474.636058,0.000000,1838.629195
4108.051313,-10066.800811,0.000000,1455.581446
4108.051643,-10658.965565,74.020594,842.705048
4108.051973,-10140.821405,74.020594,536.266849
4108.052303,-9474.636058,296.082377,842.705048
4108.052632,-9696.697840,370.102971,229.828649
4108.052962,-10288.862594,0.000000,153.219100
4108.053292,-9770.718434,148.041188,306.438199
4108.053622,-9474.636058,148.041188,229.828649
4108.053952,-9548.656652,740.205942,0.000000
4108.054282,-10066.800811,962.267725,-76.609550
4108.054612,-9770.718434,444.123565,153.219100
4108.054941,-9326.594869,74.020594,0.000000
4108.055271,-9622.677246,370.102971,612.876398
4108.055601,-9844.739029,0.000000,1838.629195
4108.055931,-9992.780217,296.082377,1225.752797
4108.056261,-9548.656652,370.102971,306.438199
4108.056591,-8956.491898,222.061783,-153.219100
4108.056921,-10066.800811,518.144159,-229.828649
4108.057250,-9992.780217,740.205942,-229.828649
4108.057580,-9400.615463,962.267725,-306.438199
4108.057910,-8734.430116,814.226536,536.266849
4108.058240,-9252.574275,1036.288319,229.828649
4108.058570,-9918.759623,666.185348,-1072.533697
4108.058900,-9770.718434,592.164754,-1225.752797
4108.059230,-9770.718434,296.082377,-306.438199
4108.059560,-9770.718434,518.144159,76.609550
4108.059889,-9474.636058,666.185348,-153.219100
4108.060219,-9622.677246,962.267725,0.000000
4108.060549,-9918.759623,814.226536,76.609550
4108.060879,-10288.862594,740.205942,-229.828649
4108.061209,-10362.883188,444.123565,-306.438199
4108.061539,-10362.883188,740.205942,-306.438199
4108.061869,-9548.656652,370.102971,0.000000
4108.062198,-9548.656652,444.123565,536.266849
4108.062528,-9622.677246,148.041188,0.000000
4108.062858,-9844.739029,-296.082377,76.609550
4108.063188,-9770.718434,222.061783,0.000000
4108.063518,-9770.718434,-148.041188,-383.047749
4108.063848,-10658.965565,296.082377,536.266849
4108.064178,-9918.759623,-592.164754,1149.143247
4108.064507,-9548.656652,-518.144159,229.828649
4108.064837,-9326.594869,-370.102971,0.000000
4108.065167,-9548.656652,-518.144159,536.266849
4108.065497,-9622.677246,-740.205942,306.438199
4108.065827,-9326.594869,-962.267725,0.000000
4108.066157,-9622.677246,-666.185348,459.657299
4108.066487,-10288.862594,-518.144159,1072.533697
4108.066816,-9474.636058,-222.061783,766.095498
4108.067146,-9030.512492,-888.247130,229.828649
4108.067476,-9252.574275,-814.226536,0.000000
4108.067806,-9918.759623,-740.205942,1378.971896
4108.068136,-9622.677246,-296.082377,383.047749
4108.068466,-9104.533087,-296.082377,-459.657299
4108.068796,-10214.842000,296.082377,0.000000
4108.069126,-10955.047942,74.020594,0.000000
4108.069455,-10658.965565,0.000000,306.438199
4108.069785,-9622.677246,0.000000,536.266849
4108.070115,-10214.842000,-592.164754,689.485948
4108.070445,-10066.800811,-592.164754,995.924147
4108.070775,-9030.512492,-666.185348,766.095498
4108.071105,-8882.471304,-370.102971,536.266849
4108.071435,-9548.656652,0.000000,383.047749
4108.071764,-10436.903782,148.041188,842.705048
4108.072094,-10436.903782,74.020594,919.314598
4108.072424,-10288.862594,0.000000,689.485948
4108.072754,-10066.800811,148.041188,383.047749
4108.073084,-9696.697840,0.000000,0.000000
4108.073414,-9400.615463,148.041188,-306.438199
4108.073744,-9178.553681,0.000000,306.438199
4108.074073,-9474.636058,666.185348,76.609550
4108.074403,-10214.842000,740.205942,306.438199
4108.074733,-10362.883188,518.144159,383.047749
4108.075063,-9844.739029,962.267725,153.219100
4108.075393,-9474.636058,666.185348,-766.095498
4108.075723,-9252.574275,296.082377,-612.876398
4108.076053,-9178.553681,666.185348,0.000000
4108.076383,-8586.388927,666.185348,0.000000
4108.076712,-9326.594869,666.185348,76.609550
4108.077042,-10214.842000,444.123565,229.828649
4108.077372,-10214.842000,222.061783,306.438199
4108.077702,-9178.553681,518.144159,-153.219100
4108.078032,-9548.656652,74.020594,0.000000
4108.078362,-9696.697840,222.061783,842.705048
4108.078692,-9548.656652,0.000000,1149.143247
4108.079021,-9400.615463,962.267725,919.314598
4108.079351,-9548.656652,740.205942,-76.609550
4108.079681,-9918.759623,592.164754,-612.876398
4108.080011,-9696.697840,518.144159,-383.047749
4108.080341,-9326.594869,814.226536,-459.657299
4108.080671,-9326.594869,370.102971,-229.828649
4108.081001,-10140.821405,370.102971,229.828649
4108.081330,-9844.739029,74.020594,153.219100
4108.081660,-8882.471304,0.000000,-536.266849
4108.081990,-9178.553681,444.123565,-1149.143247
4108.082320,-10214.842000,592.164754,459.657299
4108.082650,-10732.986159,518.144159,1378.971896
4108.082980,-10436.903782,370.102971,383.047749
4108.083310,-10288.862594,74.020594,0.000000
4108.083640,-10214.842000,-222.061783,229.828649
4108.083969,-9622.677246,0.000000,459.657299
4108.084299,-9474.636058,-296.082377,-306.438199
4108.084629,-9400.615463,-222.061783,-153.219100
4108.084959,-9400.615463,0.000000,0.000000
4108.085289,-9770.718434,0.000000,-76.609550
4108.085619,-10510.924376,0.000000,-842.705048
4108.085949,-10436.903782,-296.082377,-306.438199
4108.086278,-9622.677246,0.000000,-153.219100
4108.086608,-10140.821405,-592.164754,612.876398
4108.086938,-9770.718434,-222.061783,919.314598
4108.087268,-9696.697840,-962.267725,1302.362347
4108.087598,-9992.780217,-296.082377,306.438199
4108.087928,-10140.821405,-370.102971,612.876398
4108.088258,-10214.842000,-296.082377,0.000000
4108.088587,-9030.512492,-666.185348,0.000000
4108.088917,-9104.533087,-518.144159,383.047749
4108.089247,-9400.615463,-148.041188,536.266849
4108.089577,-9696.697840,-444.123565,766.095498
4108.089907,-9252.574275,-222.061783,766.095498
4108.090237,-9770.718434,74.020594,229.828649
4108.090567,-10214.842000,518.144159,229.828649
4108.090896,-10362.883188,0.000000,0.000000
4108.091226,-9770.718434,-148.041188,0.000000
4108.091556,-9474.636058,-148.041188,0.000000
4108.091886,-9252.574275,0.000000,459.657299
4108.092216,-9548.656652,296.082377,536.266849
4108.092546,-9696.697840,444.123565,153.219100
4108.092876,-9844.739029,296.082377,-383.047749
4108.093206,-10955.047942,888.247130,-306.438199
4108.093535,-10214.842000,74.020594,0.000000
4108.093865,-9696.697840,74.020594,383.047749
4108.094195,-9400.615463,74.020594,306.438199
4108.094525,-9622.677246,-222.061783,306.438199
4108.094855,-9844.739029,0.000000,536.266849
4108.095185,-9992.780217,-148.041188,383.047749
4108.095515,-9844.739029,370.102971,0.000000
4108.095844,-9696.697840,222.061783,0.000000
4108.096174,-9178.553681,814.226536,229.828649
4108.096504,-9104.533087,222.061783,383.047749
4108.096834,-10066.800811,592.164754,229.828649
4108.097164,-9918.759623,444.123565,536.266849
4108.097494,-10214.842000,148.041188,229.828649
4108.097824,-9622.677246,444.123565,-153.219100
4108.098153,-9992.780217,148.041188,0.000000
4108.098483,-10066.800811,0.000000,536.266849
4108.098813,-9622.677246,-370.102971,766.095498
4108.099143,-9474.636058,0.000000,536.266849
4108.099473,-9548.656652,0.000000,1302.362347
4108.099803,-9770.718434,74.020594,919.314598
4108.100133,-10288.862594,0.000000,689.485948
4108.100463,-9992.780217,0.000000,766.095498
4108.100792,-10140.821405,0.000000,0.000000
4108.101122,-10140.821405,-296.082377,0.000000
4108.101452,-9696.697840,-666.185348,536.266849
4108.101782,-9178.553681,-296.082377,76.609550
4108.102112,-8734.430116,0.000000,612.876398
4108.102442,-10140.821405,-518.144159,0.000000
4108.102772,-10807.006753,-296.082377,229.828649
4108.103101,-9844.739029,-444.123565,229.828649
4108.103431,-9104.533087,-444.123565,229.828649
4108.103761,-8808.450710,-666.185348,153.219100
4108.104091,-9622.677246,-296.082377,0.000000
4108.104421,-10214.842000,-222.061783,689.485948
4108.104751,-9770.718434,0.000000,-383.047749
4108.105081,-10066.800811,-74.020594,-459.657299
4108.105410,-10881.027347,0.000000,-536.266849
4108.105740,-9844.739029,0.000000,229.828649
4108.106070,-9252.574275,0.000000,-306.438199
4108.106400,-8364.327145,0.000000,-536.266849
4108.106730,-9548.656652,-222.061783,0.000000
4108.107060,-10807.006753,0.000000,153.219100
4108.107390,-10584.944971,-592.164754,76.609550
4108.107719,-10510.924376,74.020594,612.876398
4108.108049,-9844.739029,222.061783,306.438199
4108.108379,-9622.677246,296.082377,-306.438199
4108.108709,-8882.471304,74.020594,-919.314598
4108.109039,-9770.718434,740.205942,306.438199
4108.109369,-10807.006753,740.205942,1455.581446
4108.109699,-10658.965565,0.000000,1072.533697
4108.110029,-10214.842000,0.000000,536.266849
4108.110358,-9548.656652,-296.082377,919.314598
4108.110688,-9252.574275,0.000000,153.219100
4108.111018,-8956.491898,74.020594,-153.219100
4108.111348,-9104.533087,74.020594,0.000000
4108.111678,-9326.594869,444.123565,1225.752797
4108.112008,-9474.636058,518.144159,1072.533697
4108.112338,-10214.842000,814.226536,229.828649
4108.112667,-10362.883188,740.205942,-459.657299
4108.112997,-9474.636058,148.041188,-536.266849
4108.113327,-9548.656652,296.082377,-612.876398
4108.113657,-9326.594869,148.041188,-536.266849
4108.113987,-9104.533087,0.000000,0.000000
4108.114317,-8290.306550,666.185348,0.000000
4108.114647,-8512.368333,518.144159,306.438199
4108.114976,-10362.883188,888.247130,383.047749
4108.115306,-11103.089130,592.164754,842.705048
4108.115636,-10362.883188,370.102971,612.876398
4108.115966,-9252.574275,74.020594,306.438199
4108.116296,-9622.677246,370.102971,459.657299
4108.116626,-9696.697840,296.082377,383.047749
4108.116955,-9622.677246,370.102971,-383.047749
4108.117285,-8734.430116,518.144159,-1149.143247
4108.117615,-9844.739029,888.247130,-766.095498
4108.117944,-10584.944971,814.226536,-383.047749
4108.118274,-10066.800811,592.164754,-612.876398
4108.118604,-9918.759623,74.020594,-536.266849
4108.118934,-10288.862594,-296.082377,689.485948
4108.119263,-10214.842000,-592.164754,842.705048
4108.119593,-9474.636058,-740.205942,153.219100
4108.119923,-9400.615463,0.000000,766.095498
4108.120253,-9770.718434,0.000000,1378.971896
4108.120582,-10732.986159,0.000000,995.924147
4108.120912,-10658.965565,0.000000,153.219100
4108.121242,-10140.821405,0.000000,0.000000
4108.121572,-10214.842000,0.000000,229.828649
4108.121901,-10066.800811,0.000000,229.828649
4108.122231,-9178.553681,-370.102971,-306.438199
4108.122561,-9178.553681,-666.185348,0.000000
4108.122890,-9844.739029,148.041188,0.000000
4108.123220,-10288.862594,0.000000,0.000000
4108.123550,-10214.842000,148.041188,0.000000
4108.123880,-9474.636058,0.000000,459.657299
4108.124209,-9474.636058,-148.041188,766.095498
4108.124539,-9474.636058,74.020594,229.828649
4108.124869,-9548.656652,-518.144159,689.485948
4108.125199,-9622.677246,0.000000,689.485948
4108.125528,-9548.656652,-74.020594,689.485948
4108.125858,-9548.656652,-148.041188,689.485948
4108.126188,-10362.883188,0.000000,842.705048
4108.126518,-9992.780217,296.082377,995.924147
4108.126847,-9770.718434,0.000000,229.828649
4108.127177,-10214.842000,296.082377,0.000000
4108.127507,-9696.697840,74.020594,76.609550
4108.127836,-9474.636058,814.226536,536.266849
4108.128166,-9474.636058,518.144159,229.828649
4108.128496,-10140.821405,592.164754,0.000000
4108.128826,-10066.800811,666.185348,612.876398
4108.129155,-9770.718434,0.000000,-76.609550
4108.129485,-9844.739029,0.000000,229.828649
4108.129815,-11251.130318,148.041188,995.924147
4108.130145,-9992.780217,148.041188,1378.971896
4108.130474,-8734.430116,-592.164754,0.000000
4108.130804,-8438.347739,222.061783,153.219100
4108.131134,-9474.636058,222.061783,689.485948
4108.131464,-10510.924376,666.185348,919.314598
4108.131793,-9474.636058,370.102971,76.609550
4108.132123,-9918.759623,1110.308913,76.609550
4108.132453,-10510.924376,74.020594,0.000000
4108.132782,-10140.821405,-444.123565,-612.876398
4108.133112,-8364.327145,-814.226536,-1072.533697
4108.133442,-8660.409521,-444.123565,153.219100
4108.133772,-8956.491898,0.000000,536.266849
4108.134101,-9548.656652,148.041188,306.438199
4108.134431,-9548.656652,222.061783,229.828649
4108.134761,-10658.965565,444.123565,76.609550
4108.135091,-10807.006753,740.205942,76.609550
4108.135420,-10140.821405,-148.041188,0.000000
4108.135750,-9326.594869,0.000000,536.266849
4108.136080,-8660.409521,-666.185348,766.095498
4108.136409,-9992.780217,-370.102971,306.438199
4108.136739,-10288.862594,0.000000,-536.266849
4108.137069,-10436.903782,0.000000,-612.876398
4108.137399,-9992.780217,-518.144159,229.828649
4108.137728,-9622.677246,-222.061783,229.828649
4108.138058,-9548.656652,-518.144159,536.266849
4108.138388,-9326.594869,-148.041188,995.924147
4108.138718,-9992.780217,-296.082377,1608.800546
4108.139047,-11177.109724,-370.102971,306.438199
4108.139377,-11473.192101,-148.041188,383.047749
4108.139707,-10066.800811,-962.267725,306.438199
4108.140037,-8808.450710,-444.123565,1072.533697
4108.140366,-9252.574275,-962.267725,1149.143247
4108.140696,-9992.780217,-222.061783,1532.190996
4108.141026,-9474.636058,-222.061783,995.924147
4108.141355,-9326.594869,222.061783,-612.876398
4108.141685,-10362.883188,0.000000,0.000000
4108.142015,-11103.089130,222.061783,153.219100
4108.142345,-9770.718434,0.000000,76.609550
4108.142674,-8956.491898,-444.123565,-536.266849
4108.143004,-9844.739029,0.000000,153.219100
4108.143334,-10510.924376,-444.123565,383.047749
4108.143664,-9918.759623,0.000000,0.000000
4108.143993,-9474.636058,-296.082377,-536.266849
4108.144323,-9992.780217,222.061783,766.095498
4108.144653,-9918.759623,222.061783,842.705048
4108.144983,-9622.677246,0.000000,306.438199
4108.145312,-9326.594869,0.000000,-153.219100
4108.145642,-10066.800811,0.000000,0.000000
4108.145972,-10140.821405,0.000000,306.438199
4108.146301,-9326.594869,0.000000,0.000000
4108.146631,-9696.697840,0.000000,-153.219100
4108.146961,-9918.759623,-148.041188,459.657299
4108.147291,-9474.636058,0.000000,459.657299
4108.147620,-9474.636058,0.000000,0.000000
4108.147950,-9400.615463,74.020594,-459.657299
4108.148280,-9548.656652,222.061783,0.000000
4108.148610,-9844.739029,0.000000,1302.362347
4108.148939,-9548.656652,592.164754,919.314598
4108.149269,-10288.862594,148.041188,459.657299
4108.149599,-10288.862594,148.041188,306.438199
4108.149929,-9548.656652,0.000000,0.000000
4108.150258,-9474.636058,148.041188,0.000000
4108.150588,-9622.677246,0.000000,153.219100
4108.150918,-9770.718434,148.041188,1072.533697
4108.151247,-9844.739029,0.000000,1455.581446
4108.151577,-9622.677246,444.123565,1149.143247
4108.151907,-9622.677246,0.000000,306.438199
4108.152237,-9992.780217,296.082377,306.438199
4108.152566,-10732.986159,0.000000,306.438199
4108.152896,-9696.697840,-296.082377,689.485948
4108.153226,-8882.471304,518.144159,995.924147
4108.153556,-9252.574275,518.144159,383.047749
4108.153885,-9326.594869,222.061783,-383.047749
4108.154215,-10214.842000,296.082377,76.609550
4108.154545,-9844.739029,666.185348,-459.657299
4108.154875,-10140.821405,222.061783,0.000000
4108.155204,-10362.883188,592.164754,0.000000
4108.155534,-9474.636058,0.000000,0.000000
4108.155864,-9178.553681,0.000000,229.828649
4108.156193,-9400.615463,148.041188,-536.266849
4108.156523,-10066.800811,370.102971,229.828649
4108.156853,-9770.718434,888.247130,536.266849
4108.157183,-9178.553681,666.185348,76.609550
4108.157512,-9844.739029,1110.308913,306.438199
4108.157842,-10955.047942,888.247130,0.000000
4108.158172,-11325.150913,666.185348,-842.705048
4108.158502,-9992.780217,370.102971,-1608.800546
4108.158831,-8808.450710,74.020594,-919.314598
4108.159161,-9474.636058,148.041188,459.657299
4108.159491,-9548.656652,296.082377,536.266849
4108.159821,-9918.759623,-74.020594,0.000000
4108.160150,-9548.656652,0.000000,306.438199
4108.160480,-9992.780217,222.061783,1149.143247
4108.160810,-10658.965565,148.041188,1302.362347
4108.161139,-10066.800811,-222.061783,689.485948
4108.161469,-9918.759623,-518.144159,766.095498
4108.161799,-9252.574275,0.000000,1149.143247
4108.162129,-9474.636058,222.061783,153.219100
4108.162458,-9918.759623,0.000000,-1072.533697
4108.162788,-9696.697840,0.000000,-1455.581446
4108.163118,-9252.574275,0.000000,-153.219100
4108.163448,-9622.677246,0.000000,383.047749
4108.163777,-9992.780217,0.000000,536.266849
4108.164107,-9696.697840,-518.144159,-766.095498
4108.164437,-9474.636058,-222.061783,229.828649
4108.164767,-9770.718434,-518.144159,383.047749
4108.165096,-10288.862594,-370.102971,306.438199
4108.165426,-9474.636058,-222.061783,1072.533697
4108.165756,-9252.574275,-296.082377,306.438199
4108.166085,-9326.594869,0.000000,153.219100
4108.166415,-9844.739029,-370.102971,0.000000
4108.166745,-9992.780217,0.000000,0.000000
4108.167075,-9696.697840,0.000000,-153.219100
4108.167404,-9844.739029,-74.020594,0.000000
4108.167734,-9400.615463,-370.102971,459.657299
4108.168064,-9178.553681,-518.144159,612.876398
4108.168394,-9178.553681,-370.102971,459.657299
4108.168723,-10807.006753,0.000000,383.047749
4108.169053,-10510.924376,148.041188,76.609550
4108.169383,-9696.697840,0.000000,-383.047749
4108.169713,-9770.718434,296.082377,-536.266849
4108.170042,-10214.842000,370.102971,459.657299
4108.170372,-9992.780217,222.061783,229.828649
4108.170702,-9252.574275,0.000000,-842.705048
4108.171031,-9474.636058,0.000000,-459.657299
4108.171361,-9992.780217,-148.041188,842.705048
4108.171691,-10214.842000,0.000000,1149.143247
4108.172021,-9400.615463,0.000000,1149.143247
4108.172350,-9770.718434,0.000000,919.314598
4108.172680,-10066.800811,222.061783,1225.752797
4108.173010,-9992.780217,0.000000,919.314598
4108.173340,-9400.615463,-148.041188,76.609550
4108.173669,-10066.800811,0.000000,459.657299
4108.173999,-10288.862594,518.144159,1225.752797
4108.174329,-10066.800811,148.041188,842.705048
4108.174658,-9104.533087,0.000000,536.266849
4108.174988,-10066.800811,0.000000,229.828649
4108.175318,-9918.759623,148.041188,0.000000
4108.175648,-9548.656652,74.020594,-229.828649
4108.175977,-9622.677246,296.082377,0.000000
4108.176307,-9844.739029,0.000000,1225.752797
4108.176637,-10214.842000,148.041188,612.876398
4108.176967,-9770.718434,0.000000,0.000000
4108.177296,-9770.718434,-74.020594,383.047749
4108.177626,-9622.677246,0.000000,1608.800546
4108.177956,-9400.615463,-296.082377,995.924147
4108.178286,-8808.450710,-222.061783,536.266849
4108.178615,-8660.409521,0.000000,0.000000
4108.178945,-9622.677246,370.102971,0.000000
4108.179275,-10288.862594,0.000000,0.000000
4108.179604,-9770.718434,370.102971,-306.438199
4108.179934,-9030.512492,-296.082377,-919.314598
4108.180264,-9252.574275,0.000000,-536.266849
4108.180594,-9548.656652,-518.144159,-536.266849
4108.180923,-9696.697840,222.061783,-76.609550
4108.181253,-8882.471304,444.123565,0.000000
4108.181583,-9400.615463,888.247130,229.828649
4108.181913,-11103.089130,666.185348,229.828649
4108.182242,-11029.068536,296.082377,0.000000
4108.182572,-10140.821405,592.164754,76.609550
4108.182902,-9474.636058,148.041188,-1149.143247
4108.183232,-9696.697840,814.226536,-919.314598
4108.183561,-9696.697840,370.102971,0.000000
4108.183891,-9992.780217,666.185348,0.000000
4108.184221,-9696.697840,888.247130,0.000000
4108.184550,-10955.047942,222.061783,0.000000
4108.184880,-10732.986159,444.123565,0.000000
4108.185210,-9474.636058,-370.102971,-76.609550
4108.185540,-8586.388927,0.000000,153.219100
4108.185869,-9030.512492,0.000000,1378.971896
4108.186199,-9918.759623,0.000000,1608.800546
4108.186529,-9474.636058,-518.144159,995.924147
4108.186859,-9326.594869,-518.144159,536.266849
4108.187188,-10658.965565,-148.041188,1149.143247
4108.187518,-10288.862594,-222.061783,1455.581446
4108.187848,-9178.553681,-296.082377,689.485948
4108.188178,-8956.491898,-296.082377,536.266849
4108.188507,-9548.656652,0.000000,995.924147
4108.188837,-9992.780217,0.000000,766.095498
4108.189167,-10214.842000,74.020594,0.000000
4108.189496,-10214.842000,222.061783,0.000000
4108.189826,-9622.677246,370.102971,383.047749
4108.190156,-9992.780217,222.061783,0.000000
4108.190486,-9178.553681,222.061783,-306.438199
4108.190815,-9030.512492,0.000000,76.609550
4108.191145,-9992.780217,222.061783,612.876398
4108.191475,-10510.924376,222.061783,995.924147
4108.191805,-10066.800811,222.061783,689.485948
4108.192134,-10140.821405,0.000000,612.876398
4108.192464,-9992.780217,0.000000,153.219100
4108.192794,-9770.718434,-222.061783,-536.266849
4108.193124,-9622.677246,-370.102971,153.219100
4108.193453,-9474.636058,148.041188,842.705048
4108.193783,-9400.615463,74.020594,689.485948
4108.194113,-10140.821405,370.102971,229.828649
4108.194442,-10288.862594,148.041188,76.609550
4108.194772,-10214.842000,74.020594,-306.438199
4108.195102,-9844.739029,0.000000,-612.876398
4108.195432,-9696.697840,0.000000,-153.219100
4108.195761,-9622.677246,0.000000,612.876398
4108.196091,-8956.491898,0.000000,76.609550
4108.196421,-9474.636058,74.020594,-229.828649
4108.196751,-9844.739029,222.061783,229.828649
4108.197080,-10288.862594,296.082377,383.047749
4108.197410,-10066.800811,296.082377,0.000000
4108.197740,-9696.697840,-370.102971,0.000000
4108.198070,-10288.862594,74.020594,383.047749
4108.198399,-9918.759623,-296.082377,995.924147
4108.198729,-9548.656652,-370.102971,-76.609550
4108.199059,-9252.574275,-444.123565,-383.047749
4108.199388,-9622.677246,-592.164754,306.438199
4108.199718,-9770.718434,-370.102971,1378.971896
4108.200048,-9474.636058,0.000000,1378.971896
4108.200378,-9548.656652,0.000000,1072.533697
4108.200707,-9548.656652,-666.185348,1378.971896
4108.201037,-9548.656652,0.000000,612.876398
4108.201367,-9548.656652,0.000000,612.876398
4108.201697,-9992.780217,148.041188,306.438199
4108.202026,-9770.718434,148.041188,383.047749
4108.202356,-9844.739029,148.041188,153.219100
4108.202686,-9992.780217,148.041188,153.219100
4108.203016,-9918.759623,0.000000,153.219100
4108.203345,-9622.677246,444.123565,0.000000
4108.203675,-9548.656652,-888.247130,-689.485948
4108.204005,-9474.636058,222.061783,383.047749
4108.204334,-9696.697840,370.102971,1991.848295
4108.204664,-10584.944971,814.226536,612.876398
4108.204994,-10658.965565,148.041188,-229.828649
4108.205324,-10214.842000,518.144159,-766.095498
4108.205653,-9622.677246,518.144159,0.000000
4108.205983,-9696.697840,592.164754,-536.266849
4108.206313,-9844.739029,666.185348,-383.047749
4108.206643,-9474.636058,74.020594,76.609550
4108.206972,-9474.636058,518.144159,0.000000
4108.207302,-10214.842000,296.082377,-766.095498
4108.207632,-10955.047942,444.123565,-919.314598
4108.207962,-10140.821405,296.082377,-229.828649
4108.208291,-9400.615463,74.020594,459.657299
4108.208621,-9326.594869,0.000000,1378.971896
4108.208951,-10140.821405,74.020594,1838.629195
4108.209280,-9844.739029,444.123565,1225.752797
4108.209610,-9696.697840,-296.082377,0.000000
4108.209940,-10066.800811,74.020594,-459.657299
4108.210270,-10362.883188,-148.041188,0.000000
4108.210599,-9770.718434,-222.061783,536.266849
4108.210929,-8586.388927,-592.164754,842.705048
4108.211259,-8882.471304,-296.082377,995.924147
4108.211589,-10214.842000,148.041188,842.705048
4108.211918,-10732.986159,74.020594,383.047749
4108.212248,-10807.006753,-74.020594,0.000000
4108.212578,-10362.883188,296.082377,229.828649
4108.212907,-9548.656652,296.082377,1378.971896
4108.213237,-9474.636058,370.102971,919.314598
4108.213567,-9622.677246,-222.061783,536.266849
4108.213897,-10140.821405,74.020594,-459.657299
4108.214226,-9622.677246,296.082377,76.609550
4108.214556,-9992.780217,148.041188,-306.438199
4108.214886,-9696.697840,296.082377,0.000000
4108.215216,-9104.533087,0.000000,153.219100
4108.215546,-8956.491898,370.102971,153.219100
4108.215875,-8956.491898,-518.144159,-229.828649
4108.216205,-10436.903782,-74.020594,-612.876398
4108.216535,-11103.089130,-444.123565,383.047749
4108.216865,-9992.780217,-370.102971,1072.533697
4108.217195,-8290.306550,-666.185348,459.657299
4108.217524,-8808.450710,0.000000,0.000000
4108.217854,-9326.594869,222.061783,0.000000
4108.218184,-10066.800811,444.123565,0.000000
4108.218514,-10362.883188,518.144159,-76.609550
4108.218844,-10658.965565,222.061783,76.609550
4108.219174,-10066.800811,296.082377,383.047749
4108.219503,-9548.656652,0.000000,-76.609550
4108.219833,-9548.656652,148.041188,-383.047749
4108.220163,-10066.800811,148.041188,76.609550
4108.220493,-10140.821405,0.000000,76.609550
4108.220823,-10510.924376,0.000000,919.314598
4108.221152,-10658.965565,222.061783,1378.971896
4108.221482,-9992.780217,444.123565,1149.143247
4108.221812,-9992.780217,0.000000,-459.657299
4108.222142,-9622.677246,74.020594,-459.657299
4108.222472,-9770.718434,-148.041188,-459.657299
4108.222802,-9474.636058,148.041188,459.657299
4108.223131,-9474.636058,-222.061783,766.095498
4108.223461,-9252.574275,0.000000,1072.533697
4108.223791,-9474.636058,-592.164754,919.314598
4108.224121,-10510.924376,-444.123565,459.657299
4108.224451,-10436.903782,-962.267725,0.000000
4108.224780,-10140.821405,-592.164754,612.876398
4108.225110,-8882.471304,-740.205942,766.095498
4108.225440,-9252.574275,-444.123565,995.924147
4108.225770,-9252.574275,0.000000,842.705048
4108.226100,-9770.718434,0.000000,0.000000
4108.226430,-9918.759623,296.082377,-612.876398
4108.226759,-10362.883188,-296.082377,-766.095498
4108.227089,-10214.842000,0.000000,0.000000
4108.227419,-9770.718434,0.000000,153.219100
4108.227749,-9474.636058,-222.061783,76.609550
4108.228079,-8956.491898,-592.164754,-536.266849
4108.228408,-9474.636058,-296.082377,-536.266849
4108.228738,-10436.903782,-296.082377,383.047749
4108.229068,-10214.842000,0.000000,842.705048
4108.229398,-10214.842000,222.061783,766.095498
4108.229728,-10066.800811,814.226536,1072.533697
4108.230058,-10362.883188,518.144159,536.266849
4108.230387,-10140.821405,222.061783,-536.266849
4108.230717,-9400.615463,0.000000,-612.876398
4108.231047,-9474.636058,370.102971,0.000000
4108.231377,-9326.594869,740.205942,842.705048
4108.231707,-9696.697840,592.164754,-76.609550
4108.232036,-9992.780217,740.205942,-536.266849
4108.232366,-10214.842000,592.164754,-766.095498
4108.232696,-10510.924376,518.144159,0.000000
4108.233026,-10658.965565,74.020594,229.828649
4108.233356,-10288.862594,370.102971,1455.581446
4108.233686,-8956.491898,148.041188,1608.800546
4108.234015,-9400.615463,666.185348,536.266849
4108.234345,-9770.718434,370.102971,-766.095498
4108.234675,-10807.006753,740.205942,76.609550
4108.235005,-9696.697840,444.123565,842.705048
4108.235335,-9474.636058,222.061783,919.314598
4108.235664,-9844.739029,222.061783,536.266849
4108.235994,-10140.821405,0.000000,689.485948
4108.236324,-8956.491898,-296.082377,-612.876398
4108.236654,-8882.471304,-74.020594,-1378.971896
4108.236984,-9770.718434,370.102971,-536.266849
4108.237314,-9696.697840,0.000000,689.485948
4108.237643,-9400.615463,148.041188,842.705048
4108.237973,-9326.594869,444.123565,459.657299
4108.238303,-10066.800811,370.102971,383.047749
4108.238633,-9548.656652,-592.164754,-229.828649
4108.238963,-9622.677246,0.000000,-689.485948
4108.239292,-9030.512492,0.000000,-306.438199
4108.239622,-9622.677246,0.000000,612.876398
4108.239952,-9918.759623,444.123565,229.828649
4108.240282,-9400.615463,-370.102971,-76.609550
4108.240612,-9918.759623,74.020594,-306.438199
4108.240942,-10288.862594,0.000000,-153.219100
4108.241271,-10955.047942,222.061783,0.000000
4108.241601,-9548.656652,-148.041188,76.609550
4108.241931,-9326.594869,0.000000,229.828649
4108.242261,-9252.574275,148.041188,229.828649
4108.242591,-9992.780217,296.082377,-306.438199
4108.242920,-10362.883188,-518.144159,-306.438199
4108.243250,-9844.739029,-592.164754,-76.609550
4108.243580,-9696.697840,-666.185348,919.314598
4108.243910,-9400.615463,-814.226536,1072.533697
4108.244240,-9178.553681,-518.144159,459.657299
4108.244569,-9326.594869,-814.226536,766.095498
4108.244899,-9326.594869,-444.123565,306.438199
4108.245229,-9548.656652,-518.144159,229.828649
4108.245559,-10066.800811,0.000000,383.047749
4108.245889,-10066.800811,0.000000,612.876398
4108.246219,-9992.780217,0.000000,766.095498
4108.246548,-10362.883188,148.041188,459.657299
4108.246878,-10510.924376,-222.061783,0.000000
4108.247208,-9548.656652,-148.041188,-76.609550
4108.247538,-9252.574275,-592.164754,306.438199
4108.247868,-9548.656652,0.000000,1455.581446
4108.248197,-10066.800811,74.020594,1225.752797
4108.248527,-9770.718434,666.185348,0.000000
4108.248857,-9918.759623,74.020594,-612.876398
4108.249187,-10732.986159,0.000000,-306.438199
4108.249517,-10362.883188,-444.123565,383.047749
4108.249847,-9474.636058,-370.102971,-459.657299
4108.250176,-8882.471304,-444.123565,689.485948
4108.250506,-9548.656652,-148.041188,766.095498
4108.250836,-9400.615463,-370.102971,612.876398
4108.251166,-9474.636058,0.000000,-459.657299
4108.251496,-9918.759623,148.041188,-153.219100
4108.251825,-10881.027347,592.164754,995.924147
4108.252155,-10362.883188,296.082377,919.314598
4108.252485,-9326.594869,148.041188,-76.609550
4108.252815,-9252.574275,222.061783,383.047749
4108.253145,-10066.800811,222.061783,76.609550
4108.253475,-10066.800811,0.000000,0.000000
4108.253804,-9178.553681,222.061783,-459.657299
4108.254134,-9030.512492,296.082377,229.828649
4108.254464,-9622.677246,296.082377,383.047749
4108.254794,-9992.780217,74.020594,306.438199
4108.255124,-9696.697840,148.041188,0.000000
4108.255453,-9474.636058,0.000000,76.609550
4108.255783,-9622.677246,0.000000,153.219100
4108.256113,-9844.739029,0.000000,76.609550
4108.256443,-9252.574275,74.020594,229.828649
4108.256773,-9548.656652,0.000000,0.000000
4108.257103,-9400.615463,148.041188,229.828649
4108.257432,-9400.615463,0.000000,-153.219100
4108.257762,-9622.677246,148.041188,229.828649
4108.258092,-9252.574275,148.041188,229.828649
4108.258422,-8956.491898,0.000000,306.438199
4108.258752,-9770.718434,740.205942,229.828649
4108.259081,-10584.944971,592.164754,0.000000
4108.259411,-10288.862594,592.164754,0.000000
4108.259741,-9770.718434,518.144159,-383.047749
4108.260071,-10288.862594,518.144159,0.000000
4108.260401,-10288.862594,74.020594,459.657299
4108.260731,-9770.718434,0.000000,1149.143247
4108.261060,-9992.780217,0.000000,919.314598
4108.261390,-10362.883188,518.144159,229.828649
4108.261720,-9992.780217,74.020594,0.000000
4108.262050,-9326.594869,-296.082377,-229.828649
4108.262380,-9252.574275,0.000000,459.657299
4108.262709,-9622.677246,370.102971,766.095498
4108.263039,-9548.656652,74.020594,1072.533697
4108.263369,-10140.821405,0.000000,76.609550
4108.263699,-10362.883188,0.000000,0.000000
4108.264029,-9770.718434,-370.102971,-306.438199
4108.264359,-9474.636058,296.082377,0.000000
4108.264688,-9918.759623,0.000000,229.828649
4108.265018,-9178.553681,0.000000,76.609550
4108.265348,-9178.553681,-444.123565,383.047749
4108.265678,-9548.656652,0.000000,-229.828649
4108.266008,-9918.759623,-444.123565,0.000000
4108.266337,-10140.821405,0.000000,229.828649
4108.266667,-9178.553681,0.000000,306.438199
4108.266997,-8956.491898,222.061783,0.000000
4108.267327,-9326.594869,222.061783,76.609550
4108.267657,-10066.800811,0.000000,0.000000
4108.267987,-10362.883188,148.041188,0.000000
4108.268316,-10362.883188,518.144159,0.000000
4108.268646,-10584.944971,296.082377,536.266849
4108.268976,-9918.759623,-518.144159,1072.533697
4108.269306,-8956.491898,-370.102971,842.705048
4108.269636,-8882.471304,0.000000,536.266849
4108.269965,-9770.718434,222.061783,306.438199
4108.270295,-10807.006753,740.205942,153.219100
4108.270625,-10732.986159,444.123565,76.609550
4108.270955,-10288.862594,222.061783,0.000000
4108.271285,-9770.718434,0.000000,153.219100
4108.271615,-9992.780217,0.000000,306.438199
4108.271944,-9474.636058,-296.082377,459.657299
4108.272274,-9696.697840,0.000000,383.047749
4108.272604,-9326.594869,0.000000,1072.533697
4108.272934,-9992.780217,-296.082377,919.314598
4108.273264,-10436.903782,74.020594,1225.752797
4108.273593,-10510.924376,444.123565,536.266849
4108.273923,-9918.759623,0.000000,153.219100
4108.274253,-9104.533087,0.000000,-153.219100
4108.274583,-9030.512492,0.000000,-536.266849
4108.274913,-9252.574275,0.000000,0.000000
4108.275243,-9030.512492,148.041188,153.219100
4108.275572,-9326.594869,0.000000,-1225.752797
4108.275902,-9696.697840,222.061783,-766.095498
4108.276232,-9548.656652,0.000000,-689.485948
4108.276562,-9992.780217,0.000000,-383.047749
4108.276892,-9622.677246,0.000000,-306.438199
4108.277221,-9548.656652,0.000000,766.095498
4108.277551,-8882.471304,222.061783,689.485948
4108.277881,-9400.615463,0.000000,229.828649
4108.278211,-10510.924376,740.205942,-229.828649
4108.278541,-10881.027347,518.144159,-153.219100
4108.278871,-10510.924376,666.185348,-153.219100
4108.279200,-9918.759623,222.061783,-76.609550
4108.279530,-9548.656652,0.000000,766.095498
4108.279860,-9548.656652,0.000000,1302.362347
4108.280190,-9844.739029,74.020594,612.876398
4108.280520,-9992.780217,148.041188,-383.047749
4108.280849,-10066.800811,296.082377,-153.219100
4108.281179,-9622.677246,444.123565,919.314598
4108.281509,-10436.903782,518.144159,1149.143247
4108.281839,-10214.842000,222.061783,1149.143247
4108.282169,-9918.759623,-370.102971,766.095498
4108.282499,-9252.574275,0.000000,536.266849
4108.282828,-9252.574275,0.000000,-612.876398
4108.283158,-9844.739029,148.041188,76.609550
4108.283488,-9474.636058,296.082377,536.266849
4108.283818,-10066.800811,296.082377,1455.581446
4108.284148,-10436.903782,0.000000,919.314598
4108.284477,-10140.821405,-222.061783,76.609550
4108.284807,-9400.615463,-444.123565,-229.828649
4108.285137,-8660.409521,-370.102971,0.000000
4108.285467,-9474.636058,74.020594,459.657299
4108.285797,-10510.924376,296.082377,1225.752797
4108.286127,-9548.656652,0.000000,612.876398
4108.286456,-8956.491898,0.000000,-766.095498
4108.286786,-9770.718434,444.123565,-1302.362347
4108.287116,-10584.944971,296.082377,229.828649
4108.287446,-10732.986159,148.041188,766.095498
4108.287776,-9622.677246,-148.041188,383.047749
4108.288105,-9696.697840,296.082377,306.438199
4108.288435,-10140.821405,-148.041188,229.828649
4108.288765,-9992.780217,-148.041188,383.047749
4108.289095,-9548.656652,-370.102971,842.705048
4108.289425,-9548.656652,0.000000,995.924147
4108.289755,-9326.594869,0.000000,995.924147
4108.290084,-10214.842000,0.000000,536.266849
4108.290414,-10140.821405,296.082377,612.876398
4108.290744,-10214.842000,148.041188,612.876398
4108.291074,-9548.656652,814.226536,229.828649
4108.291404,-9104.533087,74.020594,-306.438199
4108.291733,-9548.656652,0.000000,-153.219100
4108.292063,-10436.903782,148.041188,306.438199
4108.292393,-10658.965565,148.041188,689.485948
4108.292723,-9992.780217,-444.123565,153.219100
4108.293053,-9474.636058,-296.082377,0.000000
4108.293383,-9474.636058,-296.082377,842.705048
4108.293712,-9400.615463,296.082377,995.924147
4108.294042,-9696.697840,0.000000,229.828649
4108.294372,-9770.718434,222.061783,-383.047749
4108.294702,-9696.697840,74.020594,383.047749
4108.295032,-10066.800811,222.061783,0.000000
4108.295361,-9548.656652,296.082377,-383.047749
4108.295691,-9400.615463,-370.102971,-383.047749
4108.296021,-9252.574275,-518.144159,-383.047749
4108.296351,-9400.615463,-888.247130,-76.609550
4108.296681,-9918.759623,-74.020594,306.438199
4108.297011,-9474.636058,-666.185348,536.266849
4108.297340,-9770.718434,-666.185348,536.266849
4108.297670,-9474.636058,0.000000,306.438199
4108.298000,-9622.677246,-74.020594,842.705048
4108.298330,-9992.780217,0.000000,689.485948
4108.298660,-9992.780217,-222.061783,536.266849
4108.298989,-10362.883188,0.000000,153.219100
4108.299319,-10732.986159,0.000000,1149.143247
4108.299649,-9696.697840,0.000000,766.095498
4108.299979,-9400.615463,74.020594,-306.438199
4108.300309,-9326.594869,148.041188,-689.485948
4108.300639,-10140.821405,148.041188,-766.095498
4108.300968,-9474.636058,74.020594,0.000000
4108.301298,-9252.574275,74.020594,-306.438199
4108.301628,-10066.800811,296.082377,459.657299
4108.301958,-10436.903782,444.123565,1225.752797
4108.302288,-9992.780217,0.000000,459.657299
4108.302617,-10510.924376,0.000000,0.000000
4108.302947,-10807.006753,222.061783,76.609550
4108.303277,-10066.800811,0.000000,842.705048
4108.303607,-9178.553681,-148.041188,689.485948
4108.303937,-8808.450710,-148.041188,842.705048
4108.304267,-9474.636058,0.000000,842.705048
4108.304596,-9622.677246,74.020594,612.876398
4108.304926,-9844.739029,0.000000,-383.047749
4108.305256,-10066.800811,222.061783,-766.095498
4108.305586,-9178.553681,222.061783,153.219100
4108.305916,-9548.656652,370.102971,76.609550
4108.306245,-9474.636058,444.123565,0.000000
4108.306575,-9622.677246,0.000000,-536.266849
4108.306905,-9474.636058,444.123565,-383.047749
4108.307235,-9696.697840,222.061783,-766.095498
4108.307565,-10066.800811,148.041188,0.000000
4108.307895,-9992.780217,296.082377,842.705048
4108.308224,-9252.574275,592.164754,383.047749
4108.308554,-9918.759623,222.061783,-229.828649
4108.308884,-10288.862594,296.082377,306.438199
4108.309214,-10288.862594,0.000000,612.876398
4108.309544,-9622.677246,74.020594,153.219100
4108.309873,-9622.677246,0.000000,306.438199
4108.310203,-9992.780217,0.000000,995.924147
4108.310533,-9696.697840,74.020594,306.438199
4108.310863,-8956.491898,444.123565,-536.266849
4108.311193,-9622.677246,666.185348,0.000000
4108.311523,-10732.986159,444.123565,459.657299
4108.311852,-10510.924376,0.000000,383.047749
4108.312182,-10214.842000,592.164754,306.438199
4108.312512,-9474.636058,444.123565,-383.047749
4108.312842,-10140.821405,74.020594,-383.047749
4108.313172,-9548.656652,0.000000,-536.266849
4108.313501,-9178.553681,-296.082377,-536.266849
4108.313831,-9400.615463,0.000000,612.876398
4108.314161,-9696.697840,0.000000,1378.971896
4108.314491,-10214.842000,-370.102971,1149.143247
4108.314821,-9696.697840,-222.061783,383.047749
4108.315151,-9104.533087,0.000000,229.828649
4108.315480,-8956.491898,-444.123565,229.828649
4108.315810,-9474.636058,-444.123565,0.000000
4108.316140,-10288.862594,-148.041188,689.485948
4108.316470,-9622.677246,148.041188,1225.752797
4108.316800,-9326.594869,74.020594,612.876398
4108.317129,-9770.718434,0.000000,229.828649
4108.317459,-10807.006753,74.020594,-383.047749
4108.317789,-10288.862594,-518.144159,-612.876398
4108.318119,-9030.512492,-592.164754,-536.266849
4108.318448,-9104.533087,-222.061783,306.438199
4108.318778,-10066.800811,148.041188,1991.848295
4108.319108,-10510.924376,148.041188,1225.752797
4108.319438,-9992.780217,148.041188,0.000000
4108.319767,-10658.965565,518.144159,-919.314598
4108.320097,-10732.986159,370.102971,-76.609550
4108.320427,-10510.924376,296.082377,306.438199
4108.320756,-9030.512492,-370.102971,995.924147
4108.321086,-8956.491898,-222.061783,459.657299
4108.321416,-9474.636058,0.000000,536.266849
4108.321746,-10362.883188,-592.164754,-229.828649
4108.322075,-9770.718434,-592.164754,-229.828649
4108.322405,-8956.491898,-740.205942,919.314598
4108.322735,-9326.594869,-296.082377,1532.190996
4108.323065,-9696.697840,-296.082377,919.314598
4108.323394,-10066.800811,148.041188,383.047749
4108.323724,-10214.842000,148.041188,0.000000
4108.324054,-10214.842000,370.102971,-842.705048
4108.324383,-9770.718434,148.041188,-1072.533697
4108.324713,-9622.677246,444.123565,0.000000
4108.325043,-9992.780217,518.144159,919.314598
4108.325373,-9178.553681,0.000000,-76.609550
4108.325702,-9474.636058,-148.041188,-459.657299
4108.326032,-9622.677246,0.000000,-383.047749
4108.326362,-9770.718434,0.000000,229.828649
4108.326692,-9548.656652,74.020594,612.876398
4108.327021,-9696.697840,444.123565,612.876398
4108.327351,-9770.718434,518.144159,153.219100
4108.327681,-9326.594869,370.102971,-612.876398
4108.328011,-9474.636058,814.226536,-689.485948
4108.328340,-9770.718434,814.226536,0.000000
4108.328670,-10066.800811,814.226536,383.047749
4108.329000,-9474.636058,592.164754,0.000000
4108.329329,-9770.718434,370.102971,229.828649
4108.329659,-10288.862594,74.020594,306.438199
4108.329989,-10362.883188,74.020594,536.266849
4108.330319,-9104.533087,148.041188,0.000000
4108.330648,-8956.491898,370.102971,842.705048
4108.330978,-9696.697840,666.185348,612.876398
4108.331308,-10658.965565,1110.308913,612.876398
4108.331638,-10510.924376,1258.350101,76.609550
4108.331967,-10436.903782,740.205942,-306.438199
4108.332297,-10066.800811,296.082377,153.219100
4108.332627,-9622.677246,74.020594,0.000000
4108.332956,-9252.574275,-370.102971,76.609550
4108.333286,-9252.574275,-370.102971,612.876398
4108.333616,-9770.718434,-444.123565,1532.190996
4108.333946,-9696.697840,-444.123565,995.924147
4108.334275,-9400.615463,-740.205942,995.924147
4108.334605,-9770.718434,0.000000,766.095498
4108.334935,-9696.697840,0.000000,1378.971896
4108.335265,-9992.780217,148.041188,612.876398
4108.335594,-9918.759623,0.000000,0.000000
4108.335924,-10288.862594,0.000000,612.876398
4108.336254,-9622.677246,-444.123565,153.219100
4108.336583,-9844.739029,-666.185348,0.000000
4108.336913,-10288.862594,-444.123565,0.000000
4108.337243,-9474.636058,-888.247130,306.438199
4108.337573,-8660.409521,-1184.329507,76.609550
4108.337902,-9104.533087,-740.205942,383.047749
4108.338232,-10066.800811,-296.082377,919.314598
4108.338562,-9770.718434,-148.041188,612.876398
4108.338892,-9770.718434,-518.144159,0.000000
4108.339221,-9622.677246,370.102971,766.095498
4108.339551,-10658.965565,518.144159,383.047749
4108.339881,-10362.883188,74.020594,0.000000
4108.340211,-9696.697840,-296.082377,-612.876398
4108.340540,-9844.739029,-74.020594,-689.485948
4108.340870,-9992.780217,-74.020594,0.000000
4108.341200,-10214.842000,-222.061783,306.438199
4108.341529,-9474.636058,-74.020594,0.000000
4108.341859,-9178.553681,-222.061783,76.609550
4108.342189,-9844.739029,74.020594,612.876398
4108.342519,-9992.780217,0.000000,153.219100
4108.342848,-9770.718434,-148.041188,0.000000
4108.343178,-9770.718434,444.123565,536.266849
4108.343508,-9474.636058,0.000000,842.705048
4108.343838,-10732.986159,518.144159,766.095498
4108.344167,-10140.821405,148.041188,0.000000
4108.344497,-9918.759623,-518.144159,-76.609550
4108.344827,-9030.512492,0.000000,306.438199
4108.345156,-9696.697840,-296.082377,995.924147
4108.345486,-10140.821405,0.000000,1225.752797
4108.345816,-8956.491898,0.000000,1302.362347
4108.346146,-10140.821405,74.020594,0.000000
4108.346475,-10362.883188,370.102971,-612.876398
4108.346805,-9918.759623,0.000000,-995.924147
4108.347135,-9474.636058,370.102971,76.609550
4108.347465,-9104.533087,518.144159,536.266849
4108.347794,-9696.697840,296.082377,229.828649
4108.348124,-9770.718434,74.020594,153.219100
4108.348454,-9474.636058,74.020594,0.000000
4108.348783,-10140.821405,-370.102971,76.609550
4108.349113,-10584.944971,0.000000,919.314598
4108.349443,-9548.656652,0.000000,1072.533697
4108.349773,-8364.327145,296.082377,229.828649
4108.350102,-9030.512492,296.082377,-536.266849
4108.350432,-10807.006753,666.185348,-612.876398
4108.350762,-10510.924376,518.144159,-612.876398
4108.351092,-10214.842000,888.247130,-383.047749
4108.351421,-9770.718434,740.205942,0.000000
4108.351751,-10288.862594,592.164754,766.095498
4108.352081,-10066.800811,222.061783,459.657299
4108.352411,-9030.512492,74.020594,-842.705048
4108.352740,-9400.615463,0.000000,-919.314598
4108.353070,-10288.862594,370.102971,842.705048
4108.353400,-11251.130318,444.123565,1838.629195
4108.353729,-10510.924376,370.102971,689.485948
4108.354059,-9326.594869,0.000000,-306.438199
4108.354389,-9326.594869,444.123565,-76.609550
4108.354719,-9252.574275,666.185348,-612.876398
4108.355048,-9992.780217,444.123565,0.000000
4108.355378,-10140.821405,74.020594,612.876398
4108.355708,-9548.656652,296.082377,766.095498
4108.356038,-9474.636058,0.000000,459.657299
4108.356367,-9696.697840,296.082377,-383.047749
4108.356697,-9844.739029,0.000000,-612.876398
4108.357027,-9844.739029,-74.020594,153.219100
4108.357356,-9548.656652,-222.061783,0.000000
4108.357686,-9474.636058,-370.102971,1225.752797
4108.358016,-9770.718434,-296.082377,1608.800546
4108.358346,-9474.636058,-444.123565,1455.581446
4108.358675,-9474.636058,0.000000,766.095498
4108.359005,-9548.656652,518.144159,766.095498
4108.359335,-10510.924376,666.185348,0.000000
4108.359665,-10732.986159,0.000000,-76.609550
4108.359994,-10214.842000,296.082377,0.000000
4108.360324,-9474.636058,0.000000,689.485948
4108.360654,-9252.574275,-518.144159,612.876398
4108.360983,-9696.697840,-518.144159,153.219100
4108.361313,-9474.636058,-740.205942,229.828649
4108.361643,-9400.615463,-370.102971,229.828649
4108.361973,-9696.697840,74.020594,919.314598
4108.362302,-10584.944971,0.000000,1149.143247
4108.362632,-10288.862594,0.000000,1378.971896
4108.362962,-9474.636058,74.020594,536.266849
4108.363292,-9770.718434,370.102971,612.876398
4108.363621,-10140.821405,0.000000,-76.609550
4108.363951,-9696.697840,-296.082377,-383.047749
4108.364281,-9178.553681,0.000000,-383.047749
4108.364611,-9178.553681,0.000000,-459.657299
4108.364940,-10066.800811,74.020594,-459.657299
4108.365270,-9844.739029,0.000000,76.609550
4108.365600,-9252.574275,0.000000,306.438199
4108.365929,-9992.780217,148.041188,842.705048
4108.366259,-11177.109724,666.185348,919.314598
4108.366589,-10807.006753,0.000000,536.266849
4108.366919,-9622.677246,148.041188,0.000000
4108.367248,-9030.512492,-444.123565,-536.266849
4108.367578,-9326.594869,222.061783,-153.219100
4108.367908,-8882.471304,-296.082377,766.095498
4108.368238,-9400.615463,0.000000,383.047749
4108.368567,-10214.842000,148.041188,383.047749
4108.368897,-10732.986159,222.061783,995.924147
4108.369227,-10140.821405,0.000000,229.828649
4108.369556,-9474.636058,-148.041188,0.000000
4108.369886,-10288.862594,-74.020594,689.485948
4108.370216,-9992.780217,-148.041188,1378.971896
4108.370546,-9548.656652,-518.144159,842.705048
4108.370875,-9178.553681,0.000000,0.000000
4108.371205,-10066.800811,148.041188,0.000000
4108.371535,-10807.006753,518.144159,306.438199
4108.371865,-10436.903782,222.061783,306.438199
4108.372194,-9178.553681,0.000000,-306.438199
4108.372524,-9696.697840,0.000000,0.000000
4108.372854,-9770.718434,-148.041188,0.000000
4108.373183,-9696.697840,0.000000,153.219100
4108.373513,-9252.574275,222.061783,0.000000
4108.373843,-9548.656652,296.082377,0.000000
4108.374173,-10140.821405,222.061783,0.000000
4108.374502,-10288.862594,0.000000,153.219100
4108.374832,-10362.883188,370.102971,536.266849
4108.375162,-9474.636058,148.041188,612.876398
4108.375492,-8882.471304,74.020594,0.000000
4108.375821,-9252.574275,370.102971,306.438199
4108.376151,-9548.656652,222.061783,-383.047749
4108.376481,-9844.739029,370.102971,-612.876398
4108.376811,-9992.780217,222.061783,-919.314598
4108.377140,-9548.656652,296.082377,-919.314598
4108.377470,-9104.533087,666.185348,689.485948
4108.377800,-9770.718434,0.000000,383.047749
4108.378129,-9696.697840,-444.123565,229.828649
4108.378459,-10288.862594,222.061783,1225.752797
4108.378789,-10214.842000,74.020594,1149.143247
4108.379119,-9548.656652,444.123565,536.266849
4108.379448,-9770.718434,222.061783,0.000000
4108.379778,-10140.821405,222.061783,383.047749
4108.380108,-9622.677246,0.000000,459.657299
4108.380438,-9178.553681,0.000000,-612.876398
4108.380767,-9178.553681,74.020594,-383.047749
4108.381097,-10066.800811,296.082377,-383.047749
4108.381427,-9918.759623,74.020594,-383.047749
4108.381756,-9918.759623,518.144159,153.219100
4108.382086,-10658.965565,-296.082377,612.876398
4108.382416,-9548.656652,-444.123565,1378.971896
4108.382746,-9400.615463,-592.164754,1838.629195
4108.383075,-10214.842000,148.041188,1915.238745
4108.383405,-10288.862594,0.000000,1455.581446
4108.383735,-10362.883188,0.000000,1072.533697
4108.384065,-9770.718434,0.000000,153.219100
4108.384394,-9770.718434,0.000000,536.266849
4108.384724,-9918.759623,74.020594,383.047749
4108.385054,-9030.512492,-444.123565,-306.438199
4108.385383,-9326.594869,-518.144159,-995.924147
4108.385713,-9030.512492,-296.082377,-459.657299
4108.386043,-9844.739029,0.000000,153.219100
4108.386373,-9844.739029,-370.102971,229.828649
4108.386702,-9474.636058,-592.164754,612.876398
4108.387032,-9918.759623,0.000000,1685.410096
4108.387362,-9622.677246,-888.247130,1378.971896
4108.387692,-9918.759623,-370.102971,689.485948
4108.388021,-9548.656652,-666.185348,536.266849
4108.388351,-9474.636058,-518.144159,612.876398
4108.388681,-9326.594869,-148.041188,919.314598
4108.389011,-9622.677246,-148.041188,459.657299
4108.389340,-10066.800811,-148.041188,76.609550
4108.389670,-9770.718434,0.000000,-689.485948
4108.390000,-9770.718434,-74.020594,-612.876398
4108.390329,-9770.718434,-74.020594,-76.609550
4108.390659,-10214.842000,0.000000,-229.828649
4108.390989,-9770.718434,0.000000,0.000000
4108.391319,-9474.636058,222.061783,-153.219100
4108.391648,-9844.739029,222.061783,0.000000
4108.391978,-10066.800811,0.000000,459.657299
4108.392308,-9696.697840,0.000000,536.266849
4108.392638,-9696.697840,0.000000,536.266849
4108.392967,-10362.883188,0.000000,0.000000
4108.393297,-10732.986159,0.000000,536.266849
4108.393627,-9474.636058,-296.082377,459.657299
4108.393956,-9178.553681,0.000000,-153.219100
4108.394286,-9770.718434,74.020594,76.609550
4108.394616,-9844.739029,518.144159,229.828649
4108.394946,-9992.780217,518.144159,306.438199
4108.395275,-9992.780217,0.000000,-306.438199
4108.395605,-10510.924376,-222.061783,-229.828649
4108.395935,-9696.697840,74.020594,-153.219100
4108.396265,-8734.430116,-222.061783,0.000000
4108.396594,-8512.368333,0.000000,0.000000
4108.396924,-9326.594869,370.102971,229.828649
4108.397254,-9992.780217,518.144159,-689.485948
4108.397584,-10510.924376,148.041188,-153.219100
4108.397913,-9844.739029,296.082377,383.047749
4108.398243,-9844.739029,592.164754,1455.581446
4108.398573,-9696.697840,518.144159,919.314598
4108.398902,-9030.512492,222.061783,-383.047749
4108.399232,-9400.615463,518.144159,-919.314598
4108.399562,-9326.594869,518.144159,-612.876398
4108.399892,-10066.800811,518.144159,-229.828649
4108.400221,-9696.697840,666.185348,-536.266849
4108.400551,-9548.656652,222.061783,-536.266849
4108.400881,-9326.594869,296.082377,-153.219100
4108.401211,-9252.574275,-222.061783,229.828649
4108.401540,-9622.677246,-148.041188,0.000000
4108.401870,-9696.697840,296.082377,1225.752797
4108.402200,-9548.656652,74.020594,1455.581446
4108.402529,-10436.903782,444.123565,1225.752797
4108.402859,-10288.862594,370.102971,995.924147
4108.403189,-9548.656652,0.000000,306.438199
4108.403519,-9696.697840,222.061783,0.000000
4108.403848,-10066.800811,0.000000,-153.219100
4108.404178,-10066.800811,0.000000,0.000000
4108.404508,-8956.491898,296.082377,689.485948
4108.404838,-9696.697840,148.041188,0.000000
4108.405167,-10436.903782,74.020594,153.219100
4108.405497,-10362.883188,0.000000,842.705048
4108.405827,-9030.512492,74.020594,689.485948
4108.406156,-9844.739029,518.144159,76.609550
4108.406486,-10584.944971,148.041188,229.828649
4108.406816,-10288.862594,296.082377,306.438199
4108.407146,-9474.636058,74.020594,-459.657299
4108.407475,-9474.636058,-222.061783,-536.266849
4108.407805,-10066.800811,-296.082377,459.657299
4108.408135,-9918.759623,-222.061783,995.924147
4108.408465,-9252.574275,0.000000,459.657299
4108.408794,-9548.656652,-370.102971,306.438199
4108.409124,-10288.862594,-148.041188,306.438199
4108.409454,-10288.862594,0.000000,842.705048
4108.409784,-9548.656652,-444.123565,306.438199
4108.410113,-9104.533087,74.020594,-76.609550
4108.410443,-9548.656652,-148.041188,153.219100
4108.410773,-9622.677246,-296.082377,0.000000
4108.411102,-9844.739029,-296.082377,153.219100
4108.411432,-9474.636058,74.020594,536.266849
4108.411762,-9548.656652,-592.164754,383.047749
4108.412092,-9622.677246,-370.102971,536.266849
4108.412421,-9326.594869,-74.020594,76.609550
4108.412751,-9400.615463,-74.020594,0.000000
4108.413081,-9326.594869,0.000000,-306.438199
4108.413411,-9474.636058,-222.061783,0.000000
4108.413740,-9696.697840,0.000000,459.657299
4108.414070,-9918.759623,370.102971,689.485948
4108.414400,-9992.780217,296.082377,0.000000
4108.414729,-9548.656652,148.041188,-306.438199
4108.415059,-9622.677246,518.144159,0.000000
4108.415389,-10288.862594,444.123565,76.609550
4108.415719,-10214.842000,814.226536,383.047749
4108.416048,-10658.965565,518.144159,766.095498
4108.416378,-9992.780217,0.000000,612.876398
4108.416708,-9992.780217,74.020594,0.000000
4108.417038,-9474.636058,0.000000,-306.438199
4108.417368,-9844.739029,74.020594,919.314598
4108.417697,-10140.821405,370.102971,1149.143247
4108.418027,-10214.842000,518.144159,842.705048
4108.418357,-10140.821405,0.000000,383.047749
4108.418687,-9844.739029,222.061783,689.485948
4108.419016,-9178.553681,148.041188,1532.190996
4108.419346,-9474.636058,0.000000,689.485948
4108.419676,-9696.697840,0.000000,-76.609550
4108.420006,-9844.739029,-296.082377,459.657299
4108.420336,-9474.636058,-296.082377,0.000000
4108.420665,-8956.491898,-592.164754,-306.438199
4108.420995,-9178.553681,-370.102971,-459.657299
4108.421325,-8882.471304,0.000000,536.266849
4108.421655,-9030.512492,-666.185348,459.657299
4108.421985,-9844.739029,-74.020594,842.705048
4108.422314,-10510.924376,0.000000,842.705048
4108.422644,-10436.903782,-222.061783,536.266849
4108.422974,-9178.553681,-296.082377,229.828649
4108.423304,-8882.471304,-518.144159,153.219100
4108.423633,-9770.718434,0.000000,536.266849
4108.423963,-10288.862594,296.082377,0.000000
4108.424293,-9918.759623,222.061783,-1225.752797
4108.424623,-9548.656652,0.000000,-1072.533697
4108.424953,-10214.842000,74.020594,0.000000
4108.425282,-10288.862594,74.020594,0.000000
4108.425612,-9622.677246,-370.102971,76.609550
4108.425942,-9400.615463,-222.061783,153.219100
4108.426272,-10288.862594,0.000000,1149.143247
4108.426602,-10955.047942,0.000000,842.705048
4108.426931,-10584.944971,0.000000,383.047749
4108.427261,-9918.759623,148.041188,306.438199
4108.427591,-9918.759623,370.102971,1149.143247
4108.427921,-9992.780217,0.000000,153.219100
4108.428250,-9992.780217,0.000000,-383.047749
4108.428580,-9474.636058,222.061783,-76.609550
4108.428910,-10288.862594,148.041188,229.828649
4108.429240,-10436.903782,370.102971,459.657299
4108.429570,-9400.615463,-74.020594,76.609550
4108.429899,-8586.388927,-148.041188,612.876398
4108.430229,-9252.574275,148.041188,-153.219100
4108.430559,-10658.965565,222.061783,-459.657299
4108.430889,-10881.027347,74.020594,229.828649
4108.431219,-9474.636058,74.020594,1225.752797
4108.431548,-9770.718434,0.000000,1072.533697
4108.431878,-9474.636058,0.000000,536.266849
4108.432208,-9474.636058,-296.082377,229.828649
4108.432538,-8586.388927,296.082377,-919.314598
4108.432867,-8660.409521,-444.123565,-1149.143247
4108.433197,-9770.718434,0.000000,-153.219100
4108.433527,-9252.574275,0.000000,383.047749
4108.433857,-9622.677246,666.185348,0.000000
4108.434187,-9918.759623,444.123565,0.000000
4108.434516,-10066.800811,0.000000,0.000000
4108.434846,-9918.759623,222.061783,229.828649
4108.435176,-9178.553681,0.000000,153.219100
4108.435506,-9622.677246,0.000000,919.314598
4108.435836,-9918.759623,0.000000,2068.457845
4108.436165,-9474.636058,444.123565,1149.143247
4108.436495,-9918.759623,666.185348,-383.047749
4108.436825,-10436.903782,740.205942,-1455.581446
4108.437155,-10140.821405,444.123565,-842.705048
4108.437484,-9918.759623,592.164754,-76.609550
4108.437814,-9400.615463,296.082377,689.485948
4108.438144,-10510.924376,222.061783,1225.752797
4108.438474,-10288.862594,296.082377,995.924147
4108.438804,-9770.718434,0.000000,-459.657299
4108.439133,-9918.759623,-296.082377,-842.705048
4108.439463,-10436.903782,222.061783,0.000000
4108.439793,-10807.006753,74.020594,1762.019645
4108.440123,-9844.739029,296.082377,1532.190996
4108.440453,-9622.677246,444.123565,612.876398
4108.440782,-10214.842000,444.123565,-459.657299
4108.441112,-10066.800811,0.000000,-1072.533697
4108.441442,-9622.677246,0.000000,-1149.143247
4108.441772,-9696.697840,-296.082377,-459.657299
4108.442101,-9622.677246,-518.144159,1302.362347
4108.442431,-9696.697840,-296.082377,1685.410096
4108.442761,-9474.636058,-740.205942,1149.143247
4108.443091,-9474.636058,-1110.308913,-229.828649
4108.443421,-9474.636058,-444.123565,0.000000
4108.443750,-9622.677246,-444.123565,306.438199
4108.444080,-9548.656652,-148.041188,1225.752797
4108.444410,-9844.739029,518.144159,1685.410096
4108.444740,-9622.677246,74.020594,766.095498
4108.445070,-9622.677246,-148.041188,-766.095498
4108.445399,-10140.821405,-296.082377,-995.924147
4108.445729,-10362.883188,296.082377,229.828649
4108.446059,-10066.800811,0.000000,306.438199
4108.446389,-9326.594869,0.000000,229.828649
4108.446718,-9104.533087,0.000000,153.219100
4108.447048,-9474.636058,222.061783,0.000000
4108.447378,-9844.739029,444.123565,-766.095498
4108.447708,-10658.965565,0.000000,-612.876398
4108.448038,-10584.944971,0.000000,766.095498
4108.448367,-9474.636058,-148.041188,1302.362347
4108.448697,-9030.512492,0.000000,1302.362347
4108.449027,-9474.636058,0.000000,612.876398
4108.449357,-10066.800811,222.061783,0.000000
4108.449687,-9696.697840,222.061783,-689.485948
4108.450016,-9400.615463,0.000000,-306.438199
4108.450346,-9992.780217,148.041188,1532.190996
4108.450676,-9918.759623,0.000000,2451.505594
4108.451006,-10362.883188,0.000000,1149.143247
4108.451335,-10214.842000,0.000000,76.609550
4108.451665,-9844.739029,370.102971,-1225.752797
4108.451995,-9252.574275,444.123565,-459.657299
4108.452325,-9622.677246,592.164754,0.000000
4108.452655,-10214.842000,444.123565,459.657299
4108.452984,-9548.656652,888.247130,229.828649
4108.453314,-9474.636058,592.164754,-459.657299
4108.453644,-9770.718434,148.041188,-1149.143247
4108.453974,-9992.780217,-74.020594,-766.095498
4108.454304,-9178.553681,0.000000,919.314598
4108.454633,-9178.553681,148.041188,1455.581446
4108.454963,-9548.656652,0.000000,1532.190996
4108.455293,-10436.903782,0.000000,1762.019645
4108.455623,-9622.677246,-74.020594,229.828649
4108.455952,-9918.759623,296.082377,-306.438199
4108.456282,-9770.718434,444.123565,76.609550
4108.456612,-9844.739029,444.123565,229.828649
4108.456942,-9474.636058,370.102971,383.047749
4108.457272,-9178.553681,0.000000,76.609550
4108.457601,-9992.780217,-370.102971,-229.828649
4108.457931,-9844.739029,-148.041188,153.219100
4108.458261,-9548.656652,0.000000,76.609550
4108.458591,-10140.821405,74.020594,-306.438199
4108.458921,-10288.862594,0.000000,612.876398
4108.459250,-10436.903782,-74.020594,1149.143247
4108.459580,-9400.615463,0.000000,766.095498
4108.459910,-9844.739029,222.061783,612.876398
4108.460240,-9992.780217,444.123565,842.705048
4108.460569,-9992.780217,296.082377,0.000000
4108.460899,-10214.842000,148.041188,-536.266849
4108.461229,-10362.883188,148.041188,-306.438199
4108.461559,-10436.903782,0.000000,153.219100
4108.461889,-9844.739029,-296.082377,229.828649
4108.462218,-8882.471304,-666.185348,0.000000
4108.462548,-8808.450710,-74.020594,0.000000
4108.462878,-9400.615463,148.041188,0.000000
4108.463208,-10140.821405,74.020594,0.000000
4108.463538,-9770.718434,222.061783,-153.219100
4108.463867,-9992.780217,666.185348,0.000000
4108.464197,-10436.903782,370.102971,-76.609550
4108.464527,-10288.862594,0.000000,76.609550
4108.464857,-9918.759623,-296.082377,76.609550
4108.465186,-9474.636058,0.000000,0.000000
4108.465516,-9474.636058,-518.144159,153.219100
4108.465846,-9326.594869,-370.102971,76.609550
4108.466176,-8956.491898,0.000000,995.924147
4108.466506,-9474.636058,444.123565,1149.143247
4108.466835,-10362.883188,888.247130,383.047749
4108.467165,-9844.739029,444.123565,-612.876398
4108.467495,-9992.780217,444.123565,383.047749
4108.467825,-9844.739029,814.226536,689.485948
4108.468155,-10066.800811,518.144159,0.000000
4108.468484,-9992.780217,222.061783,0.000000
4108.468814,-9770.718434,-74.020594,459.657299
4108.469144,-9030.512492,0.000000,612.876398
4108.469474,-8956.491898,-296.082377,306.438199
4108.469803,-9474.636058,-296.082377,919.314598
4108.470133,-9104.533087,0.000000,1225.752797
4108.470463,-9400.615463,370.102971,536.266849
4108.470793,-10214.842000,222.061783,383.047749
4108.471123,-10362.883188,592.164754,306.438199
4108.471452,-10807.006753,740.205942,459.657299
4108.471782,-10066.800811,222.061783,-459.657299
4108.472112,-10066.800811,-148.041188,-383.047749
4108.472442,-9474.636058,-370.102971,153.219100
4108.472772,-8734.430116,-370.102971,919.314598
4108.473101,-8882.471304,0.000000,0.000000
4108.473431,-9992.780217,74.020594,-383.047749
4108.473761,-10584.944971,296.082377,383.047749
4108.474091,-9918.759623,444.123565,1532.190996
4108.474420,-10214.842000,0.000000,306.438199
4108.474750,-10658.965565,0.000000,0.000000
4108.475080,-10066.800811,-148.041188,306.438199
4108.475410,-9622.677246,-74.020594,0.000000
4108.475740,-9252.574275,0.000000,0.000000
4108.476069,-9474.636058,0.000000,0.000000
4108.476399,-9992.780217,148.041188,536.266849
4108.476729,-9918.759623,-148.041188,153.219100
4108.477059,-10362.883188,148.041188,459.657299
4108.477389,-10510.924376,-148.041188,229.828649
4108.477718,-9918.759623,-666.185348,0.000000
4108.478048,-9252.574275,-592.164754,-229.828649
4108.478378,-8438.347739,0.000000,-229.828649
4108.478708,-9992.780217,296.082377,842.705048
4108.479037,-9844.739029,0.000000,766.095498
4108.479367,-9992.780217,222.061783,536.266849
4108.479697,-10584.944971,296.082377,383.047749
4108.480027,-9844.739029,222.061783,0.000000
4108.480357,-9992.780217,0.000000,0.000000
4108.480686,-9474.636058,-74.020594,-689.485948
4108.481016,-8956.491898,0.000000,-76.609550
4108.481346,-9030.512492,0.000000,76.609550
4108.481676,-9474.636058,0.000000,0.000000
4108.482006,-9844.739029,-296.082377,153.219100
4108.482335,-9770.718434,0.000000,842.705048
4108.482665,-9474.636058,0.000000,995.924147
4108.482995,-10140.821405,0.000000,536.266849
4108.483325,-9770.718434,0.000000,689.485948
4108.483654,-9770.718434,0.000000,1072.533697
4108.483984,-9548.656652,740.205942,-229.828649
4108.484314,-9844.739029,296.082377,-153.219100
4108.484644,-10066.800811,592.164754,-153.219100
4108.484974,-9252.574275,296.082377,-919.314598
4108.485303,-9474.636058,296.082377,-919.314598
4108.485633,-9030.512492,0.000000,-919.314598
4108.485963,-9548.656652,74.020594,0.000000
4108.486293,-9548.656652,0.000000,459.657299
4108.486623,-10140.821405,0.000000,612.876398
4108.486952,-10362.883188,444.123565,2068.457845
4108.487282,-9696.697840,666.185348,2068.457845
4108.487612,-9992.780217,296.082377,459.657299
4108.487942,-10510.924376,148.041188,76.609550
4108.488271,-10288.862594,0.000000,919.314598
4108.488601,-9474.636058,74.020594,306.438199
4108.488931,-8734.430116,0.000000,229.828649
4108.489261,-9030.512492,74.020594,153.219100
4108.489591,-9992.780217,518.144159,306.438199
4108.489920,-9548.656652,148.041188,0.000000
4108.490250,-10140.821405,74.020594,-689.485948
4108.490580,-9844.739029,444.123565,459.657299
4108.490910,-10362.883188,74.020594,995.924147
4108.491240,-9770.718434,0.000000,1838.629195
4108.491569,-9326.594869,74.020594,536.266849
4108.491899,-9326.594869,-148.041188,306.438199
4108.492229,-9696.697840,-148.041188,383.047749
4108.492559,-10214.842000,-444.123565,536.266849
4108.492888,-9844.739029,0.000000,229.828649
4108.493218,-9474.636058,0.000000,842.705048
4108.493548,-9400.615463,-148.041188,306.438199
4108.493878,-9178.553681,0.000000,0.000000
4108.494208,-9770.718434,-296.082377,153.219100
4108.494537,-10658.965565,74.020594,153.219100
4108.494867,-10288.862594,0.000000,-689.485948
4108.495197,-9770.718434,0.000000,-689.485948
4108.495527,-9548.656652,222.061783,0.000000
4108.495857,-9400.615463,148.041188,0.000000
4108.496186,-9474.636058,-148.041188,-229.828649
4108.496516,-9918.759623,-444.123565,306.438199
4108.496846,-9918.759623,0.000000,0.000000
4108.497176,-10066.800811,-370.102971,842.705048
4108.497505,-9992.780217,-370.102971,689.485948
4108.497835,-9844.739029,-444.123565,689.485948
4108.498165,-9030.512492,-296.082377,0.000000
4108.498495,-9252.574275,0.000000,0.000000
4108.498825,-9844.739029,74.020594,-153.219100
4108.499154,-10881.027347,370.102971,689.485948
4108.499484,-10288.862594,370.102971,153.219100
4108.499814,-10214.842000,222.061783,-459.657299
4108.500144,-10362.883188,222.061783,-766.095498
4108.500474,-9400.615463,0.000000,-536.266849
4108.500803,-8660.409521,-74.020594,-229.828649
4108.501133,-8882.471304,222.061783,153.219100
4108.501463,-10288.862594,0.000000,536.266849
4108.501793,-10362.883188,444.123565,1455.581446
4108.502122,-10066.800811,74.020594,536.266849
4108.502452,-10140.821405,740.205942,383.047749
4108.502782,-10584.944971,518.144159,383.047749
4108.503112,-10362.883188,0.000000,0.000000
4108.503442,-8882.471304,296.082377,-459.657299
4108.503771,-8660.409521,0.000000,-766.095498
4108.504101,-8808.450710,888.247130,76.609550
4108.504431,-9474.636058,0.000000,842.705048
4108.504761,-10436.903782,444.123565,76.609550
4108.505091,-9918.759623,-370.102971,-536.266849
4108.505420,-10214.842000,370.102971,-459.657299
4108.505750,-9548.656652,-74.020594,306.438199
4108.506080,-8956.491898,-592.164754,689.485948
4108.506410,-9622.677246,-148.041188,1378.971896
4108.506739,-9548.656652,666.185348,1302.362347
4108.507069,-9548.656652,148.041188,842.705048
4108.507399,-10214.842000,222.061783,-229.828649
4108.507729,-9918.759623,148.041188,0.000000
4108.508059,-9622.677246,-74.020594,306.438199
4108.508388,-9178.553681,74.020594,0.000000
4108.508718,-9992.780217,-222.061783,459.657299
4108.509048,-9400.615463,0.000000,1072.533697
4108.509378,-9030.512492,74.020594,612.876398
4108.509708,-9622.677246,0.000000,-383.047749
4108.510037,-10955.047942,444.123565,-383.047749
4108.510367,-10658.965565,370.102971,842.705048
4108.510697,-10362.883188,518.144159,689.485948
4108.511027,-10214.842000,-370.102971,1225.752797
4108.511356,-10732.986159,-296.082377,919.314598
4108.511686,-9178.553681,-740.205942,536.266849
4108.512016,-8660.409521,-444.123565,0.000000
4108.512346,-9622.677246,74.020594,0.000000
4108.512676,-10436.903782,74.020594,1302.362347
4108.513005,-9770.718434,0.000000,0.000000
4108.513335,-9030.512492,-296.082377,-536.266849
4108.513665,-10362.883188,0.000000,-229.828649
4108.513995,-10732.986159,0.000000,153.219100
4108.514325,-9918.759623,-592.164754,229.828649
4108.514654,-8956.491898,-518.144159,0.000000
4108.514984,-8882.471304,-148.041188,0.000000
4108.515314,-10066.800811,592.164754,536.266849
4108.515644,-10066.800811,74.020594,0.000000
4108.515973,-9770.718434,-148.041188,-76.609550
4108.516303,-9844.739029,-444.123565,153.219100
4108.516633,-9400.615463,-296.082377,383.047749
4108.516963,-9918.759623,-740.205942,995.924147
4108.517293,-8882.471304,-296.082377,459.657299
4108.517622,-9030.512492,74.020594,0.000000
4108.517952,-9918.759623,296.082377,-306.438199
4108.518282,-10288.862594,296.082377,-306.438199
4108.518612,-10362.883188,296.082377,383.047749
4108.518942,-9622.677246,592.164754,995.924147
4108.519271,-10066.800811,444.123565,383.047749
4108.519601,-10362.883188,518.144159,-229.828649
4108.519931,-9400.615463,-222.061783,-612.876398
4108.520261,-8586.388927,0.000000,-612.876398
4108.520591,-8586.388927,74.020594,0.000000
4108.520920,-9696.697840,296.082377,1072.533697
4108.521250,-10288.862594,148.041188,1532.190996
4108.521580,-10214.842000,444.123565,1072.533697
4108.521910,-10732.986159,518.144159,229.828649
4108.522240,-10955.047942,370.102971,153.219100
4108.522569,-9918.759623,518.144159,229.828649
4108.522899,-9104.533087,518.144159,459.657299
4108.523229,-9992.780217,740.205942,306.438199
4108.523559,-10807.006753,370.102971,229.828649
4108.523889,-9474.636058,0.000000,-766.095498
4108.524218,-8660.409521,0.000000,-1532.190996
4108.524548,-8734.430116,148.041188,-842.705048
4108.524878,-9696.697840,222.061783,536.266849
4108.525208,-9992.780217,814.226536,612.876398
4108.525538,-9622.677246,222.061783,153.219100
4108.525867,-10362.883188,74.020594,383.047749
4108.526197,-10288.862594,-74.020594,612.876398
4108.526527,-9770.718434,296.082377,76.609550
4108.526857,-9400.615463,-370.102971,383.047749
4108.527187,-9178.553681,-740.205942,612.876398
4108.527517,-9178.553681,-888.247130,766.095498
4108.527846,-8808.450710,-222.061783,919.314598
4108.528176,-8734.430116,0.000000,306.438199
4108.528506,-9770.718434,370.102971,383.047749
4108.528836,-9548.656652,222.061783,612.876398
4108.529166,-10140.821405,222.061783,76.609550
4108.529495,-9918.759623,222.061783,-229.828649
4108.529825,-10436.903782,0.000000,-229.828649
4108.530155,-10436.903782,74.020594,229.828649
4108.530485,-9844.739029,-148.041188,153.219100
4108.530815,-9770.718434,0.000000,0.000000
4108.531144,-9622.677246,-148.041188,612.876398
4108.531474,-9622.677246,-222.061783,766.095498
4108.531804,-10214.842000,296.082377,612.876398
4108.532134,-10436.903782,148.041188,459.657299
4108.532464,-11103.089130,0.000000,229.828649
4108.532793,-10066.800811,0.000000,0.000000
4108.533123,-10362.883188,-592.164754,-536.266849
4108.533453,-9696.697840,-592.164754,0.000000
4108.533783,-8956.491898,-666.185348,229.828649
4108.534113,-9474.636058,-296.082377,612.876398
4108.534442,-9992.780217,-370.102971,459.657299
4108.534772,-10584.944971,-518.144159,229.828649
4108.535102,-10066.800811,-296.082377,-766.095498
4108.535432,-9770.718434,-666.185348,459.657299
4108.535762,-9474.636058,-814.226536,1532.190996
4108.536091,-9030.512492,-518.144159,1838.629195
4108.536421,-9252.574275,-222.061783,689.485948
4108.536751,-9844.739029,0.000000,-306.438199
4108.537081,-10510.924376,518.144159,-919.314598
4108.537411,-9696.697840,444.123565,-995.924147
4108.537740,-9474.636058,370.102971,-612.876398
4108.538070,-9622.677246,148.041188,383.047749
4108.538400,-9918.759623,222.061783,1149.143247
4108.538730,-9400.615463,-296.082377,76.609550
4108.539060,-9474.636058,-74.020594,-919.314598
4108.539390,-9252.574275,222.061783,-689.485948
4108.539719,-10362.883188,-296.082377,0.000000
4108.540049,-10214.842000,370.102971,766.095498
4108.540379,-9474.636058,222.061783,995.924147
4108.540709,-8882.471304,666.185348,0.000000
4108.541039,-8956.491898,296.082377,536.266849
4108.541368,-10214.842000,592.164754,-153.219100
4108.541698,-10510.924376,370.102971,-76.609550
4108.542028,-10732.986159,666.185348,153.219100
4108.542358,-9844.739029,1110.308913,0.000000
4108.542688,-9548.656652,222.061783,-536.266849
4108.543017,-9474.636058,0.000000,-383.047749
4108.543347,-8956.491898,0.000000,612.876398
4108.543677,-8956.491898,148.041188,689.485948
4108.544007,-9770.718434,666.185348,383.047749
4108.544337,-9992.780217,962.267725,612.876398
4108.544666,-10214.842000,814.226536,536.266849
4108.544996,-10214.842000,1110.308913,-612.876398
4108.545326,-10436.903782,666.185348,-383.047749
4108.545656,-10214.842000,518.144159,0.000000
4108.545986,-9326.594869,222.061783,0.000000
4108.546315,-9104.533087,444.123565,-306.438199
4108.546645,-9400.615463,592.164754,153.219100
4108.546975,-9622.677246,814.226536,0.000000
4108.547305,-9992.780217,962.267725,-76.609550
4108.547635,-10436.903782,592.164754,-383.047749
4108.547964,-10140.821405,888.247130,-689.485948
4108.548294,-9474.636058,518.144159,-153.219100
4108.548624,-10362.883188,296.082377,0.000000
4108.548954,-10510.924376,148.041188,0.000000
4108.549284,-9844.739029,148.041188,536.266849
4108.549613,-9400.615463,0.000000,0.000000
4108.549943,-9030.512492,296.082377,383.047749
4108.550273,-9326.594869,-444.123565,1072.533697
4108.550603,-9844.739029,222.061783,1532.190996
4108.550933,-10214.842000,0.000000,1455.581446
4108.551263,-10807.006753,-592.164754,229.828649
4108.551592,-10066.800811,-370.102971,153.219100
4108.551922,-8512.368333,-888.247130,76.609550
4108.552252,-8438.347739,-148.041188,0.000000
4108.552582,-9548.656652,148.041188,383.047749
4108.552912,-10140.821405,444.123565,76.609550
4108.553241,-9400.615463,-222.061783,-1072.533697
4108.553571,-9326.594869,296.082377,-766.095498
4108.553901,-10807.006753,74.020594,383.047749
4108.554231,-11473.192101,-148.041188,919.314598
4108.554561,-9844.739029,-740.205942,766.095498
4108.554890,-8660.409521,-888.247130,306.438199
4108.555220,-9400.615463,-814.226536,229.828649
4108.555550,-8734.430116,-592.164754,612.876398
4108.555880,-8882.471304,74.020594,306.438199
4108.556210,-9400.615463,592.164754,306.438199
4108.556539,-10732.986159,444.123565,459.657299
4108.556869,-11029.068536,0.000000,-689.485948
4108.557199,-9770.718434,-1036.288319,-1685.410096
4108.557529,-9474.636058,-740.205942,0.000000
4108.557859,-9400.615463,-666.185348,1302.362347
4108.558188,-9252.574275,-1406.391290,1149.143247
4108.558518,-8586.388927,-740.205942,1072.533697
4108.558848,-9326.594869,74.020594,995.924147
4108.559178,-10881.027347,666.185348,1149.143247
4108.559508,-11177.109724,0.000000,383.047749
4108.559837,-10732.986159,148.041188,842.705048
4108.560167,-10140.821405,0.000000,1302.362347
4108.560497,-10214.842000,-444.123565,612.876398
4108.560827,-10140.821405,-296.082377,0.000000
4108.561157,-8808.450710,-666.185348,-536.266849
4108.561486,-8586.388927,148.041188,383.047749
4108.561816,-9474.636058,148.041188,919.314598
4108.562146,-10955.047942,222.061783,919.314598
4108.562476,-10807.006753,0.000000,1608.800546
4108.562806,-9918.759623,0.000000,919.314598
4108.563136,-9844.739029,0.000000,766.095498
4108.563465,-10362.883188,0.000000,229.828649
4108.563795,-9474.636058,-296.082377,612.876398
4108.564125,-8734.430116,-296.082377,612.876398
4108.564455,-9104.533087,148.041188,153.219100
4108.564785,-9770.718434,222.061783,0.000000
4108.565114,-9474.636058,370.102971,306.438199
4108.565444,-9474.636058,148.041188,-76.609550
4108.565774,-10510.924376,74.020594,-689.485948
4108.566104,-10436.903782,0.000000,0.000000
4108.566434,-9400.615463,0.000000,153.219100
4108.566763,-9104.533087,74.020594,-153.219100
4108.567093,-9548.656652,296.082377,-229.828649
4108.567423,-10066.800811,222.061783,383.047749
4108.567753,-8956.491898,814.226536,-612.876398
4108.568083,-9918.759623,444.123565,-919.314598
4108.568412,-9992.780217,444.123565,-612.876398
4108.568742,-10288.862594,-222.061783,76.609550
4108.569072,-9622.677246,0.000000,-383.047749
4108.569402,-9104.533087,0.000000,383.047749
4108.569732,-9696.697840,0.000000,0.000000
4108.570061,-9548.656652,444.123565,76.609550
4108.570391,-9548.656652,592.164754,229.828649
4108.570721,-10362.883188,962.267725,-306.438199
4108.571051,-11103.089130,592.164754,0.000000
4108.571381,-11177.109724,222.061783,306.438199
4108.571710,-9400.615463,0.000000,-766.095498
4108.572040,-8364.327145,0.000000,-383.047749
4108.572370,-8660.409521,222.061783,76.609550
4108.572700,-9178.553681,222.061783,536.266849
4108.573030,-10362.883188,814.226536,153.219100
4108.573359,-10955.047942,740.205942,-306.438199
4108.573689,-10510.924376,444.123565,-153.219100
4108.574019,-9844.739029,444.123565,0.000000
4108.574349,-9400.615463,148.041188,459.657299
4108.574679,-9474.636058,0.000000,1302.362347
4108.575008,-9104.533087,74.020594,1455.581446
4108.575338,-9548.656652,296.082377,1225.752797
4108.575668,-9844.739029,148.041188,153.219100
4108.575998,-9844.739029,74.020594,76.609550
4108.576328,-10066.800811,814.226536,0.000000
4108.576658,-10214.842000,370.102971,-383.047749
4108.576987,-9992.780217,0.000000,0.000000
4108.577317,-8882.471304,0.000000,0.000000
4108.577647,-8882.471304,592.164754,-306.438199
4108.577977,-9992.780217,444.123565,-76.609550
4108.578307,-10584.944971,222.061783,0.000000
4108.578636,-10140.821405,296.082377,612.876398
4108.578966,-9918.759623,296.082377,536.266849
4108.579296,-9770.718434,-592.164754,459.657299
4108.579626,-9548.656652,-370.102971,689.485948
4108.579956,-9030.512492,-370.102971,1072.533697
4108.580285,-8734.430116,0.000000,1072.533697
4108.580615,-9992.780217,0.000000,612.876398
4108.580945,-11029.068536,444.123565,0.000000
4108.581275,-10584.944971,0.000000,-766.095498
4108.581605,-9770.718434,0.000000,-612.876398
4108.581934,-9548.656652,-592.164754,306.438199
4108.582264,-9844.739029,0.000000,1149.143247
4108.582594,-9474.636058,-444.123565,306.438199
4108.582924,-9030.512492,-296.082377,-459.657299
4108.583254,-9696.697840,148.041188,-1072.533697
4108.583583,-10732.986159,-370.102971,0.000000
4108.583913,-10584.944971,-148.041188,-153.219100
4108.584243,-10288.862594,-444.123565,0.000000
4108.584573,-9770.718434,0.000000,842.705048
4108.584903,-9992.780217,-1184.329507,1149.143247
4108.585232,-9918.759623,-740.205942,612.876398
4108.585562,-9104.533087,-888.247130,689.485948
4108.585892,-9178.553681,-148.041188,689.485948
4108.586222,-9326.594869,0.000000,842.705048
4108.586552,-10288.862594,-296.082377,229.828649
4108.586881,-10658.965565,-888.247130,306.438199
4108.587211,-10066.800811,-518.144159,383.047749
4108.587541,-9474.636058,-592.164754,-919.314598
4108.587871,-9104.533087,-592.164754,-536.266849
4108.588201,-9104.533087,-518.144159,0.000000
4108.588531,-9326.594869,-370.102971,76.609550
4108.588860,-9252.574275,370.102971,229.828649
4108.589190,-9696.697840,-148.041188,306.438199
4108.589520,-10732.986159,666.185348,919.314598
4108.589850,-10214.842000,-444.123565,919.314598
4108.590180,-10362.883188,-148.041188,0.000000
4108.590509,-9474.636058,-74.020594,229.828649
4108.590839,-9326.594869,0.000000,-153.219100
4108.591169,-9252.574275,296.082377,306.438199
4108.591499,-9474.636058,296.082377,153.219100
4108.591829,-9770.718434,814.226536,1149.143247
4108.592158,-9844.739029,1036.288319,842.705048
4108.592488,-10584.944971,1036.288319,536.266849
4108.592818,-11029.068536,814.226536,383.047749
4108.593148,-9992.780217,1184.329507,-306.438199
4108.593478,-9770.718434,666.185348,-306.438199
4108.593807,-9622.677246,1036.288319,-1378.971896
4108.594137,-9548.656652,444.123565,-1455.581446
4108.594467,-9252.574275,666.185348,229.828649
4108.594797,-9252.574275,666.185348,383.047749
